time,seconds_elapsed,z,y,x
1733860591098361300,0.018361328125,-0.09719196172952652,0.21455314352363347,-0.018960428796708582
1733860591108312000,0.02831201171875,-0.1176794539630413,0.09443228775784372,-0.007109247483313083
1733860591118263300,0.03826318359375,-0.08842822503745555,0.0027098434805870055,-0.021336802539229392
1733860591128214000,0.048214111328125,-0.02879822446107864,-0.006410013172775507,-0.052232876062393185
1733860591138165200,0.058165283203125,-0.010708441019058226,0.05346548659726977,-0.023048574893176556
1733860591148115200,0.068115234375,0.028005612778663633,0.08074789966791868,0.00395312153995037
1733860591158066200,0.078066162109375,-0.0077723875671625135,0.03878346577212214,0.050987552176415915
1733860591168017200,0.08801708984375,-0.018214286604523656,0.0014358780220150946,0.09330459890216589
1733860591177968400,0.097968505859375,-0.021081950995326042,-0.05799333928525448,0.1104182307884097
1733860591187918000,0.10791796875,-0.07761807720959187,-0.09232947025969623,0.14681933146864176
1733860591197869300,0.117869384765625,-0.1618558648198843,-0.10279065851941704,0.1402975284844637
1733860591207820300,0.1278203125,-0.10772153905034064,-0.1102966502353549,0.08307342000603675
1733860591217771300,0.137771240234375,-0.014002806389331816,-0.1438971604116261,-0.02134001740962267
1733860591227721200,0.14772119140625,-0.01720423277914524,-0.1990121677815914,-0.05136339975148439
1733860591237672400,0.15767236328125,-0.10720832883119583,-0.1977637751556933,-0.09585691373348236
1733860591247623200,0.167623046875,-0.17520049956142902,-0.19779270898923276,-0.19033932424336672
1733860591257574400,0.177574462890625,-0.18749357942342756,-0.17343948123827577,-0.20103782839030027
1733860591267525000,0.187525146484375,-0.22058511716425416,-0.18020780632942915,-0.14552461548298595
1733860591277475000,0.19747509765625,-0.16502046633064746,-0.03010112375319004,-0.0415334951326251
1733860591287426300,0.20742626953125,0.050398646372556685,0.13559680344760416,0.005156067588925361
1733860591297377300,0.217377197265625,0.26487960144281386,0.17809359065443275,-0.019426877264678476
1733860591307328300,0.227328369140625,0.3108084089249372,0.11920125670284032,-0.0919707199499011
1733860591317278200,0.2372783203125,0.20563889244496822,0.09568696399405598,-0.10464373904019593
1733860591327229200,0.247229248046875,0.17142507267594337,0.06470891127586365,0.0721568891942501
1733860591337180200,0.25718017578125,0.19259996265172957,0.049831367878615855,0.31156945642530914
1733860591347131100,0.267131103515625,0.14389818332493304,0.09828896318599581,0.5109203546419739
1733860591357082000,0.27708203125,0.026266075634956358,0.11244169944003224,0.6108449562057853
1733860591367032000,0.287031982421875,-0.07082008763253689,0.07257555299773812,0.5913324464842676
1733860591376983000,0.296983154296875,-0.1308159989118576,0.020811463490873573,0.5838125723734497
1733860591386934000,0.30693408203125,-0.1573509546160698,-0.013140636602044104,0.6435767207235098
1733860591396885000,0.316885009765625,-0.14383213235139847,0.01969809542149305,0.786217597463727
1733860591406835200,0.326835205078125,-0.08898878152966498,0.01567453899383545,0.9115931588873266
1733860591416786000,0.336785888671875,-0.07424246329665184,-0.03192643948420882,0.9408984560877084
1733860591426737200,0.346737060546875,-0.04531272141039371,-0.3713764210037887,0.8329296642780304
1733860591436688000,0.35668798828125,-0.24154607212841508,-0.3850863819263875,0.9096554688230156
1733860591446639000,0.36663916015625,-0.6331161169856786,-0.29182766799256205,0.9718108962237835
1733860591456589000,0.376589111328125,-1.0083686487704515,-0.5151823960006237,0.7882777448639273
1733860591466540000,0.3865400390625,-1.2342968805283308,-0.7184083820849657,0.5850108422473073
1733860591476491000,0.396490966796875,-1.2414601962864398,-0.8480765261359512,0.3810845989391207
1733860591486442000,0.40644189453125,-1.0625929909110068,-0.9435302658960223,0.29617314985096455
1733860591496392000,0.416391845703125,-0.7338876907676458,-0.9289972981527447,0.23811785124540327
1733860591506343200,0.42634326171875,-0.49262978793084616,-0.888693198684603,0.1054819434300065
1733860591516294000,0.4362939453125,-0.20856676259040832,-0.9443100180968642,-0.02141132908016443
1733860591526245000,0.4462451171875,0.004217909955978393,-0.8687412746325135,-0.11046353123486041
1733860591536196000,0.456196044921875,0.3033113311678171,-0.8273616548873484,-0.0009133154526352882
1733860591546145800,0.466145751953125,0.5116635742247104,-0.6668646573305129,0.20631284618377685
1733860591556097000,0.476096923828125,0.5910778872013092,-0.4561388170100748,0.31099399462491273
1733860591566048000,0.486048095703125,0.6820873609036207,-0.3066355071544647,0.3348141384124756
1733860591575999000,0.4959990234375,0.7023819609135389,-0.09391104036271572,0.37719811289459465
1733860591585949000,0.505948974609375,0.693698303720355,0.07471760652773082,0.36458734538555143
1733860591595900200,0.515900146484375,0.8259668395280838,0.22838687695637344,0.28147797728329893
1733860591605851000,0.525850830078125,1.1515987235754728,0.3600263941455632,0.2633940390601754
1733860591615802000,0.535802001953125,1.3940169023633002,0.4210060557652265,0.2975339168101549
1733860591625752800,0.5457529296875,1.5657669692099094,0.38615233065746724,0.40676644494533537
1733860591635703000,0.555703125,1.7386989393174648,0.3056155895221978,0.5939890984728932
1733860591645654000,0.565654052734375,1.846251551541686,0.23515819772221147,0.8483052203252911
1733860591655605000,0.57560498046875,1.89505094602406,0.20206742716636508,1.1907903317570685
1733860591665556000,0.585555908203125,1.8386463372349737,0.19315935010015964,1.6045198937132954
1733860591675506200,0.595506103515625,1.7504454912126064,0.24948497536890207,2.0090715852186083
1733860591685457000,0.605456787109375,1.7742255952507255,0.3583691284578293,2.371501021917909
1733860591695408000,0.615408203125,1.8757506177484988,0.49483694258630273,2.6585709739893675
1733860591705359000,0.625359130859375,1.941737878397107,0.6334457873314618,2.820068234629929
1733860591715309000,0.63530908203125,1.958884828031063,0.704470092299208,2.8668858076453207
1733860591725260000,0.645260009765625,1.9308277773261069,0.742712509997189,2.803012178149819
1733860591735211000,0.6552109375,1.662654395034909,0.741983318939805,2.6422897012740374
1733860591745162000,0.665161865234375,1.4726356810480354,0.5754665496367961,2.3412419311240313
1733860591755113200,0.67511328125,1.3046172019451856,0.2546764795973897,1.7974559564515946
1733860591765063200,0.685063232421875,1.1985726561963557,-0.1007250129601918,0.9978737043716013
1733860591775014000,0.695013916015625,1.0299147101461887,-0.4012979504063725,0.07496069456860423
1733860591784965000,0.704965087890625,0.8723819692224264,-0.6111624977223574,-0.8455554101604967
1733860591794915800,0.714915771484375,0.6861977188318967,-0.7379585204031318,-1.7204115874767303
1733860591804866000,0.724865966796875,0.3410369584500789,-0.7427611714445054,-2.4202169759005305
1733860591814817000,0.734817138671875,-0.10956570561230182,-0.5442656844807788,-2.836200162002444
1733860591824768000,0.74476806640625,-0.562401827815175,-0.28948841139003634,-2.9962580374896524
1733860591834719000,0.754718994140625,-0.9897679931968449,0.03474935141783207,-2.8614292958050966
1733860591844670000,0.764669921875,-1.3813169952660798,0.31344661194141954,-2.565972185268998
1733860591854620000,0.774619873046875,-1.3226409344136714,0.4866264558628201,-2.3449146282874045
1733860591864571100,0.784571044921875,-0.9557552489578723,0.4876898107780143,-2.2796499828249215
1733860591874521900,0.79452197265625,-0.6531488511890172,0.38625984615255143,-2.1881503875181076
1733860591884473000,0.80447314453125,-0.39274084220230576,0.24710907655041664,-2.1893065718159077
1733860591894423000,0.814423095703125,-0.18682313281595705,0.0020501374628394842,-2.3169787197440863
1733860591904374000,0.8243740234375,-0.03448386888206005,-0.25134130729269233,-2.34924520483762
1733860591914325000,0.834324951171875,0.04581248762607574,-0.3803363378550857,-2.139383726261556
1733860591924276200,0.844276123046875,0.1150175412774086,-0.37187859837226567,-1.7352105126798152
1733860591934227000,0.85422705078125,0.210523741877079,-0.26713351784944533,-1.3768030249729752
1733860591944177000,0.864177001953125,0.28605975211560725,-0.1403300425145775,-1.0755965571299195
1733860591954128100,0.874128173828125,0.33071371735632416,-0.007883264063112438,-0.7997171305060387
1733860591964079000,0.8840791015625,0.3118506114542484,0.12160196116901933,-0.613833032105863
1733860591974030000,0.894030029296875,0.22461656463742255,0.19687643439453095,-0.48236295319944616
1733860591983980000,0.90397998046875,0.12281857041716575,0.2409781543136574,-0.4874854107797146
1733860591993931000,0.913930908203125,0.000436053329706192,0.2713867731134407,-0.5814855907306075
1733860592003882000,0.923882080078125,-0.12317629781365394,0.27186074730074034,-0.6775573162585496
1733860592013833000,0.9338330078125,-0.2251461414694786,0.2596413902620785,-0.7263979195341468
1733860592023784000,0.943783935546875,-0.28355916747152804,0.22275058810245243,-0.6800181534141302
1733860592033734100,0.953734130859375,-0.30659692870974536,0.14533447233890182,-0.590112257039547
1733860592043684900,0.963684814453125,-0.292401230096817,0.05025863968024496,-0.42027620712071656
1733860592053636000,0.973635986328125,-0.2791121249347925,-0.048539460337976924,-0.2251017178058624
1733860592063587000,0.983587158203125,-0.2404828268110752,-0.11866036389232612,-0.026173428915441034
1733860592073537000,0.993537109375,-0.2330751809030771,-0.17283990790992973,0.17049685191512107
1733860592083488000,1.003488037109375,-0.2131809783875942,-0.19704903274876995,0.3284551247745752
1733860592093439000,1.01343896484375,-0.18720365656614302,-0.2206466380931437,0.4694844746649265
1733860592103390000,1.023389892578125,-0.12439853308498859,-0.22322227900112046,0.5356956071972847
1733860592113341200,1.033341064453125,-0.052587096327543256,-0.24126765704583375,0.5615460877686739
1733860592123291100,1.043291015625,-0.004552840998768806,-0.22983395222583786,0.5355339868947864
1733860592133242000,1.0532421875,0.006979775884747505,-0.20110510320654137,0.48861090767830606
1733860592143193000,1.063193115234375,-0.014465747725963592,-0.16311198409451172,0.3957651584595442
1733860592153144000,1.07314404296875,-0.0193453364610672,-0.09985641343211754,0.31713322803229094
1733860592163094000,1.083093994140625,0.004184592208266258,0.012813834066782145,0.253795605109632
1733860592173045000,1.093044921875,0.002468435940146446,0.04997713302485644,0.17811697153002023
1733860592182996000,1.102995849609375,0.007160977670550346,0.04969141141865402,0.07114625084698199
1733860592192947000,1.112947021484375,-0.03783259478807449,0.049044016893208024,-0.043755847357213495
1733860592202897200,1.122897216796875,-0.11467501145005225,0.04084206053605303,-0.1448483236566186
1733860592212847900,1.132847900390625,-0.1819020430266857,0.059997482181899243,-0.25953414876163006
1733860592222799000,1.142799072265625,-0.19772914223372934,0.06226553671173751,-0.3874637785822153
1733860592232749800,1.152749755859375,-0.24063714058995245,0.1017882217449136,-0.5026090378925204
1733860592242701000,1.162701171875,-0.265567583706975,0.12718231858462095,-0.6003071955785155
1733860592252651000,1.172651123046875,-0.25263094524443147,0.16078869224609807,-0.6569941284403205
1733860592262602000,1.18260205078125,-0.2336725622743368,0.19891427863137795,-0.6578162584781646
1733860592272553000,1.192552978515625,-0.21650281628668308,0.2210707452567294,-0.6375687124803662
1733860592282504200,1.202504150390625,-0.18025602938532828,0.21803048251168802,-0.5921957853153348
1733860592292454000,1.212453857421875,-0.14795125810801982,0.19173960122903808,-0.5796656818270683
1733860592302405000,1.222405029296875,-0.10919804134368896,0.1950497486903332,-0.5433151422902941
1733860592312356000,1.232356201171875,-0.06710954267680645,0.1945484663709998,-0.5196145332291722
1733860592322307000,1.24230712890625,-0.042615152889490124,0.20898383722500874,-0.48662265647053715
1733860592332258000,1.252258056640625,0.01336041683256626,0.2249208448136225,-0.447996865478158
1733860592342208000,1.2622080078125,0.043213703304529186,0.2283771227473393,-0.3834402221545577
1733860592352159000,1.272158935546875,0.03481237018406391,0.2465468578240834,-0.3201420544594526
1733860592362110000,1.28210986328125,0.04057750958204269,0.21691307758800685,-0.23796090711802242
1733860592372061000,1.29206103515625,0.02142097369134426,0.17973512905007227,-0.18163579330593346
1733860592382011000,1.302010986328125,0.013914543583989143,0.11765059319473803,-0.16376199070215225
1733860592391962000,1.311962158203125,-0.01360182437300682,0.08874025012869387,-0.11541443164050579
1733860592401912800,1.321912841796875,-0.09134674283266067,0.063852312712837,-0.07908230454325675
1733860592411864000,1.331864013671875,-0.16138006400167942,0.0398950437432155,-0.05016600666046142
1733860592421815000,1.34181494140625,-0.19164193127453327,0.036707572813518344,-0.011655658741295337
1733860592431765000,1.351764892578125,-0.20805121428370474,0.015283822643198072,0.024889818845689294
1733860592441716000,1.361716064453125,-0.16847323713302612,-0.005624671481363475,0.08035597774088382
1733860592451667000,1.3716669921875,-0.11313538079261778,0.01687295499816537,0.14432882982715964
1733860592461618000,1.381617919921875,-0.05257540588974952,0.009419424121826886,0.16644596908912063
1733860592471568000,1.39156787109375,-0.0003863689690828323,-0.037789413233473894,0.15709478789791465
1733860592481519000,1.40151904296875,0.026083704805374145,-0.0766508761452511,0.09208338654413818
1733860592491470000,1.411469970703125,0.043021980124711985,-0.11293244209904223,0.06606602497324347
1733860592501421000,1.421421142578125,0.1296264968663454,-0.07650832586940377,0.12418971263989806
1733860592511371000,1.43137109375,0.15732640469670295,0.06252634307239205,0.26289295767024157
1733860592521322000,1.441322021484375,0.09952245050370692,0.19635321423802524,0.2796978158682585
1733860592531273000,1.45127294921875,0.05531681355237961,0.2994391659095883,0.13416194833889603
1733860592541224000,1.461223876953125,0.0825175396889448,0.3247166688986122,-0.10536562357395887
1733860592551175000,1.4711748046875,0.11976502806544304,0.24840313494894653,-0.2812602428793907
1733860592561125000,1.481125,0.11923778932094574,0.08680193900987505,-0.3283110401287675
1733860592571075800,1.491075927734375,0.08752630776166916,-0.03183364663422107,-0.251046598662436
1733860592581027000,1.501027099609375,0.048076340904831885,-0.09980656467471272,-0.17031112008467317
1733860592590977800,1.510977783203125,-0.006335632762312889,-0.10734726237785071,-0.05127966699078679
1733860592600928000,1.520927978515625,-0.02499415600299835,-0.038519882932491596,0.039951778899133206
1733860592610879000,1.53087890625,0.06447685608565806,0.058451458316296334,0.154106419736892
1733860592620830000,1.540829833984375,0.15698329034745692,0.13686357198040933,0.23946502807065842
1733860592630781000,1.550781005859375,0.19615151765346525,0.17464465577695518,0.2538255618564784
1733860592640732200,1.560732177734375,0.159803023943305,0.1652934745857492,0.23442104255408047
1733860592650681900,1.570681884765625,0.10953823308348655,0.11708514133170246,0.20962781595066188
1733860592660633000,1.580633056640625,0.05892506717741489,0.06224551683701574,0.15041764822155237
1733860592670584000,1.590583984375,-0.08399871815741061,-0.005870901327393948,0.12902575449422002
1733860592680535000,1.60053515625,-0.22415186973512172,-0.094136410083808,0.10433131209015846
1733860592690485000,1.610485107421875,-0.24618951402008532,-0.16719024811778216,0.1561656903542578
1733860592700436000,1.62043603515625,-0.22814590780735014,-0.15237871916145085,0.2891797838322818
1733860592710387000,1.630386962890625,-0.19272329677045344,-0.15677567547876387,0.39584202308803795
1733860592720338000,1.640337890625,-0.10591419736742973,-0.14728727777395398,0.45201150794699785
1733860592730288000,1.6502880859375,0.0322463190883398,-0.06277618964761496,0.5243564670592546
1733860592740238800,1.66023876953125,0.12444646387994289,0.02280504846088588,0.5498281774461269
1733860592750190000,1.670190185546875,0.17064239786565302,0.08435604369509965,0.5247491196386516
1733860592760140800,1.680140869140625,0.15713058986365794,0.07941551855299621,0.44994025463089343
1733860592770092000,1.690092041015625,0.13711363775134086,0.11213080685995519,0.3634872751891613
1733860592780042000,1.7000419921875,0.1040460654079914,0.18477416439689695,0.2943601090796292
1733860592789993000,1.709992919921875,0.06814356189966202,0.21071192139293998,0.2623712718836963
1733860592799944000,1.71994384765625,0.05034487035870552,0.18856424086224285,0.262554519496113
1733860592809895000,1.72989501953125,0.04882628248929977,0.13020130107961594,0.2985512771591544
1733860592819844900,1.739844970703125,0.05980711070895195,0.08744801836106926,0.2949669889315963
1733860592829796000,1.749796142578125,-0.002153378641605377,0.00446443206295371,0.22726167231872677
1733860592839747000,1.7597470703125,0.03709901981651783,-0.048609132607281204,0.09455474509373307
1733860592849698000,1.769697998046875,0.012095511463284492,-0.061244961492344735,-0.042737756355851884
1733860592859649000,1.77964892578125,-0.02288929267823696,-0.039719687176309526,-0.22970015151202677
1733860592869599000,1.789598876953125,-0.0428296724230051,-0.035940533963777124,-0.4550805401287973
1733860592879550000,1.799550048828125,0.036002456751465794,-0.027749080734327435,-0.6832001444511115
1733860592889501200,1.809501220703125,0.11510171242952347,0.020676329336501657,-0.7788722031369805
1733860592899452000,1.819451904296875,0.17785773607194422,0.09909235199075192,-0.7446724118933081
1733860592909401900,1.82940185546875,0.2300911966562271,0.16856508013494312,-0.6691811175793408
1733860592919353000,1.83935302734375,0.20394494800865648,0.22707937455438076,-0.5137563087202608
1733860592929303800,1.8493037109375,0.1836789895713329,0.23756474740728734,-0.37611718579009173
1733860592939255000,1.859255126953125,0.17364333324730397,0.2042271990161389,-0.29085005513206125
1733860592949205000,1.869205078125,0.1548620604097843,0.08897478953693061,-0.21599106737226245
1733860592959156000,1.879156005859375,0.13924071290791035,-0.0682358798256144,-0.14869067829847335
1733860592969107000,1.88910693359375,0.10532792191207409,-0.20505937552396206,-0.11557225255072116
1733860592979058000,1.899057861328125,0.02149462344944477,-0.2756977499140426,-0.14890680526718497
1733860592989009000,1.9090087890625,-0.1257481941282749,-0.22386720757484435,-0.23026859904974697
1733860592998959000,1.918958984375,-0.3140384768873453,-0.12226210557818412,-0.3864012639172375
1733860593008909800,1.928909912109375,-0.4367196846604347,-0.005987403846532106,-0.5239100384660065
1733860593018861000,1.938861083984375,-0.4417740454405546,0.07642656587008387,-0.5545739106684923
1733860593028812000,1.94881201171875,-0.32149872976541516,0.13519739233385772,-0.47405967362597584
1733860593038762000,1.958761962890625,-0.17078092955350874,0.14401026539728046,-0.28085619212314483
1733860593048713000,1.968712890625,-0.010054361024498939,0.16164404870010912,-0.045242871044576166
1733860593058664200,1.978664306640625,0.08919277966916561,0.1537507746996358,0.14903686138764022
1733860593068615000,1.988614990234375,0.09811725988090038,0.12981942562256008,0.2592899647422135
1733860593078566100,1.998566162109375,0.06704407622516155,0.060432183804735536,0.2934470858879387
1733860593088516000,2.00851611328125,-0.0055693245649337765,0.02256579634491354,0.30247108095139263
1733860593098466800,2.018466796875,-0.10585106900334358,-0.02635196382012218,0.31410116686001416
1733860593108418000,2.02841796875,-0.17810557335317134,-0.07366696496363728,0.3850175544738769
1733860593118368800,2.03836865234375,-0.25336335117220876,-0.07073430904522537,0.5389395575545728
1733860593128319000,2.048319091796875,-0.3020598698019981,-0.04129040709175169,0.6643379153318703
1733860593138270000,2.05827001953125,-0.3453361169487238,-0.09973039416596292,0.7315563252106309
1733860593148221000,2.068220947265625,-0.3435802131921053,-0.17947810381539164,0.7990757638625801
1733860593158172000,2.078171875,-0.30770459769070146,-0.1824041838625446,0.9074107586361467
1733860593168123000,2.088122802734375,-0.273531109932065,-0.1349676752312109,1.0324027275696397
1733860593178072800,2.09807275390625,-0.29377485653758045,-0.10922752316650003,1.1442423694632946
1733860593188024000,2.108024169921875,-0.3114636579632759,-0.13165493395403027,1.2596654228016733
1733860593197975000,2.11797509765625,-0.2470885086864233,-0.19824589611683038,1.3755606236964464
1733860593207926000,2.127926025390625,-0.1308680213600397,-0.23089878671206532,1.3654524866580962
1733860593217876000,2.1378759765625,-0.06326163507699967,-0.21836101137399672,1.2115958038985728
1733860593227827200,2.1478271484375,-0.02081716257929802,-0.1980691147778183,0.9063026512637734
1733860593237778000,2.15777783203125,0.01892389617860317,-0.13140084959510714,0.6235407716497778
1733860593247729200,2.167729248046875,0.02569382870495319,-0.10067837907318025,0.33860593191087246
1733860593257679000,2.17767919921875,0.014319617253541946,-0.10770586655717343,0.061766135822236536
1733860593267630000,2.187630126953125,0.026309914776682854,-0.1457526338188909,-0.15832242999672888
1733860593277581000,2.1975810546875,-0.029735797572135923,-0.23176037197746335,-0.3077811700582504
1733860593287532000,2.207531982421875,-0.15734043322205543,-0.32131891621910036,-0.3906488383591175
1733860593297483000,2.21748291015625,-0.2011906808644533,-0.3026927974106744,-0.4995367908403277
1733860593307433000,2.227432861328125,-0.052741410106420514,-0.19690496636927127,-0.6353901993975043
1733860593317384000,2.237384033203125,-0.09093231681287288,-0.04741107279597781,-0.8853384814292192
1733860593327335000,2.2473349609375,0.19776479806900024,0.04799104637471027,-1.1403162820607422
1733860593337286000,2.257285888671875,0.8789280298650264,0.1905167997021228,-0.9634475570261478
1733860593347235300,2.2672353515625,0.5438111091136932,0.2896299022199586,-0.6930439314648509
1733860593357186300,2.277186279296875,0.45615971366763114,0.23185917444312942,-0.5303650598242878
1733860593367137300,2.28713720703125,0.6239274328798056,0.16690945841502397,-0.33670828159600497
1733860593377088300,2.297088134765625,0.5700964739710093,0.16777813100833444,-0.17526362792551517
1733860593387038200,2.3070380859375,0.530735938963294,0.1411936553402804,-0.016011515863239765
1733860593396989400,2.316989501953125,0.40770810970962046,0.10194291911628096,0.15017974781244992
1733860593406940200,2.326940185546875,0.18339198932349682,0.04537289519899059,0.23144144222140312
1733860593416891400,2.336891357421875,-0.022432781082391738,0.05965477425802965,0.1039826447829604
1733860593426842000,2.346842041015625,-0.1749526622802019,0.11373109992975368,-0.1388002756640315
1733860593436792000,2.3567919921875,-0.27887071739435193,0.2139811705882661,-0.40415363209843636
1733860593446743300,2.366743408203125,-0.3026590047389269,0.2880505606066435,-0.6188482299193739
1733860593456694000,2.376694091796875,-0.24119535899460315,0.3418764049489051,-0.7631836356177926
1733860593466645200,2.386645263671875,-0.1724047313630581,0.3668908000223338,-0.8735857920542359
1733860593476595200,2.39659521484375,-0.1012578959941864,0.40855183052476496,-0.9089145873278379
1733860593486546200,2.406546142578125,-0.059711249119043346,0.42175340353380886,-0.8392290566831827
1733860593496497200,2.4164970703125,0.0305734174400568,0.4527503436155617,-0.724431587897241
1733860593506448400,2.426448486328125,0.07324293086528777,0.4602976902551949,-0.6920750864326953
1733860593516399000,2.436399169921875,0.10016367101669311,0.442064260558784,-0.7385188576996325
1733860593526349300,2.446349365234375,0.09513502919971942,0.36847518313694744,-0.7909384885057806
1733860593536300300,2.45630029296875,0.09137479988336562,0.3421601903263479,-0.8592088916555046
1733860593546251300,2.466251220703125,0.12863105608820916,0.3818545238656923,-0.8881640602439641
1733860593556202200,2.4762021484375,0.14730886855125427,0.39017749452032147,-0.9128186090290545
1733860593566152400,2.48615234375,0.1785246755480766,0.3890720540290698,-0.9179226541697978
1733860593576103200,2.496103271484375,0.17868951072096823,0.3736082351764664,-0.9061594434008001
1733860593586054400,2.506054443359375,0.17891221356093884,0.3847080501332879,-0.8565569158419967
1733860593596005000,2.516005126953125,0.19164076223075388,0.41725587291885163,-0.739811381728202
1733860593605956400,2.525956298828125,0.19294599961042402,0.42465328969378024,-0.5916574406549334
1733860593615906300,2.53590625,0.1973445268303156,0.3891906023748219,-0.4500741101436317
1733860593625857000,2.54585693359375,0.19606500841379165,0.361992068195343,-0.3055556029632687
1733860593635808300,2.555808349609375,0.22808044135570524,0.3487324813887477,-0.17594138105660675
1733860593645759200,2.56575927734375,0.23125322617292401,0.3106127036897465,-0.07522694428935646
1733860593655709200,2.575709228515625,0.18960779509842396,0.24595961425434795,-0.024336568877100943
1733860593665660200,2.58566015625,0.12471534394919871,0.2224053548613563,-0.056661798420548436
1733860593675611100,2.595611083984375,0.07634615757763386,0.231931454228051,-0.1494929345920682
1733860593685562000,2.60556201171875,0.04691489591002464,0.2534122318152338,-0.22274638685137033
1733860593695512300,2.61551220703125,0.020547113466262815,0.27646968413461,-0.2398050736799836
1733860593705463300,2.62546337890625,-0.007736147210001945,0.25435484642758965,-0.17394260845482348
1733860593715414300,2.635414306640625,-0.012274959683418274,0.22036139141097663,-0.08010171071887016
1733860593725365200,2.645365234375,0.0027788170635700223,0.1588133553188294,0.03669087740704417
1733860593735316200,2.655316162109375,0.05433189416825771,0.12933379753008484,0.18172946293875575
1733860593745266200,2.66526611328125,0.11428747343719005,0.09452873386964201,0.34600480999052524
1733860593755217400,2.675217529296875,0.1881283701956272,0.06890154066011309,0.4666416524544358
1733860593765168000,2.685168212890625,0.23745792603194713,0.020359408874437213,0.5453289663307368
1733860593775119400,2.695119384765625,0.28037644578218457,-0.016585077967494727,0.6242433669611811
1733860593785069300,2.7050693359375,0.2921545618593693,-0.02396262099817395,0.6853511850051581
1733860593795020300,2.715020263671875,0.2942617632716894,-0.0049985389396548265,0.6955678969845175
1733860593804971300,2.72497119140625,0.18842589183747768,0.004793152560666203,0.6314141353733838
1733860593814922200,2.734922119140625,-0.02738309696614742,0.0003228752788156271,0.5266276268616319
1733860593824872200,2.7448720703125,-0.23589257641136646,0.012058467388525604,0.35196678713485596
1733860593834823200,2.7548232421875,-0.37744974956810473,0.07513042511232197,0.17849910271540284
1733860593844774100,2.764774169921875,-0.4125461973905563,0.1256974868543446,0.02542290280908346
1733860593854725000,2.77472509765625,-0.419051926022768,0.12011259939409792,-0.0508098575219512
1733860593864676400,2.78467626953125,-0.3793494457095861,0.10374452517814933,-0.1196345335535705
1733860593874626000,2.7946259765625,-0.29355273821949956,0.08279723341315984,-0.1673915793761611
1733860593884577300,2.804577392578125,-0.1967635120719671,0.06367350381352008,-0.16675079725459216
1733860593894528300,2.8145283203125,-0.12888298502266407,0.014750775212422013,-0.10265300361439585
1733860593904479200,2.824479248046875,-0.17658698548376559,-0.016904665310680866,0.017436141838878393
1733860593914429200,2.83442919921875,-0.2559545367091894,-0.07365180392712355,0.1242696460083127
1733860593924380400,2.84438037109375,-0.2414461188852787,-0.15295995311550795,0.14938888969570396
1733860593934331100,2.8543310546875,-0.1997580177128315,-0.216299694930017,0.14267127187848092
1733860593944282400,2.864282470703125,-0.10579612394571304,-0.2056226719625294,0.10672054531425237
1733860593954232300,2.874232421875,-0.03612754443585872,-0.15441080951094627,0.03865720904394984
1733860593964183300,2.884183349609375,-0.0475181225001812,-0.11452924630381166,-0.06510097933337092
1733860593974134300,2.89413427734375,-0.04219663521647453,-0.09634031333625316,-0.14507263393178582
1733860593984085200,2.904085205078125,-0.03722703011035919,-0.10068857167363167,-0.19797142655700445
1733860593994036200,2.9140361328125,-0.031001871985197067,-0.10940335465744137,-0.22338512314632533
1733860594003986200,2.923986083984375,-0.027857728740572928,-0.09013999739140272,-0.2609217306625098
1733860594013937200,2.933937255859375,0.014171148693561553,-0.08547580497264862,-0.24726043118722735
1733860594023888400,2.943888427734375,0.05431669659912586,-0.13698591971844434,-0.2153155792634934
1733860594033839000,2.953839111328125,0.03178630036115646,-0.18920301368981599,-0.16951069042198358
1733860594043789000,2.9637890625,-0.006693944680690765,-0.2414597090192139,-0.1324929191481322
1733860594053740300,2.973740234375,-0.03850245687365532,-0.30088205819427966,-0.07668284218609332
1733860594063691300,2.983691162109375,-0.000699088180065155,-0.31978841871619224,0.015205606307834386
1733860594073642200,2.993642333984375,0.07860065850615501,-0.3363460241548717,0.09733239311352372
1733860594083593200,3.00359326171875,0.13752514116168021,-0.3252398159898817,0.1864798723362386
1733860594093543200,3.013543212890625,0.16154665274024008,-0.36322321742549535,0.279623508523032
1733860594103494100,3.023494140625,0.1456903274387121,-0.39017873662933705,0.41947205113098024
1733860594113445400,3.0334453125,0.08514613462686538,-0.3872913446247577,0.5384722323037684
1733860594123396000,3.04339599609375,0.05959376021921634,-0.3694793552108109,0.6014767508145421
1733860594133346300,3.05334619140625,0.06572481032013892,-0.3343269394174218,0.5982758358813822
1733860594143297300,3.06329736328125,0.06573766980171203,-0.25865137457773085,0.5931658724565059
1733860594153248300,3.073248291015625,0.0767798728197813,-0.18760200823396445,0.5471952716592698
1733860594163199200,3.08319921875,0.10618249291479587,-0.11568068136125802,0.5179358594272285
1733860594173149400,3.0931494140625,0.10510463455021381,-0.08712371831014752,0.49106136957034463
1733860594183100200,3.10310009765625,0.06413549530208111,-0.07475625803768635,0.462034743180871
1733860594193051400,3.113051513671875,-0.04613631275296211,-0.052592503155022854,0.4200070347905159
1733860594203002000,3.123002197265625,-0.16546178035736084,-0.00913300839588046,0.39174562061987817
1733860594212953300,3.132953369140625,-0.16555355029404162,0.07581935722455382,0.26729426136910917
1733860594222903300,3.1429033203125,-0.09659107322692871,0.14801146386265754,0.1361700732909143
1733860594232854000,3.15285400390625,-0.03783610191941261,0.18871289208531378,0.012200433142483234
1733860594242805200,3.16280517578125,-0.03384206384718418,0.2465310209341347,-0.03291377002112567
1733860594252756200,3.172756103515625,-0.060384033814072605,0.2790392058290541,-0.03279818081744015
1733860594262706200,3.1827060546875,-0.05956570316851139,0.32389234690368174,0.009698314128443597
1733860594272657200,3.1926572265625,-0.04279752371907234,0.3386110464774072,0.055523442040383814
1733860594282608400,3.2026083984375,-0.053265141719579696,0.29368337886184454,0.0773368491154164
1733860594292559000,3.21255908203125,-0.05901449902653694,0.213477915507555,0.08044913591705262
1733860594302510300,3.22251025390625,-0.08697568814158439,0.16295447371155022,0.09688654904216527
1733860594312460300,3.232460205078125,-0.09052841218709945,0.14897913985103367,0.04183547375388443
1733860594322411300,3.242411376953125,-0.07669570166766643,0.1057053769223392,-0.01799523702636361
1733860594332362200,3.2523623046875,-0.042916766184568404,0.09987681689932942,-0.07060607955567538
1733860594342313200,3.262313232421875,-0.049070612639188764,0.10848521689921617,-0.09803929927386343
1733860594352265500,3.272265380859375,-0.04592413130700588,0.14182210770323872,-0.12047485683523118
1733860594362216400,3.282216552734375,-0.010771569383144377,0.14542685419693588,-0.1444238146342337
1733860594372167700,3.292167724609375,-0.036060324418544766,0.146753572756052,-0.1846711424138397
1733860594382118400,3.302118408203125,-0.058492520979046815,0.12712269735187293,-0.22628259815350174
1733860594392068400,3.312068359375,-0.059569210299849504,0.12070742348209022,-0.3107937228124589
1733860594402019600,3.32201953125,-0.0728057084918022,0.09839154677763581,-0.346133989328146
1733860594411970300,3.33197021484375,-0.028354572346806526,0.020072189430892465,-0.3436800933700055
1733860594421921500,3.341921630859375,-0.01948328362703323,-0.027884032225608823,-0.3006784984461963
1733860594431872300,3.351872314453125,-0.0331353768825531,-0.016345131731778383,-0.23147015685923397
1733860594441822500,3.361822509765625,0.015171850168704986,-0.002261661321669817,-0.17359321049526333
1733860594451773400,3.3717734375,0.06884323460161686,-0.029611878931522367,-0.12182612531371415
1733860594461724400,3.381724365234375,0.07093290035724639,-0.07783274287357926,-0.04332695442065596
1733860594471675400,3.39167529296875,0.01762333497405052,-0.13327142923995852,0.012372794034704565
1733860594481625600,3.40162548828125,-0.0011707973450422286,-0.1826391251295805,0.06413995228148997
1733860594491576300,3.411576416015625,-0.007336334237456321,-0.213598180886358,0.10932290983237325
1733860594501527600,3.421527587890625,-0.0018266309052705765,-0.20141455274820327,0.14734459745176134
1733860594511478500,3.431478515625,0.012745499804615973,-0.17271788896545767,0.19498758844062686
1733860594521428500,3.441428466796875,0.009541150805354118,-0.15724062610939143,0.17668299320414663
1733860594531379500,3.45137939453125,0.004720598781108856,-0.14172361576482653,0.08324256602786481
1733860594541330700,3.46133056640625,-0.016612112104892728,-0.09860986570343375,-0.037533465711027385
1733860594551281400,3.471281494140625,-0.04471475551724434,-0.008069032426178456,-0.06374350030981003
1733860594561232600,3.481232666015625,-0.07642623707652091,0.037689240794628855,-0.0052174423873424525
1733860594571182600,3.4911826171875,-0.10421791484355926,0.08006663940548896,0.05964943592920899
1733860594581133300,3.50113330078125,-0.12023907531797885,0.11545958595648408,0.07125263383090495
1733860594591084500,3.51108447265625,-0.12265139715671539,0.15358736429885028,0.05083908361643553
1733860594601035500,3.521035400390625,-0.11311024635136127,0.16943302207589148,0.05459639032334089
1733860594610985500,3.5309853515625,-0.11679448782205581,0.17055618088692426,0.01750606526993215
1733860594620936400,3.5409365234375,-0.09840542917251587,0.20678163273930547,-0.02370155890919268
1733860594630887400,3.550887451171875,-0.057039984083175656,0.2521579209052026,-0.08827003880105912
1733860594640838400,3.56083837890625,-0.036621465432643885,0.26013094561100003,-0.1200125730857253
1733860594650789400,3.570789306640625,0.00135024556517601,0.23797654307857155,-0.09589870704859495
1733860594660739300,3.5807392578125,0.026921909195184706,0.18415654395520686,-0.0797191411420703
1733860594670690600,3.590690673828125,0.03858078280687332,0.13498773163855074,-0.05870134142413735
1733860594680641500,3.6006416015625,0.060140872707962985,0.07655044797807932,-0.06767755182310939
1733860594690592500,3.610592529296875,0.09716098206937313,-0.037663521831482645,-0.05699738705046475
1733860594700542500,3.62054248046875,0.10217793344855308,-0.11609013894498348,-0.06658486121557652
1733860594710493400,3.630493408203125,0.09131985482573508,-0.15406637998744843,-0.06658581106364726
1733860594720444400,3.6404443359375,0.08942600390315056,-0.21414207850471137,-0.05830993095375597
1733860594730395600,3.650395751953125,0.0988701240748167,-0.2658940391823649,-0.01415134801454842
1733860594740345600,3.660345703125,0.055313890942931175,-0.31545857281833883,0.03569616728127002
1733860594750296600,3.670296630859375,0.0456616809785366,-0.3275112680532038,0.05967866202369332
1733860594760247600,3.68024755859375,0.02114507935941219,-0.301616217687726,0.04718341065309942
1733860594770198500,3.690198486328125,-0.007755436432361602,-0.23125337230339646,0.01845320992693305
1733860594780149500,3.7001494140625,-0.043452188235521313,-0.15081190823614596,-0.04283887864276766
1733860594790099500,3.710099365234375,-0.055385202613472934,-0.08708762408345937,-0.12836780204214154
1733860594800050400,3.720050537109375,-0.09051029200851916,-0.050276042906194925,-0.1368290486562997
1733860594810001400,3.73000146484375,-0.14644319163262842,-0.06397665147855877,-0.08643529765456914
1733860594819952400,3.739952392578125,-0.2258423070400953,-0.09064429365172982,-0.04218129151687026
1733860594829902300,3.74990234375,-0.23816695108413694,-0.0919248349815607,-0.037297757259011265
1733860594839853600,3.759853515625,-0.18289923737049102,-0.08485913437902927,-0.017448709059506653
1733860594849804300,3.76980419921875,-0.09665361706912518,-0.061859220933169125,0.004875497081875801
1733860594859755500,3.779755615234375,-0.05656593683063984,-0.014318155948817728,0.04530892201811075
1733860594869705500,3.78970556640625,-0.025516718572378156,0.045733723301440474,0.06833367764428258
1733860594879656400,3.799656494140625,-0.054397945141792296,0.09535890108346938,0.06866013311967253
1733860594889607400,3.809607421875,-0.1118932717770338,0.11611921890899539,0.052993119845166796
1733860594899558700,3.81955859375,-0.13446283098161219,0.14312456860393286,-0.00959996832050383
1733860594909509400,3.82950927734375,-0.1012093806773424,0.20078458428159354,-0.08971987228319048
1733860594919459600,3.83945947265625,-0.05870294885933399,0.2352116084098816,-0.12822832050621508
1733860594929410600,3.84941064453125,-0.007082651737332343,0.22901669929251073,-0.13309285780265925
1733860594939361500,3.859361572265625,0.02372282089293003,0.24460297548100352,-0.13528335358425975
1733860594949312500,3.8693125,0.03961304846405983,0.2681634454190731,-0.1250047553498298
1733860594959262500,3.879262451171875,0.06431494352221488,0.2682189749985933,-0.0812705353025347
1733860594969213400,3.88921337890625,0.045237902608513826,0.2398800386123359,-0.040694852351397276
1733860594979164700,3.89916455078125,0.08258826683759689,0.21268588834702967,-0.016139306961372495
1733860594989115400,3.909115478515625,0.12680091805160046,0.21155176975056528,-0.022026173042878506
1733860594999066600,3.919066650390625,0.1374865627169609,0.21962430930808186,-0.03813289290890098
1733860595009016600,3.9290166015625,0.13353811735212803,0.19314941322803497,-0.08632021990753709
1733860595018967300,3.93896728515625,0.08107903131842613,0.17623115778341888,-0.11544811471439897
1733860595028918500,3.94891845703125,0.029651041898131367,0.12215411515906452,-0.13060009113885462
1733860595038869500,3.958869384765625,-0.04879062665402889,0.060039458160102366,-0.12695837363563478
1733860595048819500,3.9688193359375,-0.10745265898108482,-0.01652253412529826,-0.12121741883084178
1733860595058770400,3.9787705078125,-0.1590671108841896,-0.08659034208580851,-0.09649996087737381
1733860595068721400,3.988721435546875,-0.16215397098362444,-0.11751140391975641,-0.11559665633961558
1733860595078672400,3.99867236328125,-0.18136369836628435,-0.14841332266181706,-0.1508763517744839
1733860595088622600,4.00862255859375,-0.1656587642341852,-0.1308523853994906,-0.22148148148208854
1733860595098573600,4.018573486328125,-0.09953063381016254,-0.09862287131547927,-0.2695393368821591
1733860595108524500,4.028524658203125,-0.042566637572646136,-0.03510433886796236,-0.2713978972956538
1733860595118475500,4.0384755859375,-0.06865677211880683,0.013882102619111537,-0.22442937150225042
1733860595128426500,4.048426513671875,-0.13089257127940654,0.026240210541337728,-0.17320267680771648
1733860595138376400,4.05837646484375,-0.1701648434817791,0.015603373453766107,-0.1477344004869461
1733860595148327700,4.06832763671875,-0.18679449124336242,0.0017667174115777015,-0.1407479756657034
1733860595158278400,4.0782783203125,-0.21711422618329523,-0.007312807231396436,-0.12432780593633651
1733860595168229600,4.088229736328125,-0.2292149983435869,0.0012048457451164722,-0.12738880094215274
1733860595178179600,4.0981796875,-0.22593173888921736,0.06857406227141619,-0.17700323813445865
1733860595188130300,4.10813037109375,-0.25800854662954803,0.15321838485598563,-0.22167780777178703
1733860595198081500,4.11808154296875,-0.30203415083885193,0.25837255763635036,-0.23280454726815222
1733860595208032300,4.1280322265625,-0.34754736325740815,0.3204766932412982,-0.22023900714032352
1733860595217983500,4.1379833984375,-0.4085246867895126,0.3731222417578101,-0.2737750016905367
1733860595227933400,4.147933349609375,-0.430448933827877,0.40525077968537804,-0.32579540404602886
1733860595237884400,4.157884521484375,-0.4048550583660602,0.4239376522377133,-0.38181926988922055
1733860595247835400,4.16783544921875,-0.34029929182529445,0.438250255228579,-0.4215349019449204
1733860595257786600,4.17778662109375,-0.283253462523222,0.42255730379521844,-0.4401212367322296
1733860595267736300,4.187736328125,-0.22773966509401797,0.40793621937707064,-0.420183487335965
1733860595277687600,4.1976875,-0.13530688059031962,0.37569983716085553,-0.3775173349115997
1733860595287638500,4.207638427734375,-0.022324060010910033,0.3506935523286462,-0.3178626382853836
1733860595297589500,4.217589599609375,0.09845335996747016,0.29615853680372234,-0.2322656911510974
1733860595307539500,4.22753955078125,0.2026420487165451,0.21683219437152146,-0.16301467946618795
1733860595317490700,4.23749072265625,0.3232803524851799,0.13011369586139918,-0.10382570065557956
1733860595327441400,4.24744140625,0.4253869742631912,0.04035919065624475,-0.04086019898094237
1733860595337392600,4.257392578125,0.5035001415133475,-0.060370443680137394,-0.02685395852550864
1733860595347342000,4.267342041015625,0.5461100337058306,-0.14584931739270687,-0.025743147739395497
1733860595357292000,4.2772919921875,0.5668991392344236,-0.20939561462998388,-0.030291897084936497
1733860595367243000,4.287242919921875,0.5978980886101722,-0.26878070053458214,-0.05788659097515046
1733860595377194000,4.297194091796875,0.6057458795011044,-0.31527152581363915,-0.08697853768579661
1733860595387145000,4.30714501953125,0.5776181016474962,-0.3678391867883503,-0.12611498161405324
1733860595397095000,4.317094970703125,0.4901666126877069,-0.4452252088077366,-0.12009060675799846
1733860595407046100,4.327046142578125,0.44755496692955493,-0.49591231673285363,-0.1086008061029017
1733860595416996900,4.336996826171875,0.4389999045521021,-0.5289078467532992,-0.08069595028497278
1733860595426948000,4.346947998046875,0.43307811328768725,-0.563458497261256,-0.03357544880025089
1733860595436898000,4.35689794921875,0.42624271430969235,-0.5960546527005731,0.00894121215082705
1733860595446848800,4.366848876953125,0.3912760303467512,-0.6134959091059863,0.076356605906412
1733860595456800000,4.376800048828125,0.3152589585930109,-0.612579817174375,0.1348112060278654
1733860595466751000,4.3867509765625,0.20568857680559158,-0.6135862177379429,0.171076989890635
1733860595476702000,4.396701904296875,0.055766310885548585,-0.611646481847018,0.19489932563528417
1733860595486652000,4.40665185546875,-0.05133388139605522,-0.5785435459293424,0.1797328457614407
1733860595496603100,4.41660302734375,-0.17382804216444492,-0.5309602492384612,0.11491050070635973
1733860595506553900,4.426553955078125,-0.2571516375392675,-0.4382824039325118,0.05119882030691951
1733860595516505000,4.436505126953125,-0.31798867581784723,-0.2977478518217802,-0.0026342209611088037
1733860595526455000,4.446455078125,-0.35308044746518136,-0.14940233369916678,-0.06945493675917387
1733860595536406000,4.456406005859375,-0.3685305300533771,0.045304391973465676,-0.11837803068645297
1733860595546357000,4.46635693359375,-0.3999941743314266,0.21854937355294823,-0.16153781184665858
1733860595556308000,4.476307861328125,-0.41908349020481106,0.373708955604583,-0.1715522792521864
1733860595566259000,4.486259033203125,-0.4260743720054626,0.4868972356282174,-0.15617325260620563
1733860595576209200,4.496209228515625,-0.4307318424224853,0.575679680930823,-0.1530893151162192
1733860595586159900,4.506159912109375,-0.4143289891541004,0.6781647806324065,-0.1387171639578417
1733860595596111000,4.516111083984375,-0.3783300395339727,0.7658420411720871,-0.10522110053673386
1733860595606061800,4.526061767578125,-0.34859248839616774,0.8085670841768383,-0.07242500207852572
1733860595616012000,4.536011962890625,-0.32333763563036916,0.8369668108396232,-0.02326945110224187
1733860595625963000,4.545962890625,-0.28008126222789287,0.809232708478719,0.050705556897260244
1733860595635914000,4.5559140625,-0.24389292751550673,0.7810518852636218,0.10151230914667247
1733860595645865000,4.565864990234375,-0.256511001548171,0.7505833895027637,0.16523957070773465
1733860595655815000,4.57581494140625,-0.24400398667454717,0.6862836435496806,0.20535675103534012
1733860595665766000,4.585765869140625,-0.24748072287440298,0.5885498300284147,0.25701118788896127
1733860595675716900,4.595716796875,-0.2266319961130619,0.47529403772652146,0.3034044893439859
1733860595685668000,4.605668212890625,-0.20713877561390398,0.38606487156972286,0.3119709133656695
1733860595695618800,4.615618896484375,-0.18787819482684134,0.3309283830203116,0.30084220110792664
1733860595705569000,4.625569091796875,-0.15614040978252886,0.2687126037344336,0.2947145668067969
1733860595715520000,4.63552001953125,-0.12568448124229908,0.19807576371431349,0.28512453535841775
1733860595725471000,4.645470947265625,-0.07456336581408977,0.115985655657202,0.2677994161459617
1733860595735422000,4.655421875,-0.013178046002984046,0.04173500905409455,0.202955662976671
1733860595745372200,4.6653720703125,0.0698345837265253,-0.0019454349793493746,0.12835342645691708
1733860595755323000,4.675322998046875,0.1367804602742195,-0.06081511870771646,0.0667841283810325
1733860595765274000,4.685274169921875,0.19906769736111163,-0.13048106786906719,0.03362158949691802
1733860595775224800,4.695224853515625,0.25705519142746924,-0.20761837582439183,0.025077980095241217
1733860595785176000,4.705176025390625,0.3029495121181011,-0.28687311432510615,0.026712632092367856
1733860595795126000,4.7151259765625,0.34294074624478815,-0.33169162247776984,0.023174265365768224
1733860595805077000,4.725076904296875,0.37180209906995293,-0.3538230825260281,0.04235224590329453
1733860595815028000,4.735028076171875,0.38616380189955235,-0.3647361062064767,0.024710845549590885
1733860595824979000,4.74497900390625,0.4015244526386261,-0.38391733814701434,0.04922936513116583
1733860595834929000,4.754928955078125,0.387661931502819,-0.4238445671267807,0.04299998748861253
1733860595844880000,4.7648798828125,0.36866204747855663,-0.44502954010516405,0.03780004422534257
1733860595854831000,4.7748310546875,0.33816520240604875,-0.41881461013555527,-0.00044885801235213874
1733860595864782000,4.784781982421875,0.2810328638643026,-0.37996056334525347,-0.007290778062678873
1733860595874732000,4.79473193359375,0.16898936996161937,-0.31824381962269543,-0.008621058552060275
1733860595884683000,4.80468310546875,0.07830547495186328,-0.28816899935454127,-0.017363734189793468
1733860595894634000,4.814634033203125,-0.02356032380759716,-0.2832286203429103,-0.019389120803866535
1733860595904585000,4.8245849609375,-0.11001228033602237,-0.27026070995926854,-0.027583295713365076
1733860595914536000,4.834535888671875,-0.1606827293872833,-0.24653277449980376,-0.03538805118016899
1733860595924486000,4.84448583984375,-0.20581658709943293,-0.23189546959921717,-0.02452597223566845
1733860595934437000,4.85443701171875,-0.21545769114792346,-0.17836144781038163,-0.04057621267409995
1733860595944387800,4.864387939453125,-0.21916063731908797,-0.08826324373409151,-0.0527501048695296
1733860595954339000,4.874339111328125,-0.23297756574749945,0.00239157131165266,-0.05948608032735064
1733860595964289000,4.8842890625,-0.24976386537551878,0.059819970190525054,-0.08788074722252785
1733860595974240000,4.894239990234375,-0.2462596566468477,0.1396408181414008,-0.12307239904776215
1733860595984191000,4.90419091796875,-0.2601613407492637,0.20601503228098153,-0.1518326478523202
1733860595994142000,4.914141845703125,-0.2564630707532167,0.23760274133011697,-0.16931882111169397
1733860596004092000,4.924091796875,-0.22475743441283702,0.2838141651459038,-0.1588652681691572
1733860596014043100,4.934043212890625,-0.1809825900942087,0.29403730686604973,-0.1447239118256606
1733860596023993900,4.943993896484375,-0.1271387717038393,0.3112146516382694,-0.10212421223362907
1733860596033945000,4.953945068359375,-0.06115852531790733,0.30000702892541886,-0.06320513738309964
1733860596043896000,4.96389599609375,0.005573416218161583,0.2725719095110893,-0.04563861063020304
1733860596053845800,4.973845703125,0.040782676765322684,0.23930662263855337,-0.05867443515090272
1733860596063797000,4.983796875,0.06011632278859615,0.19251082306355236,-0.08900474628377705
1733860596073748000,4.993748046875,0.04630640862286091,0.16450477189347146,-0.164858809495531
1733860596083699000,5.003698974609375,0.010547697499394416,0.12565978519245982,-0.20395130468420683
1733860596093649000,5.01364892578125,-0.03379997827112675,0.06449950630888343,-0.2383350924589671
1733860596103600000,5.02360009765625,-0.0565150834262371,0.028576398403942584,-0.2652994525563903
1733860596113550800,5.03355078125,-0.06072890172898769,-0.013459639423340558,-0.20569056783327833
1733860596123502000,5.043502197265625,-0.07051262911856174,-0.027091128282248973,-0.12688340870328246
1733860596133452800,5.053452880859375,-0.06630348699092864,-0.03562061782702804,0.0021678090257570147
1733860596143403000,5.063403076171875,-0.026135142731666564,-0.026018238353729246,0.14259203262981027
1733860596153354000,5.07335400390625,0.030218612653017042,-0.010796119302511214,0.24470974205741658
1733860596163305000,5.083304931640625,0.11934183421730994,0.03855710967034101,0.3332082375857979
1733860596173256000,5.093255859375,0.17804010690152644,0.07950505999997258,0.36591223731376227
1733860596183206100,5.1032060546875,0.17794424531161784,0.11389657442346214,0.36406697477325795
1733860596193156900,5.113156982421875,0.14325228663682937,0.11891615615114569,0.3461092202130705
1733860596203108000,5.123108154296875,0.10918576638400554,0.11163710505887865,0.2817151653063483
1733860596213059000,5.13305908203125,0.10571545992493629,0.1065283837430179,0.1992757323549129
1733860596223008800,5.1430087890625,0.0737602327376604,0.09244768981188535,0.0895644077268429
1733860596232960000,5.1529599609375,0.040102877807617184,0.06727861563339829,-0.0004595438031479716
1733860596242911000,5.162910888671875,0.004872574472427368,0.05845715740472078,-0.06372066742349415
1733860596252862000,5.172862060546875,-0.018680150550603864,0.03307458660602569,-0.10246115257041528
1733860596262813200,5.182813232421875,-0.06506430058479308,0.029727029743790625,-0.08380319558531045
1733860596272763100,5.19276318359375,-0.10490063641071319,0.019229308865964412,-0.06652250003647059
1733860596282713900,5.2027138671875,-0.15196107827126978,-0.012348901702463626,-0.018328651965502648
1733860596292665000,5.2126650390625,-0.1871528031617403,-0.030865824515372512,0.010969503108039498
1733860596302615800,5.22261572265625,-0.18872692061066626,-0.021497692189365623,0.018365038453135637
1733860596312566000,5.23256591796875,-0.19208499886691568,0.0073047700554132455,-0.008062127761356532
1733860596322517000,5.24251708984375,-0.20043547858297825,0.05044555425420403,-0.027424451889842747
1733860596332468000,5.252468017578125,-0.21435060668885705,0.1043478248335421,-0.060280938765779134
1733860596342419000,5.2624189453125,-0.19895254654884337,0.14046484787538646,-0.09488180335732177
1733860596352369700,5.27236962890625,-0.20609014334380626,0.17926935643553732,-0.14098406771020963
1733860596362319600,5.282319580078125,-0.18976035531163216,0.21352672308534382,-0.20030903919171542
1733860596372270800,5.292270751953125,-0.16907003398239612,0.21510668575316666,-0.21861827407069503
1733860596382221800,5.302221923828125,-0.11959902384877204,0.2006621269457042,-0.2090933802803978
1733860596392172800,5.3121728515625,-0.08180500750541686,0.1566097808599472,-0.17090601723790166
1733860596402122800,5.322122802734375,-0.04911152917146683,0.10560016298219561,-0.14144684465005994
1733860596412073700,5.33207373046875,-0.028433482801914215,0.040033758094161744,-0.10952223179675638
1733860596422024700,5.342024658203125,0.036512159839272494,-0.02249050261899829,-0.06997643988262861
1733860596431976000,5.351975830078125,0.07274784082472324,-0.08701105171591043,-0.055453153283149
1733860596441926000,5.36192578125,0.0763613551467657,-0.14367635726779698,-0.02167871131207794
1733860596451876600,5.371876708984375,0.06480827999711036,-0.1815678426362574,0.033475824350677426
1733860596461827800,5.381827880859375,0.052286652076244354,-0.20169190838485954,0.08175609032977373
1733860596471778600,5.391778564453125,0.01262275020778179,-0.21066928782761096,0.09644665978755801
1733860596481729800,5.401729736328125,-0.030966216149926184,-0.2146666869007051,0.0638201822752133
1733860596491679700,5.4116796875,-0.058228317084908485,-0.20171850413084028,0.0010216711979359387
1733860596501630700,5.421630615234375,-0.07138473577797412,-0.16363135005980728,-0.09394516182802617
1733860596511581700,5.431581787109375,-0.1214087036192417,-0.14476386024355886,-0.17510818163547665
1733860596521532700,5.44153271484375,-0.2068897692888975,-0.10840995970591902,-0.1762985969964415
1733860596531482600,5.451482666015625,-0.2319686809659004,-0.037431612771749494,-0.14548731567990034
1733860596541433900,5.461433837890625,-0.2237047104895115,0.03137596599459648,-0.08973302402570843
1733860596551384600,5.471384521484375,-0.21655717682242392,0.07856324910521507,-0.07777038169447333
1733860596561335800,5.481335693359375,-0.16270926677882672,0.0778890031054616,-0.06641111208386719
1733860596571285800,5.49128564453125,-0.09549275659620761,0.0717505003504455,-0.0624410028764978
1733860596581236700,5.50123681640625,-0.06026303778290748,0.094056001791358,-0.020449206049740314
1733860596591187700,5.511187744140625,-0.008567337337136268,0.1278907591149211,0.037665458060242234
1733860596601139000,5.521138916015625,0.07210778935551643,0.1808164397470653,0.1081870742028579
1733860596611089700,5.531089599609375,0.15879063203036783,0.22169497810229657,0.12971479620430618
1733860596621039600,5.54103955078125,0.2030816091775894,0.22698665476962923,0.11197992714717983
1733860596630990800,5.550990966796875,0.18836919321417808,0.19291852708160875,0.04583941216561943
1733860596640941600,5.560941650390625,0.13010931194722652,0.11280249557644129,-0.02026453366521746
1733860596650892800,5.570892822265625,0.05971241816282272,0.03685439740568399,-0.03329031171593815
1733860596660842800,5.5808427734375,0.03213876706063747,-0.07587561745643616,0.009480506659299134
1733860596670793700,5.590793701171875,0.08108195392787457,-0.16664280683547258,0.0833261891907081
1733860596680744700,5.60074462890625,0.14794599741101264,-0.25188056526854635,0.18379943761322645
1733860596690695700,5.61069580078125,0.22565292194783687,-0.3506476673603058,0.2558177951196208
1733860596700646700,5.620646728515625,0.22380115660130975,-0.40988662279248234,0.29731293100323525
1733860596710596900,5.630596923828125,0.2012964793264866,-0.4425874076500535,0.3213363422779366
1733860596720547600,5.640547607421875,0.13829261840283869,-0.44317938219383357,0.29548834592457857
1733860596730498800,5.650498779296875,0.03257891204357147,-0.404462990308553,0.2149322059690952
1733860596740449800,5.66044970703125,-0.05694353797137737,-0.33279739176258444,0.11793152902796863
1733860596750399700,5.670399658203125,-0.09435410795509815,-0.21789821616783736,0.009688121527992189
1733860596760350700,5.680350830078125,-0.09782616797983645,-0.07600450453311204,-0.10795308278389275
1733860596770301700,5.6903017578125,-0.038008535876870156,0.05561155871525406,-0.18200711083635687
1733860596780252700,5.700252685546875,0.012301263168454169,0.16465104849636553,-0.2149483168536797
1733860596790202600,5.71020263671875,0.022208909198641776,0.25495646558254953,-0.225879972169362
1733860596800153900,5.72015380859375,0.02561725633740425,0.3243937205545604,-0.19114720656014977
1733860596810104800,5.730104736328125,0.031003625550866123,0.37241453187987206,-0.17238704957589507
1733860596820055800,5.740055908203125,0.06247369956970215,0.40242300891354676,-0.15324735522214322
1733860596830006800,5.7500068359375,0.07455927416086197,0.40838381701409815,-0.14451032387390733
1733860596839956700,5.759956787109375,0.08017360691130161,0.4270410250805318,-0.15394702792409806
1733860596849907700,5.76990771484375,0.06687924105226993,0.4212624416790902,-0.13390844850186256
1733860596859858700,5.779858642578125,0.010636544826626777,0.3933095820009708,-0.14408172319829463
1733860596869809700,5.7898095703125,-0.05154255571067333,0.377657108708471,-0.1479160041315481
1733860596879760000,5.799759765625,-0.11525135003328323,0.345937151581794,-0.14566698309574275
1733860596889710600,5.809710693359375,-0.1973433577865362,0.3141660487897694,-0.15121139241512863
1733860596899661800,5.819661865234375,-0.2463601944118738,0.28333310363069175,-0.15797529705949126
1733860596909612500,5.829612548828125,-0.2770902637183666,0.2779284681081772,-0.2131681554386392
1733860596919563800,5.839563720703125,-0.2521943073928356,0.3022380028478801,-0.26207312918733805
1733860596929513700,5.849513671875,-0.19959435158371924,0.3537416878528893,-0.28590310024917126
1733860596939464700,5.859464599609375,-0.15549685118198395,0.39048341866433617,-0.2651850871954113
1733860596949415700,5.869415771484375,-0.12819675632417202,0.4053144925713539,-0.20310221357420086
1733860596959367000,5.879366943359375,-0.10440554637014865,0.38573257087543605,-0.09148180392179638
1733860596969316600,5.889316650390625,-0.09130816438794136,0.3327696269728243,-0.007057188502512871
1733860596979267800,5.899267822265625,-0.08792787429988384,0.2809197588786483,0.0664801221994683
1733860596989218800,5.90921875,-0.10958908648788929,0.19107567569389938,0.1406231802422553
1733860596999169800,5.919169677734375,-0.12431436193287372,0.11763795290887355,0.18338227164708076
1733860597009119700,5.92911962890625,-0.1084253034055233,0.06554331627339124,0.1863859469750896
1733860597019070700,5.93907080078125,-0.06241641642451286,0.02923924622684717,0.13505056774169205
1733860597029021700,5.949021728515625,-0.015578677403926848,0.008519844933599233,0.09460954402089118
1733860597038972700,5.95897265625,0.0024912322938442227,-0.008761690865457058,0.07043802951239049
1733860597048923600,5.968923583984375,-0.0018961890101432798,-0.03790302967578173,0.05673698254860937
1733860597058873600,5.97887353515625,-0.020951602613925934,-0.10125687308087944,0.03790412565432489
1733860597068824800,5.988824951171875,-0.03542027294933796,-0.14839973252788186,0.03648278761431575
1733860597078775600,5.998775634765625,-0.036520927667617796,-0.22821999595686793,0.047616614438593385
1733860597088726800,6.008726806640625,-0.006957564052939414,-0.2991336070917547,0.06124803023226559
1733860597098676700,6.0186767578125,0.02218435927927494,-0.3426151675522327,0.08486753688119351
1733860597108627700,6.028627685546875,0.03246200766563415,-0.3595011281624436,0.11079371303729713
1733860597118578700,6.03857861328125,0.05586334151923656,-0.3825996796771884,0.1450813286948949
1733860597128529700,6.04852978515625,0.05439911418557167,-0.397604356585443,0.14992759968228636
1733860597138480600,6.058480712890625,0.035114568001031875,-0.39171573693826794,0.12263590732663869
1733860597148430800,6.068430908203125,0.019020926812291145,-0.37198929220512506,0.08436842825263738
1733860597158381800,6.0783818359375,-0.021059154641628264,-0.333988062851876,0.02370148584395647
1733860597168332800,6.088332763671875,-0.044759763702750206,-0.31144714521989225,-0.05182568350099027
1733860597178283800,6.09828369140625,-0.0858031372308731,-0.2698107742346823,-0.07021408456340432
1733860597188233700,6.108233642578125,-0.08746376391947269,-0.21346680959165096,-0.11023702900260686
1733860597198184700,6.118184814453125,-0.0665402183562517,-0.1633950570859015,-0.10393427559658884
1733860597208136000,6.128135986328125,-0.045721302211284634,-0.097477354542166,-0.09356675696969032
1733860597218086700,6.138086669921875,-0.021288287222385405,-0.029674568904191255,-0.09590184885375201
1733860597228036600,6.14803662109375,-0.008662614405155181,0.011610504425317048,-0.11956081073023378
1733860597237987800,6.15798779296875,0.015126257461309432,0.08229030680432915,-0.1475729993801564
1733860597247938600,6.1679384765625,-0.0011129296779632568,0.14521715696901083,-0.15006094373837112
1733860597257889800,6.177889892578125,-0.0017184943556785583,0.16644319261014462,-0.16179777795709668
1733860597267840500,6.187840576171875,0.004493219766020774,0.18934914416223764,-0.17020327579602598
1733860597277790700,6.197790771484375,0.005853402203321457,0.2215802656814456,-0.19054003444723783
1733860597287741700,6.20774169921875,-0.008428221127390861,0.24020532504394648,-0.2048367822818458
1733860597297692700,6.217692626953125,-0.012436872246861456,0.2494445702932775,-0.20802768727764487
1733860597307643600,6.2276435546875,-0.029073534271121023,0.26894962736070155,-0.21242774886749682
1733860597317593900,6.23759375,-0.04975801038146019,0.24244433614239094,-0.2208958636138588
1733860597327544600,6.247544677734375,-0.06624269671440124,0.21994974187016486,-0.2421530250456184
1733860597337495800,6.257495849609375,-0.10440788445770739,0.20259601761773227,-0.23223558827377855
1733860597347446500,6.267446533203125,-0.09496960950493812,0.19258023503795266,-0.20617650645300745
1733860597357397200,6.277397216796875,-0.08629179753065108,0.17665289032682777,-0.17345950111299752
1733860597367347200,6.28734716796875,-0.06119125854372978,0.16555749581679702,-0.12649514003805815
1733860597377298400,6.29729833984375,-0.03685235157907009,0.15466332296729088,-0.08396898060627281
1733860597387249400,6.30724951171875,-0.03471300146281719,0.12235022225305438,-0.0420884256016463
1733860597397200400,6.317200439453125,-0.03756371471881866,0.13204612522870302,-0.03150726422406733
1733860597407150300,6.327150390625,-0.027833178821206093,0.10678250463455914,-0.007965352855995297
1733860597417101300,6.337101318359375,-0.06707564040720462,0.09031783817633986,-0.025908713564649223
1733860597427052300,6.34705224609375,-0.09460720593333244,0.03806815710961819,-0.051629430276528
1733860597437003300,6.357003173828125,-0.1126642561495304,-0.00338671982884407,-0.06969356782063842
1733860597446953200,6.366953125,-0.1550625514179468,-0.04899959322959185,-0.07625760251134633
1733860597456904400,6.376904541015625,-0.15504267767369745,-0.0891144537359476,-0.07131744269542396
1733860597466855200,6.386855224609375,-0.1542699397355318,-0.10336115188375115,-0.03650529170706868
1733860597476806400,6.396806396484375,-0.14548516025543212,-0.09236687966063618,-0.003560249764844775
1733860597486757400,6.40675732421875,-0.12848317205011844,-0.07220759646818041,0.013961159204691648
1733860597496707300,6.416707275390625,-0.09391747010350227,-0.024494974309206007,0.024819968479871748
1733860597506658300,6.426658203125,-0.044510172855854034,0.03464972696825862,0.03284830356948078
1733860597516609500,6.436609619140625,-0.019169979894161224,0.07379574244245886,0.003307590178027749
1733860597526560300,6.446560302734375,0.025671616873145103,0.09965104531943797,-0.03446889050863683
1733860597536510500,6.456510498046875,0.02805237452983856,0.12018632221743464,-0.09770641405768692
1733860597546461400,6.46646142578125,0.032903321692347526,0.13500132177248597,-0.11702274361997841
1733860597556412400,6.476412353515625,0.029155367335677144,0.12357830274328589,-0.12736315504424273
1733860597566363400,6.48636328125,0.03688508480489254,0.11827055172398686,-0.10442490865774452
1733860597576314400,6.496314453125,0.05403261896073818,0.08666253053918481,-0.0890840585976839
1733860597586264300,6.506264404296875,0.03409749991297722,0.08108736075535417,-0.05369549596086144
1733860597596215300,6.51621533203125,0.019996493846178055,0.05546323628574609,-0.02307107898592949
1733860597606166300,6.526166259765625,0.008859598281979561,0.02994680997431278,-0.008331482754647731
1733860597616117500,6.536117431640625,0.034844518887996674,0.025502543916553256,-0.007005275652185082
1733860597626067500,6.5460673828125,0.07135550968348979,0.027049627228081224,-0.031960853210464116
1733860597636018200,6.55601806640625,0.0411696302562952,0.02437777767032385,-0.05983480243347585
1733860597645969400,6.565969482421875,0.02898702503144741,0.01635287664681673,-0.05796842403970658
1733860597655920400,6.57592041015625,0.009008651363849639,0.0108817517593503,-0.045244113153591746
1733860597665870300,6.585870361328125,-0.018196166425943374,0.005495674806833267,-0.030414354420825837
1733860597675821300,6.5958212890625,-0.04490414060950279,-0.00781461927369237,0.0015952333021908998
1733860597685772500,6.6057724609375,-0.08231646415889263,-0.02219531906470656,0.03207658854462206
1733860597695723300,6.61572314453125,-0.08281973750591277,-0.06490764871835708,0.07831723845489323
1733860597705674500,6.625674560546875,-0.07244973466098308,-0.07549012527018785,0.08847195458132773
1733860597715624400,6.63562451171875,-0.05761807623207569,-0.06767857473641634,0.11236804968193173
1733860597725575400,6.645575439453125,-0.038489597392082214,-0.042292204545438285,0.1394050731567666
1733860597735526400,6.6555263671875,-0.026447861942648886,-0.02859641827866435,0.15236976867001503
1733860597745477400,6.665477294921875,-0.012644377517700195,-0.027378859182447195,0.14837598632611335
1733860597755427300,6.67542724609375,-0.029521278038620948,-0.01612827411070466,0.13275525987874714
1733860597765378600,6.685378662109375,0.0060071314603090285,-0.016781331191956995,0.09036237143781035
1733860597775329300,6.695329345703125,0.0012292495340108871,0.000459580335766077,0.05946472701206803
1733860597785280500,6.705280517578125,-0.001499298647046089,0.005718085385859013,0.020636581848002968
1733860597795231200,6.715231201171875,-0.005196984121203422,0.007007540674507618,-0.007859371730871497
1733860597805181200,6.72518115234375,-0.006294716230034828,0.024316549002379177,-0.01932926210910082
1733860597815132400,6.73513232421875,-0.010759878945350645,0.013143559211492538,-0.03814242792222649
1733860597825083100,6.745083251953125,-0.027006080347299573,0.017281243538111446,-0.05176522201802581
1733860597835034400,6.755034423828125,-0.0360153162330389,0.03672565645948052,-0.06415989909097553
1733860597844984300,6.764984375,-0.04349193572402,0.04190729688107967,-0.07910108230896294
1733860597854935300,6.774935302734375,-0.056934185621142386,0.06549903874024748,-0.08675620017200708
1733860597864886300,6.78488623046875,-0.0855202286362648,0.08334609946757554,-0.12069682902283965
1733860597874837500,6.79483740234375,-0.08808978686332702,0.10496873321086167,-0.12107077690176665
1733860597884787200,6.804787109375,-0.0770715492427349,0.1165615558490157,-0.13518771119005976
1733860597894738400,6.814738525390625,-0.07889350397288798,0.12170812495723365,-0.15002338820695876
1733860597904689400,6.824689453125,-0.05987491524815559,0.12015256607830524,-0.1696479069355875
1733860597914640400,6.834640380859375,-0.06584288374185562,0.1527232948154211,-0.18363018199354408
1733860597924591400,6.84459130859375,-0.07449322318732739,0.18398381773680447,-0.22166567894257605
1733860597934541600,6.85454150390625,-0.06609481267631054,0.20752339101731776,-0.23590214795731007
1733860597944492300,6.8644921875,-0.06430266856253147,0.1925833037778735,-0.2543191905923188
1733860597954443500,6.874443603515625,-0.0619616583943367,0.1778837472960353,-0.268264275445044
1733860597964394200,6.884394287109375,-0.06429506977796554,0.1490115808159113,-0.28711846738830205
1733860597974344200,6.89434423828125,-0.012643792995810508,0.14406842532530426,-0.2658541455633938
1733860597984295400,6.90429541015625,0.0006762918263673782,0.13530220441520213,-0.23886297052428124
1733860597994246100,6.91424609375,-0.015659341424703595,0.12462328175157308,-0.22543694110959767
1733860598004197400,6.924197265625,-0.00326864640712738,0.08970496697500348,-0.19756781419217587
1733860598014148400,6.9341484375,-0.012449147206544876,0.06026961365416646,-0.18848237126506864
1733860598024098300,6.944098388671875,-0.013072832062840462,0.017947890753298997,-0.14659549611750988
1733860598034049300,6.95404931640625,-0.013649170646071433,-0.005833236198127269,-0.11100446971114725
1733860598044000500,6.96400048828125,-0.007014262676239013,-0.03847615338861942,-0.08168697061631829
1733860598053951200,6.973951171875,-0.001550152051448822,-0.052809653037041424,-0.04584752240683883
1733860598063901400,6.9839013671875,0.0018429975181818007,-0.08042962749898433,-0.00938015155736357
1733860598073852400,6.993852294921875,-0.022447394129633903,-0.0813847362667322,0.04578136183544993
1733860598083803400,7.003803466796875,-0.009935118559002875,-0.08188055695965886,0.07781853168513625
1733860598093754400,7.01375439453125,-0.0000865092396736145,-0.07437105811238288,0.12527392768003046
1733860598103704600,7.02370458984375,-0.013114917638897895,-0.06349032926633953,0.17492318045739083
1733860598113655300,7.0336552734375,-0.014414309799671171,-0.05849792780652642,0.18927048943545668
1733860598123606500,7.0436064453125,-0.046669981238245964,-0.050174189966917034,0.17554160461667925
1733860598133557200,7.05355712890625,-0.06544950051009654,-0.0507248095870018,0.18187515501976012
1733860598143508500,7.063508544921875,-0.07837970923185349,-0.042996261161565776,0.17068890388850122
1733860598153458400,7.07345849609375,-0.07697685669660567,-0.04163052576631307,0.1694446029158309
1733860598163409400,7.083409423828125,-0.056868719169497484,-0.033522330373525616,0.16974986947271972
1733860598173360400,7.0933603515625,-0.04576572587490082,-0.039298575687408445,0.1887218060441315
1733860598183311400,7.103311279296875,-0.03316051132380962,-0.028227731096744535,0.18376761770285666
1733860598193261300,7.11326123046875,-0.022816227442026136,-0.021877193026244638,0.18355379228908567
1733860598203212300,7.12321240234375,-0.02382745031118393,-0.0101911391466856,0.15975260893031953
1733860598213163300,7.133163330078125,-0.008827449578046799,0.01310644207149744,0.13600005048625172
1733860598223114200,7.1431142578125,-0.007164484801888466,0.001367196699976921,0.10112747454755007
1733860598233065500,7.1530654296875,0.001378302615880966,0.023136545437574384,0.09988456181436776
1733860598243015200,7.16301513671875,0.007373743638396262,0.03194499805420637,0.07103383998107164
1733860598252966400,7.17296630859375,0.024581483548879624,0.04714797401353717,0.04459313843157142
1733860598262917400,7.18291748046875,0.00979249521791935,0.046722003686428065,0.006240355694293975
1733860598272868400,7.192868408203125,-0.008456278178095817,0.04354571173787117,-0.06266746857613324
1733860598282818300,7.202818359375,-0.016236264529824258,0.06729658968150615,-0.10607278546262532
1733860598292769500,7.21276953125,-0.00785012897849083,0.05734218190014362,-0.14755659623462705
1733860598302720300,7.22272021484375,-0.015755203014612196,0.05619388864785432,-0.19695888851359486
1733860598312671500,7.23267138671875,-0.014217325922846793,0.04097966064214706,-0.2246568966478109
1733860598322621400,7.242621337890625,-0.022988076877593994,0.0520918601565063,-0.2115978008493781
1733860598332572400,7.252572509765625,-0.04730769461989402,0.05650397751033306,-0.20157029129918663
1733860598342523400,7.2625234375,-0.07209083822071552,0.060891544944792986,-0.2011230955209583
1733860598352475100,7.27247509765625,-0.06604746640324592,0.05761325392648577,-0.21630027945190666
1733860598362426400,7.28242626953125,-0.07525836234092712,0.036611090169101954,-0.23995496701207011
1733860598372376300,7.292376220703125,-0.07637246106266975,0.03243994196429849,-0.2352050690712407
1733860598382327300,7.302327392578125,-0.09617664720714092,0.05253565840125084,-0.214755716891028
1733860598392278300,7.3122783203125,-0.10403671305775641,0.052769759418070314,-0.21181875012367962
1733860598402229200,7.322229248046875,-0.12265665785372257,0.05381532294824719,-0.21829452200904487
1733860598412179200,7.33217919921875,-0.09294190306961536,0.07528568873926997,-0.2049792594924569
1733860598422130400,7.34213037109375,-0.04347966076433658,0.10478913886025547,-0.21617935648597775
1733860598432081200,7.3520810546875,-0.017211831563711165,0.12829364082738756,-0.21329039357881993
1733860598442032400,7.362032470703125,-0.014001052823662758,0.14010215204283594,-0.19596721059512345
1733860598451983000,7.371983154296875,-0.015445406413078308,0.15175488817468286,-0.15643197660762817
1733860598461933000,7.38193310546875,-0.024430092379450798,0.16717252979800104,-0.1213472192229703
1733860598471884300,7.39188427734375,-0.019669746109843254,0.137128250798583,-0.06664287501312792
1733860598481835000,7.4018349609375,-0.04505845438838005,0.09566343698799609,-0.004280234602466225
1733860598491786200,7.4117861328125,-0.0737561410844326,0.06408069637492299,0.06142751498501747
1733860598501736200,7.421736083984375,-0.06866086377203465,0.04219064386710524,0.09116451813355088
1733860598511687200,7.431687255859375,-0.039462826338410376,0.052003597351163625,0.10891257546581327
1733860598521638100,7.44163818359375,-0.0178682496458292,0.04565408219397068,0.12681830757781862
1733860598531589400,7.45158935546875,-0.022591186514496802,0.0374728215649724,0.14992803807370364
1733860598541539000,7.4615390625,-0.023875381106138228,0.021848551453649997,0.17501831139493731
1733860598551490300,7.471490234375,-0.04190378974974155,0.014911737927794455,0.1898362700920552
1733860598561441300,7.481441162109375,-0.047532151025533674,0.014650018251687288,0.1750740601701662
1733860598571392300,7.491392333984375,-0.024577391895651817,0.008677081321924924,0.1626052949476987
1733860598581343200,7.50134326171875,0.0049789574563503265,0.004633212758600711,0.1514184592945501
1733860598591293400,7.51129345703125,0.0033978257447481153,-0.017170768900960684,0.1499446604149416
1733860598601244200,7.521244140625,-0.030218028131127356,-0.014136954163014888,0.1234528132000938
1733860598611195400,7.5311953125,-0.05340834958255291,-0.01702025451436639,0.12168890880011021
1733860598621146000,7.54114599609375,-0.04639642499387264,-0.02981879968047142,0.1273508800845593
1733860598631096000,7.551095947265625,-0.05016483761668205,-0.034487960535287854,0.08330036062970757
1733860598641047300,7.56104736328125,-0.04300795159935951,-0.03240940069556236,0.06419073262065648
1733860598650998000,7.570998046875,-0.03300678206682205,-0.03428922309279442,0.016830175302363932
1733860598660949200,7.58094921875,-0.040464112335443496,-0.01044423712491989,-0.020416801617480815
1733860598670899200,7.590899169921875,-0.0451999086856842,0.01500087751597166,-0.057448272623121736
1733860598680850200,7.60085009765625,-0.04848492170572281,0.02253945632725954,-0.07537402460984885
1733860598690801200,7.61080126953125,-0.028517069432139396,-0.01779459988772869,-0.12406502681430429
1733860598700752400,7.62075244140625,-0.013448095116019248,-0.028789310502260922,-0.1527792627863586
1733860598710703000,7.630703125,-0.004792494973540306,-0.003325345030426979,-0.1835202553456649
1733860598720653300,7.6406533203125,-0.02694529007077217,0.05264715595170855,-0.2088475157605484
1733860598730604300,7.650604248046875,-0.018111995273828504,0.08398059797883033,-0.22844967652689666
1733860598740555300,7.66055517578125,-0.045079497176408766,0.10337196553871035,-0.240137922363542
1733860598750506200,7.67050634765625,-0.06655716949105263,0.08821195193827151,-0.23088826531805096
1733860598760456400,7.68045654296875,-0.0726321054905653,0.04798559388145804,-0.19536025767792015
1733860598770407200,7.6904072265625,-0.06807400379478931,0.015530162087082862,-0.19496329424958675
1733860598780358400,7.7003583984375,-0.022058687072992324,0.01387611126974225,-0.1517653730360791
1733860598790309000,7.71030908203125,0.012719780841469764,0.02724105814695358,-0.12496270630639046
1733860598800260400,7.72026025390625,0.010240238985419273,0.03663768591508269,-0.07125782146267592
1733860598810210300,7.730210205078125,-0.00030278233885765074,0.048326077882200474,-0.006943718190677463
1733860598820161300,7.740161376953125,-0.013248188629746437,0.05182940982803702,0.014064948372729123
1733860598830112300,7.7501123046875,-0.007962357181310654,0.08151435399577021,-0.011536014417000114
1733860598840063200,7.760063232421875,0.002271452063322067,0.10726093580126762,-0.004476341696456074
1733860598850013200,7.77001318359375,0.010239654463529587,0.12916472457349298,-0.004679353455267847
1733860598859964200,7.779964111328125,-0.011450783818960189,0.14019801363274453,-0.004216594781726598
1733860598869915100,7.7899150390625,-0.01238835693001747,0.14426950085535645,-0.013025741518102586
1733860598879866000,7.7998662109375,-0.04000876978337765,0.14019947493746876,-0.02694912599567324
1733860598889816300,7.80981640625,-0.039814123994112015,0.12673691290467975,-0.004540127647668123
1733860598899767000,7.81976708984375,-0.05820610525310039,0.1110271564669907,-0.009072546912916004
1733860598909718300,7.82971826171875,-0.07168868716061115,0.08600318984761833,-0.0005546016754582524
1733860598919669200,7.839669189453125,-0.0753419489711523,0.06361950860396028,-0.001540580505505204
1733860598929620200,7.8496201171875,-0.06957096435427665,0.05337342439964413,-0.034350707489065824
1733860598939570200,7.859570068359375,-0.0701046328395605,0.03323839886561036,-0.04240194853022694
1733860598949521400,7.869521484375,-0.07541267611980437,0.023486089527606963,-0.05145104150231927
1733860598959472000,7.87947216796875,-0.07172375847399234,0.01707826831191778,-0.0424259504603222
1733860598969423400,7.88942333984375,-0.07492635390758513,-0.005179740725457668,-0.0651858811378479
1733860598979373300,7.899373291015625,-0.06076806469559669,-0.0004087269313633442,-0.07317695295698941
1733860598989324300,7.90932421875,-0.040329087778925896,0.0068085109710693354,-0.08368289367388933
1733860598999275300,7.919275146484375,-0.03351356254518032,0.017109686363488436,-0.09380531496591865
1733860599009226200,7.929226318359375,-0.022654314878582955,0.021876608504354952,-0.09566665185838938
1733860599019177200,7.93917724609375,-0.015998364120721816,0.02199292836040258,-0.09496902498304843
1733860599029127200,7.949127197265625,0.0071317515760660165,0.031233196523040532,-0.09812051128391176
1733860599039078100,7.959078125,0.015315642553567885,0.02247545118033886,-0.07573997184541076
1733860599049029400,7.969029296875,0.044458734929561615,0.012457476643472909,-0.06069909111261367
1733860599058980400,7.97898046875,0.04865852470695972,0.00005903671085834503,-0.06186510268468409
1733860599068930000,7.988929931640625,0.045512627896666526,-0.015273556977510452,-0.017657383374124765
1733860599078881300,7.99888134765625,0.038949616119265555,-0.04254252604469657,0.023517544111795723
1733860599088832300,8.008832275390626,0.030011107382178305,-0.043740503657609224,0.05158248586226254
1733860599098783200,8.018783203125,0.01931084966957569,-0.042937516711652274,0.06115286276210099
1733860599108734200,8.028734130859375,-0.02094166574180126,-0.03657908759564161,0.06363945541344583
1733860599118684400,8.038684326171875,-0.04303776221573353,-0.05868059089705348,0.07935896606016904
1733860599128635100,8.04863525390625,-0.06496668542921542,-0.052127369861304756,0.06483794448301196
1733860599138586400,8.05858642578125,-0.07736497923135757,-0.03843450620397925,0.043115540159679944
1733860599148537000,8.068537109375,-0.06358955185711383,-0.022209785981476306,0.03228055015150457
1733860599158487300,8.0784873046875,-0.04070668891966343,0.008096797215938568,0.03324643604159355
1733860599168438300,8.088438232421876,-0.036979777351021766,0.020126257705688474,0.028025997979566453
1733860599178389200,8.09838916015625,-0.043155835637450214,0.019852993722259998,0.02452504065390676
1733860599188340200,8.10834033203125,-0.03571837911307812,0.027931086237728595,0.04271280457768589
1733860599198291200,8.118291259765625,-0.03620060967206955,0.029511487296968696,0.052830732357688245
1733860599208241200,8.1282412109375,-0.06075929686725139,0.0689502021074295,0.059864905310794705
1733860599218192400,8.1381923828125,-0.08217968603670596,0.07134454989805818,0.03445208550430834
1733860599228143000,8.14814306640625,-0.08713760070502757,0.04851312488690018,-0.0028784415131434798
1733860599238094300,8.15809423828125,-0.07933072634637356,0.07070522908121347,-0.07244655632320791
1733860599248044300,8.168044189453125,-0.054447629502415655,0.08511822370663284,-0.11882014843076467
1733860599257995000,8.1779951171875,-0.0466202968776226,0.09749912798255682,-0.17054047186113894
1733860599267946200,8.1879462890625,-0.04431201993525028,0.1054927570849657,-0.17453841892350463
1733860599277897200,8.197897216796875,-0.029697803649306295,0.1322518769338727,-0.1613442620359361
1733860599287847200,8.20784716796875,-0.016450784063339233,0.1513825477309525,-0.14396350364610552
1733860599297798100,8.217798095703126,-0.04190086714029312,0.15735504626929758,-0.1268213763177395
1733860599307749400,8.227749267578124,-0.05516542238295078,0.11695187034085393,-0.1095723180161789
1733860599317700000,8.2377001953125,-0.07435059984624386,0.10523074514791368,-0.10146309971008449
1733860599327651300,8.2476513671875,-0.06588789192736148,0.08330752102285623,-0.10859035777412354
1733860599337601300,8.257601318359375,-0.06657295158207416,0.06591930997893214,-0.12435838373769074
1733860599347552300,8.26755224609375,-0.05378595072329044,0.08006050192564726,-0.10955076377149671
1733860599357505800,8.277505859375,-0.04593757531046867,0.07102379351109266,-0.12920582376886158
1733860599367456800,8.287456787109376,-0.04809913725852966,0.05862564583942294,-0.14142390216588974
1733860599377406700,8.29740673828125,-0.04934826053678989,0.059563218950480216,-0.11758680724352598
1733860599387357700,8.307357666015625,-0.042481881898641584,0.045909810520708555,-0.12683547790832816
1733860599397309000,8.317308837890625,-0.033171617239713666,0.04683233219310641,-0.12970599184334278
1733860599407259600,8.327259765625,-0.014395020577311514,0.043346389773488044,-0.13522402461245656
1733860599417209900,8.3372099609375,0.0012567220628261564,0.05790741456747055,-0.12213080734871327
1733860599427160800,8.347160888671874,-0.004905307698249817,0.06280322378501296,-0.10705606087893246
1733860599437111800,8.35711181640625,0.0013619360029697416,0.05999971067160367,-0.0920699425406754
1733860599447062800,8.367062744140625,-0.014064765709638594,0.062406479552388185,-0.07182575754374265
1733860599457013800,8.377013671875,-0.02785246804356575,0.048844548798352476,-0.06118143126945942
1733860599466963700,8.386963623046874,-0.03223229056298733,0.04997501413300633,-0.0586982726842165
1733860599476915000,8.3969150390625,-0.03780219964981079,0.04066694143116474,-0.049561318765580654
1733860599486865700,8.40686572265625,-0.027529227438569066,0.03965177303925156,-0.03807513483967632
1733860599496817000,8.41681689453125,-0.03566986379623413,0.047898792380839585,-0.020729922687262297
1733860599506766800,8.426766845703124,-0.029463994893431662,0.035938597735017536,0.002474281159043312
1733860599516717600,8.436717529296875,-0.027007833912968633,0.031582009960711,0.041299759441986675
1733860599526668800,8.446668701171875,-0.032336919981241226,0.05552797208502888,0.04017645450048148
1733860599536619800,8.456619873046876,-0.032843700459599494,0.06078282387331128,0.04400730136763304
1733860599546570800,8.46657080078125,-0.020023966374993322,0.05734057446494698,0.04821059827636927
1733860599556520700,8.476520751953124,-0.033110242441296574,0.06814633837863802,0.044373102472722525
1733860599566472000,8.486471923828125,-0.022405308553576468,0.06265183261558413,0.05579897104613483
1733860599576422700,8.496422607421875,-0.027570728492736816,0.023853607665747404,0.07703896214738487
1733860599586374000,8.506373779296876,-0.045330841588974,0.008337912495434283,0.07687715918179601
1733860599596323800,8.51632373046875,-0.03963292220830917,0.003927548707276582,0.06806782978232949
1733860599606274800,8.52627490234375,-0.020768062740564346,0.014890549009293317,0.060143210795521734
1733860599616225800,8.536225830078125,-0.012220599147677421,0.0062970543175935745,0.0628818419791758
1733860599626176800,8.5461767578125,-0.029272856235504147,0.008198942416161299,0.0405904055962339
1733860599636126700,8.556126708984374,-0.027008418434858322,0.013985855254530905,0.020933117109164595
1733860599646078000,8.566077880859375,-0.042375498914718625,0.008167378234118223,-0.025703765577077865
1733860599656028700,8.576028564453125,-0.013879472270607948,0.0008119009047746658,-0.05143536900915205
1733860599665980000,8.58597998046875,0.004781973579525947,0.013386281926184893,-0.07732559706903994
1733860599675930600,8.5959306640625,-0.007347440153360366,0.02481836104467511,-0.09301124197877943
1733860599685880600,8.605880615234375,0.0019505495458841324,0.0423982952684164,-0.10560060137361288
1733860599695831800,8.615831787109375,-0.0070148471981286995,0.03886164557486772,-0.11816044241301715
1733860599705782800,8.62578271484375,-0.007753682866692543,0.0671760320417583,-0.12985855205655097
1733860599715733800,8.635733642578124,-0.013112579551339149,0.05693301657736301,-0.12029036711379885
1733860599725683700,8.64568359375,-0.04691138877868652,0.07055909860879182,-0.12620200231038034
1733860599735634700,8.655634765625,-0.03564531387686729,0.0802187612272799,-0.11921813477240502
1733860599745585700,8.665585693359375,-0.03337093920409679,0.0884562820881605,-0.12719057495631278
1733860599755537000,8.675536865234376,-0.05801964277029037,0.07296791331619024,-0.12475341093726455
1733860599765487600,8.685487548828124,-0.03945522755384445,0.06934592342674732,-0.11895130052976309
1733860599775437800,8.695437744140625,-0.05115735578536987,0.06908946444764733,-0.10450929900556802
1733860599785388800,8.705388916015625,-0.05955927342772484,0.059356736592948434,-0.09080043406151235
1733860599795339800,8.71533984375,-0.05661795927882194,0.06407163628563284,-0.07868314915783703
1733860599805290800,8.725290771484374,-0.04049743008315563,0.05077127907723188,-0.047117944201454515
1733860599815241000,8.735240966796875,-0.054555181530117985,0.06358721376955509,-0.045265375137329096
1733860599825191700,8.745191650390625,-0.06424596993923187,0.054136225465685126,-0.02404343114942312
1733860599835143000,8.755142822265626,-0.05570435156524181,0.06246887726411223,-0.019890987645089626
1733860599845093600,8.76509375,-0.03728665134310722,0.06170066937059163,-0.021644553314149377
1733860599855043800,8.7750439453125,-0.05297171173095703,0.05998085984066128,-0.04112644870169461
1733860599864994800,8.784994873046875,-0.02739361836016178,0.0574419890128076,-0.03244023422524333
1733860599874945800,8.79494580078125,-0.019019173246622084,0.059311436146497726,-0.016268778559938073
1733860599884896800,8.804896728515626,-0.011858780097961425,0.07801555209457874,-0.007829597647115587
1733860599894847700,8.81484765625,-0.010218027153611182,0.05169438527151942,-0.0025538492012768983
1733860599904797700,8.824797607421875,-0.004425999748706817,0.04292085783779621,-0.0023311463613063096
1733860599914748700,8.834748779296875,0.003298457023501396,0.04188420826643705,-0.011959902384877204
1733860599924700000,8.844699951171876,0.0066904375493526454,0.028245412883907556,-0.013692279135435819
1733860599934650600,8.854650634765624,0.007287234398722648,0.02416501170247793,-0.03318929902687669
1733860599944600800,8.864600830078125,-0.04238426674306393,0.03534413897320628,-0.03501139988750219
1733860599954551800,8.8745517578125,-0.06778758806884289,0.004437982447445392,-0.02979308071732521
1733860599964502800,8.884502685546876,-0.06874620396792888,-0.021525164718180893,-0.06746800072565674
1733860599974453800,8.894453857421874,-0.025679215657711026,-0.006641191580146551,-0.09231865660473704
1733860599984404700,8.90440478515625,-0.021038111853599547,0.028650194292515516,-0.11526757051572203
1733860599994354700,8.914354736328125,-0.01757423513531685,0.045859249377250666,-0.10971592773795127
1733860600004306000,8.924305908203126,-0.01871171473264694,0.04141439879760146,-0.07552738854065537
1733860600014256600,8.934256591796874,-0.023310732960700988,0.071043667255342,-0.05585216253809631
1733860600024208000,8.944207763671875,-0.02313420735001564,0.07621069462969898,-0.022746669337153434
1733860600034157800,8.95415771484375,-0.02080138048827648,0.08756634751111268,0.01576981606185436
1733860600044108800,8.96410888671875,-0.048615854609012604,0.07876359398290514,0.030705811648070812
1733860600054059800,8.974059814453126,-0.06393909594714642,0.04080561924949288,0.041844533843174575
1733860600064010800,8.9840107421875,-0.09053718001544475,0.01900280663371086,0.05499320762120187
1733860600073960700,8.993960693359375,-0.09021627749800681,0.013605185373872519,0.03217230400405824
1733860600083911700,9.00391162109375,-0.06521101557910441,0.023482290135324,0.025844050830602646
1733860600093862700,9.013862548828126,-0.04619242685437202,0.04187456365525722,0.022827990945056078
1733860600103814000,9.02381396484375,-0.028073417317867277,0.03030614480599761,0.013768924568220972
1733860600113764900,9.033764892578125,-0.04736497776508331,0.03800985105112195,0.030079569508507847
1733860600123714600,9.043714599609375,-0.04254793287217617,0.0392591204598546,0.02955978341810405
1733860600133665800,9.053665771484376,-0.03364215736091137,0.03852569161877036,-0.011243570809066294
1733860600143616800,9.06361669921875,-0.026790391770005223,0.04324219874665141,-0.04074059118926525
1733860600153567700,9.073567626953125,-0.002382511222362518,0.04112666789740324,-0.0850665665846318
1733860600163517700,9.083517578125,-0.00336450799703598,0.04838321489691734,-0.14237798802033066
1733860600173469000,9.093468994140625,-0.004479775762557983,0.06502206887826323,-0.17164587581977248
1733860600183419600,9.103419677734376,-0.032057518517971034,0.05985226502493023,-0.22423976721428335
1733860600193371000,9.113370849609375,-0.05227846876978874,0.04174187718629837,-0.24147015734799204
1733860600203321600,9.123321533203125,-0.05796002153754234,0.037931525117903944,-0.2311350066207349
1733860600213271800,9.133271728515625,-0.041627895417809486,0.03907426541224122,-0.21719489020407198
1733860600223222800,9.143222900390626,-0.0339589682251215,0.03228708949014544,-0.18118286190666258
1733860600233173800,9.153173828125,-0.00670329703092575,0.027236528102308512,-0.14369571955539284
1733860600243124700,9.163124755859375,-0.010467033478617667,0.04519961642473936,-0.06682926443070172
1733860600253075000,9.173074951171875,0.007760697129368782,0.049081572424620384,-0.021281857481598852
1733860600263025700,9.183025634765626,0.02838964366018772,0.05966068797558546,0.04681026649177074
1733860600272977000,9.192976806640624,0.015236732098460196,0.055565381485968825,0.07813026451542973
1733860600282927900,9.202927978515625,-0.00839081172645092,0.08658186651840806,0.06917195509932934
1733860600292877600,9.212877685546875,-0.005556465083360672,0.11358517038673162,0.07844137629121542
1733860600302828800,9.222828857421876,-0.010848726272583008,0.13379428407028315,0.07319397715702652
1733860600312779800,9.23277978515625,-0.03206394825875759,0.12448898784741759,0.055700113781541584
1733860600322730800,9.242730712890625,-0.05929565405547618,0.08796250722184777,0.03625876960009336
1733860600332681700,9.252681640625,-0.048103813433647155,0.06437938706055284,0.011719444692507386
1733860600342632000,9.2626318359375,-0.042430443972349165,0.06163841778934002,-0.00575425267778337
1733860600352579800,9.272579833984375,-0.0496224013030529,0.0760642718963325,0.0018332067765295505
1733860600362530800,9.28253076171875,-0.06058510934412479,0.06560162233188747,0.0335033334121108
1733860600372481800,9.292481689453124,-0.08834697649478912,0.04532587315291166,0.03446859824769199
1733860600382431700,9.302431640625,-0.0878600697606802,0.020165859063714743,0.027847718803212046
1733860600392382700,9.3123828125,-0.059843351066112514,0.005693827727437019,0.015677169342339037
1733860600402333700,9.322333740234376,-0.037953590819239616,-0.0024630291126668453,-0.015736352183669804
1733860600412285000,9.332284912109374,-0.021748890471458435,0.010424363380670546,-0.03609619944952428
1733860600422235600,9.342235595703125,-0.023050620719790457,0.006886690773814916,-0.07336356157027185
1733860600432185600,9.352185546875,-0.015353051954507826,0.00263210206925869,-0.09593049042634666
1733860600442136800,9.36213671875,-0.03024316257238388,0.020430939740687607,-0.10709442012794315
1733860600452087600,9.372087646484376,-0.016840075641870497,0.005847264723479747,-0.13302140000164508
1733860600462038800,9.382038818359375,-0.03469488128423691,0.022904782508313654,-0.11881342642903327
1733860600471988700,9.39198876953125,-0.016891513568162916,0.021266952173411846,-0.09929872475042939
1733860600481939700,9.401939697265625,-0.014806523987650871,0.020340046586841343,-0.08121895124576986
1733860600491890700,9.411890625,-0.025092940202355384,0.012769757463037967,-0.08495221948996186
1733860600501841700,9.421841552734374,-0.03283493263125419,0.011061346109956502,-0.07037818908393383
1733860600511792600,9.431792724609375,-0.04175006049275398,0.008002981452643871,-0.043751755703985686
1733860600521742800,9.441742919921875,-0.04453296920955181,0.005489245066046714,-0.05149550169855356
1733860600531693800,9.45169384765625,-0.03864741830229759,0.02664718390703201,-0.055725175157561896
1733860600541644800,9.461644775390624,-0.049996495312452316,0.05429375411495566,-0.05403181524313986
1733860600551595800,9.471595703125,-0.056115854975581164,0.07897840577736497,-0.04377930129803717
1733860600561545700,9.481545654296875,-0.06522212149500846,0.09233516934812068,-0.04421542769297957
1733860600571496700,9.49149658203125,-0.05219195953011512,0.11062032923176884,-0.06450301344022154
1733860600581448000,9.501447998046874,-0.04784077858328819,0.12597528088241816,-0.07269742581173777
1733860600591398700,9.511398681640625,-0.0632686493396759,0.10620894253030419,-0.0837372907422483
1733860600601348600,9.5213486328125,-0.05192074137330055,0.11806523841023445,-0.07607618152983486
1733860600611299800,9.5312998046875,-0.039051907449960704,0.10885828799530863,-0.06591850626133382
1733860600621250600,9.54125048828125,-0.04400046976804733,0.09026289311870932,-0.04568696155026555
1733860600631201800,9.551201904296875,-0.031920740395784374,0.09185629978999495,-0.015659195294231175
1733860600641152500,9.561152587890625,-0.03466740875542164,0.07567717227488756,-0.0017138181805610656
1733860600651102700,9.571102783203125,-0.031600422400236125,0.06923267231062054,0.02302614386565983
1733860600661053700,9.5810537109375,-0.026883915272355077,0.04815627427324652,0.03066314155012369
1733860600671004700,9.591004638671874,-0.012156886261701583,0.03858019828498363,0.03574614390283823
1733860600680955600,9.60095556640625,-0.014484452426433562,0.022532880456000565,0.041159401123225685
1733860600690905900,9.61090576171875,-0.042377252480387685,0.0018644786976277827,0.03133066554814577
1733860600700856600,9.620856689453126,-0.06184650758206844,-0.028216332919895646,0.002217895245179534
1733860600710807800,9.630807861328124,-0.0401502240806818,-0.019151421324163673,-0.049396483592689035
1733860600720758800,9.6407587890625,0.0022264438778162,0.00309197466596961,-0.08596344235911965
1733860600730709800,9.650709716796875,0.00395838223695755,0.01643178710192442,-0.10835084992982447
1733860600740659700,9.66065966796875,-0.020324995148181913,0.022162001316994428,-0.11420505585074424
1733860600750611000,9.67061083984375,-0.03307341756224632,0.030914047571271655,-0.08214943702891468
1733860600760561700,9.680561767578125,-0.01037584806382656,0.044064328784495586,-0.06389021530412137
1733860600770513000,9.690512939453125,-0.007595861956477165,0.052823535431921476,-0.031321532393619414
1733860600780462800,9.700462890625,-0.03180617410540581,0.047152504058182235,0.015938742887973784
1733860600790413600,9.71041357421875,-0.06744155111014842,0.02614975577890873,0.032032676337659355
1733860600800364800,9.72036474609375,-0.07347264796793461,0.008504208973050117,0.040804304075241084
1733860600810315800,9.730315673828125,-0.07547638900578021,-0.00861190713122487,0.03753719203807413
1733860600820265700,9.740265625,-0.06717033295333386,0.008993307664245366,0.030417057834565636
1733860600830216700,9.750216796875,-0.05931552779972553,0.019570377388596533,0.029995836747810242
1733860600840167700,9.760167724609374,-0.06507599102258682,0.03873874984756112,0.043983664763718844
1733860600850118700,9.77011865234375,-0.054854456737637516,0.041313861032575366,0.025131810908019542
1733860600860069600,9.780069580078125,-0.03610533260405063,0.04884907884299755,-0.010096811926737427
1733860600870019600,9.79001953125,-0.022122399958968163,0.06925166927203535,-0.02217047688439488
1733860600879970800,9.799970703125,-0.011707973450422286,0.06619535044133663,-0.070460387474671
1733860600889921800,9.809921875,-0.010691489884257315,0.08122180078998208,-0.10546769570894539
1733860600899872800,9.819872802734375,-0.013409516671299934,0.06905088600292801,-0.11341266336403787
1733860600909822700,9.82982275390625,-0.024332477223873137,0.07340119016692041,-0.1456903274387121
1733860600919773700,9.839773681640626,-0.011296470040082931,0.07053045703619717,-0.1535361455682665
1733860600929724700,9.849724609375,-0.010212766456604003,0.055946782018989324,-0.14251286644637584
1733860600939676000,9.859676025390625,-0.022862989193201063,0.06710325906649231,-0.15096183810085056
1733860600949625900,9.8696259765625,-0.03775543789863586,0.06641279258430004,-0.12029869655072688
1733860600959576800,9.879576904296876,-0.028261633366346357,0.06776961402073502,-0.11589103617630898
1733860600969527800,9.88952783203125,-0.04376899909973144,0.0774232852898538,-0.09832717630453407
1733860600979478800,9.899478759765625,-0.049991234615445135,0.07879545042589306,-0.07953786629103124
1733860600989429800,9.9094296875,-0.06118833593428134,0.07186594342365861,-0.06952529858164488
1733860600999379700,9.919379638671876,-0.0674339523255825,0.04868935823664069,-0.0771025289028883
1733860601009330700,9.92933056640625,-0.06828910785019397,0.056861558776348825,-0.0783359431553632
1733860601019281700,9.93928173828125,-0.0719745183646679,0.07167845802754164,-0.0913037074085325
1733860601029232600,9.949232666015625,-0.06322773280739784,0.06675619919449091,-0.10597162664309144
1733860601039182600,9.9591826171875,-0.020216274076700208,0.07416691384240985,-0.08985146277360617
1733860601049133800,9.9691337890625,-0.01925415104627609,0.049883098065853115,-0.07098733395822346
1733860601059084500,9.97908447265625,-0.04118541234731674,0.024567455023527144,-0.04801861936822533
1733860601069035800,9.989035888671875,-0.03604337328374386,-0.005415010786056518,-0.04548566682450473
1733860601078986800,9.99898681640625,-0.021192425632476804,0.00910100582242012,-0.04661452472396194
1733860601088936700,10.008936767578126,0.006246200913190841,0.03797624104246497,-0.03293075768854469
1733860601098887700,10.0188876953125,-0.012401216411590575,0.05819280738011002,-0.01142911997642368
1733860601108839000,10.0288388671875,-0.03838613701760769,0.06668678722009062,-0.0004683846967294812
1733860601118789600,10.03878955078125,-0.04522855025827884,0.07107040913179516,0.00173639533855021
1733860601128739800,10.04873974609375,-0.043998131680488585,0.055040626959502695,-0.0116209892867133
1733860601138690800,10.05869091796875,-0.03664309274256229,0.06482420821860432,-0.01771736993305385
1733860601148641800,10.068641845703125,-0.024227263283729553,0.07163242692872882,-0.017162841322831808
1733860601158592800,10.0785927734375,-0.030978491109609603,0.08656813025400042,-0.02595974963214248
1733860601168543700,10.088543701171876,-0.032661914151906966,0.0770782712444663,-0.028347813812457025
1733860601178493700,10.09849365234375,-0.024482114827632902,0.07205693595111369,-0.03689885760191828
1733860601188444700,10.108444580078125,-0.03814414495527744,0.054852703171968456,-0.03383417280167341
1733860601198395600,10.118395751953125,-0.05809738418161869,0.047972734399884934,-0.049956199834682045
1733860601208347000,10.128346923828126,-0.07164367897510528,0.02815101259872317,-0.026071831704489887
1733860601218296800,10.138296875,-0.06990706444084643,0.04935074475482106,-0.02425506460610777
1733860601228247600,10.14824755859375,-0.0718739805996418,0.055761488579958676,-0.02967898935098201
1733860601238198800,10.15819873046875,-0.05284019430577755,0.05178498616442084,-0.02165153104420751
1733860601248149800,10.168149658203125,-0.022509937971830367,0.06935775999501347,-0.026143252972885965
1733860601258099700,10.178099609375,-0.03167231859266758,0.06307005802765488,-0.016085567480139434
1733860601268050700,10.18805078125,-0.02518237205147743,0.06343143868595362,-0.0028809257311746476
1733860601278001700,10.198001708984375,-0.013082184413075446,0.07607873881310225,-0.006345861895382404
1733860601287952600,10.20795263671875,-0.0361766442745924,0.07534852484241128,-0.02488707889933139
1733860601297903900,10.21790380859375,-0.023333529314398763,0.068541767437011,-0.007928674107417464
1733860601307853800,10.227853759765624,-0.013951952984929085,0.041331688950210804,-0.03585216156058013
1733860601317804800,10.2378046875,-0.008162848189473151,0.04846212535202503,-0.03510715187955647
1733860601327755800,10.247755859375,-0.013742694148421287,0.030617402712255715,-0.025481793389469383
1733860601337706800,10.257706787109376,-0.021232173120975494,0.019711685555428266,-0.02827076652087271
1733860601347656700,10.26765673828125,-0.04816343466639519,0.008118570656329392,-0.020935893588140606
1733860601357610800,10.27761083984375,-0.039455812075734134,0.002544862177222967,-0.020682649479433893
1733860601367561700,10.287561767578126,-0.0301724354237318,-0.004891863694787025,-0.026304873275384305
1733860601377512700,10.2975126953125,-0.03242576730847359,0.0012207739666104315,-0.0325514395147562
1733860601387462700,10.307462646484375,-0.05040332254767418,0.008568798641860484,-0.03886310687959194
1733860601397413600,10.31741357421875,-0.036679917621612546,0.012843407221138477,-0.03561681843474507
1733860601407364900,10.32736474609375,-0.02938917609155178,0.01935688076838851,-0.048687896931916476
1733860601417315800,10.33731591796875,-0.018626959058642385,0.011777093163877725,-0.051229836499691005
1733860601427266800,10.347266845703125,-0.017722119173407554,0.01503112652376294,-0.03898877908587456
1733860601437216800,10.357216796875,-0.014400865796208381,0.036912411203235386,-0.04706197623051703
1733860601447167700,10.367167724609375,-0.036381811457872386,0.039836628086864945,-0.03814911339133978
1733860601457118700,10.37711865234375,-0.05598316850662231,0.04143573384657502,-0.048375104655697936
1733860601467069700,10.387069580078125,-0.041560675400495524,0.06114113579168915,-0.07561506682410836
1733860601477020000,10.39702001953125,-0.016005378383398054,0.09692556587830185,-0.10368928785957396
1733860601486970600,10.406970703125,-0.022621581652760504,0.10230725891664623,-0.11028196412287652
1733860601496921900,10.416921875,-0.02610825472474098,0.11806275419220327,-0.0990017145652324
1733860601506872600,10.42687255859375,-0.029600188493728637,0.12005495092272758,-0.08929887039214372
1733860601516823800,10.43682373046875,-0.0224953249245882,0.10937836634665726,-0.08768990082554519
1733860601526773800,10.446773681640625,-0.03847323077917099,0.1032913015179336,-0.07022153721749783
1733860601536724700,10.456724853515626,-0.0670639499694109,0.11559051885977387,-0.06085797146875411
1733860601546675700,10.46667578125,-0.10722177283465861,0.05629325736910105,-0.04834061786420643
1733860601556626700,10.476626708984375,-0.12315583954751491,0.02514160164967179,-0.03305500512272119
1733860601566576600,10.48657666015625,-0.11979834581315517,0.0023733050025999546,-0.022984058289602396
1733860601576528000,10.49652783203125,-0.08262509171664714,0.001902326489984989,-0.02306793718077242
1733860601586478600,10.506478515625,-0.059364627638459205,0.019525515333563087,-0.015662665892951188
1733860601596429800,10.516429931640625,-0.04720540328919887,0.03106616939306259,-0.0024479776740074155
1733860601606379800,10.5263798828125,-0.042537411478161806,0.028677082299441096,0.023835268291458486
1733860601616330500,10.53633056640625,-0.05013327343463898,0.016191110213845967,0.008023695447109638
1733860601626281700,10.54628173828125,-0.014478607207536697,0.010136486349999904,-0.01055778050199151
1733860601636232700,10.556232666015624,0.005348375290632247,0.005008768072724342,-0.028116087415814398
1733860601646183700,10.56618359375,0.01878361092507839,0.025124212123453615,-0.04293178109060972
1733860601656133600,10.576133544921875,0.026236849540472028,0.019189122986048458,-0.06554415652360766
1733860601666084900,10.5860849609375,0.0028998130947351453,0.018848931246250866,-0.06239380273390561
1733860601676035600,10.59603564453125,0.003661445116996765,0.016694529691338538,-0.06934322001300752
1733860601685986800,10.60598681640625,-0.014562193837761878,0.030140871241688728,-0.04722746899053454
1733860601695936800,10.615936767578125,-0.014812369206547736,0.02609378780797124,-0.052058030952140684
1733860601705887700,10.6258876953125,-0.021355507239699364,0.0241270177796483,-0.029925803718902168
1733860601715838700,10.635838623046874,-0.017906243568658827,0.03417509519383311,-0.008155432067997754
1733860601725789700,10.645789794921875,-0.03333528336882591,0.050667818702757356,-0.0020277064353227616
1733860601735740700,10.65574072265625,-0.029315526333451268,0.05535685330182313,-0.004562229881621897
1733860601745691000,10.66569091796875,-0.026790391770005223,0.06736892426535487,0.012379406438581644
1733860601755641600,10.6756416015625,-0.027996844950318334,0.06406199167445302,0.035477300366200504
1733860601765592800,10.6855927734375,-0.028267478585243224,0.08184680082052946,0.030487054330855606
1733860601775543800,10.695543701171875,-0.04408873257339001,0.10017989149913191,0.03520074844714254
1733860601785493800,10.70549365234375,-0.047106034567952156,0.10273469054847956,0.011954970481432974
1733860601795444700,10.71544482421875,-0.03748305069804191,0.1024035588979721,0.007302139706909656
1733860601805396000,10.72539599609375,-0.0500800819426775,0.09704320090860127,0.008560067346133291
1733860601815346700,10.7353466796875,-0.052561961886286736,0.08215396707355975,0.016424663241393862
1733860601825296600,10.745296630859375,-0.03934650648236274,0.05974456686675548,0.004094137445837259
1733860601835247900,10.755247802734376,-0.026533786660432813,0.04726224804297089,-0.017231120786070822
1733860601845198600,10.765198486328124,-0.014117372679710386,0.06339578285068273,-0.021879238852858543
1733860601855149800,10.77514990234375,-0.02128887174427509,0.07083221646174788,-0.019408903216570614
1733860601865100500,10.7851005859375,-0.03834054431021213,0.06839344500750302,-0.01870017042532563
1733860601875050800,10.79505078125,-0.05959376021921634,0.057258303008973596,-0.05216185665279627
1733860601885001700,10.805001708984374,-0.05751403133571147,0.045598991005867714,-0.07970277452915907
1733860601894952700,10.81495263671875,-0.044375148299336434,0.016789368367940188,-0.09626381403394042
1733860601904903700,10.824903564453125,-0.035434301474690434,0.001123597202450037,-0.12219064777716994
1733860601914854000,10.83485400390625,-0.019125556230545043,0.0012714812405407428,-0.11277407319955528
1733860601924804600,10.8448046875,-0.021309330010414122,-0.016629209370166063,-0.10311784464716911
1733860601934755800,10.854755859375,0.0015665186643600464,-0.02341317042186856,-0.11081278306394815
1733860601944706600,10.86470654296875,-0.012178513571619986,-0.004684650684893131,-0.09430705394297838
1733860601954657800,10.87465771484375,-0.023487258571386335,0.005885404776781797,-0.10392499631159006
1733860601964607700,10.884607666015626,-0.01065817213654518,-0.005234393522143364,-0.0949444750636816
1733860601974558700,10.894558837890624,0.0011246201157569884,0.019930735133588312,-0.08034991332627832
1733860601984509700,10.904509765625,-0.01223638123869896,0.04755348607450723,-0.0734955904521048
1733860601994461000,10.9144609375,-0.030838790377974507,0.05381897621005773,-0.07524236105419695
1733860602004410600,10.92441064453125,-0.030744682353734967,0.045781800226867196,-0.061333881884813306
1733860602014361600,10.934361572265624,-0.02798047833740711,0.0526481788650155,-0.02488857673667371
1733860602024312800,10.944312744140625,-0.02444645899236202,0.05701923355609178,-0.0018188859902322292
1733860602034263800,10.954263916015625,-0.033062311646342275,0.08072378813996911,0.02010353441722691
1733860602044213800,10.9642138671875,-0.03796060508191585,0.06975465035811067,0.02938018906749785
1733860602054164700,10.974164794921874,-0.04825988077819347,0.07465279766321181,0.03421718076989055
1733860602064115700,10.98411572265625,-0.048717561417818064,0.07877090050652623,0.02755626157596707
1733860602074066700,10.994066650390625,-0.06354921984672546,0.05944046935364604,0.0083110244885087
1733860602084017700,11.004017578125,-0.05265022469162941,0.053821022036671634,-0.00392469916306436
1733860602093967600,11.013967529296876,-0.036307577177882196,0.05338204609751701,-0.0164478614538908
1733860602103918800,11.0239189453125,-0.03944470615983009,0.011124766734987497,-0.026043080534040926
1733860602113869600,11.03386962890625,-0.08327800266742706,-0.033089784175157545,-0.010821180678531528
1733860602123820800,11.04382080078125,-0.0758820471972227,-0.024180647663027046,0.009793591196462512
1733860602133770800,11.053770751953126,-0.04355272600054741,-0.004686111989617347,0.018971023255959153
1733860602143721700,11.0637216796875,-0.01927636287808418,0.03024593905135989,0.0012621288903057575
1733860602153672700,11.073672607421875,-0.006966331881284714,0.06260112534165382,-0.010157675268501042
1733860602163624000,11.0836240234375,-0.0037853637576103208,0.07112769227698446,-0.015323460533842443
1733860602173573600,11.09357373046875,0.004057750958204269,0.06477174737900496,-0.019457637729123234
1733860602183524900,11.10352490234375,0.015668693774938583,0.05689034647941589,-0.06730879157595336
1733860602193475800,11.113475830078125,0.027764789760112762,0.06789601687937974,-0.0929231983691454
1733860602203426800,11.1234267578125,0.03657645724713802,0.10171411532908678,-0.11256386451497673
1733860602213377800,11.133377685546876,0.029499066206812856,0.10454057092666626,-0.13678791292831302
1733860602223327700,11.14332763671875,0.01643967814743519,0.07962181824743747,-0.12267748144604265
1733860602233278700,11.15327880859375,-0.01201543196439743,0.0876636704057455,-0.10037512181028724
1733860602243229700,11.163229736328125,-0.032089082700014114,0.09967530297785997,-0.082668711662665
1733860602253180700,11.1731806640625,-0.043426469272375104,0.08996084143221378,-0.038591815657541155
1733860602263130600,11.183130615234376,-0.05320785857439041,0.057594841486960646,0.009732873985171317
1733860602273081900,11.193081787109374,-0.0970230349034071,0.028889994397759435,0.050625586996227497
1733860602283032600,11.203032470703125,-0.0984036756068468,0.003630903848260641,0.06730806092359125
1733860602292983800,11.21298388671875,-0.09242167858779429,-0.008938216476142406,0.04852086980193853
1733860602302934500,11.2229345703125,-0.08761106343567371,0.002342617603391409,0.03435417808778584
1733860602312884700,11.232884765625,-0.07319500007033347,0.009027940586209296,0.031062004674598572
1733860602322835700,11.242835693359375,-0.07925649206638335,0.014647387903183698,0.05404942396506667
1733860602332786700,11.25278662109375,-0.06558394054472447,0.01757701161429286,0.047039910529181356
1733860602342737700,11.262737548828126,-0.0333446357190609,0.008632803788781165,0.03308956497944891
1733860602352686800,11.272686767578126,-0.014239537754654884,0.03136471394822001,0.010072773464024066
1733860602362638000,11.28263818359375,0.0014414309799671173,0.04232011546567082,-0.0042038083653897045
1733860602372588800,11.2925888671875,-0.005745850175619125,0.06396919882446526,-0.03089044749997556
1733860602382540000,11.3025400390625,-0.012791677033901213,0.07952025756910443,-0.07069814175330102
1733860602392490000,11.312489990234376,-0.0045949265748262405,0.08872194728702307,-0.10502075565904379
1733860602402440700,11.322440673828124,-0.004887772041559219,0.07105009699612856,-0.10116152294762432
1733860602412392000,11.332391845703125,0.008933832561969756,0.08117386999502778,-0.13362586870081722
1733860602422343000,11.342343017578125,0.02460077277123928,0.09980521296784281,-0.1523222397338599
1733860602432294000,11.3522939453125,-0.005039747732877731,0.1288068510465324,-0.1389859344292432
1733860602442243800,11.362243896484374,-0.007469020706415176,0.10909516549110412,-0.11904182835742831
1733860602452194800,11.37219482421875,-0.027161563169956205,0.08796513757035136,-0.07693067946732043
1733860602462145800,11.382145751953125,-0.012605214551091194,0.055858519213646644,-0.04175371375456452
1733860602472097000,11.392096923828126,-0.007496493235230445,0.0326290347956121,-0.016925123576819894
1733860602482046700,11.402046630859376,-0.02543605455160141,0.006139817929267883,-0.020450959615409374
1733860602491998000,11.411998046875,-0.04603752855360508,0.014032032483816147,-0.019446604878455398
1733860602501949000,11.421948974609375,-0.0669067135810852,0.0021571780338883397,-0.03939027255885303
1733860602511900000,11.43189990234375,-0.05932020397484302,0.009998100792616605,-0.05614632317908108
1733860602521851000,11.441850830078126,-0.0680395170032978,-0.004622837495058775,-0.04450418150648475
1733860602531801000,11.451801025390624,-0.06479308242797852,-0.02862929763495922,-0.03932451384626329
1733860602541751800,11.461751708984375,-0.07083470067977905,-0.03919467692151665,-0.04137340920008719
1733860602551703000,11.471703125,-0.06597089403569698,-0.00980944635272026,-0.048383653288334605
1733860602561653800,11.48165380859375,-0.03869184196591377,0.015241846664994955,-0.059607277287915345
1733860602571604000,11.49160400390625,-0.02535071435570717,0.04425035287588835,-0.05562850985005498
1733860602581555000,11.501554931640625,-0.030565234133601186,0.05330620438233018,-0.03384754373989999
1733860602591506000,11.511505859375,-0.037897476717829705,0.05593772192969918,-0.030878391736000776
1733860602601457000,11.521456787109376,-0.0476093079149723,0.07985343504622579,-0.02791910353899002
1733860602611406800,11.53140673828125,-0.03247778975665569,0.08053148043826222,-0.022300167678669092
1733860602621357800,11.54135791015625,-0.008540449330210685,0.07535992301926016,-0.020315569732710717
1733860602631308800,11.551308837890625,-0.000013444003462791442,0.08645940918251871,-0.030083003574609756
1733860602641260000,11.561260009765626,-0.018565584260225296,0.09047288260757923,-0.009700506085529923
1733860602651210800,11.571210693359374,-0.023810499176383018,0.101197105717659,-0.017384996173530815
1733860602661161000,11.581160888671874,-0.021702713242173193,0.09620996495485305,-0.02450849137790501
1733860602671112000,11.59111181640625,-0.02257598894536495,0.08171484500393271,-0.020669497736915943
1733860602681063000,11.60106298828125,-0.036594577425718304,0.07472337868139148,-0.044487084241211415
1733860602691014000,11.611013916015626,-0.05392448241114616,0.07410188578218221,-0.04595569548904895
1733860602700964000,11.620964111328124,-0.045803135275840755,0.07207768647819757,-0.051207332406938075
1733860602710914800,11.630914794921875,-0.0532125347495079,0.05279357868507504,-0.059205710749700664
1733860602720866000,11.640865966796875,-0.052477790734171866,0.040310236947983503,-0.0721399380594492
1733860602730816800,11.650816650390626,-0.05719429786205291,0.04185892769470811,-0.08002718417793511
1733860602740767000,11.66076708984375,-0.062383683198690414,0.05151625222563743,-0.056185851471871134
1733860602750718000,11.670718017578125,-0.05263268903493881,0.04761442248150706,-0.0720650461923331
1733860602760669000,11.6806689453125,-0.042730303701758385,0.04612009227052331,-0.07664177952334285
1733860602770620000,11.690619873046876,-0.05737491512596607,0.03737242993041873,-0.06338372708670795
1733860602780571000,11.70057080078125,-0.06424012472033501,0.03275543765425682,-0.05168795553073287
1733860602790520800,11.710520751953124,-0.06992284653186798,0.03556742633506656,-0.05052592601403594
1733860602800471800,11.720471923828125,-0.06559621550440788,0.04047755633890628,-0.04418883194699883
1733860602810422800,11.7304228515625,-0.0641401714771986,0.03904693901389837,-0.02489215693324804
1733860602820374000,11.7403740234375,-0.06328092429935932,0.03972746862396598,-0.00850450123399496
1733860602830324000,11.750323974609374,-0.06305588337182998,0.05380246346667408,-0.0073706748984754085
1733860602840274700,11.760274658203125,-0.044587914267182345,0.052380321709066625,0.00973842694312334
1733860602850226000,11.770225830078125,-0.0244908826559782,0.05921469777375459,0.010660144897922873
1733860602860177000,11.780177001953126,-0.019675591328740118,0.04656052951440215,0.0022316315095871684
1733860602870126800,11.790126953125,-0.008873042285442351,0.06330839682817459,-0.019795199120417235
1733860602880077800,11.800077880859375,0.002374327915906906,0.07979016055166721,-0.05382438303753733
1733860602890029000,11.810029052734375,0.005406827479600906,0.08442878013774752,-0.08603139302879571
1733860602899979800,11.819979736328126,0.012350363007187842,0.07473784559816121,-0.09777962542437016
1733860602909931000,11.829930908203124,0.009581482815742491,0.06709113023728132,-0.1035100588351488
1733860602919881000,11.839880859375,0.011177227574586867,0.0657388388454914,-0.1113666906196624
1733860602929832000,11.84983203125,-0.015817162334918974,0.05802651090249419,-0.1016029100395739
1733860602939783000,11.859782958984376,-0.03201601746380329,0.047498394886404276,-0.07457556770853697
1733860602949734000,11.86973388671875,-0.05302431870102882,0.029077333663403985,-0.05030168880410492
1733860602959683800,11.879683837890624,-0.06341477981209755,0.004927081138640642,-0.022982670050114392
1733860602969635000,11.889635009765625,-0.04971592480540275,-0.00818126062899828,-0.0032263416353613137
1733860602979585800,11.899585693359375,-0.04469371272921562,-0.008427052083611488,0.040117929246276614
1733860602989537000,11.909537109375,-0.037276129949092865,-0.014149082992225885,0.06004610709659755
1733860602999488000,11.919488037109375,-0.058710547643899914,-0.021796529005467892,0.054471594899892804
1733860603009437700,11.929437744140625,-0.031306992411613464,0.006448299356549978,0.03295855901092291
1733860603019389000,11.939388916015625,-0.007926701346039771,0.01938435329720378,0.0024590835899114608
1733860603029340000,11.94933984375,-0.00861994430720806,0.03614084230884909,-0.007465513575077056
1733860603039291000,11.959290771484374,-0.004822890111804009,0.061038844460994,-0.007408814951777458
1733860603049240800,11.96924072265625,0.02131809783875942,0.07093377714008092,0.0045960956186056135
1733860603059192000,11.979192138671875,0.029061259311437604,0.06562149607613682,0.007175079261139035
1733860603069142800,11.989142822265626,-0.0007937807261943817,0.08588292446881532,0.018480755520984528
1733860603079094000,11.999093994140624,-0.026508067697286603,0.07577785617038607,0.025862828596308826
1733860603089044000,12.0090439453125,-0.06081307288110256,0.043120033671706914,0.044400575001537795
1733860603098995000,12.018994873046875,-0.06956102748215198,0.026220482927560806,0.051284489296376704
1733860603108946000,12.02894580078125,-0.06556172871291636,0.023784341821819543,0.03165865539349615
1733860603118897000,12.03889697265625,-0.048960722523927684,0.03478577443808317,0.010339753837138414
1733860603128848000,12.048847900390625,-0.049558688417077064,0.038247313068807125,-0.003543298630043864
1733860603138798000,12.058798095703125,-0.05286240613758564,0.041675533951818944,0.003450067388638854
1733860603148748800,12.068748779296875,-0.06039923138320446,0.0649941579580307,-0.011472118867933749
