time,seconds_elapsed,z,y,x
1733860660881092000,0.013092041015625,-0.07720949640870094,0.016911679573357104,0.006850012025237083
1733860660891043000,0.02304296875,-0.10094108512997627,-0.009723813895881176,-0.016947043147683142
1733860660900994000,0.032994140625,-0.20351649346351622,0.0329611893594265,0.012112754859030246
1733860660910944000,0.042944091796875,-0.1877361560076475,0.07140811665356159,-0.016357845082879064
1733860660920895000,0.05289501953125,-0.16327333040237427,0.13656126456558704,-0.04168079464882612
1733860660930846000,0.062845947265625,-0.07740531124174595,0.22146569939106703,-0.1676744879707694
1733860660940797200,0.072797119140625,-0.10572598131895064,0.12178455119431018,-0.1371989779472351
1733860660950747100,0.0827470703125,-0.0064566287934780114,0.08793138143122195,-0.012440963900089263
1733860660960697900,0.09269775390625,0.13192600598037243,0.10699965451657771,0.046695992462337015
1733860660970649000,0.102649169921875,0.12161913149952888,0.06201338858157396,0.11707681189477442
1733860660980599800,0.112599853515625,0.04280219989418983,0.031245325352251527,0.2464256608635187
1733860660990550000,0.122550048828125,-0.04171732726693153,-0.012257424026727675,0.3037514761507511
1733860661000501000,0.1325009765625,-0.01790098287165165,-0.04387801243215799,0.30175299580991266
1733860661010452000,0.142451904296875,0.03161445092558861,-0.03419102341532707,0.31498335652202364
1733860661020403000,0.15240283203125,0.038384383451938626,-0.061519175323843954,0.37263971893787384
1733860661030354000,0.16235400390625,-0.05854278986155986,-0.07914221803694962,0.47258097937554117
1733860661040303900,0.172303955078125,-0.13053075222969054,-0.09994739791750908,0.5913721939727664
1733860661050255000,0.182255126953125,-0.12443126631081104,-0.10979045427888631,0.7085439906746148
1733860661060205800,0.192205810546875,-0.08713350905179977,-0.13404869722276924,0.7986673291921615
1733860661070157000,0.202156982421875,-0.06742576901912689,-0.15203282833322881,0.8403463702753186
1733860661080107000,0.21210693359375,-0.04871463880836963,-0.1285518533721566,0.739206255441904
1733860661090058000,0.22205810546875,-0.07411445300281047,-0.07838920771256089,0.5413786212697624
1733860661100009000,0.232009033203125,-0.10364625243544578,0.08442834174633025,0.4576122505635023
1733860661109960200,0.241960205078125,-0.11905892562270164,0.10353285518884658,0.26506986331790683
1733860661119910000,0.251909912109375,-0.12427695253193377,0.29868586332425473,-0.0036877486020326614
1733860661129860900,0.26186083984375,0.18903145651519299,0.39666093825548887,-0.4544400502681732
1733860661139812000,0.27181201171875,0.3946814548760652,0.3779268655605614,-0.8858534452140331
1733860661149762800,0.2817626953125,0.3467337087869644,0.43569326422214505,-1.171680557617545
1733860661159713000,0.291713134765625,0.07456161224842071,0.5231444609209894,-1.3147683013424276
1733860661169664000,0.3016640625,-0.2306879935055971,0.5381032528609037,-1.2705068425506352
1733860661179615000,0.311614990234375,-0.4488350698679685,0.3955561918839812,-1.0213310061961411
1733860661189566000,0.32156591796875,-0.35905309213399883,0.020431378132104872,-0.4652794241905212
1733860661199516200,0.33151611328125,-0.20641338394880293,-0.51164121626243,0.16170038199722767
1733860661209467000,0.341466796875,0.18476736932992935,-0.15187793003246186,-0.23714725264757872
1733860661219418000,0.351418212890625,0.06194178465008735,0.05121580797433853,-0.25247195529043676
1733860661229368800,0.361368896484375,-0.09476210423409938,0.1554271469466388,-0.0696644878566265
1733860661239319000,0.371319091796875,-0.14137071067392826,0.2545807641379535,0.1676838403210044
1733860661249270000,0.38127001953125,0.007206570377945899,0.2656177064590156,0.3911617563173175
1733860661259221000,0.391220947265625,0.23614275178015232,0.2509277945883572,0.6371896500349045
1733860661269172000,0.401171875,0.45209377940297124,0.22422990340739488,0.9119161072313785
1733860661279123000,0.411123046875,0.6662585081309079,0.12897139395847915,1.2016397886820136
1733860661289073000,0.421072998046875,0.8120727542102336,0.022852613929659128,1.5134173349000513
1733860661299024000,0.43102392578125,0.8722732481509446,-0.12498144753947853,1.8431870494045317
1733860661308975000,0.44097509765625,0.7646838110476731,-0.29425884066224095,2.1118463155165315
1733860661318926000,0.450926025390625,0.5157125573545694,-0.47541211114823817,2.2776690381407736
1733860661328876000,0.4608759765625,0.36372634464204306,-0.5311547488972544,2.2540639984086153
1733860661338827000,0.470826904296875,0.36309330743551255,-0.4361728644326329,1.9382628957629202
1733860661348778000,0.480778076171875,0.3307622326731682,-0.3236168909631669,1.409579943806678
1733860661358729000,0.49072900390625,0.14709844067096708,-0.22888298991024492,0.8417366555899382
1733860661368679200,0.50067919921875,0.007474281403422356,-0.10375482737645507,0.3401848716653883
1733860661378630000,0.5106298828125,-0.07226794835329055,0.030688568252325056,-0.04226575492992997
1733860661388581000,0.5205810546875,-0.17937807750701903,0.14673311448991297,-0.25576975472681224
1733860661398531800,0.53053173828125,-0.049773207950592036,0.3189936150766909,-0.3509263381712138
1733860661408482000,0.54048193359375,0.16213760437071323,0.4741330311231315,-0.38988362614028155
1733860661418432300,0.550432373046875,0.1911778208941221,0.5215460858136415,-0.331456352417171
1733860661428383200,0.56038330078125,0.06547989564836025,0.4817534429989755,-0.28102177621470764
1733860661438334200,0.570334228515625,0.004549333867430686,0.40786666127219795,-0.3134187740864232
1733860661448284200,0.5802841796875,-0.17242635867297648,0.3818564600944519,-0.3716081108678132
1733860661458235100,0.590235107421875,-0.2616851893156767,0.43979025121219456,-0.4851412222737446
1733860661468186000,0.60018603515625,-0.20475626439154146,0.517046728567779,-0.6851506939969957
1733860661478137300,0.610137451171875,-0.244791337659955,0.5598395761117338,-0.8683839125622064
1733860661488087300,0.62008740234375,-0.3201806329041719,0.581291675593704,-0.9687911100111901
1733860661498038000,0.6300380859375,-0.4122136044353246,0.5676448430351912,-1.080138511408493
1733860661507989200,0.6399892578125,-0.4028793743789196,0.5151346113361418,-1.1545558928806334
1733860661517940000,0.64993994140625,-0.42460897562801836,0.4127048950836062,-1.0859428868383167
1733860661527891200,0.65989111328125,-0.4499222805827856,0.2525648212056607,-0.9475061107244342
1733860661537841200,0.669841064453125,-0.34390403831899163,0.1787546849116683,-0.8227509462215006
1733860661547792100,0.679792236328125,-0.2738040816545486,0.14195589015074073,-0.7379727681241929
1733860661557743000,0.6897431640625,-0.22948855458796022,0.11353607054799794,-0.7005217199996113
1733860661567694000,0.699694091796875,-0.1239098727852106,0.033190833396837115,-0.6888654767364263
1733860661577644000,0.70964404296875,-0.025989596781134605,-0.06661532941907644,-0.6803273654937744
1733860661587595300,0.71959521484375,0.08918693445026873,-0.17528167503885925,-0.7563111194998026
1733860661597546000,0.7295458984375,0.24844459947049616,-0.15641929978914557,-0.8320821075379848
1733860661607497200,0.739497314453125,0.2911474306434393,-0.022211685677617787,-0.841969149171561
1733860661617447200,0.749447265625,0.14973112726211546,0.12738222507089375,-0.812484257620573
1733860661627398100,0.759398193359375,0.06185527541041374,0.2144310515139252,-0.8178076446004211
1733860661637349000,0.76934912109375,0.022537995022535322,0.23023316241018474,-0.8389920330569147
1733860661647300400,0.77930029296875,0.027313538861274717,0.19557159887365996,-0.8427196752779186
1733860661657250000,0.78925,0.09140753310918807,0.12297785263210534,-0.7617712846018374
1733860661667201000,0.799200927734375,0.11712006651461124,0.0332224706441164,-0.5075374342054129
1733860661677152300,0.80915234375,0.11131927128136157,-0.04871799980923533,-0.2547347856558859
1733860661687103000,0.81910302734375,0.15113105718791484,-0.007249678867310285,-0.21542583470493554
1733860661697053200,0.82905322265625,0.19274609312415122,0.10283215957358478,-0.16313099932223557
1733860661707004200,0.839004150390625,0.18721125535070895,0.21909217519275842,-0.1060389927908778
1733860661716955100,0.848955078125,0.18122049050331115,0.29154490552842616,-0.2110800605855882
1733860661726906000,0.858906005859375,0.16866028413772582,0.29881672316230834,-0.3554916002601385
1733860661736856300,0.868856201171875,0.1685655915915966,0.30625841747038063,-0.4301690939731896
1733860661746807000,0.87880712890625,0.15922493179440497,0.26680801222212613,-0.38740620317608115
1733860661756758300,0.88875830078125,0.09109890555143356,0.26388014207668603,-0.21743571322262287
1733860661766709000,0.898708984375,0.010466448956727981,0.21353680608794093,-0.002019669259339571
1733860661776660200,0.90866015625,-0.04924363111853599,0.14247041554413736,0.20862886804118752
1733860661786610200,0.918610107421875,-0.02099018105864525,0.09172478236481547,0.3531634495735168
1733860661796561200,0.92856103515625,0.012411737805604934,0.018324761241674422,0.45140886587873097
1733860661806512000,0.93851220703125,-0.004967851540446281,-0.04314677554816007,0.5714885128512979
1733860661816463400,0.94846337890625,0.03831716343462467,-0.09074351624250411,0.6328196182571351
1733860661826413000,0.9584130859375,0.06695756698548794,-0.14599354816898702,0.6762146694779395
1733860661836364000,0.968364013671875,0.08011281663477421,-0.21256028920598327,0.7144770339854061
1733860661846315300,0.978315185546875,0.07563011826276779,-0.2639389595918357,0.7396281341157853
1733860661856266200,0.988266357421875,0.046080783173441886,-0.33073790194950997,0.7167908638857304
1733860661866216200,0.99821630859375,0.0056838908553123475,-0.4027505603674799,0.6683598643243313
1733860661876167200,1.008167236328125,-0.011837737309932707,-0.4544299672655761,0.5962567511439323
1733860661886118100,1.0181181640625,-0.011046294671297073,-0.45615050744786856,0.5232784625642002
1733860661896069000,1.028069091796875,0.02107669029831886,-0.4518155469834804,0.46298780612200496
1733860661906019300,1.038019287109375,0.04203998335003853,-0.44554939926080406,0.37735783350095153
1733860661915970000,1.047969970703125,0.06595861907601357,-0.40972083777152,0.30071356975957747
1733860661925921300,1.05792138671875,0.10116787962317467,-0.3509579023532569,0.2197920670904219
1733860661935872000,1.0678720703125,0.09356558792591095,-0.29673465619124473,0.11254515981450676
1733860661945822200,1.077822265625,0.07394435713291168,-0.20142215153276918,0.022823241704702377
1733860661955773200,1.087773193359375,0.03101122433543205,-0.09454152028597891,-0.03995733185708523
1733860661965724200,1.09772412109375,-0.044728199520707126,-0.009504179795831442,-0.08472849373668431
1733860661975675100,1.107675048828125,-0.12088731009364127,0.06580547434091567,-0.07535115519091487
1733860661985625300,1.117625244140625,-0.15831483121216297,0.1267054948531091,-0.12511471853032707
1733860661995576000,1.127576171875,-0.18663725485503674,0.1692440753750503,-0.23481515643820164
1733860662005527300,1.13752734375,-0.21125907041430472,0.26994996350966394,-0.29722032081633804
1733860662015478000,1.14747802734375,-0.22778876493275163,0.3386792894080281,-0.31621479801312086
1733860662025429200,1.15742919921875,-0.22321663471162317,0.36084837805293496,-0.3134751439161598
1733860662035379200,1.167379150390625,-0.23930793781280515,0.39129371213391423,-0.32018136355653404
1733860662045330000,1.177329833984375,-0.21752865220308304,0.388652769171074,-0.31633944730609653
1733860662055281200,1.18728125,-0.2042494839131832,0.3819235339812934,-0.29989363167881966
1733860662065232100,1.197232177734375,-0.1875005936861038,0.35004086057357486,-0.2536680332072079
1733860662075182000,1.20718212890625,-0.13302256904542445,0.3175703042753041,-0.15964885629490017
1733860662085133000,1.217133056640625,-0.0818558609098196,0.2810658893510699,-0.05557356479242444
1733860662095084300,1.227084228515625,-0.046080783173441886,0.24590397507697342,0.011360475187003612
1733860662105035000,1.237034912109375,0.0004623568147420883,0.18718816673606634,0.04048953903764486
1733860662114985200,1.246985107421875,0.026173136654496193,0.1706929590091109,0.03723813602626323
1733860662124936200,1.256936279296875,0.04355506408810615,0.15126403591781853,0.030061522395163773
1733860662134887200,1.26688720703125,0.06301379779577256,0.11495660487040876,0.037396103066951035
1733860662144838100,1.276838134765625,0.10115151301026344,0.10532324573695659,0.0031895898215472695
1733860662154788400,1.286788330078125,0.07962181824743747,0.09049845544025302,-0.020663579452782868
1733860662164739000,1.296739013671875,0.060438394349813455,0.07259644965529441,-0.03665858257263899
1733860662174690300,1.306690185546875,0.04959375973045826,0.03891206058785319,-0.016111322975903748
1733860662184641000,1.31664111328125,0.020613748961687085,0.04884089553654194,-0.005735913303494453
1733860662194591000,1.326591064453125,-0.018875380861759185,0.036297348044812675,0.012858312529325485
1733860662204542200,1.336542236328125,-0.040028059005737304,0.021131343095004557,0.025412381415069102
1733860662214493000,1.346492919921875,-0.04486731573045254,-0.004144406328350305,0.04284165512174368
1733860662224444200,1.356444091796875,-0.02307575516104698,-0.016817425418645143,0.0021880115635693072
1733860662234395400,1.3663955078125,0.0013005612045526504,-0.028236498925089833,-0.03896101429611444
1733860662244345000,1.376344970703125,0.005097615399956703,-0.03833995978832245,-0.1045199665300548
1733860662254296000,1.386296142578125,-0.02304302193522453,-0.018436989444494248,-0.15976020771488547
1733860662264247300,1.396247314453125,-0.05498071346580982,-0.039531946051865816,-0.16911007373183964
1733860662274198000,1.406197998046875,-0.09915946241021156,-0.06657938132286072,-0.13868264063373206
1733860662284148200,1.416148193359375,-0.13409925836622713,-0.07352978498265146,-0.06860431127920746
1733860662294099200,1.42609912109375,-0.16188392187058925,-0.10591098249703645,-0.011661796221137046
1733860662304050200,1.43605029296875,-0.12420505633950232,-0.13879311527088284,-0.018327391590178013
1733860662314001200,1.446001220703125,-0.08230594276487826,-0.12056655370667577,-0.05820932012349367
1733860662323951400,1.455951416015625,-0.04791968903839588,-0.058025049597769975,-0.10275675624981521
1733860662333902000,1.465902099609375,-0.046996144452691076,-0.015775369019806383,-0.14894114592820404
1733860662343853300,1.475853271484375,-0.03572247076630592,0.051195203577727076,-0.16852160631939767
1733860662353804000,1.485803955078125,-0.03219195855259895,0.09255699540525675,-0.1601622126445174
1733860662363754000,1.49575390625,-0.040917701321840284,0.10347907917499542,-0.16371391377672553
1733860662373705200,1.505705322265625,-0.0626367811769247,0.10590002271160483,-0.19099457328170538
1733860662383656200,1.51565625,-0.07611001073420047,0.10091916555911302,-0.21685382168143985
1733860662393607200,1.525607177734375,-0.08897650656998157,0.09937544324845075,-0.26424787941053507
1733860662403557000,1.53555712890625,-0.06098726040422916,0.12699454092755913,-0.2968378973700106
1733860662413512200,1.54551220703125,-0.04733166001737117,0.19273820207864045,-0.3116666331894696
1733860662423463400,1.55546337890625,-0.02126023017168045,0.2416669220291078,-0.3135901485979557
1733860662433414100,1.5654140625,-0.015990765336155892,0.2643054548166692,-0.3291907455727458
1733860662443364000,1.575364013671875,-0.011762333986163139,0.263969208599627,-0.3428039681226015
1733860662453315300,1.5853154296875,0.0016109423279762267,0.2693922565616667,-0.3514695051372051
1733860662463266000,1.59526611328125,0.020135610055923462,0.29836393789350985,-0.3702518008880317
1733860662473217300,1.60521728515625,0.0351613297522068,0.29400018972605463,-0.37071927226930856
1733860662483167200,1.615167236328125,0.04441606483161449,0.27859789180234074,-0.3700115623913705
1733860662493118200,1.6251181640625,0.04285480686426162,0.2664062264882028,-0.35380963852256536
1733860662503069200,1.635069091796875,0.026073767933249472,0.23268033636659383,-0.31257921798974275
1733860662513020200,1.645020263671875,0.04132569760084152,0.20764614061415193,-0.28630422839596864
1733860662522971100,1.65497119140625,0.01884557024538517,0.19141192191094158,-0.23603096196874976
1733860662532921300,1.66492138671875,0.011914894199371338,0.17427388623580337,-0.19107874443382022
1733860662542872000,1.6748720703125,-0.005514964029192924,0.16661957209035752,-0.16941051798313855
1733860662552823300,1.6848232421875,-0.032439211311936375,0.15901567295789718,-0.15949045086279512
1733860662562774300,1.694774169921875,-0.003599485796689987,0.13432342251092194,-0.15579466508477927
1733860662572724200,1.70472412109375,-0.006678162589669227,0.11192790469899773,-0.16426628696247933
1733860662582675200,1.71467529296875,-0.00023205519020557403,0.09488953000605106,-0.1600973307147622
1733860662592626400,1.72462646484375,-0.0010913023680448532,0.08928308830112218,-0.15634733053147792
1733860662602577200,1.7345771484375,-0.012039981883764267,0.053131432337313884,-0.1527719562627375
1733860662612527000,1.744527099609375,-0.022453239348530767,0.04954436763077974,-0.12648308427408336
1733860662622478300,1.754478271484375,-0.031222821259498594,0.020676438934355973,-0.07380494866222143
1733860662632429000,1.764428955078125,-0.0454179353505373,-0.020729484295845032,-0.03898527195453644
1733860662642380300,1.77438037109375,-0.036820787397027016,-0.05672960295975208,-0.0037350948750972746
1733860662652330200,1.784330322265625,-0.04224690409898758,-0.08619710498452186,0.046738808690756556
1733860662662281200,1.79428125,-0.04706804064512252,-0.10156813098713754,0.09065364600196481
1733860662672232200,1.804232177734375,-0.05443126288950443,-0.11186609150916338,0.12336685194969177
1733860662682183200,1.81418310546875,-0.05582593211829662,-0.11573664933219552,0.1501714183755219
1733860662692134100,1.824134033203125,-0.056769934970140455,-0.11708704102784395,0.16848215109184383
1733860662702084400,1.83408447265625,-0.06550970626473426,-0.13048545178323984,0.18970168392695486
1733860662712035000,1.84403515625,-0.09235971926748753,-0.11110825887918471,0.2168567442908883
1733860662721986300,1.853986328125,-0.10669394956827163,-0.07273381229937076,0.24404300351068375
1733860662731937300,1.863937255859375,-0.10805647009313106,-0.03991086236685514,0.2579291977830231
1733860662741887200,1.87388720703125,-0.11262041700780391,0.00908946151509881,0.2612527161825448
1733860662751838200,1.883838134765625,-0.1124509056597948,0.03557444059774279,0.2720813495151698
1733860662761789400,1.89378955078125,-0.10773965922892093,0.04170373713299632,0.26566351836211977
1733860662771740200,1.903740234375,-0.10791735388338565,0.033196459420025345,0.2624143803730607
1733860662781690000,1.913690185546875,-0.08058218771219253,0.026912410714477298,0.2634597977727651
1733860662791641300,1.923641357421875,-0.07794716303348541,0.0496527964413166,0.2752565454851836
1733860662801592300,1.93359228515625,-0.07874328184723854,0.07469444484785198,0.3056239920243621
1733860662811543300,1.943543212890625,-0.07519348041117191,0.08845365173965691,0.3012267799787223
1733860662821493200,1.9534931640625,-0.0734030898630619,0.10151610853895544,0.272425559842959
1733860662831444200,1.9634443359375,-0.06419803914427757,0.11599530026838183,0.23624511617608368
1733860662841395200,1.973395263671875,-0.0543061752051115,0.10055427776947617,0.17803871866203844
1733860662851346200,1.98334619140625,-0.03208791365623474,0.10534881856963038,0.140482018205896
1733860662861296000,1.993296142578125,-0.02137304289638996,0.12375278252735733,0.09779109666645526
1733860662871247400,2.003247314453125,-0.008843231669068335,0.1276465750955045,0.05783610289692878
1733860662881198000,2.013197998046875,-0.00234627086520195,0.1314513742059469,0.02825768784359097
1733860662891149300,2.0231494140625,0.003988192853331566,0.11677739055678248,0.014000249106064438
1733860662901100000,2.03310009765625,0.011697452056407927,0.10664484972953796,-0.0024043577279895543
1733860662911050200,2.04305029296875,-0.00423895274400711,0.09807780465334653,-0.025767916854470968
1733860662921001200,2.053001220703125,-0.000030979660153388974,0.08360080488100648,-0.04227686084583401
1733860662930952200,2.0629521484375,0.011014145967364311,0.07634060461968183,-0.06558101793527603
1733860662940903200,2.072903076171875,-0.010279401952028274,0.07841463441476225,-0.09875117387026548
1733860662950853400,2.082853271484375,-0.020202830073237418,0.09351648808717727,-0.1019208899475634
1733860662960804400,2.092804443359375,-0.019312018713355063,0.08580065301284194,-0.11961100654751061
1733860662970755300,2.10275537109375,-0.0589028553456068,0.059456543705612416,-0.11418898149877786
1733860662980706300,2.112706298828125,-0.045320320194959636,0.05550254538282752,-0.1016818204946816
1733860662990656300,2.12265625,-0.040676293781399725,0.03755290106385946,-0.06328238560408353
1733860663000607200,2.132607177734375,-0.04525017756819725,0.01825154987499118,-0.04047010368481278
1733860663010558200,2.14255810546875,-0.03230886293053627,0.01328939742296934,-0.018158172503113745
1733860663020509200,2.15250927734375,-0.014121464332938193,-0.002700052738934755,-0.0013500994347035885
1733860663030459100,2.162459228515625,-0.016461889979243277,0.00044292146191000936,-0.005280278490483761
1733860663040410400,2.172410400390625,-0.0177636202275753,0.013040537228435277,0.0009799509480595589
1733860663050361000,2.182361083984375,-0.023069909942150114,0.018780688315629956,-0.005914338610321283
1733860663060312300,2.192312255859375,-0.00845744722187519,0.02258314933851361,-0.0023215748153626917
1733860663070262300,2.20226220703125,-0.022754852643609047,0.03406082116439938,-0.007260200261324644
1733860663080213200,2.212213134765625,-0.034383915638923644,0.034889965464919806,-0.00856572990193963
1733860663090164200,2.222164306640625,-0.021617957568168637,0.04742562191113829,-0.021340309670567513
1733860663100115200,2.232115234375,-0.020488076755404473,0.052411009108275175,-0.0377853946454823
1733860663110066200,2.242066162109375,-0.0391916081815958,0.05973097673282027,-0.056316492114216084
1733860663120016400,2.252016357421875,-0.035309798312187196,0.07477437821626663,-0.060969578617066145
1733860663129967000,2.261967041015625,-0.033709961900115014,0.06858049201220273,-0.055791153065860265
1733860663139918300,2.27191845703125,-0.0281377147257328,0.09143456724658608,-0.03864551860615611
1733860663149869300,2.281869384765625,-0.005126841494441032,0.09305515418574213,-0.04798340192437172
1733860663159819000,2.291819091796875,-0.0017979893326759337,0.10729147707000374,-0.05340133531987667
1733860663169770200,2.301770263671875,0.027787586113810537,0.09477233336716889,-0.0690960403189063
1733860663179721200,2.31172119140625,0.02488485040962696,0.08243468371108174,-0.07905527040585875
1733860663189672200,2.321672119140625,0.010061375287175179,0.08082111103460192,-0.09220262900963425
1733860663199622100,2.3316220703125,-0.004961421799659729,0.06816489694863558,-0.10910086457952857
1733860663209573400,2.341573486328125,-0.018654431587457655,0.054683191823959344,-0.1669818295314908
1733860663219524000,2.351524169921875,-0.0029968437284231186,0.06093465343415737,-0.21018997987806795
1733860663229475300,2.361475341796875,-0.024952070426940916,0.07502265388891101,-0.24366774045750497
1733860663239425300,2.37142529296875,-0.029624738413095472,0.12088774848505854,-0.26814985528513785
1733860663249376300,2.381376220703125,-0.018355740901827813,0.10812076750099658,-0.2655411340914666
1733860663259327200,2.3913271484375,-0.004929273095726967,0.10355813576057553,-0.2401575403794646
1733860663269278200,2.4012783203125,0.002598199799656868,0.08917977405712008,-0.21334946682229636
1733860663279228200,2.411228271484375,0.02420212884247303,0.09071721275746822,-0.172306970077008
1733860663289179400,2.421179443359375,0.007032967376708984,0.09306012262180446,-0.11071063786372541
1733860663299130000,2.431130126953125,-0.011076689809560775,0.06051131345555186,-0.12405980264991522
1733860663309081300,2.441081298828125,-0.027166239345073697,0.054891427747160194,-0.11788768988624214
1733860663319031300,2.45103125,-0.04888122754693031,0.04511456848978996,-0.1380732765637338
1733860663328982000,2.46098193359375,-0.03835983353257179,0.05655789965465664,-0.13069967905580998
1733860663338933200,2.470933349609375,-0.012670096480846405,0.09420856200456619,-0.1300309860140085
1733860663348884200,2.48088427734375,-0.009529460367560387,0.1435354874923825,-0.12355959804281591
1733860663358835200,2.490835205078125,-0.00042260932624340057,0.1713578526586294,-0.10786854630559682
1733860663368785200,2.50078515625,-0.017571312525868413,0.18163623169735074,-0.10078662522062659
1733860663378736400,2.510736328125,-0.028588381102681158,0.16743921791017055,-0.10061448352411388
1733860663388687000,2.52068701171875,-0.02583820561170578,0.16257906452789903,-0.09136749335974455
1733860663398638300,2.530638427734375,-0.014326046994328498,0.14761121249869466,-0.0968421253785491
1733860663408588300,2.54058837890625,0.0029430677145719526,0.15453633558675645,-0.10390110397934912
1733860663418535700,2.55053564453125,0.0010427870512008666,0.1502308934777975,-0.08721212724596261
1733860663428486700,2.560486572265625,0.0017839608073234557,0.16350728528872133,-0.0834079126574099
1733860663438437600,2.570437744140625,-0.014590835410356521,0.14578458159342408,-0.0670579586200416
1733860663448387600,2.5803876953125,-0.023987609308958054,0.1393937115125358,-0.04234612668976188
1733860663458338600,2.590338623046875,-0.03133680302798748,0.12613470922783016,-0.03003448825776577
1733860663468289500,2.60028955078125,-0.023038930281996727,0.10328574855998157,0.007438625568151474
1733860663478240500,2.610240478515625,-0.00011573533415794372,0.08639934955835342,0.03758475750684738
1733860663488190700,2.620190673828125,0.009309095615148543,0.07308730191215872,0.028755992754548786
1733860663498141400,2.630141357421875,0.006397592082619667,0.05819704516381025,0.023904461070150134
1733860663508092700,2.6400927734375,0.01675531996786594,0.057158788157254455,0.03724646546319127
1733860663518043400,2.65004345703125,0.031020576685667035,0.04722673833817243,0.037802638041228055
1733860663527994600,2.65999462890625,0.034008652585744856,0.05941957269608974,0.05041895850822329
1733860663537944600,2.669944580078125,0.030016368079185483,0.06091887134313583,0.03654474693462252
1733860663547895600,2.6798955078125,0.005408581045269966,0.05857713052257895,0.03914148542955517
1733860663557846500,2.689846435546875,-0.03308218539059162,0.04711187978684902,0.044654988154023884
1733860663567797800,2.6997978515625,-0.08107669323086739,0.007146949145197868,0.03955430401414633
1733860663577747500,2.70974755859375,-0.10147007744014262,-0.017205694083869457,0.033932957001030446
1733860663587698700,2.71969873046875,-0.09991232660412788,-0.029151275682449337,-0.025225480540841817
1733860663597649700,2.729649658203125,-0.06035013154447078,-0.029354250908643006,-0.06093231534659862
1733860663607600600,2.7396005859375,-0.021664719319343564,-0.010796996085345744,-0.08410860827267169
1733860663617550600,2.749550537109375,-0.007373743638396262,0.028925211841613053,-0.07679930817261338
1733860663627501800,2.759501708984375,-0.0029518355429172514,0.04170037613213062,-0.04139832444563508
1733860663637452500,2.76945263671875,-0.010980243697762489,0.03960895681083202,-0.023997253920137882
1733860663647403800,2.77940380859375,0.001502221256494522,0.015498305644094943,-0.015482669683545827
1733860663657353700,2.789353759765625,0.02388005728125572,0.016007862601429224,-0.04848813657611608
1733860663667304400,2.799304443359375,0.032177930027246476,0.013736264407634735,-0.09268237535059451
1733860663677255700,2.809255615234375,0.015789105284214018,0.03950169704407453,-0.1119648757085204
1733860663687206400,2.819206298828125,0.0065974985688924785,0.038471915604919193,-0.1268491411074996
1733860663697157600,2.82915771484375,-0.017518705555796623,0.04597293888479471,-0.12165069568157195
1733860663707107600,2.839107666015625,-0.04533844037353992,0.04483151376470923,-0.10612316394299268
1733860663717058600,2.84905859375,-0.04977963769137859,0.0594638502292335,-0.10332461926564573
1733860663727009500,2.859009521484375,-0.06746668555140495,0.047048751422762866,-0.1125771623879671
1733860663736960800,2.868960693359375,-0.07598726113736629,0.052957098683714864,-0.11661226312294602
1733860663746910500,2.878910400390625,-0.06239128198325634,0.08803586471900343,-0.1304467272080481
1733860663756861700,2.88886181640625,-0.05761866075396537,0.10000351201891898,-0.12300021059438586
1733860663766812700,2.898812744140625,-0.02231938383579254,0.10800064825266599,-0.12446589923277497
1733860663776763600,2.908763671875,-0.035008769538998605,0.11728460942655801,-0.12199234872609376
1733860663786713600,2.918713623046875,-0.033574352821707724,0.11218845533132553,-0.09956891999393701
1733860663796664800,2.928664794921875,-0.029869068562984463,0.11465016926974057,-0.08189487774595618
1733860663806615600,2.938615478515625,-0.018849077376723287,0.10861483462825416,-0.045886137384176254
1733860663816566800,2.94856689453125,-0.022058687072992324,0.12115019881352782,-0.019823621497303247
1733860663826516700,2.958516845703125,-0.03861351603269577,0.12535408024415373,0.0056317222766578195
1733860663836467500,2.968467529296875,-0.02156242798864841,0.11905877949222922,0.034696780980378386
1733860663846418700,2.978418701171875,-0.009539981761574745,0.11165507910698652,0.052628743512183426
1733860663856369400,2.988369384765625,0.0016407529443502424,0.11407412294745445,0.07336071202605962
1733860663866319600,2.998319580078125,-0.0036661212921142577,0.10576967433020472,0.06610416502654552
1733860663876270600,3.0082705078125,-0.005660509979724884,0.10017083140984177,0.047629912311583755
1733860663886221600,3.0182216796875,-0.018062310913205145,0.1095838257908821,0.059031157900393004
1733860663896172500,3.028172607421875,-0.04859072016775608,0.09225026754364371,0.07189005495160818
1733860663906123500,3.03812353515625,-0.0627285511136055,0.05700491276979446,0.07890314858406781
1733860663916073500,3.048073486328125,-0.05762976666986942,0.04934621471017599,0.08498334528058767
1733860663926024700,3.058024658203125,-0.027904490491747855,0.045186756943166255,0.07679390134513378
1733860663935975400,3.067975341796875,-0.028126608809828757,0.06295446882396936,0.06298018778711557
1733860663945926700,3.0779267578125,-0.03579553600251675,0.04502820538058877,0.06697934042587876
1733860663955876600,3.087876708984375,-0.04871639237403869,0.029847002861648795,0.04932619483545422
1733860663965827600,3.09782763671875,-0.05165419939160347,0.0359990957506001,0.02334405070841312
1733860663975778600,3.107778564453125,-0.05300210686922073,0.03453267645984888,0.023757892206311224
1733860663985729800,3.117729736328125,-0.030122166541218756,0.02343786647170782,0.0003628419630229473
1733860663995679700,3.1276796875,-0.03390577673316002,0.03460208843424916,-0.018477905976772308
1733860664005630500,3.13763037109375,-0.03752396723031998,0.053132016859203574,-0.04092369267120957
1733860664015581700,3.147581787109375,-0.058635144320130346,0.05394435615539551,-0.07180120762437582
1733860664025532700,3.15753271484375,-0.022846038058400152,0.05099588161334395,-0.10398542126193643
1733860664035482600,3.167482666015625,-0.0015536591827869414,0.08145590180680155,-0.14457608258649707
1733860664045433600,3.17743359375,0.024563363370299338,0.08922273641601204,-0.1826413170866668
1733860664055384600,3.187384521484375,0.004364040428400039,0.09208645528405904,-0.20507818982228634
1733860664065335600,3.19733544921875,-0.019404373171925542,0.10274477355107664,-0.20120032547563313
1733860664075286500,3.20728662109375,-0.017731471523642538,0.1290033965319395,-0.19768676439672708
1733860664085236500,3.217236572265625,0.006734276691079139,0.14009206904023885,-0.21373276705145836
1733860664095187700,3.227187744140625,0.005064297652244568,0.14761238154247402,-0.21383330481648444
1733860664105138400,3.237138427734375,0.0067430445194244385,0.1427428758099675,-0.20759441042691468
1733860664115089700,3.247089599609375,-0.030109891581535337,0.1372299576073885,-0.22200331339910626
1733860664125039600,3.25703955078125,-0.058573184999823565,0.10804580256864428,-0.21773864169195292
1733860664134990600,3.266990478515625,-0.06628244420289993,0.09100275170058011,-0.2254559380710125
1733860664144941600,3.276941650390625,-0.05459317545294761,0.09470876661166548,-0.20567878606393933
1733860664154892800,3.286892822265625,-0.03916939634978771,0.11562193691134452,-0.1782281768195331
1733860664164842500,3.296842529296875,-0.025852234137058255,0.12370821273326874,-0.17094766442254183
1733860664174793700,3.306793701171875,-0.024034955582022666,0.12932517583221195,-0.15535963466838001
1733860664184744700,3.31674462890625,-0.018476152411103248,0.12289280469715594,-0.13700550120174884
1733860664194695700,3.32669580078125,-0.012107201901078224,0.10286679249554873,-0.12207783505246042
1733860664204645600,3.336645751953125,-0.0045949265748262405,0.07719795210137963,-0.12532733836770057
1733860664214596600,3.3465966796875,-0.00360240840613842,0.0730209586776793,-0.1145835337743163
1733860664224547600,3.356547607421875,0.009275193345546722,0.0725849053479731,-0.10306421476379037
1733860664234498600,3.36649853515625,-0.005314473021030426,0.08862257856577634,-0.10292100690081715
1733860664244448800,3.37644873046875,-0.008361001110076904,0.09773834356591105,-0.08313084928169846
1733860664254399500,3.3863994140625,-0.013628712379932403,0.08160363971441983,-0.0630911008156836
1733860664264350700,3.396350830078125,-0.024442367339134213,0.07695391421243548,-0.05118804318457842
1733860664274301400,3.406301513671875,-0.021812603357434273,0.09115428900048136,-0.04795125322043895
1733860664284252700,3.416252685546875,-0.015458265894651413,0.0874598183967173,-0.018786387404054403
1733860664294202600,3.42620263671875,-0.039348260048031804,0.09439195574745535,-0.02063712983727455
1733860664304153600,3.436153564453125,-0.062087915122508996,0.10112520952522754,0.0012212123580276966
1733860664314104600,3.4461044921875,-0.0610205781519413,0.08713935427069663,-0.0024355565838515758
1733860664324055600,3.4560556640625,-0.04640519282221794,0.0878169612713158,0.0029006898775696755
1733860664334005500,3.466005615234375,-0.05210661933422088,0.09027750616595148,0.009519377364963293
1733860664343956700,3.475956787109375,-0.01794306844770908,0.06492737633213401,0.014654986687749623
1733860664353907700,3.48590771484375,-0.018586042526364324,0.09962167309448122,0.020105945570021867
1733860664363858700,3.495858642578125,-0.005905424651503562,0.10623320018872619,0.02037701759636402
1733860664373808600,3.50580859375,-0.021674071669578552,0.10893939040750264,0.005076864872872829
1733860664383759600,3.515759521484375,-0.05410334610939026,0.0899751622185111,0.0001109130285680294
1733860664393710600,3.525710693359375,-0.06682254242897033,0.06039455520808697,-0.02088379807472229
1733860664403661600,3.53566162109375,-0.047447979873418804,0.03865194834694266,-0.030489684679359197
1733860664413611800,3.54561181640625,-0.03829085994958877,0.03914206995144486,-0.02044365309178829
1733860664423562800,3.555562744140625,-0.022311200529336928,0.04842720016911625,-0.0051641047649085515
1733860664433513700,3.565513671875,-0.0023123685956001282,0.06970043595284223,0.022057664159685374
1733860664443464700,3.575464599609375,-0.010195815321803092,0.06381371600180864,0.005245937829464674
1733860664453415700,3.585415771484375,-0.004429506880044937,0.06087094054818153,-0.018472645279765127
1733860664463366000,3.595365966796875,-0.010158990442752838,0.05392360562831163,-0.02729410350844264
1733860664473316600,3.605316650390625,-0.011731938847899435,0.05010185538306832,-0.05682619520202279
1733860664483267800,3.615267822265625,-0.006498129847645759,0.06636471565887332,-0.07136807690411806
1733860664493218600,3.625218505859375,-0.026432664373517035,0.05422375761866569,-0.08529942549243569
1733860664503168800,3.635168701171875,-0.027968203377723693,0.047939270521700376,-0.09097878630310297
1733860664513119700,3.64511962890625,-0.043861353558301924,0.04738777411878109,-0.09226999515742063
1733860664523070700,3.65507080078125,-0.03277706496417522,0.04074555962532758,-0.08387202303782106
1733860664533021700,3.665021728515625,-0.03231704623699188,0.0575007334627211,-0.06879150441437959
1733860664542972000,3.674971923828125,-0.034759763213992115,0.05551555099487304,-0.11727525707632303
1733860664552922600,3.684922607421875,-0.03968319109082222,0.0761168788664043,-0.14507234167084096
1733860664562873900,3.694873779296875,-0.027765958803892134,0.09089753776043653,-0.162645261631906
1733860664572824800,3.704824951171875,-0.020249591824412345,0.10884338268712163,-0.17005232301801443
1733860664582774500,3.7147744140625,-0.044697219860553736,0.11004179869145155,-0.18174246855080126
1733860664592725800,3.724725830078125,-0.05680208367407322,0.11785685635656118,-0.16640929034054278
1733860664602676700,3.7346767578125,-0.03446282609403133,0.12843538738563656,-0.15042787735462188
1733860664612627700,3.744627685546875,-0.036653029614686965,0.13328180450350047,-0.12400149659141897
1733860664622578700,3.75457861328125,-0.04169219282567501,0.13583178124725817,-0.10316358348503708
1733860664632529000,3.76452880859375,-0.037754853376746174,0.11982654899433255,-0.0764842508740723
1733860664642479600,3.774479736328125,-0.02516658996045589,0.11095789062306284,-0.04912716513201594
1733860664652430800,3.784430908203125,-0.025955694511532783,0.11072729673758148,-0.02402984101548791
1733860664662381600,3.794381591796875,-0.024552257454395293,0.10522036988437175,-0.013061726146936415
1733860664672331800,3.804331787109375,-0.01821720921397209,0.11472542646303772,-0.012274813552945851
1733860664682282800,3.81428271484375,-0.017584172007441518,0.10858093235865235,-0.0220706697717309
1733860664692233700,3.824233642578125,-0.015195815566182136,0.10149535801187157,-0.03454772789850831
1733860664702184700,3.834184814453125,-0.01897182697355747,0.09019698827564716,-0.03064166037067771
1733860664712135000,3.844135009765625,-0.023094459861516953,0.08870426549986005,-0.018422376397252083
1733860664722085600,3.854085693359375,-0.007059270861744881,0.08229615202322602,-0.01117737370505929
1733860664732036900,3.864036865234375,-0.0007534487158060073,0.07315744453892112,-0.002224398051202297
1733860664741987600,3.873987548828125,-0.01806347995698452,0.06029927814006805,-0.02535100661665201
1733860664751937500,3.8839375,-0.02053951468169689,0.06160773039013147,-0.046464375663548704
1733860664761888800,3.893888671875,-0.018680735072493553,0.058376054992526766,-0.05836728716418147
1733860664771839700,3.90383984375,-0.029814708027243612,0.07276070030629635,-0.07788812632262707
1733860664781790700,3.913790771484375,-0.056606853362917896,0.055526949171721934,-0.08978665390908717
1733860664791742000,3.923741943359375,-0.056762920707464214,0.052915451499074694,-0.09132321582660079
1733860664801691600,3.933691650390625,-0.039864977398514745,0.07004369643256068,-0.09745455818846821
1733860664811642600,3.943642578125,-0.008280921611189842,0.062208180501312015,-0.0808601278707385
1733860664821593900,3.95359375,0.0026595745980739593,0.05963131575062871,-0.055651598464697596
1733860664831544600,3.963544677734375,-0.011060323196649551,0.06152282858565449,-0.05096475582271814
1733860664841494800,3.973494873046875,-0.006570026040077209,0.057387774607539174,-0.054920653841644525
1733860664851445800,3.98344580078125,-0.013016717961430549,0.06692614893391728,-0.049709641195088625
1733860664861396700,3.993396728515625,-0.014588497322797775,0.1099139345280826,-0.03278758635818958
1733860664871347700,4.00334765625,0.008589549168944359,0.14065189488008617,-0.01080196452140808
1733860664881298000,4.0132978515625,-0.027719197052717207,0.1558990022420883,0.020178426284343003
1733860664891248600,4.02324853515625,-0.06169803902208805,0.12113237089589238,0.016449615019559858
1733860664901200000,4.033199951171875,-0.05076046542227268,0.08284794068709016,0.007244272039830684
1733860664911150600,4.043150634765625,-0.033923312389850614,0.08176686745211481,-0.012801613906025886
1733860664921101800,4.053101806640625,-0.027938392761349677,0.060348524109274146,-0.005655395413190126
1733860664931051800,4.0630517578125,-0.030706688430905342,0.06323869259282947,-0.0249614227771759
1733860664941002800,4.073002685546875,-0.03715454939603805,0.06088467681258917,-0.006513035155832767
1733860664950953700,4.08295361328125,-0.0560316838234663,0.05375555558502674,-0.009713438632339238
1733860664960905000,4.092905029296875,-0.033951953962445255,0.05569397630169987,-0.008381167115271091
1733860664970854700,4.102854736328125,-0.020473463708162307,0.06311579686552286,-0.0306071735791862
1733860664980805600,4.1128056640625,-0.03474398112297058,0.0606513064481318,-0.03533507888391614
1733860664990756900,4.1227568359375,-0.033821021059155465,0.06000482523813843,-0.03647942661345005
1733860665000707600,4.13270751953125,-0.03879296425282955,0.05253478161841631,-0.051061932586878536
1733860665010657800,4.14265771484375,-0.03270049259662628,0.05502659843415022,-0.07270970077142119
1733860665020608800,4.15260888671875,0.0007797522008419036,0.07006400856822728,-0.07865560356378555
1733860665030559700,4.162559814453125,0.011682254487276077,0.07442980256229638,-0.10996274210587144
1733860665040510700,4.1725107421875,0.022754268121719358,0.08457154960930346,-0.0850767226524651
1733860665050461000,4.1824609375,0.016490531551837922,0.09075798315927386,-0.08914674857035279
1733860665060411600,4.19241162109375,-0.00663315440416336,0.09299261034354567,-0.09048544982820748
1733860665070363000,4.20236279296875,-0.0012637363255023955,0.08830883644148707,-0.11044745688289404
1733860665080313600,4.212313720703125,-0.0065974985688924785,0.07359598208665848,-0.14044731221869586
1733860665090263800,4.222263916015625,-0.011980945172905922,0.07486234876066446,-0.14742109675407408
1733860665100214800,4.23221484375,-0.015183540606498718,0.07342077165022493,-0.1500007379837334
1733860665110165800,4.242165771484375,-0.030153146201372143,0.06390738563463091,-0.15234803176224232
1733860665120116700,4.25211669921875,-0.03836041805446148,0.0711246235370636,-0.15320508698299526
1733860665130067700,4.262067626953125,-0.04159107053875923,0.07571209745779633,-0.14285130462050438
1733860665140017700,4.272017578125,-0.030597382837533948,0.07828560120761394,-0.1402653797805309
1733860665149968600,4.28196875,-0.04174363075196743,0.06063771631419658,-0.12348814024180173
1733860665159919600,4.291919677734375,-0.0484328992575407,0.08605126677304506,-0.10541428502127527
1733860665169870600,4.30187060546875,-0.05158697937428951,0.09628492988720536,-0.10860650519132614
1733860665179820800,4.31182080078125,-0.04195172054469585,0.11694894773140549,-0.09971125107407569
1733860665189771800,4.321771728515625,-0.041317514294385904,0.12081073772609233,-0.08717968628108501
1733860665199722800,4.33172265625,-0.03637655076086521,0.10595160676836966,-0.08070055339485406
1733860665209673700,4.341673828125,-0.03377659739553928,0.09401537752002477,-0.05146159942895174
1733860665219623700,4.351623779296875,-0.025445406901836394,0.10233736179396509,-0.04292962566614151
1733860665229574700,4.36157470703125,-0.0429518374979496,0.09902297654896974,-0.048531098935008045
1733860665239526000,4.37152587890625,-0.010324410137534141,0.11412351504713296,-0.06211114986762404
1733860665249476600,4.3814765625,-0.008956044393777847,0.12504779077395797,-0.058599780745804304
1733860665259427800,4.391427734375,-0.019146014496684072,0.11915478721261023,-0.05524053344577551
1733860665269377800,4.401377685546875,-0.027134675163030624,0.08811097578182817,-0.06429696947410703
1733860665279328800,4.411328857421875,-0.016447276932001112,0.06351663275137544,-0.05597644650489091
1733860665289279700,4.42127978515625,-0.003962473890185356,0.04402341225221753,-0.046936523219943044
1733860665299230700,4.431230712890625,-0.015265958192944526,0.05467676208317279,-0.04068579226210713
1733860665309180700,4.4411806640625,-0.029006898775696753,0.0643960459344089,-0.02693476867675781
1733860665319132000,4.4511318359375,-0.02944704375863075,0.0596893295481801,-0.0146494337297976
1733860665329082600,4.46108251953125,-0.019905308431386947,0.06572232610210776,-0.0036909634724259376
1733860665339033900,4.471033935546875,-0.020696166548132895,0.05699117650538683,-0.0214617440931499
1733860665348983800,4.48098388671875,-0.027490648993849752,0.04384016463980078,-0.04397168206498027
1733860665358934500,4.4909345703125,-0.01614975529015064,0.0590729512155056,-0.027870295961201188
1733860665368885800,4.5008857421875,-0.009582067337632179,0.05568666977807879,-0.03439794416427612
1733860665378836700,4.510836669921875,-0.018557400953769683,0.05709712109789252,-0.04570654303357005
1733860665388786700,4.52078662109375,-0.032704584249854084,0.06300488383695482,-0.04323956839814782
1733860665398737700,4.530737548828125,-0.025868016228079795,0.06105418816059827,-0.05723726022094488
1733860665408689000,4.54068896484375,-0.030167174726724623,0.07282105219140649,-0.043631782586127515
1733860665418639600,4.5506396484375,-0.03720248019099235,0.06758753545209766,-0.04176759614944458
1733860665428590600,4.560590576171875,-0.027680034086108207,0.08329217732325196,-0.04289323917850852
1733860665438540800,4.570540771484375,-0.025811317604780195,0.07356675599217415,-0.02557385558709502
1733860665448491500,4.580491455078125,-0.034525954458117486,0.07009688792452216,-0.029346798254549503
1733860665458442800,4.59044287109375,-0.026855273699760436,0.07750278026685119,-0.05323167784139514
1733860665468393500,4.6003935546875,-0.019693711507320404,0.07360051213130354,-0.05771656817048788
1733860665478343700,4.61034375,-0.012896890974044799,0.08811755165308713,-0.05625219470635056
1733860665488294700,4.620294677734375,-0.020028642550110817,0.07718713844642043,-0.06960092110112309
1733860665498245600,4.63024560546875,-0.03104220399558544,0.08953516336604952,-0.06648191229775548
1733860665508196600,4.640196533203125,-0.02916471968591213,0.0913010039947927,-0.05068798470795154
1733860665518146800,4.650146728515625,-0.04433014011383057,0.08506444769278168,-0.04135901534855366
1733860665528097500,4.66009765625,-0.023185645276308058,0.07723170824050903,-0.04161240558773279
1733860665538048800,4.670048828125,-0.024769699597358703,0.07802797318473458,-0.0666704206071794
1733860665547999700,4.679999755859375,-0.01785772825181484,0.0678369801685214,-0.06555471445024014
1733860665557949400,4.689949462890625,-0.025704934620857236,0.0506768787920475,-0.084467066321522
1733860665567900700,4.699900634765625,-0.027424598020315168,0.060652037100493904,-0.08048939486220479
1733860665577851600,4.7098515625,-0.03102466833889484,0.0858105898849666,-0.06533420356735586
1733860665587802600,4.719802734375,-0.03771276780068874,0.06602671587616205,-0.06141235394850373
1733860665597752600,4.729752685546875,-0.03685468966662884,0.04970628019422292,-0.04567059493735432
1733860665607703800,4.739703857421875,-0.02915653637945652,0.053878597442805765,-0.04774140986204147
1733860665617654500,4.749654541015625,-0.02291325807571411,0.052097559244930744,-0.03416311249509454
1733860665627605800,4.759605712890625,-0.032384850776195524,0.05291457471624016,-0.04680836679562926
1733860665637556500,4.769556396484375,-0.03910217633247375,0.04475084974393248,-0.05347045503333211
1733860665647506700,4.779506591796875,-0.025546529188752172,0.05165960621908307,-0.04815364392474293
1733860665657457700,4.789457763671875,-0.029393267744779586,0.04970364984571934,-0.03571706393882632
1733860665667408600,4.79940869140625,-0.02308276942372322,0.056696431342512364,-0.03599661153256893
1733860665677359600,4.809359619140625,-0.029331892946362494,0.05383081277832388,-0.03201864781230688
1733860665687309800,4.819309814453125,-0.03988134401142597,0.046117461922019716,-0.03706409463360905
1733860665697260500,4.829260498046875,-0.04007774336636066,0.04587707729488611,-0.03376417630538344
1733860665707211800,4.839211669921875,-0.023374445846676827,0.07047375841289759,-0.03413637061864137
1733860665717162500,4.84916259765625,-0.020488661277294158,0.043591596706211565,-0.023551263718307017
1733860665727112400,4.859112548828125,-0.018200842601060866,0.04198883768469095,-0.0012860942877829073
1733860665737063700,4.869063720703125,-0.025460604470968245,0.04146978224664926,0.014913783754408359
1733860665747014700,4.8790146484375,-0.017640286108851433,0.03397986488267779,0.0185500944301486
1733860665756965600,4.888965576171875,-0.016309914287924766,0.03139554747790098,0.02812251715660095
1733860665766916900,4.898916748046875,-0.02698269947171211,0.006900134777277708,0.022713205458968877
1733860665776866600,4.908866455078125,-0.010153729745745658,0.02404138532280922,0.014333499648422001
1733860665786817500,4.918817626953125,-0.01635024629831314,0.0394062738455832,0.023014818754047154
1733860665796768800,4.928768798828125,-0.031496962025761605,0.044032764602452514,0.011723024889081717
1733860665806719500,4.938719482421875,-0.05172200393080711,0.05312850972786545,-0.016369243259727953
1733860665816669700,4.948669677734375,-0.027194880917668342,0.055700406042486425,-0.048181262584030625
1733860665826620700,4.95862060546875,-0.01970949359834194,0.06748334442526102,-0.05984130523949861
1733860665836571600,4.968571533203125,-0.009020926323533058,0.09222805571183562,-0.07305106155499816
1733860665846522600,4.978522705078125,-0.019817045626044274,0.07799684739410877,-0.06865531081408262
1733860665856472800,4.988472900390625,-0.015428455278277397,0.07416369897201656,-0.06106427116319537
1733860665866423600,4.998423583984375,-0.011771686336398125,0.0932439547561109,-0.041041327701509
1733860665876374800,5.008374755859375,-0.008712298765778542,0.0965674000903964,-0.01709317362010479
1733860665886325500,5.018325439453125,-0.03454115202724933,0.10633198438808321,-0.012554653407633305
1733860665896275700,5.028275634765625,-0.05878244383633136,0.0734773241430521,0.01285085987523198
1733860665906226700,5.038226806640625,-0.07196165888309479,0.035817455573379994,0.017648469415307046
1733860665916177700,5.048177734375,-0.08139467313885689,0.009906038594990969,0.016308014591783285
1733860665926128600,5.058128662109375,-0.05500000268816948,0.02088847424983978,0.004384352564066649
1733860665936079600,5.06807958984375,-0.027156302472949027,0.0172559629663825,0.005899433302134275
1733860665946029600,5.078029541015625,-0.01740121665596962,0.03463686748668551,0.014723375748842953
1733860665955980500,5.08798046875,-0.016464228066802023,0.04161635111048818,0.015019874477386473
1733860665965931800,5.097931884765625,-0.01835048020482063,0.05012991243377327,0.013050474100559949
1733860665975882500,5.107882568359375,-0.028537527698278425,0.03236410024911165,-0.012697130618244408
1733860665985832700,5.117832763671875,-0.0069195701301097865,0.01769596181884408,-0.029826252334564922
1733860665995783700,5.12778369140625,0.007599953609704971,0.010978344001621008,-0.07386836928725242
1733860666005734700,5.137734619140625,0.014216741400957108,0.02561389533653855,-0.08079480754956603
1733860666015685600,5.147685546875,0.007580079865455627,0.047733080425113435,-0.09010068829432129
1733860666025635800,5.1576357421875,-0.0086269585698843,0.04284004768654704,-0.07228884501084686
1733860666035586600,5.167586669921875,-0.010616086560487747,0.05453589230775833,-0.06718611504435539
1733860666045537800,5.177537841796875,-0.012110709032416343,0.04647533544898033,-0.06089227559715509
1733860666055488500,5.187488525390625,-0.021966332614421845,0.043906800135225056,-0.0377658131621778
1733860666065438700,5.197438720703125,-0.04049626103937626,0.01644157784357667,-0.044847588116675614
1733860666075389700,5.2073896484375,-0.023401918375492093,0.006057546473294496,-0.048576253250986336
1733860666085340700,5.217340576171875,-0.027158056038618088,0.015207213743031025,-0.05055032980293035
1733860666095291600,5.227291748046875,-0.011646598652005196,0.04262202102169394,-0.05543430245220661
1733860666105242600,5.23724267578125,-0.014980126988887786,0.05327186372131109,-0.052593964459747074
1733860666115192600,5.247192626953125,-0.006389408776164054,0.05997676818743348,-0.05791238300353288
1733860666125143800,5.257143798828125,-0.046446109354496,0.0799298612833023,-0.04899477092400193
1733860666135094500,5.267094482421875,-0.03690905020236969,0.09394055871814488,-0.08185878351926804
1733860666145045800,5.277045654296875,-0.028961890590190886,0.12828545752093196,-0.0749935739248991
1733860666154995700,5.28699560546875,-0.015986089161038396,0.14107026642262935,-0.09148147512823343
1733860666164946400,5.296946533203125,-0.026460136902332305,0.12740063751041888,-0.06820230634957551
1733860666174897700,5.306897705078125,-0.03963233768641949,0.11502236358299851,-0.04723857490643859
1733860666184848600,5.3168486328125,-0.05990998656153679,0.07098170793503522,-0.011640461172163486
1733860666194798600,5.326798583984375,-0.06935819838643073,0.03780760647729039,0.008343027061969042
1733860666204749600,5.33674951171875,-0.0603799421608448,0.03215951758772135,0.015442483803629874
1733860666214700800,5.34670068359375,-0.0188572606831789,0.044618601666390895,0.0381884224884212
1733860666224651500,5.356651611328125,-0.001903203272819519,0.04737126137539744,0.04300970516502857
1733860666234602800,5.366602783203125,-0.013975918382406234,0.06301321327388286,0.05199176078289747
1733860666244552700,5.376552734375,-0.00879296278655529,0.04150587647333741,0.053804070901870726
1733860666254503700,5.386503662109375,-0.010171849924325942,0.033536212768405675,0.04865311787948012
1733860666264454700,5.39645458984375,0.00043780689537525175,0.044065497828274965,0.0474864121876657
1733860666274405600,5.406405517578125,0.005492752197384834,0.04363309776037931,0.040797435943037266
1733860666284355600,5.41635546875,-0.0032277298748493192,0.0477139373332262,0.031753713265806435
1733860666294306800,5.426306884765625,-0.0038543373405933376,0.03664835343956947,0.02998480389714241
1733860666304257500,5.436257568359375,-0.005527823510766029,0.0443026675850153,0.02445785716921091
1733860666314208800,5.446208740234375,-0.008088613909482956,0.040594168455898756,0.009418108947575091
1733860666324158700,5.45615869140625,-0.018543956950306893,0.04544876888021827,0.0217864460028708
1733860666334109400,5.466109375,-0.016101239973306654,0.049207390761375425,0.025484423737972974
1733860666344060700,5.476060791015625,-0.03234218067824841,0.030461189237236976,0.03149973850473761
1733860666354011600,5.48601171875,-0.030090017837285994,0.022512129928916692,0.018501871374249457
1733860666363961600,5.495961669921875,-0.0248263982206583,0.03746361534520983,0.013910598061233757
1733860666373912600,5.50591259765625,-0.030991935113072393,0.031411329568922515,0.009307195919007062
1733860666383863800,5.51586376953125,-0.026040450185537335,0.04953939919471741,-0.0049962008520960804
1733860666393814500,5.525814453125,-0.030555881783366202,0.04453063112199306,-0.009511924710869788
1733860666403765800,5.535765869140625,-0.03474456564486027,0.03809913676977157,-0.014286591766774654
1733860666413715700,5.5457158203125,-0.03672024963200092,0.03634147944748401,-0.00990180081129074
1733860666423671600,5.555671630859375,-0.032678865286707874,0.05143675724864006,-0.0017899521566927432
1733860666433622500,5.56562255859375,-0.02956511718034744,0.05361702389717102,-0.024402619850635528
1733860666443573500,5.575573486328125,-0.024347090271115302,0.05105681802034378,-0.01689984300509095
1733860666453523500,5.5855234375,-0.025301029995083806,0.04582520097717643,-0.023688334101438523
1733860666463474400,5.595474365234375,-0.0250572843670845,0.0341952611990273,-0.018544687602669
1733860666473425400,5.60542529296875,-0.03710194242596626,0.037611207122355696,-0.010963877084851264
1733860666483376400,5.61537646484375,-0.02254208667576313,0.04385755416601896,-0.01707724539861083
1733860666493326300,5.625326416015625,-0.020272388178110123,0.03940919645503163,-0.029872429563850163
1733860666503277600,5.635277587890625,-0.035308044746518136,0.028565877009928225,-0.03961640946492553
1733860666513228500,5.645228515625,-0.024309096348285673,0.05121405440866947,-0.04736790037453174
1733860666523179500,5.655179443359375,-0.03293020969927311,0.06052358841523528,-0.03927840968221426
1733860666533130500,5.665130615234375,-0.02657762580215931,0.06283858735933899,-0.05643441940546035
1733860666543080400,5.67508056640625,-0.034872575938701626,0.053808893207460635,-0.06895137115120888
1733860666553031400,5.685031494140625,-0.04541325917541981,0.0486637854039669,-0.07636486227810382
1733860666562982700,5.694982666015625,-0.030803134542703628,0.05168108739852905,-0.05716287981048226
1733860666572933400,5.704933349609375,-0.04056932627558708,0.03528407934904098,-0.06129515730962157
1733860666582883600,5.714883544921875,-0.023967735564708707,0.05431099751070141,-0.07547872709333896
1733860666592834600,5.72483447265625,-0.026450784552097317,0.07207432547733188,-0.0762910663895309
1733860666602785500,5.73478564453125,-0.014099252501130104,0.08074892258122562,-0.06187485689371824
1733860666612736500,5.744736572265625,-0.02717442265152931,0.08022738292515277,-0.06362023925632238
1733860666622686500,5.7546865234375,-0.0342898076146841,0.04783829436525702,-0.03662511869445443
1733860666632637400,5.764637451171875,-0.02794949867725372,0.03965761825814843,-0.026568419582396745
1733860666642588400,5.77458837890625,-0.015361819782853125,0.013443857332319021,-0.013932371501624583
1733860666652539400,5.784539306640625,0.003096212449669838,0.011434417206048965,0.008526420804858208
1733860666662489300,5.7944892578125,-0.016843582773208618,0.007354746676981449,0.013506547304987907
1733860666672440600,5.804440673828125,-0.04511807562112808,-0.021972470094263553,0.01664396854788065
1733860666682391300,5.814391357421875,-0.017102525970339774,-0.05652282834127545,-0.0007588555432856082
1733860666692342500,5.824342529296875,0.01388414844572544,-0.026640754166245458,-0.0035826807923614976
1733860666702293500,5.83429345703125,-0.018591303223371505,-0.006362228508293629,-0.0016382687263190746
1733860666712243500,5.844243408203125,-0.016944705060124396,-0.00033639234751462935,0.023199966062605378
1733860666722194400,5.8541943359375,-0.017253332617878914,0.021527941197156904,0.03151756642237306
1733860666732145700,5.864145751953125,-0.006781038442254066,0.03889715527966618,0.025132979951798914
1733860666742096400,5.874096435546875,-0.015347206735610961,0.0823413063392043,0.017597908271849153
1733860666752046600,5.884046630859375,-0.014689619609713553,0.11276859330683946,0.021352292369306088
1733860666761997600,5.89399755859375,-0.030413258442282674,0.11941095393076538,0.015093524235486983
1733860666771948500,5.903948486328125,-0.05713233854174614,0.10276698538288473,0.006415420000255107
1733860666781899500,5.9138994140625,-0.0882388399451971,0.09006605537235736,-0.020700550462305546
1733860666791849500,5.923849365234375,-0.07467793210446834,0.07799129443615674,-0.025045009407401085
1733860666801800400,5.933800537109375,-0.04843465282320976,0.0926430662535131,-0.03671104341223836
1733860666811751400,5.94375146484375,-0.028210779961943624,0.07857274758592248,-0.03453720650449395
1733860666821702400,5.953702392578125,-0.026259645894169806,0.08311565171256662,0.0012128829210996627
1733860666831652400,5.96365234375,-0.0209007492095232,0.08349719837605953,0.02578428346738219
1733860666841603600,5.973603515625,-0.025723639321327207,0.07166428337171674,0.003351356254518032
1733860666851554300,5.98355419921875,-0.026945874592661855,0.055022360650449985,-0.006106061790138483
1733860666861505500,5.993505615234375,-0.03143734079301357,0.045154023717343804,-0.039406712237000464
1733860666871456500,6.00345654296875,-0.020949849048256874,0.02425619711726904,-0.06942044996768236
1733860666881406500,6.013406494140625,-0.0015776245802640915,0.0336734292820096,-0.1109738188445568
1733860666891357400,6.023357421875,-0.00023147066831588744,0.03957198580130934,-0.13757190291285515
1733860666901308400,6.033308349609375,-0.0028296704679727554,0.04621639225184917,-0.13337781222388148
1733860666911259400,6.04325927734375,-0.0005950432837009429,0.04775178512558341,-0.13619813034161923
1733860666921209600,6.053209716796875,-0.0031231004565954205,0.05300444495677948,-0.1292848438218236
1733860666931160600,6.06316064453125,-0.021325696623325348,0.05679375423714518,-0.12893763781934975
1733860666941111600,6.073111572265625,-0.046996144452691076,0.054795712287724015,-0.12558964256569743
1733860666951062500,6.0830625,-0.044940380966663356,0.052412178152054546,-0.12603899376839398
1733860666961012500,6.093012451171875,-0.03166588885188103,0.05423354836031794,-0.12482523406445979
1733860666970963500,6.10296337890625,-0.015731237617135047,0.05629413415193557,-0.09998597636222839
1733860666980914700,6.112914794921875,-0.001135141509771347,0.05202142526879906,-0.08577917183339595
1733860666990865400,6.122865478515625,0.01399345403909683,0.042222792571038004,-0.02096110109463334
1733860667000816600,6.132816650390625,0.01630932976603508,0.037086452595889566,0.018317893109470604
1733860667010766600,6.1427666015625,-0.004439443752169609,0.03442717025876045,0.05810089131295681
1733860667020717300,6.15271728515625,-0.03555880463719368,0.035710488067567346,0.07418781049996614
1733860667030668500,6.16266845703125,-0.04455401199758052,0.03105550186857581,0.08843436251729726
1733860667040619300,6.172619384765625,-0.04176175093054771,0.018499971678107976,0.07384849554300307
1733860667050569500,6.182569580078125,-0.05697334858775138,-0.0033234453342854977,0.050884384062886236
1733860667060520400,6.1925205078125,-0.06071662676930427,-0.028601386714726684,0.01752206655666232
1733860667070471400,6.202471435546875,-0.057339843812584876,-0.017145926720649005,0.00006195932030677795
1733860667080422400,6.21242236328125,-0.061518006280064576,0.027318653427809474,-0.010712678802758455
1733860667090372600,6.22237255859375,-0.05391688362658024,0.07309431617483496,-0.014890987400710582
1733860667100323300,6.2323232421875,-0.04751461536884308,0.10331789726391434,0.00801890967413783
1733860667110274600,6.242274658203125,-0.04798574001193046,0.10507672362998127,0.002008855604380369
1733860667120225500,6.2522255859375,-0.018471476235985756,0.09717910224795341,0.00557853078469634
1733860667130176500,6.262176513671875,-0.0029921675533056257,0.0912213628873229,0.00041486441120505333
1733860667140126500,6.27212646484375,-0.014894202271103859,0.09754165195003152,-0.03140942987278104
1733860667150077700,6.28207763671875,-0.02068155350089073,0.09049860157072544,-0.01591448522955179
1733860667160028400,6.2920283203125,-0.017040566650032996,0.08663695770651102,-0.04625701652318239
1733860667169979600,6.301979736328125,-0.01503098039329052,0.06954992156624794,-0.06601414865553379
1733860667179929600,6.3119296875,-0.033982933622598646,0.047935178868472574,-0.08415610067620873
1733860667189880300,6.32188037109375,-0.03107844435274601,0.03613602000325918,-0.07865560356378555
1733860667199831600,6.33183154296875,-0.036652445092797276,0.029076164619624614,-0.07344327574297785
1733860667209782500,6.341782470703125,-0.019411387434601784,0.008193389458209275,-0.06863426802605391
1733860667219732500,6.351732421875,-0.026504560565948486,-0.003941431102156639,-0.06472177075743675
1733860667229683500,6.361683349609375,-0.027444471764564514,0.011490385176986456,-0.066196519485116
1733860667239634400,6.371634521484375,-0.02193944460749626,0.018883564168214798,-0.061653615358471865
1733860667249585400,6.38158544921875,0.0037853637576103208,0.04237155339196324,-0.05177607220560312
1733860667259535600,6.39153564453125,-0.003273322582244873,0.05081307239234447,-0.05924129351973533
1733860667269486300,6.401486328125,-0.0015507365733385084,0.06767988991066813,-0.050579848158359524
1733860667279437600,6.4114375,-0.0191448454529047,0.09024784168004989,-0.03062061758264899
1733860667289388500,6.421388427734375,-0.06308803207576275,0.09461582763120531,-0.026196955921500918
1733860667299339500,6.431339599609375,-0.08131459363996982,0.07523205885589122,-0.020024112505465746
1733860667309289500,6.44128955078125,-0.07533493470847606,0.08084434577971697,0.007023176635056734
1733860667319240400,6.451240478515625,-0.08543079678714274,0.04900879944935441,0.0038635435603559015
1733860667329191400,6.46119140625,-0.046965164792537685,0.03397781905606389,0.01144917638376355
1733860667339142700,6.471142578125,-0.030650574329495427,0.029925036533921954,0.011532032361626624
1733860667349092600,6.481092529296875,-0.020484569624066352,0.03367898223996162,-0.012264292158931493
1733860667359043600,6.491043701171875,-0.01880465371310711,0.04494681070744991,-0.010490122093260288
1733860667368994600,6.50099462890625,-0.01168517709672451,0.06488119910284876,-0.04496916866973042
1733860667378945500,6.510945556640625,-0.01695931810736656,0.04585793420299887,-0.04845028878375888
1733860667388895500,6.5208955078125,-0.01718377451300621,0.05127426016330719,-0.034515725325047965
1733860667398846500,6.530846435546875,-0.037678865531086916,0.03973156027719378,-0.022913988728076217
1733860667408797400,6.54079736328125,-0.01512508841753006,0.04271919778585434,-0.0042807460591197015
1733860667418743000,6.550742919921875,0.0114198041588068,0.03906242884397507,0.002611351542174816
1733860667428694000,6.560694091796875,0.006724339818954468,0.042444326367229224,-0.006584639087319374
1733860667438644200,6.570644287109375,0.00847264479100704,0.05256707645282149,-0.00867138223350048
1733860667448595000,6.580594970703125,-0.015218611919879912,0.043609278493374586,-0.018301818757504223
1733860667458546200,6.590546142578125,-0.03197393188774585,0.04403159555867314,-0.03706906306967139
1733860667468497200,6.6004970703125,-0.016668226206302643,0.04606587786525487,-0.040796851421147584
1733860667478447000,6.610447021484375,-0.02469312722980976,0.030640345196425913,-0.0370252239279449
1733860667488398000,6.620398193359375,-0.05081131882667541,0.030330694725364444,-0.027655922558158633
1733860667498349300,6.630349365234375,-0.036493455138802526,0.0454557831428945,-0.021975246573239564
1733860667508300000,6.640300048828125,-0.03471533955037594,0.0623491964071989,-0.016464374197274447
1733860667518250000,6.65025,-0.01917173345983028,0.05438493952974677,0.004184884469211101
1733860667528201200,6.660201171875,-0.01712941397726536,0.043261634099483484,0.023127923739701507
1733860667538152200,6.670152099609375,-0.003847907599806785,0.07077595622986554,0.04014277142658829
1733860667548103200,6.680103271484375,-0.014213234269618987,0.055981999462842935,0.03529255491644144
1733860667558053000,6.69005322265625,-0.04851005614697933,0.03813961491063237,0.02533960843980312
1733860667568004000,6.700004150390625,-0.05095277312397956,0.02844181223884225,-0.021366467025130984
1733860667577955000,6.709955078125,-0.028301965376734732,0.054038464179635044,-0.053243660540133714
1733860667587906000,6.719906005859375,-0.0316974530339241,0.08663841901123523,-0.08623261468932032
1733860667597857000,6.72985693359375,-0.04071837935745716,0.08817819579914211,-0.10367314044237136
1733860667607807200,6.73980712890625,-0.02618015091717243,0.07280527010038494,-0.10237959350049496
1733860667617758000,6.749758056640625,-0.003804652979969978,0.06731397920772433,-0.08349661385416984
1733860667627709200,6.759709228515625,-0.00679740505516529,0.06718903765380382,-0.05696721110790968
1733860667637660000,6.769659912109375,0.0028249942928552626,0.0665279433965683,-0.03064896689429879
1733860667647610000,6.779610107421875,-0.014065934753417967,0.05331102668792009,-0.019569938997179268
1733860667657561000,6.78956103515625,-0.04164075489938259,0.01922097942903638,0.005589928961545229
1733860667667512000,6.799511962890625,-0.04734276593327522,0.0037983693696558474,0.012306523865461348
1733860667677463000,6.809463134765625,-0.03650865270793438,-0.0005022504337131977,0.009421616078913212
1733860667687413200,6.819413330078125,-0.031738954088091846,-0.008681465236097573,0.016619857019931076
1733860667697364000,6.829364013671875,-0.036328035444021224,0.01857566726282239,0.033046091163903474
1733860667707315200,6.839315185546875,-0.042619829064607616,0.01626417545005679,0.051871495404094456
1733860667717266200,6.84926611328125,-0.02951251021027565,0.03631108430922031,0.04359788031652569
1733860667727216000,6.859216064453125,-0.021335633495450017,0.05040288415625691,0.030442338406294584
1733860667737167000,6.8691669921875,-0.020138532665371894,0.04698562305867671,0.006755027218163013
1733860667747118000,6.8791181640625,-0.026057985842227935,0.05403627222254872,-0.040852088739722965
1733860667757069000,6.889069091796875,-0.019799509969353674,0.06180763687640428,-0.05154942384287715
1733860667767020300,6.899020263671875,-0.01918926911652088,0.0420323845654726,-0.08222776296213269
1733860667776970200,6.90897021484375,-0.01595335593521595,0.04218304508253932,-0.067375207875669
1733860667786921000,6.9189208984375,-0.03147708828151226,0.03012187428027391,-0.06636544631123542
1733860667796872200,6.9288720703125,-0.02657762580215931,0.022436872735619545,-0.05285232313498854
1733860667806823000,6.938822998046875,-0.026730186015367505,0.024522446838021277,-0.05981368658021092
1733860667816773000,6.948773193359375,-0.03315758871436119,0.023036299933493137,-0.0527932864241302
1733860667826724000,6.95872412109375,-0.03567453997135162,0.01253580257669091,-0.04826353404000401
1733860667836675000,6.968675048828125,-0.03986030122339725,0.03281637406125665,-0.04398717189505696
1733860667846626000,6.9786259765625,-0.025282909816503524,0.033320524191111325,-0.05719298268780112
1733860667856576300,6.988576171875,-0.02078969005048275,0.04051248152181506,-0.06637552931383252
1733860667866527000,6.99852685546875,-0.016183657559752464,0.05027297416627407,-0.06530585425570606
1733860667876478200,7.008478271484375,-0.0034895956814289092,0.05686448138579726,-0.06231354057192802
1733860667886429200,7.01842919921875,-0.015166589471697807,0.06589519845098257,-0.07056874321997166
1733860667896380200,7.028380126953125,-0.029207974305748938,0.06768675804287194,-0.06788666452914476
1733860667906330000,7.038330078125,-0.025387539234757422,0.10513649099320173,-0.04674933008477092
1733860667916281300,7.04828125,-0.017814473631978033,0.11900281152129173,-0.029638620807975528
1733860667926232000,7.058232177734375,-0.0185305129468441,0.10519348187744616,-0.024873744493722913
1733860667936183300,7.068183349609375,-0.047452071526646614,0.07447028070315719,-0.024405834721028804
1733860667946133200,7.07813330078125,-0.04978957456350326,0.03597103869989514,-0.025861732617765663
1733860667956084000,7.088083984375,-0.043917467659711835,0.007350801154226064,-0.049787382606416936
1733860667966035200,7.09803515625,-0.03816869487464428,0.03848331378176808,-0.06661094550490379
1733860667975986000,7.10798583984375,-0.02878127332627773,0.03420198320075869,-0.056558630307018756
1733860667985936100,7.11793603515625,-0.03537175763249397,0.056119069845974444,-0.04194339110776782
1733860667995887000,7.12788720703125,-0.0387993939936161,0.06869812704250217,-0.034883243463188406
1733860668005838000,7.137838134765625,-0.03442717025876045,0.06873802066147328,-0.05025704594478011
1733860668015789000,7.1477890625,-0.03126841396689415,0.0880349879361689,-0.04707140164598822
1733860668025740000,7.157739990234375,-0.026636662513017655,0.08140636357665061,-0.05311915737763047
1733860668035690000,7.16768994140625,-0.013041852402687073,0.060772010218352074,-0.07064823819696903
1733860668045641200,7.17764111328125,0.0047714521855115885,0.07578326299786567,-0.0913847367554903
1733860668055592000,7.187592041015625,0.0037748423635959624,0.05819719129428267,-0.11227350326627493
1733860668065543200,7.197543212890625,-0.004021510601043701,0.046191988462954754,-0.10456497471556067
1733860668075493000,7.2074931640625,-0.015217442876100539,0.06184387723356485,-0.09261310950666665
1733860668085444000,7.217444091796875,-0.033417116433382035,0.052539019402116534,-0.06366948522552847
1733860668095395000,7.22739501953125,-0.019575638085603714,0.0390916549384594,-0.04253288143351674
1733860668105346300,7.23734619140625,-0.03478080600202083,0.050195378885418175,-0.027884178356081247
1733860668115296000,7.2472958984375,-0.0558399606436491,0.048544981329888104,-0.011592822638154029
1733860668125247000,7.2572470703125,-0.06166238318681717,0.030695582515001294,-0.029052345352619885
1733860668135198200,7.2671982421875,-0.059894204470515244,0.0321288301885128,-0.02199073640331626
1733860668145149000,7.27714892578125,-0.05559621501564979,0.04120177896022796,-0.028609423890709876
1733860668155099100,7.28709912109375,-0.04830255087614059,0.03953559931367635,-0.011049217280745505
1733860668165050000,7.297050048828125,-0.045076574566960334,0.04223799014016986,-0.01802270955517888
1733860668175001000,7.3070009765625,-0.04307634066045284,0.06399404100477694,-0.006606997049599886
1733860668184952000,7.3169521484375,-0.026589900761842727,0.0847378460869193,0.005709317557513713
1733860668194903000,7.326903076171875,-0.024482114827632902,0.07312851070538162,-0.009237345553189516
1733860668204853000,7.33685302734375,-0.026697452789545058,0.06824190770760179,-0.017097995925694703
1733860668214804200,7.34680419921875,-0.01663607750236988,0.06692468762919307,-0.017192980732768773
1733860668224755000,7.3567548828125,-0.014371639701724052,0.06636924570351839,-0.025130349603295323
1733860668234706200,7.3667060546875,-0.013103227201104163,0.0657826779872179,-0.015421733276546001
1733860668244656000,7.37665625,-0.009589081600308417,0.057161418505758045,-0.006217559340596199
1733860668254607000,7.386607177734375,-0.00412438645362854,0.04811068156585097,-0.009041969111561774
1733860668264558000,7.39655810546875,-0.011378303104639052,0.045699382640421386,-0.01177840833812952
1733860668274509300,7.40650927734375,-0.007591770303249359,0.028277999979257583,-0.012463029601424931
1733860668284459000,7.416458984375,-0.00770107589662075,0.015882921047508717,-0.012451485294103622
1733860668294410000,7.426409912109375,-0.025794950991868973,0.018176584942638872,-0.02215352574959397
1733860668304361200,7.436361328125,-0.027885201269388198,0.018297434843331576,-0.02828311454579234
1733860668314312200,7.446312255859375,-0.032799861317873,0.024926059202849862,-0.03161313575133681
1733860668324263200,7.45626318359375,-0.047105450046062466,0.027949790938198566,-0.03951046487241983
1733860668334213000,7.466213134765625,-0.036410453030467034,0.0399943028666079,-0.02567570852637291
1733860668344164000,7.4761640625,-0.05070259775519371,0.03334171310961246,-0.031167145549505948
1733860668354115000,7.486114990234375,-0.027907997623085976,0.04680208318531513,-0.03880772343054414
1733860668364066000,7.496066162109375,-0.018745617002248763,0.04601867772266269,-0.05559826084226369
1733860668374016000,7.50601611328125,-0.013140052080154419,0.053569823754578826,-0.05910699961557984
1733860668383967200,7.51596728515625,-0.022831425011157987,0.06280600026398897,-0.03788929341137409
1733860668393918000,7.52591796875,-0.03746668408513069,0.06214271404966712,-0.0347245457701385
1733860668403869200,7.535869140625,-0.02489829441308975,0.050732554502040145,-0.03168079416006803
1733860668413819100,7.545819091796875,-0.009620061260461806,0.04922200380861759,-0.012012509354948997
1733860668423770000,7.55577001953125,-0.005316226586699485,0.05330386629477143,-0.0007414660170674324
1733860668433721300,7.565721435546875,-0.012070377022027968,0.06535714605152607,0.012482903345674276
1733860668443672000,7.575672119140625,-0.03348550549447536,0.04512508988380432,-0.009663315880298614
1733860668453623300,7.585623291015625,-0.04184416851699352,0.027354893784970042,-0.028539427394419906
1733860668463573200,7.5955732421875,-0.023973580783605574,0.03162161131873727,-0.07407441325336694
1733860668473524200,7.605524169921875,-0.011741875720024109,0.05309606876298785,-0.09373290731683373
1733860668483475200,7.61547509765625,-0.018901099824905395,0.058204351687431335,-0.09100421300530433
1733860668493426400,7.625426513671875,-0.01926291887462139,0.06238952841758728,-0.05604556621834635
1733860668503376100,7.635376220703125,-0.007614566656947135,0.08161766823977232,-0.041930823887139555
1733860668513327400,7.645327392578125,-0.0073059390991926185,0.103325057657063,-0.01959405052512884
1733860668523278300,7.6552783203125,-0.015991349858045577,0.10936550686508416,-0.019943448484688996
1733860668533229300,7.665229248046875,-0.026536709269881248,0.08898015983179211,-0.0036178982362151143
1733860668543179300,7.67517919921875,-0.04809329203963279,0.0601578238427639,0.010952040516585111
1733860668553130500,7.685130615234375,-0.06886427738964557,0.022757482992112634,-0.00316387085840106
1733860668563081200,7.695081298828125,-0.07626490903496742,0.016367343563586472,0.02313508413285017
1733860668573032400,7.705032470703125,-0.05213000020980835,0.007024491809308528,0.029893180090934036
1733860668582983200,7.714983154296875,-0.019067104041576386,0.008437281216681003,0.03700944183692336
1733860668592933000,7.72493310546875,-0.022703414717316628,0.020744974125921724,0.05831745667308569
1733860668602884400,7.73488427734375,-0.013186229309439659,0.032312223931401964,0.050987259915471074
1733860668612835000,7.7448349609375,-0.017559037566184998,0.017979601065814494,0.04304258452132344
1733860668622786300,7.754786376953125,-0.02139993090331554,0.013431874633580445,0.014287468549609184
1733860668632736300,7.764736328125,-0.028019641304016112,-0.008728665378689765,-0.00012537994533777237
1733860668642687200,7.774687255859375,-0.0022755437165498734,0.008048428029567003,-0.017545593562722204
1733860668652638200,7.78463818359375,-0.0025479309171438217,0.019870675509423015,-0.02400879822745919
1733860668662589200,7.794589111328125,0.01410685128569603,0.03610065642893314,-0.054003831257671116
1733860668672539100,7.8045390625,0.012983984735608101,0.037261955293267965,-0.053416240628063674
1733860668682490400,7.814490478515625,0.0020195231288671492,0.054168228039145463,-0.04396101454049348
1733860668692441300,7.82444140625,-0.0029489129334688184,0.06539163284301758,-0.07363719087988138
1733860668702392300,7.834392333984375,-0.00956979237794876,0.05403919483199715,-0.07994798146188259
1733860668712343300,7.84434326171875,-0.031578795090317725,0.06637582157477737,-0.08616641758531332
1733860668722293500,7.85429345703125,-0.02394844634234905,0.07131006310656667,-0.08117007060274481
1733860668732244200,7.864244140625,-0.03247545166909695,0.07417012871280312,-0.0694889851592481
1733860668742195500,7.874195556640625,-0.03087269264757633,0.08198533250838518,-0.04584697441756725
1733860668752146200,7.884146240234375,-0.020629531052708625,0.06412044386342168,-0.013931786979734897
1733860668762096000,7.89409619140625,-0.01771101325750351,0.06485270366072654,0.018492665154486894
1733860668772047400,7.90404736328125,-0.017474281892180442,0.049448213779926295,0.03300751271918416
1733860668781998000,7.913998046875,-0.013933248284459113,0.050386225282400846,0.029006168123334643
1733860668791949300,7.92394921875,-0.023266893818974493,0.05718114611953497,0.017244857050478457
1733860668801899300,7.933899169921875,-0.015134440767765045,0.07340396664589643,-0.011303338172286749
1733860668811850200,7.943850341796875,-0.04298164811432361,0.06836363439112901,-0.023527006059885024
1733860668821801200,7.95380126953125,-0.057117725494503974,0.056311085286736486,-0.028816929161548613
1733860668831752200,7.963752197265625,-0.049885436153411865,0.027338088780641555,-0.04257365183532238
1733860668841703200,7.973703125,-0.043541035562753676,0.02233969597145915,-0.02396174421533942
1733860668851653400,7.9836533203125,-0.008010287976264954,0.021951281175762415,-0.010453735605627297
1733860668861604000,7.99360400390625,-0.012717442753911018,0.03494812539294362,-0.0077272332511842245
1733860668871555300,8.003555419921875,0.0036789807736873625,0.047033699984103436,0.01338335931673646
1733860668881506300,8.01350634765625,0.002706336349248886,0.03944222194179892,0.029411826314777133
1733860668891456300,8.023456298828124,-0.003822773158550262,0.03331277927607298,0.009542027588188647
1733860668901407200,8.0334072265625,-0.0025724808365106583,0.03570595802292228,0.010941519122570752
1733860668911358500,8.0433583984375,-0.008657353708148002,0.04236015521511435,-0.024224779065698383
1733860668921309200,8.05330908203125,-0.0027396540969610215,0.0579017154790461,-0.02404606149792671
1733860668931259100,8.063259033203124,-0.00858078134059906,0.05899784015268087,-0.030791151843965053
1733860668941210400,8.07321044921875,-0.0070136781543493265,0.06921718248054384,-0.033546003510057924
1733860668951161300,8.083161376953125,-0.017955927929282186,0.06353548358231782,-0.02424947511553764
1733860668961112300,8.0931123046875,-0.03680032913088798,0.07609905094876886,-0.02291413485854864
1733860668971062300,8.103062255859374,-0.024719430714845655,0.07438786311671138,-0.028069033403694627
1733860668981013200,8.11301318359375,-0.032412323305010794,0.08344912145063281,-0.04101385517269373
1733860668990964200,8.122964111328125,-0.030253683966398236,0.09121303345039486,-0.04366568485572934
1733860669000915200,8.132915283203126,-0.03766425248384476,0.0887546805128455,-0.06547726529985666
1733860669010866200,8.1428662109375,-0.03593932838737964,0.07069806868806482,-0.046902767080813645
1733860669020816400,8.15281640625,-0.028836802905797956,0.06086304950267076,-0.018681611855328083
1733860669030767000,8.16276708984375,-0.024904724153876304,0.048963937394320964,-0.011250438941270112
1733860669040718300,8.17271826171875,-0.012149287477135657,0.03987535266205668,0.011363836187869309
1733860669050669300,8.18266943359375,-0.02144669265449047,0.031175182725489137,0.02034793763235211
1733860669060619300,8.192619384765624,-0.014774375283718109,0.024861177273094653,0.01705181869640946
1733860669070570200,8.2025703125,-0.023429390904307363,0.021541239070147274,0.02017009684741497
1733860669080521500,8.212521484375,-0.017718612042069433,0.01354863288104534,-0.006009323417395353
1733860669090472200,8.22247216796875,-0.0005973813712596892,0.0006393208168447018,-0.03306041195020079
1733860669100423400,8.23242333984375,-0.0255845231115818,-0.005997925240546465,-0.05007350607141852
1733860669110373400,8.242373291015625,-0.018501871374249457,-0.0034311434924602507,-0.06702902478650212
1733860669120324400,8.252324462890625,-0.023341712620854375,0.01112418221309781,-0.07954393070563673
1733860669130275300,8.262275390625,-0.02981996872425079,0.021568127077072858,-0.061515960453450674
1733860669140226300,8.272226318359374,-0.03537117311060428,0.02653261761665344,-0.05211757911965251
1733860669150176300,8.28217626953125,-0.02024550017118454,0.01872574325799942,-0.03491889929845929
1733860669160127200,8.292127197265625,-0.014203881919384001,0.01637523460909724,-0.037392888196557755
1733860669170078200,8.302078125,-0.0030658173114061354,0.025505758786946532,-0.016838322076201437
1733860669180029400,8.312029541015624,-0.011529694274067878,0.008753215298056602,0.007749152822047471
1733860669189979400,8.3219794921875,-0.03244914818406105,0.01452785317674279,0.0027098434805870055
1733860669199930000,8.33193017578125,-0.031095980009436607,0.02499152565449476,0.00481149193495512
1733860669209881300,8.34188134765625,-0.02305529689490795,0.03233122089281678,0.02321677106693387
1733860669219832000,8.35183203125,-0.023749124377965926,0.0431618269868195,0.025790274816751477
1733860669229782300,8.3617822265625,-0.03418634724020958,0.04715805701613426,0.03486190841421485
1733860669239733200,8.371733154296875,-0.03164659962952137,0.04727160039320588,0.05438143239840865
1733860669249684200,8.381684326171875,-0.03993044385015964,0.03749327983111143,0.048962768350541586
1733860669259635200,8.39163525390625,-0.018945523488521576,0.04726195578202605,0.04520473099127412
1733860669269586400,8.40158642578125,-0.01133095683157444,0.05648205793946981,0.0496790999263525
1733860669279536000,8.4115361328125,-0.030054946523904797,0.06841697201356291,0.05384411065131425
1733860669289487400,8.4214873046875,-0.0543541060000658,0.06740589527487754,0.01644420819208026
1733860669299438300,8.431438232421876,-0.041104163804650304,0.061455608568340536,-0.010415449421852827
1733860669309389300,8.441389404296874,-0.006903788039088248,0.0569322859250009,-0.0451465710632503
1733860669319339300,8.45133935546875,-0.0069254153490066524,0.08604965933784842,-0.058750733523815865
1733860669329290500,8.46129052734375,-0.04174830692708492,0.08403627368882298,-0.05138356575667858
1733860669339241200,8.4712412109375,-0.044159459722042084,0.09320347661525011,-0.04442468652948737
1733860669349192400,8.4811923828125,-0.05131108504235744,0.08287219834551214,-0.023377660717070103
1733860669359142400,8.491142333984374,-0.045779169878363606,0.0980370342515409,-0.012626841861009597
1733860669369093000,8.501093017578125,-0.03611936112940311,0.10474150032624602,-0.012302432212233544
1733860669379044400,8.51104443359375,-0.022070377510786054,0.10134206714630126,-0.022757629122585058
1733860669388995000,8.5209951171875,-0.03997194490432739,0.09018807431682943,-0.03601502397209406
1733860669398946300,8.5309462890625,-0.05089841258823871,0.04241217766329646,-0.030075989311933515
1733860669408896300,8.540896240234375,-0.04554068494737148,-0.008100888869166373,-0.02197553883418441
1733860669418848500,8.5508486328125,-0.0267436300188303,-0.021259061127901074,-0.0006182780288159846
1733860669428799500,8.560799560546876,-0.016443769800662995,-0.029122487979382276,-0.004674275421351194
1733860669438750500,8.57075048828125,-0.01750000085532665,-0.013455840031057596,0.017596885358542202
1733860669448700400,8.580700439453125,-0.03474690373241901,0.008245411906391381,0.040761341716349125
1733860669458651600,8.590651611328125,-0.06237374632656574,0.036518005058169364,0.056805444674938914
1733860669468602400,8.600602294921876,-0.07148936519622802,0.07850494304671883,0.04535349181219935
1733860669478553600,8.6105537109375,-0.07364157479405403,0.0762196085885167,0.028937486801296472
1733860669488503600,8.620503662109375,-0.05456394935846329,0.08332154954820871,0.020007307501137255
1733860669498454500,8.63045458984375,-0.023657354441285132,0.05591010327041149,-0.018069179045408962
1733860669508405500,8.640405517578126,0.018419453787803648,0.03471680085510015,-0.014375146833062171
1733860669518356500,8.6503564453125,0.022599369820952415,0.015130787505954504,-0.007189473112672567
1733860669528307500,8.660307373046875,0.01369067170023918,0.0063550681151449675,-0.005349105942994356
1733860669538257700,8.670257568359375,0.014362287351489067,-0.0005063420869410038,-0.006202946293354034
1733860669548208400,8.68020849609375,0.0064876084536314,0.014155366602540015,-0.011261544857174158
1733860669558159600,8.69015966796875,0.004113865059614181,0.034679683715105054,-0.046184828069806096
1733860669568110600,8.700110595703125,0.0006979191362857818,0.03433700775727629,-0.08676452960893512
1733860669578060300,8.710060302734375,-0.005839958199858665,0.03526742047518491,-0.11706424467414617
1733860669588011500,8.720011474609375,-0.03520224628448486,0.04919570032358169,-0.1430047416165471
1733860669597962500,8.72996240234375,-0.03966273282468319,0.04793327917233109,-0.15489669333174824
1733860669607913500,8.73991357421875,-0.038213118538260454,0.02658040228113532,-0.15285335093587635
1733860669617863400,8.749863525390625,-0.040292847421765324,0.034851094759255644,-0.12336217577457427
1733860669627814700,8.759814697265625,-0.023724574458599088,0.0522680935062468,-0.09747107093185185
1733860669637765400,8.769765380859376,-0.004715922605991363,0.0611272533968091,-0.10417582926750182
1733860669647716600,8.779716552734374,-0.004061258089542389,0.07308160282373428,-0.08288841882795095
1733860669657667300,8.789667236328125,-0.02627250537574291,0.0816169375874102,-0.06360211907774209
1733860669667617500,8.799617431640625,-0.06825812819004058,0.05823679265230894,-0.05490341044589877
1733860669677568500,8.809568603515626,-0.07216507250070571,0.023377660717070103,-0.04259162588343024
1733860669687519500,8.81951953125,-0.04158931697309017,0.029306027852743863,-0.05077960851415991
1733860669697470500,8.829470458984375,-0.03560790447592735,0.03560790447592735,-0.049571986290067434
1733860669707420700,8.839420654296875,-0.024524784925580023,0.041182489737868304,-0.04024959280192852
1733860669717371400,8.849371337890625,-0.038861937835812564,0.04050371369346976,-0.026446108376979825
1733860669727322600,8.859322509765626,-0.03584054418802261,0.057846332029998296,-0.018689064509421587
1733860669737273300,8.8692734375,-0.041485272076725956,0.07141308508962392,-0.01591901527419686
1733860669747223300,8.879223388671875,-0.03817804722487926,0.06294365516901015,0.0038278877250850197
1733860669757174500,8.889174560546875,-0.008722235637903213,0.06978592227920889,0.009410217902064323
1733860669767125200,8.899125244140626,-0.0006739537388086318,0.06821735778823494,0.0005623100578784942
1733860669777076500,8.909076416015624,-0.004196867167949677,0.06956161200404166,-0.0011497545570135115
1733860669787027700,8.91902783203125,-0.015943419063091276,0.06245324130356311,-0.0052311786517500874
1733860669796977400,8.928977294921875,-0.016112345889210702,0.05489449648708105,-0.01745192392989993
1733860669806928400,8.938928466796876,-0.026573534148931502,0.043556963784247636,-0.014287760810554027
1733860669816879600,8.948879638671874,-0.02817395508289337,0.0580063448973,-0.023046236805617806
1733860669826830300,8.958830322265625,-0.043943771144747734,0.059940527830272906,-0.02034063110873103
1733860669836780500,8.968780517578125,-0.045747021174430844,0.043048283609747884,-0.002727379137277603
1733860669846731500,8.9787314453125,-0.03377016765475273,0.02816591790691018,-0.021346008758991956
1733860669856682500,8.9886826171875,-0.04184241495132446,0.0373081325225532,-0.015382278048992157
1733860669866633500,8.998633544921875,-0.04325520435869693,0.04799596914499998,0.0157005502179265
1733860669876583700,9.008583740234375,-0.04250234016478061,0.03787146549373865,0.020068682299554347
1733860669886534400,9.018534423828125,-0.030859833166003225,0.03168970811888575,-0.0038271570727229118
1733860669896485600,9.028485595703126,-0.035652328139543533,0.03882014452069998,-0.012483049476146698
1733860669906436400,9.038436279296874,-0.03593348316848278,0.05018851075321436,-0.02477116090208292
1733860669916387600,9.0483876953125,-0.027779402807354924,0.05689560717642307,-0.03842383867949247
1733860669926337500,9.058337646484375,-0.036764088773727416,0.05063157834559679,-0.03109291126951575
1733860669936288500,9.06828857421875,-0.03901683613657951,0.054379386571794745,-0.043636166500300166
1733860669946239500,9.078239501953124,-0.04214753537774086,0.049873891846090555,-0.02514583943337202
1733860669956190500,9.0881904296875,-0.02524433137178421,0.04911912795603275,-0.015832944425940514
1733860669966140400,9.098140380859375,-0.010649404308199882,0.05553863960951566,-0.006844605197757482
1733860669976091400,9.10809130859375,-0.015690321084856986,0.04598901323676109,-0.011002163268625735
1733860669986042600,9.118042724609374,-0.00862520500421524,0.03603796645626425,-0.01826148674711585
1733860669995993300,9.127993408203125,0.0062146367311477655,0.028110680588334797,-0.026756781761348245
1733860670005943600,9.137943603515625,-0.012117723295092583,0.027183628871291873,-0.034777445001155136
1733860670015894500,9.14789453125,-0.015635960549116135,0.022617197738587856,-0.04603782081454992
1733860670025845500,9.157845458984376,-0.0281073195874691,0.01676554910093546,-0.040612142504006625
1733860670035796500,9.16779638671875,-0.022835516664385793,0.018908990870416163,-0.037320845873653884
1733860670045747500,9.17774755859375,-0.0124655138194561,0.0332636794373393,-0.04450856542065739
1733860670055697400,9.187697509765625,-0.024689035576581954,0.02846256276592612,-0.04467106250599026
1733860670065648600,9.197648681640626,-0.024244214418530464,0.03178396227359771,-0.03915302973687648
1733860670075599400,9.207599365234374,-0.030116905844211575,0.041469051594287154,-0.03844108207523823
1733860670085550600,9.217550537109375,-0.018906360521912573,0.03196019562333822,-0.034556203465908764
1733860670095500500,9.22750048828125,-0.02656184371113777,0.03310819661468267,-0.029126871893554923
1733860670105451500,9.237451416015626,-0.02550561265647411,0.042549248046427963,-0.047910336688160894
1733860670115402500,9.247402587890624,-0.033849662631750106,0.0357857452608645,-0.024327801048755645
1733860670125353500,9.257353515625,-0.03617605975270271,0.03217252319976687,-0.028952976631373164
1733860670135303400,9.267303466796875,-0.04173720101118088,0.006973784535378218,-0.019260726917535064
1733860670145254400,9.27725439453125,-0.04598082993030548,0.027891338749229905,-0.023468700001388787
1733860670155205400,9.287205322265624,-0.05383621960580349,0.046109132485091686,-0.025755934155732393
1733860670165156400,9.29715625,-0.022544424763321875,0.06015723932087421,0.010473024827986954
1733860670175107600,9.307107666015625,-0.03691489542126655,0.07639774163439869,0.018792086492478845
1733860670185057300,9.317057373046875,-0.03799859900474548,0.0478806722022593,0.039911008497327566
1733860670195008500,9.327008544921876,-0.014674422040581702,0.026004940480738876,0.03617445231750607
1733860670204959500,9.33695947265625,0.014068272840976715,0.033646102883666755,0.012572042933851479
1733860670214910500,9.346910400390625,0.0031698622077703472,0.05167611896246671,-0.011925123332440852
1733860670224860400,9.3568603515625,-0.011745967373251915,0.056522389949858184,-0.02428381577655673
1733860670234811600,9.366811767578126,-0.018421791875362394,0.047907706339657304,-0.022197364891320466
1733860670244762400,9.376762451171874,-0.024786066210269925,0.05846168744936585,-0.004793517886847258
1733860670254713600,9.386713623046875,-0.03576747895181179,0.07040083930715918,-0.0023835341356694697
1733860670264663600,9.39666357421875,-0.048857846671342846,0.07677168951332569,0.007193710896372794
1733860670274614500,9.406614501953126,-0.04388181182444095,0.07051292137950659,0.002292202590405941
1733860670284565500,9.4165654296875,-0.03864040403962135,0.0380716642409563,0.026027736834436654
1733860670294516500,9.4265166015625,-0.06144435652196407,0.000003945522755384445,0.00356602191850543
1733860670304467500,9.436467529296875,-0.05171148253679275,-0.0171776370331645,-0.0072261518612504
1733860670314417700,9.446417724609375,-0.03740297119915485,-0.00942512321025133,0.0018720774821937083
1733860670324368400,9.456368408203126,-0.029143676897883414,0.010195084669440984,-0.006931114437431097
1733860670334319600,9.466319580078125,-0.02530921330153942,0.02723477453663945,0.027182459827512502
1733860670344270600,9.4762705078125,-0.02721241657435894,0.04340571874529123,0.03989376510158181
1733860670354220300,9.48622021484375,-0.007532149070501327,0.03739142689183354,0.02367868949025869
1733860670364171500,9.496171630859376,0.005816577324271202,0.02942746227532625,-0.012191957575082778
1733860670374122500,9.50612255859375,-0.0027548516660928723,0.02198722927197814,-0.03933686187118292
1733860670384073500,9.516073486328125,-0.019006898286938665,0.024589666855335233,-0.053665539214015005
1733860670394023400,9.5260234375,-0.024160627788305283,0.022992606922239065,-0.06274462546557187
1733860670403974700,9.535974609375,-0.005788520273566245,0.03000993833839893,-0.08423091947808861
1733860670413925400,9.54592529296875,-0.023425883772969246,0.02732785964757204,-0.09440496135950088
1733860670423875800,9.555875732421875,-0.030409751310944557,0.03040755935385823,-0.08253390630185603
1733860670433826800,9.565826904296875,-0.02853343604505062,0.0397829982034862,-0.06264262639582156
1733860670443776800,9.57577685546875,-0.03903787892460823,0.0392428999774158,-0.05777984266504645
1733860670453728000,9.58572802734375,-0.02293839251697063,0.04845525721982121,-0.03941898719668388
1733860670463678700,9.5956787109375,-0.030676293292641637,0.06547521947324275,-0.025741174978017804
1733860670473630000,9.6056298828125,-0.034114451047778126,0.06452917079478501,-0.033936025740951295
1733860670483580000,9.615579833984375,-0.035495676273107526,0.05484685795307159,-0.027763912977278232
1733860670493530600,9.625530517578126,-0.03345861748754978,0.07366875506192445,-0.03063391545563936
1733860670503481900,9.63548193359375,-0.029445874714851376,0.0521701860897243,-0.02915039889961481
1733860670513432800,9.645432861328125,-0.047234044861793514,0.04060176724046469,-0.004820990415662527
1733860670523382800,9.6553828125,-0.040489246776700016,0.06285203136280179,-0.0030437516100704667
1733860670533333800,9.665333740234376,-0.024642858347296712,0.07427373521775006,-0.0052386313058435914
1733860670543285000,9.675284912109374,-0.007011924588680267,0.07507350729331373,-0.0012380173623561857
1733860670553235700,9.685235595703125,-0.023214286848902702,0.07475216638445854,-0.01278071724846959
1733860670563187000,9.69518701171875,-0.04344692753851413,0.014042553877830504,-0.02174859821051359
1733860670573137000,9.705136962890625,-0.03134323276877403,0.0017507891900837421,-0.050192164015024895
1733860670583087900,9.715087890625,-0.017162731724977492,-0.005391922171413898,-0.05283844074010849
1733860670593038800,9.725038818359375,-0.018251111483573914,0.01789937543645501,-0.042942777408659455
1733860670602989800,9.73498974609375,-0.026404022800922394,0.0371568874835968,-0.02208499055802822
1733860670612939800,9.744939697265625,-0.017183189991116524,0.03028217940852046,-0.003030892128497362
1733860670622891000,9.75489111328125,-0.013490180692076682,0.02690539645180106,0.007985445795953273
1733860670632841700,9.764841796875,-0.018315993413329124,0.012764058374613522,0.013389789057523012
1733860670642793000,9.77479296875,-0.011153262177109718,0.007427373521775007,0.018256518311053512
1733860670652743000,9.784742919921875,-0.011461889734864235,0.016557605438679457,-0.006674509327858686
1733860670662693600,9.794693603515626,-0.017586510095000268,0.0159206227093935,-0.003562660917639732
1733860670672644900,9.804644775390624,-0.025050270104408263,0.02073299142718315,-0.027193273482471702
1733860670682596000,9.81459619140625,-0.01737725125849247,0.04394245597049594,-0.02612345229387283
1733860670692546800,9.824546875,-0.041240941926836965,0.03833148422092199,-0.028792379242181778
1733860670702496800,9.834496826171875,-0.035326749446988104,0.03941124228164553,-0.04113645863905549
1733860670712448000,9.844447998046874,-0.015653496205806732,0.0313673442967236,-0.02305778111293912
1733860670722398700,9.854398681640625,-0.036981530916690826,0.04349544285535812,-0.0012125906601548194
1733860670732350000,9.864349853515625,-0.02644552385509014,0.026215076100081204,-0.0007831132017076015
1733860670742300000,9.8742998046875,-0.043588381835818285,0.029404958182573316,-0.0017027122646570204
1733860670752251000,9.8842509765625,-0.037736148676276206,0.04288885526433587,-0.015448767413944004
1733860670762201900,9.894201904296875,-0.04206570231318474,0.04592018578425049,-0.017365560820698737
1733860670772152800,9.90415283203125,-0.03398234910070896,0.06610679537504911,-0.01844166561961174
1733860670782102800,9.914102783203125,-0.025955109989643094,0.05919219368100166,-0.023178192622214554
1733860670792054000,9.924053955078126,-0.0324292744398117,0.06828326263129711,-0.025736060411483047
1733860670802004700,9.934004638671874,-0.0195458274692297,0.04988879715427756,-0.013592618153244257
1733860670811956000,9.9439560546875,-0.031661212676763535,0.037619974950701,-0.008696516674757003
1733860670821906700,9.95390673828125,-0.03823123871684074,0.05094005977287888,-0.01883592563420534
1733860670831857000,9.96385693359375,-0.024769115075469014,0.056876317954063414,-0.02044087661281228
1733860670841808000,9.973807861328124,-0.024915245547890662,0.04961714060604572,-0.0377874404720962
1733860670851758800,9.9837587890625,-0.026102994027733802,0.03158464030921459,-0.030641514240205288
1733860670861709800,9.993709716796875,-0.032276714226603505,0.028791210198402403,-0.038723113887012
1733860670871659800,10.00365966796875,-0.03320785759687424,0.028362755653262135,-0.03244432587847113
1733860670881610800,10.01361083984375,-0.035600305691361425,0.03386763667985797,-0.04024740084484219
1733860670891561700,10.023561767578125,-0.03243044348359108,0.013569383408129215,-0.047090106346458195
1733860670901513000,10.033512939453125,-0.035035657545924186,0.016951719322800634,-0.05644304110333323
1733860670911462700,10.043462646484375,-0.027149872732162475,0.040998949864506716,-0.060351154457777736
1733860670921414000,10.053413818359376,-0.037248072898387906,0.031484833196550606,-0.02753565717935562
1733860670931364900,10.06336474609375,-0.03255670021176338,0.037198096276819706,-0.01442658475935459
1733860670941315800,10.07331591796875,-0.025672201395034788,0.023930180033296344,-0.03541457386091351
1733860670951266800,10.083266845703125,-0.026888006925582884,0.02798924616575241,-0.023766660034656523
1733860670961217000,10.093217041015626,-0.014185761740803719,0.03922390301600098,-0.013336597565561532
1733860670971167700,10.103167724609374,-0.021271336087584494,0.01161781094893813,-0.01786561929732561
1733860670981119000,10.113118896484375,-0.01352992818057537,0.010151537788659334,-0.029165304207801817
1733860670991069700,10.123069580078125,-0.03146422879993915,0.009462824872136115,-0.01561521002203226
1733860671001020000,10.13302001953125,-0.03916062852144241,0.017289280714094638,-0.005878390514105558
1733860671010971000,10.142970947265624,-0.04311784171462059,0.018105127141624686,0.007452800223976373
1733860671020921900,10.152921875,-0.03695815004110336,0.011925415593385696,0.01439721253439784
1733860671030872800,10.162872802734375,-0.026455460727214813,0.007325228321552277,0.0043232700265944
1733860671040824000,10.172823974609376,-0.005311550411581992,0.02839592727050185,-0.003554916002601385
1733860671050773800,10.182773681640626,-0.014103928676247596,0.039229163713008164,-0.006369096640497445
1733860671060725000,10.19272509765625,-0.006625555619597435,0.049762540426105256,0.008287643612921237
1733860671070676000,10.202676025390625,-0.019645196190476416,0.04279854663237929,0.01034925231784582
1733860671080627000,10.212626953125,-0.030396307307481763,0.04321911013200879,0.015042670831084251
1733860671090577000,10.222576904296876,-0.016017068821191787,0.029848610296845435,0.017272767970710992
1733860671100527900,10.23252783203125,-0.01780512128174305,0.033971097054332496,0.032561522517353295
1733860671110478800,10.242478759765625,-0.030384616869688033,0.03615209435522556,0.02327902264818549
1733860671120429800,10.252429931640625,-0.04805529811680317,0.019589082089066505,0.0008848200105130672
1733860671130380000,10.262380126953126,-0.02863280476629734,0.016701251693069935,-0.026849720741808414
1733860671140330800,10.272330810546874,-0.01175005902647972,0.037366000189632174,-0.05497983668297529
1733860671150282000,10.282281982421875,-0.006216390296816826,0.05364201220795512,-0.08170359295755625
1733860671160232700,10.292232666015625,-0.03142038965821266,0.06004091946482658,-0.08008695154115557
1733860671170184000,10.302183837890626,-0.018100304836034774,0.044827275981009,-0.06671601331457495
1733860671180134000,10.3121337890625,-0.01880757632255554,0.04626797630861401,-0.03851370892003178
1733860671190084900,10.3220849609375,-0.014403788405656814,0.070353639164567,-0.017542086431384087
1733860671200035800,10.332035888671875,-0.01782382598221302,0.07403948807045817,-0.013892624013125895
1733860671209986800,10.34198681640625,-0.03313245427310466,0.0483566191509366,-0.004234861090779305
1733860671219936800,10.351936767578126,-0.05613455967605114,0.02275865203589201,-0.013569675669074058
1733860671229888000,10.361887939453124,-0.06919570130109787,-0.021552052725106477,-0.008440642217546701
1733860671239838700,10.371838623046875,-0.049998248878121376,-0.012592939591407774,0.009648848963528871
1733860671249790000,10.3817900390625,-0.03413958548903465,-0.008571428990364074,-0.010431962165236473
1733860671259740000,10.391739990234376,-0.02022328833937645,0.015036825612187384,-0.0010522855319082735
1733860671269691000,10.40169091796875,-0.02842939114868641,0.01779723023623228,0.004322100982815027
1733860671279641900,10.411641845703125,-0.007561959686875343,0.023455109867453573,0.01803352321013808
1733860671289592800,10.4215927734375,-0.0058270987182855605,0.014641981075704098,0.02528904729634523
1733860671299543800,10.431543701171876,-0.013187398353219032,0.0017198095299303532,0.018044336865097283
1733860671309493800,10.44149365234375,-0.015443652847409247,0.011177958226948975,-0.010181202274560928
1733860671319445000,10.451445068359375,-0.016494623205065725,0.016101239973306654,-0.021496669276058672
1733860671329395700,10.461395751953125,-0.0034451720178127285,0.020458412269502877,-0.027833324951678513
1733860671339347000,10.471346923828126,-0.0029307927548885343,0.029491321291774508,-0.033535628246515986
1733860671349297000,10.481296875,-0.0026595745980739593,0.020307313361018896,-0.035153000315278765
1733860671359248000,10.491247802734375,-0.023600071296095846,0.04336757869198918,-0.05278320342153311
1733860671369198800,10.50119873046875,-0.032144027757644654,0.04571107307821512,-0.056264761926978824
1733860671379149800,10.51114990234375,-0.02915770542323589,0.06220774210989475,-0.0368476754039526
1733860671389099800,10.521099853515626,-0.02786240491569042,0.06856807092204689,-0.02839139722585678
1733860671399051000,10.531051025390624,-0.02671265035867691,0.06593202333003283,-0.02204787341803312
1733860671409001700,10.541001708984375,-0.03185410490036011,0.05902881981283426,-0.016321458595246075
1733860671418953000,10.550952880859375,-0.045263621571660036,0.05819076155349612,-0.010731383503228425
1733860671428903400,10.5609033203125,-0.044027357774972915,0.049523470973223446,-0.0013879472270607947
1733860671438853400,10.570853271484374,-0.04414017049968243,0.03201031837537884,0.02474661098271608
1733860671448804400,10.580804443359375,-0.03885843070447444,0.028323738817125556,0.03639408641755581
1733860671458755300,10.59075537109375,-0.03884849383234978,0.02844926489293575,0.02169526058807969
1733860671468706300,10.600706298828126,-0.019402619606256485,0.047985886142402887,0.02210179556235671
1733860671478656300,10.61065625,-0.014333061257004736,0.061212447462230916,0.006143763452023268
1733860671488607200,10.620607177734374,-0.02437865445315838,0.030376141302287576,-0.010776830080151557
1733860671498558200,10.63055810546875,-0.04804010054767131,-0.0024355565838515758,-0.025125965689122676
1733860671508509200,10.64050927734375,-0.04898234983384609,-0.013125292902439831,-0.05005260941386223
1733860671518459400,10.65045947265625,-0.02751169178187847,0.007372136203199624,-0.04415156867653131
1733860671528410000,10.66041015625,-0.02191898634135723,0.022319968357682227,-0.0306605112016201
1733860671538361300,10.670361328125,0.001928337714076042,0.028231238228082656,-0.022794600132107733
1733860671548312000,10.68031201171875,-0.0035609073519706725,0.01749737050682306,-0.01514203955233097
1733860671558263300,10.69026318359375,-0.00841653068959713,-0.011397446196526289,-0.009453618652373551
1733860671568213200,10.700213134765624,0.004254734835028648,-0.007567366514354944,-0.021493308275192975
1733860671578164200,10.710164306640625,-0.010694412493705749,0.007242226213216781,-0.023516338535398244
1733860671588115200,10.720115234375,-0.01799158376455307,0.019822598583996296,-0.03630801556929946
1733860671598066400,10.73006640625,-0.014639935249090194,0.031010639813542365,-0.029604572407901285
1733860671608016100,10.74001611328125,-0.012880524361133575,0.032196634727716444,-0.03405190720558166
1733860671617967400,10.74996728515625,-0.011415712505578993,0.0432468749217689,-0.035222412289679046
1733860671627918300,10.75991845703125,-0.009633505263924598,0.02978270545378327,-0.030398207003623244
1733860671637869300,10.769869384765625,-0.03943944546282291,0.03858092893734574,-0.031278935360908505
1733860671647820300,10.7798203125,-0.03574877425134182,0.01867868924587965,0.0007265607088804244
1733860671657770200,10.789770263671874,-0.03682780165970325,0.026741730322688815,-0.0013524375222623347
1733860671667721200,10.79972119140625,-0.03507365146875381,0.04677987135350704,0.011146101783961058
1733860671677672400,10.80967236328125,-0.04126198471486568,0.04470788738504052,0.020250468607246875
1733860671687623200,10.819623046875,-0.030569910308718678,0.05158800228759646,0.02551175013631582
1733860671697573000,10.829572998046874,-0.044161213287711144,0.059037003119289874,0.021198709242790936
1733860671707524400,10.8395244140625,-0.04446984084546566,0.05779226375520229,0.014128624726086855
1733860671717475000,10.84947509765625,-0.030744682353734967,0.057499710549414156,0.011702128231525421
1733860671727426300,10.85942626953125,-0.032305355799198146,0.058552726733684536,0.004936433488875627
1733860671737376300,10.869376220703124,-0.019207389295101164,0.04444704449176788,-0.003997399073094129
1733860671747327200,10.8793271484375,-0.01900923637449741,0.04391951348632574,0.012601707419753074
1733860671757278200,10.8892783203125,-0.014747487276792525,0.03812105634063482,-0.010718816282600165
1733860671767229400,10.8992294921875,-0.006238602128624916,0.03996127737984061,-0.005392798954248428
1733860671777180200,10.90918017578125,-0.01806464900076389,0.03370835446491837,-0.02739011122882366
1733860671787130400,10.91913037109375,-0.02146247474551201,0.030653643069416283,-0.005024988555163145
1733860671797081300,10.929081298828125,-0.012991583520174026,0.027163316735625265,-0.010672931314259768
1733860671807032300,10.9390322265625,-0.0019207389295101164,0.01658916962072253,-0.029430531015247105
1733860671816983300,10.9489833984375,-0.004627659800648689,0.021214345203340052,-0.012130728907138108
1733860671826933500,10.95893359375,-0.013909282886981964,0.00984042601287365,-0.010317103613913059
1733860671836884200,10.96888427734375,-0.0014998831689357758,0.007767711392045021,-0.014774083022773265
1733860671846835500,10.97883544921875,-0.0052484220474958414,0.009391659332066774,-0.012469897733628749
1733860671856786200,10.9887861328125,-0.01246200668811798,0.018445903403311967,-0.010865239015966654
1733860671866736000,10.998736083984374,-0.020535423028469085,0.024120149647444484,-0.030668109986186024
1733860671876687400,11.008687255859375,-0.014108604851365088,0.023486089527606963,-0.019222586864233015
1733860671886638000,11.01863818359375,-0.010258359163999557,0.025514965006709096,-0.024587036506831646
1733860671896589300,11.02858935546875,-0.009468670091032982,0.03644786243140697,-0.01603431221693754
1733860671906540000,11.0385400390625,-0.01703822856247425,0.02874649427384138,-0.0094721772223711
1733860671916490200,11.048490234375,-0.015015198302268981,0.025425825418531892,-0.005750234089791775
1733860671926441200,11.058441162109375,-0.02122223624885082,0.015000439124554395,-0.00016848843470215795
1733860671936392200,11.06839208984375,-0.024473346999287604,0.018679858289659023,0.0050048225499689574
1733860671946343200,11.07834326171875,-0.014039631268382072,0.007964987529814243,0.025846535048633813
1733860671956293400,11.08829345703125,-0.03237199129462242,0.021871347807347775,0.03082286215648055
1733860671966244000,11.098244140625,-0.030524317601323125,0.019687135636061427,0.030328064376860857
1733860671976195300,11.1081953125,-0.015343115082383155,0.021001725365966558,0.021432371868193148
1733860671986146300,11.118146240234376,-0.013452186769247055,0.025502397786080835,0.009770137255638836
1733860671996096300,11.12809619140625,-0.02243921082317829,0.018029869948327542,0.012188888835161924
1733860672006047200,11.138047119140625,-0.038432314246892925,0.03502352871671319,-0.011980068390071392
1733860672015998500,11.14799853515625,-0.027062194448709487,0.04117518321424722,-0.017234043395519257
1733860672025949200,11.15794921875,-0.030358897906541824,0.03084799659773707,0.0038768414333462714
1733860672035900400,11.167900390625,-0.019320202019810676,0.03495484739467501,0.014932342324405908
1733860672045850400,11.177850341796875,-0.017878771039843557,0.046212300598621366,0.02958455253317952
1733860672055801300,11.18780126953125,-0.0061550154983997345,0.0388702672727406,0.03048457011282444
1733860672065752300,11.19775244140625,-0.026134558209776875,0.034779783088713885,0.02440466567724943
1733860672075703300,11.207703369140624,-0.01964110453724861,0.0008715221375226974,0.00736731389760971
1733860672085653200,11.2176533203125,-0.018574352088570594,0.007520312502235174,-0.0004538812473416328
1733860672095604200,11.227604248046875,-0.019019173246622084,0.015919307535141706,-0.0037925241507589815
1733860672105555200,11.23755517578125,-0.0376624989181757,0.03240238643288612,-0.0006013268940150738
1733860672115506200,11.247506103515626,-0.07785363953113555,0.0206023507848382,-0.021929799996316432
1733860672125457400,11.25745751953125,-0.045026890206336975,0.007316898884624242,-0.0640355420589447
1733860672135407000,11.267406982421875,-0.015464695635437965,0.026706366748362777,-0.06434212379008532
1733860672145358300,11.2773583984375,-0.02296644956767559,0.04595744905471801,-0.07094429853409528
1733860672155309300,11.287309326171876,-0.02814998968541622,0.034368279678374525,-0.07141688448190689
1733860672165260300,11.29726025390625,-0.014133154770731925,0.032526012812554836,-0.046316491625458
1733860672175210200,11.307210205078125,0.006796236011385917,0.040341508869081735,-0.029704087259620426
1733860672185161500,11.317161376953125,0.007382511466741562,0.06430997508615255,-0.005045154560357332
1733860672195112200,11.3271123046875,-0.010302782827615738,0.07649506452903151,-0.0012575988456606864
1733860672205063400,11.3370634765625,-0.03042787148952484,0.04839797407463193,0.015871522870659828
1733860672215013400,11.347013427734375,-0.04226151714622974,0.013939385764300823,0.021088380736112595
1733860672224964400,11.35696435546875,-0.06570376753211021,-0.005347060116380453,0.01662190284654498
1733860672234915300,11.366915283203125,-0.07338438516259194,-0.011593699420988559,0.00334141938239336
1733860672244866300,11.3768662109375,-0.03580079669952392,-0.007425181564688682,0.014973989509046076
1733860672254817300,11.3868173828125,-0.010083587118983267,0.003967442326247692,0.007521919937431812
1733860672264767200,11.396767333984375,-0.01057107837498188,0.016949527365714312,0.03792012694105506
1733860672274718200,11.40671826171875,-0.00865092396736145,0.006706073509901761,0.04654547807574272
1733860672284669200,11.416669189453126,-0.011008885270357132,0.01750862255319953,0.018170593593269585
1733860672294620200,11.4266201171875,-0.009679097971320152,0.011776362511515617,-0.010749065290391444
1733860672304570000,11.436570068359375,-0.013217793491482733,0.014361556699126959,-0.04512099823057651
1733860672314521300,11.446521240234375,-0.0120820674598217,0.020374825639277696,-0.057846916551887985
1733860672324472000,11.45647216796875,-0.00596738397181034,0.0145339906565845,-0.07048954050391912
1733860672334423300,11.46642333984375,-0.019890695384144782,0.02380538460984826,-0.09829875392764806
1733860672344374300,11.476374267578125,-0.03361410031020641,0.032711013990640636,-0.08652969793975353
1733860672354324200,11.48632421875,-0.03170797442793846,0.0269745161652565,-0.06232333131358027
1733860672364275200,11.496275146484376,-0.03608195172846317,0.02052884715721011,-0.05553922413140535
1733860672374226400,11.506226318359374,-0.045421442481875414,0.029364918433129786,-0.013286182552576064
1733860672384177200,11.51617724609375,-0.023695932886004446,0.035096886213868854,-0.003911035963892936
1733860672394127400,11.52612744140625,-0.015786182674765586,0.04290273765921592,-0.00423982952684164
1733860672404078300,11.536078369140625,-0.00940904885828495,0.047928895258158445,-0.013687456829845904
1733860672414029300,11.546029296875,-0.013710545444488525,0.07093523844480513,-0.04346373254284262
1733860672423980800,11.555980712890625,-0.02733399712741375,0.06124722651466727,-0.0664523939423263
1733860672433930800,11.5659306640625,-0.013522913917899131,0.051504561787843704,-0.060218029597401614
1733860672443881500,11.575881591796875,-0.03341594738960266,0.0699601098023355,-0.03320698081403971
1733860672453832700,11.585832763671876,-0.022677695754170415,0.05156710563004017,-0.01714651124253869
1733860672463783400,11.595783447265624,-0.011927169159054755,0.06526055380925536,-0.014401450318098067
1733860672473734700,11.605734619140625,-0.010481646525859832,0.05283931752294302,0.019570377388596533
1733860672483684600,11.6156845703125,-0.024231939458847045,0.036079905901849264,0.05033332605138421
1733860672493635600,11.625635498046876,-0.029989480072259902,-0.018474252714961767,0.03116977589800954
1733860672503586600,11.635586669921874,-0.04163432515859604,-0.054929860061407085,0.011141425608843564
1733860672513537500,11.64553759765625,-0.023965981999039647,-0.05333016977980733,-0.012598200288414954
1733860672523487500,11.655487548828125,-0.01845510962307453,-0.044300183366984124,-0.03785889827311039
1733860672533438700,11.665438720703126,-0.02118015067279339,-0.007627280008047819,-0.02414031565263867
1733860672543389400,11.675389404296874,-0.03436462641656399,0.028702801262587306,-0.017646131327748296
1733860672553340700,11.685340576171875,-0.018512392768263816,0.04119374178424477,0.015645751290768384
1733860672563290600,11.69529052734375,-0.019191607204079628,0.022743016075342893,0.023114479736238716
1733860672573241600,11.70524169921875,-0.024759178203344345,0.020838936019688843,0.006833937673270702
1733860672583192600,11.715192626953124,-0.023114333605766296,0.03180734314918518,0.0006777531310915946
1733860672593143800,11.725143798828125,-0.014903554621338843,0.03536620467454195,0.01339855688586831
1733860672603094500,11.735094482421875,-0.011923662027716636,0.031400662044435736,-0.007874240506440401
1733860672613044500,11.74504443359375,-0.023930910685658453,0.04870177932679653,-0.014968290420621633
1733860672622995700,11.75499560546875,-0.03926233533024788,0.04699132214710116,-0.02110343217477202
1733860672632946400,11.764946533203124,-0.03677168755829334,0.03872077579945326,-0.021523849543929097
1733860672642897700,11.774897705078125,-0.04414367763102054,0.033879911639541384,-0.022299510091543195
1733860672652847600,11.78484765625,-0.03830371943116188,0.025718817015737295,-0.03004895517453551
1733860672662798600,11.794798583984376,-0.023141806134581566,0.024527415274083614,-0.024981881043314932
1733860672672749600,11.80474951171875,-0.03981996921300888,0.032956513184309005,-0.014175532607734203
1733860672682700500,11.814700439453125,-0.02867664390802383,0.030400837352126835,-0.016696867778897284
1733860672692650500,11.824650390625,-0.038357495445013046,0.04824161446914076,-0.020016952112317084
1733860672702601700,11.834601806640626,-0.047349195674061775,0.0584627103626728,-0.01325564128383994
1733860672712552400,11.844552490234374,-0.025863340052962303,0.05179126977473497,-0.017143588633090255
1733860672722503700,11.854503662109375,-0.018586627048254013,0.05635433990657329,-0.017502485073357818
1733860672732454700,11.86445458984375,-0.021341478714346884,0.04373319713398814,-0.04343304514363408
1733860672742404600,11.874404541015625,-0.01492985810637474,0.03693447690457105,-0.043846302119642494
1733860672752355600,11.88435546875,-0.022473113092780113,0.042860359822213645,-0.038085108244419096
1733860672762306800,11.894306884765625,-0.024483283871412277,0.03895604586005211,-0.028752339492738244
1733860672772257500,11.904257568359375,-0.025447160467505454,0.03279211640283465,-0.005197276382148266
1733860672782207500,11.91420751953125,-0.01863280427753925,0.0305275324717164,-0.0057360594339668745
1733860672792158700,11.92415869140625,-0.025532500663399696,0.0042423137448728086,-0.007827478755265474
1733860672802109700,11.934109619140624,-0.03790799811184406,-0.009255319601297378,0.0033136545926332472
1733860672812060700,11.944060791015625,-0.012633856123685836,-0.022621289391815663,-0.013273469201475381
