time,seconds_elapsed,z,y,x
1733861064264143600,0.0161435546875,0.05046878899931907,0.09046426090970634,-0.08864844365939498
1733861064274093600,0.026093505859375,0.04368950412273407,0.11059241831153631,-0.09581278233081102
1733861064284044500,0.03604443359375,-0.0044148938328027725,0.10397606891170144,-0.004915536831319332
1733861064293995500,0.04599560546875,-0.043590135401487345,0.10114435261711478,0.010771277122199534
1733861064303946500,0.055946533203125,-0.06743219875991344,0.02881926724910736,-0.047642333401739595
1733861064313896700,0.065896728515625,-0.07500351079702376,-0.05582081755176186,-0.0403190047763288
1733861064323847400,0.075847412109375,-0.036332711619138716,-0.08763882822543383,-0.01366305304095149
1733861064333798700,0.085798583984375,-0.0086661215364933,-0.05496726946234703,0.07748013004362583
1733861064343749600,0.09574951171875,-0.06179682322144508,0.009431552951037883,0.14394231472760438
1733861064353699600,0.105699462890625,-0.12386603364348411,0.07819105479195713,0.10810440088808536
1733861064363650600,0.115650634765625,0.006905541604757309,0.0032281682662665843,0.03880976925715804
1733861064373601800,0.125601806640625,0.04878419691324234,-0.08494199035689234,-0.025480039823800323
1733861064383552500,0.135552490234375,0.00964519570171833,-0.14163593748137354,-0.07492927651703357
1733861064393502700,0.145502685546875,-0.08050210821330547,-0.07420826876610517,-0.016908903094381093
1733861064403453700,0.15545361328125,-0.07025076331198216,0.04991963068395853,0.0010372340932488441
1733861064413404700,0.16540478515625,-0.09149404234886169,0.2004948075547814,0.09902487624511122
1733861064423355600,0.175355712890625,-0.09945756857395172,0.2595831024698913,0.1818858225442469
1733861064433305600,0.1853056640625,-0.20048224033415316,0.2662759511720389,0.2530442752856761
1733861064443256600,0.195256591796875,-0.276496389478445,0.30575755527615545,0.2446568976253271
1733861064453207600,0.20520751953125,-0.3089858696728945,0.3208092131312936,0.16711670795753597
1733861064463158500,0.215158447265625,-0.40361236482858653,0.2998447510357946,-0.004876227734237909
1733861064473108500,0.2251083984375,-0.4792658639669418,0.19799531888924538,-0.08572992586418986
1733861064483059700,0.235059814453125,-0.172930801063776,0.17606749165430663,-0.10550313234850764
1733861064493010400,0.245010498046875,-0.626738983169198,-0.14654416778907178,0.6587249708209186
1733861064502961700,0.254961669921875,-0.673526453307271,-0.2400967501029372,0.7535465501572937
1733861064512911600,0.26491162109375,-0.6144669460952281,-0.08886683565042912,0.5076685863044113
1733861064522862600,0.274862548828125,-1.138036062169075,0.028119448416680095,0.42062933140732345
1733861064532813600,0.2848134765625,-0.9478899224102496,0.030442338406294584,0.3675014062013477
1733861064542764500,0.2947646484375,-0.5243932919383049,0.2539402377447113,0.366247972074151
1733861064552714500,0.304714599609375,-0.4635778809696436,0.5431531201289966,0.26038557795919476
1733861064562665700,0.314665771484375,-0.557987518504262,0.6501189819738269,0.2039252934601158
1733861064572616700,0.32461669921875,-0.473579050502181,0.6076340678678825,0.16684581859428435
1733861064582567700,0.334567626953125,-0.07568564784228801,-0.4041606463611126,-0.09045479896161705
1733861064592517600,0.344517578125,-0.6474018319696188,-0.6377141853656619,1.195843523493409
1733861064602468600,0.354468505859375,-0.9174258105635642,0.016911067652003838,2.4023345515988765
1733861064612419600,0.364419677734375,-0.11809212641716002,0.15467978091174736,2.22925104419142
1733861064622370600,0.37437060546875,0.31947453046143054,0.09324346156576648,1.5892410760387778
1733861064632320800,0.38432080078125,0.268600083270669,-0.009313698725029825,0.9935943465519695
1733861064642271500,0.394271484375,0.3218494428992271,-0.07008516095411033,0.492562129522115
1733861064652222700,0.40422265625,0.3800590552836656,-0.1644286744499579,0.2632332955405116
1733861064662173400,0.41417333984375,0.4227367520153522,-0.23742877300269902,0.24562077422142028
1733861064672123600,0.42412353515625,0.6372223832607269,-0.24699180684629826,0.28400639978237446
1733861064682074600,0.43407470703125,0.8070283303022384,-0.22767175095696002,0.23066198228150606
1733861064692025600,0.444025634765625,0.6491203263252974,-0.28369762609414756,0.2631196060329676
1733861064701976600,0.4539765625,0.5494049835979938,-0.3101635351501405,0.27651933196261524
1733861064711926800,0.4639267578125,0.6841290958642959,-0.2702576412193477,0.21001725365966556
1733861064721877500,0.47387744140625,0.6762485717475414,-0.2765487772528082,0.1163683713644743
1733861064731828700,0.483828857421875,0.8590051857769488,-0.19148637538664043,0.07083060902655124
1733861064741779500,0.493779541015625,1.0193237580269574,-0.12474332793466746,0.03199702050238847
1733861064751729400,0.5037294921875,1.0718605854719876,-0.1235075025293976,0.01768821690380573
1733861064761680600,0.5136806640625,1.0086761072844266,-0.11165865930356085,0.020083295346796513
1733861064771631400,0.52363134765625,0.913282134887576,-0.08077551832720636,0.0137421096265316
1733861064781582600,0.53358251953125,0.7578472430258989,-0.10031155505478381,0.08203267878144979
1733861064791533800,0.543533935546875,0.5284972201257944,-0.14801234064549207,0.09169161074757576
1733861064801483500,0.5534833984375,0.5136725759595632,-0.09469313065111637,0.06115326462090015
1733861064811434200,0.563434326171875,0.6466594891697168,0.009955284564197062,0.04193213906139135
1733861064821385500,0.573385498046875,0.6329331616342068,0.21000117930769918,-0.00848491975069046
1733861064831336200,0.583336181640625,0.5716729295074939,0.4438401841901242,-0.12757774764299393
1733861064841286400,0.593286376953125,0.49510640717744825,0.6085482235707342,-0.20437223351001738
1733861064851237400,0.6032373046875,0.5609709182292223,0.7193572072423994,-0.21818945419937372
1733861064861188400,0.613188232421875,0.49895782190859317,0.7971120625741779,-0.07887859866470098
1733861064871139300,0.623139404296875,0.5385357990592717,0.7107220653660595,0.05321487283706665
1733861064881089500,0.633089599609375,0.5572820005834103,0.5154292103685438,0.032926994828879834
1733861064891040300,0.643040283203125,0.5036316589385271,0.2558019764959812,-0.02836597052365541
1733861064900991500,0.652991455078125,0.35772505840063096,0.020665186887979508,-0.16632131979614495
1733861064910942200,0.662942138671875,0.09713234049677848,-0.14865896798595785,-0.37699353023320437
1733861064920892200,0.67289208984375,-0.1847691228955984,-0.1439741711705923,-0.6711904115751385
1733861064930843400,0.682843505859375,-0.35387656627893443,-0.017421382661163807,-0.9907505744934082
1733861064940794000,0.692794189453125,-0.3898340148448944,0.13639979039356112,-1.1696359000474215
1733861064950745300,0.702745361328125,-0.31316987735927104,0.27958967931866646,-1.1915922957897185
1733861064960695300,0.7126953125,-0.2609557059973478,0.31393180164247747,-1.086565694911778
1733861064970646300,0.722646240234375,-0.2045148568511009,0.2814659945845604,-0.9927768196240067
1733861064980597200,0.73259716796875,-0.18433949930667876,0.20138284243568777,-1.070729827876389
1733861064990548500,0.742548583984375,-0.17677227892279623,0.09881554434336721,-1.1470058428272605
1733861065000498200,0.752498291015625,-0.17762509635984897,0.013235402213409542,-1.1519941526338457
1733861065010449400,0.762449462890625,-0.20507015264630316,0.004366378515958786,-1.0930252463147043
1733861065020400400,0.772400390625,-0.1755973899245262,0.02289353046193719,-1.036974857790768
1733861065030351400,0.782351318359375,-0.1476601662069559,-0.013457228270545601,-0.8776800756305456
1733861065040301300,0.79230126953125,-0.11639116771817207,-0.07241765902228653,-0.6666562752768397
1733861065050252500,0.80225244140625,-0.08381868541538715,-0.15865589973479508,-0.48603608875423665
1733861065060203300,0.812203369140625,-0.024082886376976965,-0.23226306080259382,-0.34201749392002817
1733861065070154500,0.822154541015625,0.04606149395108223,-0.3549951219800859,-0.287652866525948
1733861065080104400,0.8321044921875,0.047637949487566944,-0.48218489321880037,-0.37729192865788935
1733861065090055200,0.84205517578125,0.0030950434058904645,-0.566563477539271,-0.5312494414433837
1733861065100006400,0.85200634765625,-0.05996493161916733,-0.5883792227018624,-0.6559115939006209
1733861065109957400,0.861957275390625,-0.09606909517943858,-0.5403769699465483,-0.749232559415698
1733861065119907300,0.8719072265625,-0.08879062860906124,-0.4360291451130062,-0.75810618622303
1733861065129858300,0.8818583984375,-0.04581307214796543,-0.3711676736239344,-0.6516574435874819
1733861065139809300,0.891809326171875,-0.010324410137534141,-0.29794585861191153,-0.463854944345355
1733861065149760300,0.90176025390625,0.055959787631034846,-0.2543456402078271,-0.2967325372993946
1733861065159710500,0.91171044921875,0.15412205569744108,-0.241587280921638,-0.14862579636871814
1733861065169661200,0.9216611328125,0.21774550982415675,-0.24229418708197772,-0.0073643912881612775
1733861065179612400,0.9316123046875,0.2204050844222307,-0.24817535407505928,0.06468406909555197
1733861065189563400,0.9415634765625,0.1990606830984354,-0.25959976134374735,0.007434826175868511
1733861065199513300,0.951513427734375,0.10856851126849651,-0.2321495904907584,-0.04682195692956447
1733861065209464300,0.96146435546875,0.04698854566812515,-0.14112236193604766,-0.0733572048947215
1733861065219415600,0.97141552734375,0.04357786044180393,0.0072777359180152415,-0.10983896959573029
1733861065229366300,0.9813662109375,0.054906479185819625,0.1565821987332776,-0.14725275444984434
1733861065239317500,0.9913173828125,0.08031213859915733,0.2507666126772761,-0.1801549070984125
1733861065249267500,1.001267333984375,0.057605216750502584,0.26410247959047556,-0.20772914272248744
1733861065259218400,1.011218505859375,-0.0022960019826889035,0.23680464975498616,-0.21088672997057437
1733861065269169400,1.02116943359375,-0.07835165218114852,0.17936664279755204,-0.20153058034330606
1733861065279120400,1.031120361328125,-0.10409574976861476,0.1385795455854386,-0.14317249939888715
1733861065289070300,1.0410703125,-0.11605039145648478,0.13891959119476377,0.00864741683602333
1733861065299021300,1.051021240234375,-0.06422492715120315,0.16249398006033153,0.16501491337269544
1733861065308972300,1.06097216796875,-0.0017167407900094986,0.1603066626165062,0.31647038020938634
1733861065318923300,1.07092333984375,0.051154433175921436,0.1539175826339051,0.4699705046162009
1733861065328873500,1.08087353515625,0.037416415202617646,0.11274276474583893,0.5881345272257924
1733861065338824200,1.09082421875,-0.020471710142493247,0.04285213998313993,0.6045756666779518
1733861065348775400,1.100775390625,-0.10638649105429648,-0.016152020312473175,0.5959054534882307
1733861065358726100,1.11072607421875,-0.1309340723335743,-0.03082684421185404,0.6245511177361012
1733861065368676400,1.12067626953125,-0.13061316981613635,-0.05661163913588971,0.6462158370554447
1733861065378627300,1.13062744140625,-0.1282493632942438,-0.05138520972449332,0.6091515962913632
1733861065388578300,1.140578369140625,-0.19381752174794672,-0.035758528460375964,0.4701292023092508
1733861065398529300,1.150529296875,-0.34376784471869465,0.03723864748291671,0.33777065013051033
1733861065408479500,1.1604794921875,-0.5561100341945886,0.22411036868095396,0.18798282424509524
1733861065418430200,1.17043017578125,-0.6894196034878491,0.45667763659451155,0.0695794399216771
1733861065428381400,1.18038134765625,-0.7147831773251294,0.7109256251141428,0.030550036564469335
1733861065438332400,1.19033251953125,-0.7079518700003623,0.9482343519337475,0.12908669090121982
1733861065448282400,1.200282470703125,-0.7654986345618963,1.098915035005659,0.3326753728181124
1733861065458233300,1.2102333984375,-0.8328571835637092,1.159120789643377,0.47656917222887274
1733861065468184300,1.220184326171875,-0.661691054084897,1.1125503963220864,0.5328980854332447
1733861065478135300,1.23013525390625,-0.2667658535808325,0.8012173790011554,0.6343097106844187
1733861065488085200,1.240085205078125,0.0035737668335437773,0.33411512329764664,0.7437228560835123
1733861065498036500,1.250036376953125,0.015883213308453558,-0.14028287890460342,0.7093357255741953
1733861065507987200,1.2599873046875,-0.09261164820194244,-0.5251256978660822,0.5904863510489463
1733861065517938400,1.2699384765625,-0.21239830357730388,-0.7885087040755897,0.6047711892500519
1733861065527888400,1.279888427734375,-0.22664310202896593,-0.9874493409909307,0.41221828061044213
1733861065537839400,1.28983935546875,-0.16913433139026163,-1.0935388949252665,0.15427169330120086
1733861065547790300,1.299790283203125,-0.03783434835374355,-1.1743738883547483,0.061463645744323725
1733861065557741300,1.3097412109375,0.12123334705233574,-1.279761285369098,0.049750119335949416
1733861065567691300,1.319691162109375,0.20551672737002372,-1.3691443269133567,0.1255699149519205
1733861065577642500,1.329642578125,0.27478900103867054,-1.3148992342457175,0.21318682360649108
1733861065587593200,1.33959326171875,0.31522973249852654,-1.0921152918629347,0.20628975756913423
1733861065597544400,1.34954443359375,0.37027825050354,-0.8449835285566747,0.14821137034893034
1733861065607494400,1.359494384765625,0.42489188422262664,-0.6750599464848637,0.09429156411290168
1733861065617445000,1.369445068359375,0.4552449369102716,-0.5138619610518217,0.047048166900873184
1733861065627396400,1.379396240234375,0.49389001712501046,-0.3795585949482396,0.10862754797935485
1733861065637347600,1.38934765625,0.5059031110018491,-0.27423030770998447,0.22975129717737436
1733861065647297300,1.39929736328125,0.5182400300055742,-0.2740347486052662,0.24963088664561509
1733861065657248300,1.409248291015625,0.4858288757443428,-0.3015191505214199,0.18756313752830028
1733861065667199500,1.419199462890625,0.40971711144447326,-0.334418161364831,0.11060177066177129
1733861065677150200,1.429150146484375,0.32465105631649493,-0.3512278418684378,0.03658317924886942
1733861065687101400,1.439101318359375,0.2642126619666815,-0.2841420088607818,0.03122778969556093
1733861065697051400,1.449051513671875,0.22732231646478174,-0.21716043994519857,0.08915244765877724
1733861065707002400,1.45900244140625,0.2044014596045017,-0.12692991472613066,0.22395254777073859
1733861065716953300,1.468953369140625,0.21470307338833808,-0.04841156420856714,0.34514702411741016
1733861065726904300,1.478904296875,0.2746902168393135,-0.061710313981771465,0.4779752396345138
1733861065736854300,1.488854248046875,0.36767011383175846,-0.15586075259093193,0.5556418321609496
1733861065746805500,1.498805419921875,0.49102293725609775,-0.3111167076891288,0.4777919920220971
1733861065756756200,1.508756103515625,0.600785626745224,-0.4417416410082951,0.2546761873364448
1733861065766707500,1.51870751953125,0.6409808590114117,-0.5006188139233738,-0.053769584110379215
1733861065776657400,1.528657470703125,0.6022825873047113,-0.4843015565792098,-0.3895639657318592
1733861065786608400,1.5386083984375,0.529581508231163,-0.4194475742768496,-0.6815878869488835
1733861065796559000,1.54855908203125,0.43822950470149513,-0.3161845124727115,-0.9496817742630839
1733861065806510000,1.558510009765625,0.4108487458229065,-0.19064817099682985,-1.2205673381224273
1733861065816460000,1.5684599609375,0.3882090439915657,-0.05999543635528534,-1.4864982021838427
1733861065826411000,1.578410888671875,0.33050445851981636,0.022038265339471397,-1.7321078704893589
1733861065836362200,1.5883623046875,0.2123182240784168,0.12338877152055501,-1.9359207165509462
1733861065846313000,1.59831298828125,0.08464286127984523,0.21113106012046337,-2.076788446138799
1733861065856263200,1.60826318359375,-0.0012555530190467834,0.3188301681432873,-2.126366716039181
1733861065866214100,1.618214111328125,-0.04469371272921562,0.4507170111570507,-2.0742665264457463
1733861065876165000,1.6281650390625,-0.022862989193201063,0.6095658031154424,-2.035087485484779
1733861065886116000,1.6381162109375,0.05136018488109111,0.7231376756291836,-1.9651783752173184
1733861065896066000,1.648066162109375,0.06941314344406127,0.7779729162096977,-1.812780074572563
1733861065906017000,1.65801708984375,0.03207914582788944,0.7641277846001088,-1.597704076218605
1733861065915968000,1.667968017578125,-0.025952187380194662,0.7346078948009759,-1.350697108335793
1733861065925919000,1.6779189453125,-0.06656944445073604,0.7654097872346639,-1.0253890494152902
1733861065935869000,1.687868896484375,-0.018663783937692642,0.8807139634337275,-0.6109007780462503
1733861065945820200,1.697820068359375,0.030372341910004614,0.9427771825063973,-0.14454028062075375
1733861065955771000,1.70777099609375,0.09116086487174034,0.9040112523909658,0.2657803496748209
1733861065965722000,1.71772216796875,0.11966332125663756,0.837830076605454,0.6250389012530446
1733861065975672000,1.727672119140625,0.053312487992644306,0.719978115619719,0.9108791653990745
1733861065985623000,1.737623046875,-0.025955109989643094,0.6117638246163726,1.046006890030205
1733861065995574000,1.747573974609375,-0.14172317737340925,0.5498565998230129,1.14383598061949
1733861066005525000,1.75752490234375,-0.2708171747982502,0.5881150188077241,1.209282558520138
1733861066015475000,1.767474853515625,-0.2461766545385122,0.6526601908892393,1.2106561849609017
1733861066025426200,1.77742626953125,-0.2115519158810377,0.7048519312236458,1.167900162295997
1733861066035377200,1.787377197265625,-0.20794483129978178,0.7127332590579987,1.0225742842555046
1733861066045328100,1.797328125,-0.18056173433363437,0.6298145912222564,0.805423233193159
1733861066055278000,1.807278076171875,-0.14924363600611687,0.41786757507640865,0.5469926617592573
1733861066065229000,1.81722900390625,-0.09625848027169703,0.08991053601708263,0.21134908678531644
1733861066075180000,1.827179931640625,0.0094242464274168,-0.22220778646264225,-0.07344546770006417
1733861066085131300,1.83713134765625,0.17942893091142176,-0.47556532894857223,-0.31068449028432366
1733861066095081200,1.847081298828125,0.29571079303622244,-0.6405688441444188,-0.49770402245521544
1733861066105032000,1.857031982421875,0.3652162909388542,-0.7233114978261291,-0.650637160629034
1733861066114983200,1.866983154296875,0.3561544480830431,-0.6936639630593359,-0.7362377610251307
1733861066124934000,1.876933837890625,0.3258499107122421,-0.5194158688519149,-0.8133005424395203
1733861066134885000,1.886885009765625,0.3180938897579908,-0.2976629865499213,-0.8559662564724684
1733861066144835000,1.8968349609375,0.3505997365653515,-0.07621653984859586,-0.8135776058152318
1733861066154786000,1.9067861328125,0.3548386893093586,0.042572628922015424,-0.7562123353004455
1733861066164737000,1.916737060546875,0.32381168288290496,0.03725022832285613,-0.6665931469127535
1733861066174688000,1.92668798828125,0.17852233746051788,-0.05613035842496902,-0.532670121896267
1733861066184638000,1.936637939453125,0.02551613405048847,-0.17453988022822886,-0.3840212369129061
1733861066194589200,1.946589111328125,-0.06145487791597843,-0.17890885256007313,-0.2161862976834178
1733861066204540000,1.956539794921875,-0.0669417848944664,-0.12719141520652918,-0.04324760557413101
1733861066214491100,1.9664912109375,-0.02385959901511669,-0.2028472524324432,0.19766484482586383
1733861066224441000,1.976441162109375,-0.03148001089096069,-0.33024489426817744,0.4156771888926625
1733861066234392000,1.98639208984375,-0.0518225416958332,-0.49372236894052474,0.4944181326523423
1733861066244343000,1.996343017578125,-0.06885258695185184,-0.7172771860979497,0.5511842682301998
1733861066254294300,2.006294189453125,-0.07789864771664143,-0.8922945111121982,0.5844090769618749
1733861066264244000,2.016243896484375,-0.051236850762367246,-0.9824311475027352,0.5141045376360416
1733861066274195000,2.02619482421875,-0.020465280401706695,-0.9651008771911262,0.4048310929685831
1733861066284146200,2.036146240234375,-0.0040104046851396555,-0.8402946400880813,0.28675971707850695
1733861066294097000,2.046096923828125,0.08371814765036105,-0.6238242647662758,0.21980244235396385
1733861066304047000,2.056047119140625,0.1411672970563173,-0.3967546809535473,0.17829057453125713
1733861066313998000,2.065998046875,0.1430289992749691,-0.20479111650921403,0.09857231017202138
1733861066323949000,2.075948974609375,0.11344108574092387,-0.1307459293503314,-0.04050707469433546
1733861066333900000,2.085900146484375,0.06958557740151881,-0.13231310560181736,-0.2534410925835371
1733861066343850200,2.095850341796875,0.052445057508349414,-0.20526048758663235,-0.4134790943264961
1733861066353801000,2.105801025390625,0.05993512100279331,-0.3365899889785796,-0.6026914603665471
1733861066363752200,2.115752197265625,0.07281973701715469,-0.5108754195217042,-0.7958943573474884
1733861066373703000,2.125702880859375,0.07235854924619198,-0.6793024794254452,-0.9923059872418641
1733861066383653000,2.135653076171875,-0.012364391532540321,-0.7425155261203646,-1.1963728080645204
1733861066393604000,2.14560400390625,-0.15747896490991115,-0.5909818794809282,-1.2777820942506193
1733861066403555000,2.15555517578125,-0.33916298127174377,-0.280808772784844,-1.1392734950095413
1733861066413506000,2.165506103515625,-0.5316606525927782,0.017750687680765986,-0.731986825582385
1733861066423456000,2.1754560546875,-0.6324713893413544,0.3007145926728845,-0.08360854979604482
1733861066433407000,2.185406982421875,-0.6307049641907215,0.4548840677086264,0.6186462776064873
1733861066443358000,2.19535791015625,-0.4977361711591482,0.4809275866340846,1.2921303530767558
1733861066453309200,2.20530908203125,-0.3143704853206873,0.39848727689981456,1.8874743732899426
1733861066463259000,2.2152587890625,-0.12087854226529597,0.13164550853855908,2.3502257403075695
1733861066473210000,2.225210205078125,0.041649522727727886,-0.16867672381587326,2.653122060933709
1733861066483161000,2.2351611328125,0.20245266362428663,-0.37213220780715345,2.7217358706936237
1733861066493112000,2.245112060546875,0.2460813774704933,-0.41465734432563184,2.5649308595225215
1733861066503063000,2.25506298828125,0.2716676541477442,-0.31993644888475536,2.242052365836501
1733861066513013200,2.26501318359375,0.28652561606168747,-0.09367182477936148,1.8382976699277758
1733861066522964000,2.2749638671875,0.2358820550173521,0.2042636585690081,1.4371061025053262
1733861066532915200,2.284915283203125,0.13224457041025162,0.4131361261077225,1.065401618590951
1733861066542866000,2.294865966796875,0.016151508855819702,0.4890699765574187,0.7807967414587735
1733861066552816000,2.304816162109375,-0.09700491472482681,0.40156142364814873,0.6542918837442994
1733861066562767000,2.31476708984375,-0.22552315808832643,0.23955709026828406,0.5752659855633974
1733861066572718000,2.324718017578125,-0.32820436488389965,0.11443426149673759,0.48838440544605255
1733861066582669000,2.3346689453125,-0.3787637547761202,0.0664982058454305,0.38537206699997184
1733861066592619000,2.344618896484375,-0.39104280611276626,0.04055244820602238,0.22529431776851414
1733861066602570000,2.354570068359375,-0.33704058229029177,0.0462989559687674,0.07571721202433108
1733861066612521000,2.36452099609375,-0.3178103966414928,0.09025997050926089,-0.08231383381038904
1733861066622472000,2.374471923828125,-0.26999182989001275,0.12200725403428077,-0.16934914318472147
1733861066632422000,2.384421875,-0.18307985463440418,0.13402319745533167,-0.13423019126951694
1733861066642373000,2.394373046875,-0.07693301755487919,0.12607603784315288,-0.041303778029978276
1733861066652323800,2.40432373046875,0.0075982000440359115,0.10489011501669883,0.07377952196002006
1733861066662275000,2.414275146484375,0.11991758827865123,0.06661825202852487,0.18689912066161632
1733861066672225000,2.42422509765625,0.23093875339627265,0.047973538117483255,0.29700580128282306
1733861066682176000,2.434176025390625,0.34882571263015266,0.042981721179559826,0.36801235139816996
1733861066692127000,2.444126953125,0.39450785187482834,0.06544007509462535,0.39742900001853704
1733861066702078200,2.454078125,0.39771804609298705,0.12563698883876204,0.37854952750355003
1733861066712028000,2.46402783203125,0.3663134385257959,0.18987725968956945,0.3279243788987398
1733861066721979100,2.473979248046875,0.27842940336763855,0.21398075046315787,0.24612697017788884
1733861066731930000,2.48393017578125,0.20864041234850883,0.21473281093947588,0.17312193972170353
1733861066741881000,2.493881103515625,0.14783376920819283,0.17095219446718693,0.0781347945600748
1733861066751831000,2.5038310546875,0.08402852877378464,0.12266089563742279,0.01800590455085039
1733861066761782300,2.5137822265625,0.029111528193950652,0.07467121010273695,-0.0634881373092532
1733861066771733000,2.52373291015625,-0.006289455533027648,0.051988838173449035,-0.15615765317827462
1733861066781684200,2.533684326171875,-0.06244213538765907,0.05809102750606834,-0.2418444705531001
1733861066791635000,2.543635009765625,-0.11084288594126701,0.07491422507837414,-0.3201107825383544
1733861066801584600,2.553584716796875,-0.16550561949908732,0.09574490472637116,-0.41317309711724515
1733861066811536000,2.563535888671875,-0.20767244409918784,0.101005455603078,-0.5125985169872641
1733861066821486600,2.573486572265625,-0.2553355280280113,0.08293470565509051,-0.5946832182168961
1733861066831437800,2.583437744140625,-0.2958598461180925,0.05041110399533063,-0.6626353491976856
1733861066841387800,2.5933876953125,-0.32098551954627036,-0.014704524917900561,-0.6857362387999891
1733861066851338800,2.6033388671875,-0.34540859766304494,-0.07464092456232756,-0.6773696847319602
1733861066861289700,2.613289794921875,-0.3437088080078363,-0.1289427889185026,-0.7132721882402896
1733861066871241000,2.623240966796875,-0.3666320029556751,-0.1735452066350728,-0.7585685430377721
1733861066881190700,2.633190673828125,-0.42399405860006806,-0.19674995847065,-0.7713853545129299
1733861066891142000,2.643141845703125,-0.4353513189166784,-0.2161918871739879,-0.7347644736021757
1733861066901092900,2.6530927734375,-0.3947615343749523,-0.20281565171778201,-0.6519932514131069
1733861066911043800,2.6630439453125,-0.28371172768473624,-0.19789985915813593,-0.48688335323333737
1733861066920993800,2.672993896484375,-0.1841676498711109,-0.18347806017175317,-0.27700346221774813
1733861066930945000,2.682945068359375,-0.07948387108147144,-0.15697214789893477,-0.11692863559573888
1733861066940895700,2.692895751953125,0.018843232157826423,-0.12305208691209554,-0.01478168180733919
1733861066950847000,2.702846923828125,0.10049626397192478,-0.15453695664126424,0.02864800233542919
1733861066960797000,2.712796875,0.18700608816742895,-0.19697488980032501,-0.016868132692575453
1733861066970747600,2.72274755859375,0.253086872318387,-0.2632656999727711,-0.10319032536149024
1733861066980699000,2.732698974609375,0.30580022537410256,-0.2881348048239946,-0.17013269477784632
1733861066990649600,2.742649658203125,0.28805998602211474,-0.27425310406368225,-0.1979252493277192
1733861067000599800,2.752599853515625,0.26110651264488693,-0.23372495004869995,-0.15657792441695928
1733861067010550800,2.76255078125,0.2217950774759054,-0.17807609153036028,-0.08626227917522192
1733861067020501800,2.772501708984375,0.18831950885355472,-0.10810885786749422,-0.01922375590801239
1733861067030452700,2.78245263671875,0.15010814388096333,-0.060039056301303205,0.06600128917396068
1733861067040403000,2.79240283203125,0.1124813007980585,-0.015628069503605364,0.1580012352183461
1733861067050353700,2.802353759765625,0.10026245521605014,0.028190467826277016,0.2120081352159381
1733861067060305000,2.812304931640625,0.07849018386900425,0.0765401823123917,0.23068244054764508
1733861067070255900,2.822255859375,0.06381926895976066,0.14667173969149588,0.1986179077669978
1733861067080205800,2.832205810546875,0.08365326572060584,0.18619108199011533,0.11679010390788316
1733861067090156800,2.84215673828125,0.13968027336895464,0.1796019128581509,0.06553747105449438
1733861067100108000,2.85210791015625,0.24523265168666838,0.16177125527635217,0.008283259698748588
1733861067110058800,2.862058837890625,0.3295189546138048,0.12294058936163782,-0.04851239423453808
1733861067120010000,2.872010009765625,0.4130506397813558,0.09966690047569572,-0.09951865111142397
1733861067129960000,2.8819599609375,0.45129415345788,0.04499576441571116,-0.2168696037724614
1733861067139910700,2.89191064453125,0.4517383900940418,0.025583427133038638,-0.3384194694280624
1733861067149862000,2.90186181640625,0.3956932622671127,0.036541860857792194,-0.48173079277575015
1733861067159812600,2.9118125,0.369427771154046,0.047394715316221116,-0.6199345638513565
1733861067169762800,2.9217626953125,0.3796902219712734,0.05144779009930789,-0.6972787925556302
1733861067179713800,2.9317138671875,0.39467560965716836,0.062307183896377676,-0.7153960485264659
1733861067189664800,2.941664794921875,0.34921617325246335,0.03883472103532404,-0.7114277294173836
1733861067199615700,2.95161572265625,0.20717969214618204,-0.014750263755768536,-0.6997969128564
1733861067209566000,2.96156591796875,0.04255611617863178,-0.014895846238918601,-0.731660370106995
1733861067219516700,2.9715166015625,-0.14891162757277487,0.06437116722147912,-0.7323793320313096
1733861067229468000,2.981468017578125,-0.3095931879162788,0.24544717122018336,-0.6797422590821981
1733861067239418600,2.991418701171875,-0.43507308649718757,0.45884566481597716,-0.5713587489917874
1733861067249368800,3.001368896484375,-0.5491425332695246,0.6149461809795349,-0.38671500604152675
1733861067259319800,3.01131982421875,-0.62125207619071,0.6585644464969634,-0.19587796140909194
1733861067269270800,3.021270751953125,-0.6468950514912605,0.5095764292197301,0.006120820967853069
1733861067279221800,3.0312216796875,-0.6059153908491134,0.24809242503196,0.1743301464676857
1733861067289171700,3.041171630859375,-0.528037201398611,-0.10841876406688243,0.2610211724489927
1733861067299122700,3.051122802734375,-0.4502437676221132,-0.41718302687834946,0.31411241890639063
1733861067309073700,3.06107373046875,-0.33864275678992267,-0.6070633187752217,0.36279549353271723
1733861067319025000,3.07102490234375,-0.2261258001565933,-0.6834517811246216,0.4131441632837057
1733861067328974800,3.080974853515625,-0.07045066979825496,-0.6941646060578525,0.42525954849123954
1733861067338925800,3.09092578125,0.09456161322593688,-0.7049430435732007,0.40133448302447794
1733861067348876800,3.100876708984375,0.186019415217638,-0.7268681673943996,0.3145949417263269
1733861067358827800,3.110827880859375,0.24046236854493616,-0.7409333714954555,0.18146949682831764
1733861067368777700,3.12077783203125,0.2732470322936773,-0.7151713729251176,0.061081076167523854
1733861067378729000,3.13072900390625,0.29566636937260626,-0.6182539903532713,-0.0596805617198348
1733861067388679700,3.1406796875,0.2810778720498085,-0.4711944569205865,-0.11161123996526003
1733861067398631000,3.150630859375,0.2622983527779579,-0.30090330191170794,-0.13693594309687612
1733861067408581600,3.16058154296875,0.19647125112712382,-0.1154338487270288,-0.12980448378175496
1733861067418531800,3.17053173828125,0.10830255380868911,0.08083976093614473,-0.09823270295411347
1733861067428482800,3.18048291015625,0.011050970846414565,0.21388536379728465,-0.03133972563743591
1733861067438433800,3.190433837890625,-0.05415536855757236,0.2965466045395471,0.05808715504854917
1733861067448384800,3.200384765625,-0.10361235016584396,0.3245645470768213,0.14518646956980227
1733861067458334700,3.210334716796875,-0.11389175211787222,0.3520291117813438,0.2690820215687156
1733861067468285700,3.22028564453125,-0.12594342443943024,0.3648646279569715,0.39055093094259496
1733861067478237000,3.23023681640625,-0.15248480988442897,0.36690431709103283,0.47739890105128285
1733861067488188000,3.24018798828125,-0.16496435222923755,0.35419549603499473,0.5191694198101758
1733861067498137600,3.2501376953125,-0.16732231353223323,0.30332594421505926,0.4798708441227674
1733861067508088800,3.2600888671875,-0.14902970099449156,0.2688930200689472,0.42191959041357036
1733861067518039800,3.270039794921875,-0.12272095526158809,0.24124761890480292,0.3558601413115859
1733861067527990800,3.27999072265625,-0.08692191212773323,0.21136024750014765,0.2625941208541393
1733861067537940700,3.289940673828125,-0.03381985201537609,0.15919605275979265,0.17105185544937848
1733861067547892000,3.29989208984375,0.03158814744055271,0.06494558784225955,0.07437018132954835
1733861067557842700,3.3098427734375,0.1230558863043785,-0.04540494800480083,-0.029784020628035066
1733861067567794000,3.3197939453125,0.1736070928901434,-0.14213621515370906,-0.12839695507138968
1733861067577744000,3.329743896484375,0.21402619704008102,-0.17770740434844046,-0.23158552686721084
1733861067587694800,3.33969482421875,0.21387948204576968,-0.1478502636852674,-0.3196440418094396
1733861067597645800,3.349645751953125,0.23650632439553737,-0.0922569895453751,-0.3856713422074914
1733861067607596800,3.3595966796875,0.26106793420016766,-0.04794332564231008,-0.41206484361439943
1733861067617546800,3.369546630859375,0.25066110647618767,-0.0006808218710124492,-0.3804883866116404
1733861067627498000,3.379498046875,0.21261399215459822,0.03474931488521397,-0.3467521212264895
1733861067637448700,3.38944873046875,0.1694406208604574,0.051404224952217185,-0.29312311463057994
1733861067647400000,3.39939990234375,0.10201017566621302,0.04669988318616524,-0.2910699814930558
1733861067657350000,3.409349853515625,0.0487859504789114,0.013906670804787427,-0.3056146396741271
1733861067667300600,3.419300537109375,0.028769582888484,-0.028950894272141158,-0.3183671537414193
1733861067677251800,3.429251953125,0.00985036288499832,-0.06980954061681405,-0.3028793694913387
1733861067687202800,3.439202880859375,-0.046289457488059994,-0.09387273591263219,-0.26211861229687927
1733861067697153800,3.44915380859375,-0.06852525469362736,-0.053237285598274314,-0.20923457884937524
1733861067707103700,3.459103759765625,-0.09196049081683158,-0.007845416270755232,-0.13244593820124864
1733861067717054700,3.4690546875,-0.07269172672331332,-0.025774730187747626,-0.11754063001424074
1733861067727005700,3.479005615234375,-0.05456394935846329,-0.04712614577421918,-0.12964052539169788
1733861067736957000,3.48895703125,-0.03475508703887462,-0.06971875706082209,-0.15309300491064787
1733861067746907000,3.498906982421875,-0.043676060119271276,-0.06516849161162971,-0.17639087838977574
1733861067756857900,3.50885791015625,-0.0000339022696018219,-0.0074326524850912385,-0.17931027296781538
1733861067766808800,3.518808837890625,0.02172726316154003,0.0006381335067562759,-0.18736030843257903
1733861067776759800,3.528759765625,0.03660919047296047,0.01949000562876463,-0.19422814837545155
1733861067786709800,3.538709716796875,0.07293079617619513,0.006012538287788629,-0.20542115804105995
1733861067796661500,3.54866162109375,0.08373042261004447,-0.016382267138082534,-0.2142874783247709
1733861067806612500,3.558612548828125,0.09193886350691317,-0.01843209407366812,-0.1950473558038473
1733861067816563500,3.5685634765625,0.09880115049183368,-0.02473952365480363,-0.19184563715308903
1733861067826513400,3.578513427734375,0.09944295552670955,-0.03044874988077208,-0.183930626244843
1733861067836464400,3.58846435546875,0.09888532164394855,-0.07333448160625994,-0.1531444428369403
1733861067846415600,3.59841552734375,0.07544540934562682,-0.09881536168027669,-0.13782090923786164
1733861067856366300,3.608366455078125,0.06911269919276238,-0.11823953553121536,-0.12204670926183461
1733861067866316300,3.61831640625,0.03437748589813709,-0.10271368429306894,-0.0786795689612627
1733861067876267500,3.628267578125,-0.002315291205048561,-0.07185017959894612,-0.0399281057626009
1733861067886218200,3.63821826171875,-0.02581248664855957,-0.0341406084023416,0.004724690434336662
1733861067896169500,3.64816943359375,-0.048050621941685676,-0.0048095009072683746,0.021959026090800762
1733861067906120400,3.658120361328125,-0.059685530155897136,-0.013847707159165293,0.022929916949570178
1733861067916070400,3.6680703125,-0.04482581467628479,-0.029852555819600817,0.03447685461938381
1733861067926021400,3.678021484375,-0.044268765315413475,-0.04840741775641218,0.031899113085865974
1733861067935972400,3.687972412109375,-0.05609831931889057,-0.02215783659853041,0.018759937788546083
1733861067945923300,3.69792333984375,-0.06282265913784503,0.014241145189851522,0.025342823310196397
1733861067955873500,3.70787353515625,-0.03648001113533973,0.01518821678161621,0.03763970256447792
1733861067965824300,3.71782421875,-0.03833411456942558,0.029092421634681523,0.05610650262534618
1733861067975775500,3.727775390625,-0.023590718945860862,0.010490597017295659,0.053210196661949156
1733861067985726500,3.7377265625,-0.026761165675520896,-0.0073181044610217206,0.048396951161324975
1733861067995676400,3.747676513671875,0.007184943068027496,-0.024675061850156634,0.06421119088679551
1733861068005627400,3.75762744140625,0.022958266261219978,-0.033719971837475896,0.05569646051973104
1733861068015578600,3.76757861328125,0.05925882917642593,-0.02425416955696419,0.058470893669128415
1733861068025529300,3.777529296875,0.07233575289249419,-0.03864042230593041,0.05699614494144916
1733861068035479600,3.7874794921875,0.05251227752566337,-0.05933819628925994,0.024796295343339443
1733861068045430500,3.797430419921875,0.06247311504781246,-0.06866817029565572,-0.013250526717305183
1733861068055381500,3.807381591796875,0.054364042872190474,-0.08179633100861683,-0.037328444658219814
1733861068065332500,3.81733251953125,0.02564940504133701,-0.08826620287615805,-0.07841887219846248
1733861068075282400,3.827282470703125,0.0020469956576824187,-0.09250837049055843,-0.1025108186647296
1733861068085233400,3.8372333984375,0.008366261807084083,-0.0688843155306764,-0.10532996773868798
1733861068095184400,3.847184326171875,0.009095160603523254,-0.02497249216046184,-0.11846242103427648
1733861068105135400,3.85713525390625,0.006583470043540001,-0.002392283697705716,-0.11079904679954052
1733861068115085300,3.867085205078125,0.003143558722734451,-0.0051991943445988,-0.11442571286410093
1733861068125036500,3.87703662109375,0.0066501055389642716,-0.021855949308816344,-0.12738543994128704
1733861068134987300,3.8869873046875,-0.00923603037893772,-0.05375908098267391,-0.15759762285351753
1733861068144938500,3.8969384765625,-0.0334796602755785,-0.04978732780748978,-0.141333885794878
1733861068154888400,3.906888427734375,-0.04663374088108539,-0.0057964752511586995,-0.12077712771743536
1733861068164839400,3.91683935546875,-0.039782559812068935,0.035915527386683965,-0.09457038105428218
1733861068174790400,3.926790283203125,-0.028378537744283675,0.049826006716908885,-0.08204729182869196
1733861068184741400,3.936741455078125,0.012610475248098373,0.028799146909685804,-0.07212094109803438
1733861068194692400,3.9466923828125,0.025236732587218282,-0.011654626694833858,-0.07289484807997941
1733861068204642600,3.956642578125,0.04161269784867763,-0.045070866345381363,-0.0942012554809451
1733861068214593500,3.966593505859375,0.04045592902898788,-0.05288691039117984,-0.10151274753808974
1733861068224544500,3.97654443359375,0.029492051944136618,-0.04052129501593299,-0.11590689133256674
1733861068234495500,3.98649560546875,0.03720832540988922,-0.04124336221278645,-0.1444374047681689
1733861068244445400,3.996445556640625,0.03517652732133865,-0.05082757584173232,-0.1422182674139738
1733861068254396400,4.006396484375,0.0213408941924572,-0.07500520043061114,-0.1304752226501703
1733861068264347400,4.016347412109375,0.02340659455060959,-0.08533660656451247,-0.11719839244782924
1733861068274298400,4.02629833984375,0.02381225274205208,-0.08155826620273292,-0.10582330421358346
1733861068284248300,4.036248291015625,0.01832885289490223,-0.051320747919846324,-0.08665829275548458
1733861068294199600,4.046199462890625,0.01001636710166931,-0.03752625051895156,-0.05931114388555288
1733861068304150300,4.056150390625,-0.0021077859342098237,-0.00899778290996328,-0.032656945715844626
1733861068314101500,4.0661015625,-0.00912672478556633,-0.02346563126146793,-0.014143676164746283
1733861068324051500,4.076051513671875,-0.0025578677892684936,-0.03538011446888558,0.011781623208522796
1733861068334002400,4.08600244140625,0.02767769599854946,-0.0666920844497159,0.010693243449926376
1733861068343953400,4.095953369140625,0.03579787409007549,-0.06591868892442435,0.022227613899111747
1733861068353904400,4.105904296875,0.04070668891966343,-0.056897068481147284,0.027529227438569066
1733861068363854300,4.115854248046875,0.0021627309918403623,-0.04416738730017095,0.011003624573349953
1733861068373805600,4.1258056640625,-0.026090134546160697,-0.008637096371408552,-0.014987433512508868
1733861068383756300,4.13575634765625,-0.01734802516400814,-0.004345655388338491,-0.036442601734399796
1733861068393707500,4.14570751953125,-0.006317512583732605,-0.04277012425549328,-0.04081511773020029
1733861068403657500,4.155657470703125,-0.012541501665115355,-0.0727984293676447,-0.050289048518240446
1733861068413608200,4.165608154296875,-0.0046533787637948985,-0.07494873926932923,-0.04044482311308384
1733861068423559400,4.175559326171875,0.016825462594628332,-0.0648551513461396,-0.052071840281784534
1733861068433510700,4.1855107421875,0.027741993406414985,-0.03459536643251777,-0.05700169789940118
1733861068443461400,4.19546142578125,0.032170915764570235,0.0009505056578665972,-0.03978022172451019
1733861068453411300,4.205411376953125,0.012047580668330192,0.011556618813611566,-0.04677636422216892
1733861068463362600,4.215362548828125,-0.007328150931000709,0.025232266474654895,-0.04913052613288164
1733861068473313300,4.225313232421875,0.002799275329709053,0.001159134306712076,-0.0573737460821867
1733861068483264500,4.235264404296875,-0.004732873740792274,-0.016115012770332397,-0.06200111362189054
1733861068493214500,4.24521435546875,0.015347791257500647,-0.04670866014766507,-0.07778145107775926
1733861068503165400,4.25516552734375,-0.0013625205248594284,-0.044100587407965214,-0.07282675127983093
1733861068513116400,4.265116455078125,-0.010015198057889937,-0.03920576457111165,-0.049401744289696216
1733861068523067400,4.2750673828125,0.008358663022518158,-0.021113323381124063,-0.036731063286960124
1733861068533017300,4.285017333984375,-0.0016588731229305266,-0.032946822907356545,-0.02866846060156822
1733861068542968600,4.294968505859375,0.016694529691338538,-0.05981652699126862,-0.030754034703969955
1733861068552919300,4.304919189453125,0.01535246743261814,-0.06410308173666708,-0.03659340838193893
1733861068562870500,4.31487060546875,0.0010299275696277618,-0.047425420981738714,-0.05526771371364593
1733861068572820500,4.324820556640625,-0.003853752818703651,-0.014440576752088962,-0.046727264383435246
1733861068582771500,4.334771484375,0.0004991816937923431,0.025557662504119796,-0.06348959861397743
1733861068592722400,4.344722412109375,-0.007805120792984962,0.03874223871259019,-0.06143734225928783
1733861068602673400,4.35467333984375,0.01424012227654457,0.03856082686423324,-0.04224894992560148
1733861068612623400,4.364623291015625,0.02427344051301479,0.014049412876879795,-0.014717968921363353
1733861068622574300,4.37457421875,0.039890111839771265,-0.020555232840636744,-0.013059680320322512
1733861068632525600,4.384525634765625,0.04491816913485527,-0.05082043371489271,-0.013766367284953594
1733861068642476300,4.394476318359375,0.025626608687639236,-0.06389814288225025,-0.02157557973116636
1733861068652427500,4.404427490234375,0.017382511955499648,-0.02605889915768057,-0.02781798125207424
1733861068662377500,4.41437744140625,0.001343231302499771,-0.014570495875226333,-0.06618307548165321
1733861068672328400,4.424328369140625,-0.011623802298307418,-0.013607642192440107,-0.10762100128531456
1733861068682279400,4.434279541015625,-0.0006254384219646454,-0.03323074528211727,-0.11515110452920198
1733861068692230400,4.44423046875,-0.010304536393284797,-0.05993735862565226,-0.10838058748096227
1733861068702180400,4.454180419921875,-0.020828268495202064,-0.06740581307648681,-0.09594137714654206
1733861068712131600,4.464131591796875,-0.007950666743516922,-0.08231873831436969,-0.0753027860045433
1733861068722082300,4.474082275390625,0.023620529562234878,-0.05779328666850924,-0.05030249252170324
1733861068732033500,4.484033447265625,-0.003887655088305473,-0.03822788684912957,-0.021203239287436008
1733861068741983500,4.4939833984375,-0.011679331877827643,-0.022342399385198948,-0.007549684727191925
1733861068751934500,4.5039345703125,-0.02033960819542408,-0.0373550221378915,-0.01628390306383371
1733861068761885400,4.513885498046875,-0.022885201025009155,-0.05782707934025675,-0.03707651572376489
1733861068771836400,4.52383642578125,-0.011823124262690544,-0.05455980290630832,-0.05080138195455074
1733861068781786400,4.533786376953125,-0.0004617722928524017,-0.04389460737393237,-0.027711013746261594
1733861068791737300,4.5437373046875,0.0174848032861948,-0.017965408143680542,-0.022583295468986034
1733861068801688300,4.553688232421875,0.028935002583265302,-0.022743034341651945,0.007105155830085277
1733861068811639000,4.56363916015625,0.032275545182824134,-0.016090060992166397,0.010377017107605933
1733861068821589000,4.573589111328125,0.027115970462560653,-0.010062644795654342,-0.004862345339357852
1733861068831540200,4.583540283203125,0.005739420434832573,-0.015245244198478758,-0.038923897156119346
1733861068841491000,4.593490966796875,0.016164368337392807,-0.023571447989810257,-0.09041589172333478
1733861068851442200,4.603442138671875,0.007285480833053588,-0.028163525020424275,-0.10418459709584713
1733861068861393000,4.613392822265625,0.025359482184052467,-0.04665464667179622,-0.10752864682674407
1733861068871343000,4.623343017578125,0.03960252707004547,-0.04387424957249313,-0.10776683949679136
1733861068881294000,4.633294189453125,0.025483400824666023,-0.03907548925494775,-0.10686550674289465
1733861068891245000,4.6432451171875,0.009613631519675253,-0.029446568834595382,-0.10145429534912109
1733861068901196000,4.653196044921875,0.00744096365571022,-0.02369122017826885,-0.08580459853559733
1733861068911146200,4.663146240234375,0.0048363341152668,-0.03359507594932802,-0.07125263383090495
1733861068921097000,4.673096923828125,-0.0009141922354698181,-0.0338769707637839,-0.06820639800280333
1733861068931048200,4.683048095703125,-0.004046645042300224,-0.02229123545354232,-0.06718290017396211
1733861068940999000,4.6929990234375,-0.00035012861192226406,-0.0025203031247016043,-0.05492226127684116
1733861068950949000,4.70294921875,0.009537059152126312,0.0012263086582534014,-0.027424890281260012
1733861068960900000,4.712900146484375,0.010722469544410704,-0.02464923328915611,-0.03728285195082426
1733861068970851000,4.72285107421875,0.004071779483556747,-0.014056427139556035,-0.03769961605817079
1733861068980802000,4.732802001953125,-0.0002554360657930374,0.010864828024012967,-0.022190204498171804
1733861068990752000,4.742751953125,0.012915011152625083,0.03709257180942222,-0.003953413800895214
1733861069000703000,4.752702880859375,0.02040975082218647,0.02981572180739604,-0.026456337510049343
1733861069010654200,4.762654296875,0.02437280923426151,0.0017763711559120564,-0.04179857580959797
1733861069020605200,4.772605224609375,0.013780688071250914,-0.04618487373557873,-0.10594868415892124
1733861069030555100,4.78255517578125,0.009555179330706596,-0.07475244037909433,-0.14938245995491742
1733861069040506000,4.792506103515625,0.018219547301530838,-0.05415905835200101,-0.15651684187948703
1733861069050457000,4.80245703125,0.01483048938512802,-0.05604675352843478,-0.13108750932961702
1733861069060408000,4.812407958984375,0.03270224616229534,-0.05443485221923328,-0.06260141760259866
1733861069070359000,4.822359130859375,0.019780220746994016,-0.053677841573162,-0.032231121519207956
1733861069080309200,4.832309326171875,-0.005118073666095733,-0.06407423923467286,-0.007666881366074085
1733861069090260000,4.842260009765625,0.0031236849784851074,-0.0710637693284545,-0.022202479457855223
1733861069100211200,4.852211181640625,0.002571311792731285,-0.06179768173797056,-0.055531625346839426
1733861069110162000,4.862161865234375,-0.0019026187509298324,-0.058163891812879585,-0.05584639038443565
1733861069120112000,4.872112060546875,-0.022216507983207703,-0.06437950579156168,-0.0613122545748949
1733861069130063000,4.88206298828125,-0.011921908462047576,-0.059197746638953684,-0.048913376250863075
1733861069140014000,4.89201416015625,-0.0031546646386384964,-0.03240208503878675,-0.028650924944877622
1733861069149965000,4.901965087890625,-0.016836568510532376,-0.018190120277646927,-0.02183218484073877
1733861069159915300,4.911915283203125,-0.01371112996637821,0.007959416305553168,-0.004973696759343147
1733861069169866000,4.921865966796875,0.010911270114779471,0.012853344093263148,-0.008320084577798844
1733861069179817200,4.931817138671875,0.019326047238707542,0.012305583150545134,-0.006586392652988433
1733861069189768200,4.941768310546875,0.007950666743516922,0.00311759316441603,0.0055783846542239186
1733861069199718000,4.9517177734375,-0.001785129851102829,0.010020394822815432,-0.006330079804360866
1733861069209669000,4.961669189453125,0.004397358176112175,-0.03365762892467901,-0.012869126184284686
1733861069219620000,4.9716201171875,-0.0004056581914424896,-0.014978227292746305,-0.0062032385542988774
1733861069229571000,4.981571044921875,-0.00646890375316143,-0.002447676279908046,-0.010262743078172206
1733861069239521000,4.99152099609375,-0.009784311911463736,-0.01131027023657225,-0.01703939760625362
1733861069249472300,5.00147216796875,-0.004545242214202881,-0.0153074683802668,-0.009373977544903754
1733861069259423000,5.011423095703125,-0.018539865297079086,-0.00880370337627828,-0.00760609108954668
1733861069269374200,5.021374267578125,-0.016929507490992545,-0.02217173725971952,-0.016733108136057852
1733861069279325000,5.031324951171875,-0.021260814693570135,-0.0025565982807893304,0.00168225399851799
1733861069289275100,5.041275146484375,-0.011456044515967368,0.03836429051198065,-0.005071019653975963
1733861069299226000,5.05122607421875,-0.010887889239192008,0.029767882343987,-0.010020166493952274
1733861069309177000,5.061177001953125,0.009275193345546722,0.011373069807095453,-0.03247895880043507
1733861069319128000,5.071128173828125,-0.005970306581258774,-0.0296790898156818,-0.04208849866688251
1733861069329078300,5.081078369140625,-0.019583236870169638,-0.05738030368713662,-0.057491819503903384
1733861069339029000,5.091029052734375,-0.017029460734128952,-0.05443911740239709,-0.06482055495679379
1733861069348980200,5.100980224609375,-0.016455460238456725,-0.015361153062572701,-0.04748743510097265
1733861069358931000,5.110930908203125,-0.007706921115517616,0.016015516184922307,-0.03596154021918774
1733861069368881000,5.120880859375,-0.008926233777403831,0.04945857991031371,-0.030007307989895343
1733861069378832100,5.13083203125,-0.010614917516708374,0.03218856101911515,-0.04868482819199562
1733861069388783000,5.140783203125,-0.019028525596857068,0.024460825444431972,-0.08653378959298133
1733861069398734000,5.150734130859375,-0.016344401079416274,0.02457429575626738,-0.10484247648268938
1733861069408684000,5.16068408203125,-0.0018330606460571289,0.018079161583306268,-0.10461100581437349
1733861069418635000,5.170635009765625,0.01123860237300396,0.003000305193988606,-0.10036825367808341
1733861069428586000,5.1805859375,0.01825344957113266,0.011007350900396704,-0.05910509991943836
1733861069438537200,5.190537109375,0.024584406158328055,0.012999017907958477,-0.009512216971814633
1733861069448487200,5.200487060546875,0.02388181084692478,-0.0038263716214336453,0.025716040536761284
1733861069458438100,5.210438232421875,0.020401567515730856,-0.056749330573529,0.03831190273761749
1733861069468389000,5.22038916015625,0.017945406535267827,-0.11905179262901655,0.02660685189664364
1733861069478340000,5.230340087890625,-0.011589900028705595,-0.1520217041510157,-0.0084440032184124
1733861069488291000,5.240291015625,-0.007004910326004028,-0.18709836956076323,-0.023143559700250626
1733861069498241300,5.2502412109375,0.014102175110578536,-0.16312793058231473,-0.02710340324193239
1733861069508192000,5.26019189453125,0.02016308258473873,-0.1342586958447937,-0.021395546989142894
1733861069518143200,5.270143310546875,0.024798341169953345,-0.09253427211679517,-0.013223930971324443
1733861069528094000,5.280093994140625,0.005497428372502326,-0.07333458207095973,-0.04892828155905008
1733861069538044000,5.2900439453125,0.00627718057334423,-0.05929959957823157,-0.06961480349600314
1733861069547995100,5.2999951171875,0.005740589478611946,-0.05527251775292679,-0.11074848565608263
1733861069557946000,5.309946044921875,0.013401333364844321,-0.04817816187806893,-0.13533698346763848
1733861069567897000,5.31989697265625,0.003344634252786636,-0.011657727400795556,-0.15541677168309687
1733861069577847000,5.329846923828125,-0.0011082535028457642,-0.00031774244597181675,-0.13784896628856658
1733861069587798000,5.339798095703125,-0.013978840991854667,0.01584574910858646,-0.1266062722623348
1733861069597749000,5.3497490234375,-0.0051519759356975555,0.0008193489922909066,-0.08424538639485836
1733861069607700200,5.3597001953125,0.0030097032099962234,-0.016671235580719077,-0.06607289310544728
1733861069617650000,5.36964990234375,0.019044307687878608,-0.028488272595917803,-0.043239130006730554
1733861069627601200,5.37960107421875,0.02822363944351673,-0.0005548711035167799,-0.019140753799676894
1733861069637552000,5.38955224609375,0.04041501249670982,0.025975540856318546,-0.00033317747712135315
1733861069647503000,5.399503173828125,0.03568330779969692,0.0363438495010836,-0.0006333294674754142
1733861069657454000,5.4094541015625,0.03310556626617908,0.05566159470232669,0.002183481518924236
1733861069667404300,5.419404296875,0.03992401410937309,0.01912345103842672,-0.0010433715730905533
1733861069677355000,5.42935498046875,0.05978022270202636,-0.007576161742163821,-0.05745177975445986
1733861069687306200,5.43930615234375,0.03973404449522495,-0.02255140705995727,-0.09396335507184267
1733861069697257000,5.449257080078125,0.0446422748029232,-0.03447531568284612,-0.09176818311512469
1733861069707207200,5.459207275390625,0.04247545215785503,-0.022424684540904127,-0.1053098017334938
1733861069717158100,5.469158203125,0.035730654072761533,-0.023554652118636294,-0.12786913180500267
1733861069727109000,5.479109130859375,0.027365561309456825,-0.05764381346153095,-0.14287468549609184
1733861069737060000,5.48906005859375,0.0021785130828619,-0.0690207648593001,-0.1454270003274083
1733861069747010000,5.499010009765625,-0.0011035773277282715,-0.09215352917090058,-0.14381576573848723
1733861069756961000,5.5089609375,-0.008691840499639511,-0.1024301729102619,-0.1253957274287939
1733861069766912000,5.518912109375,0.03153963212370872,-0.09574897811328992,-0.08643734348118305
1733861069776863000,5.528863037109375,0.031079028874635695,-0.1094170178566128,-0.04093172984719276
1733861069786813000,5.53881298828125,-0.002163315513730049,-0.07297030163609888,-0.020980244186520575
1733861069796764200,5.54876416015625,-0.01869651716351509,-0.030066504530957897,-0.015534838262200354
1733861069806715400,5.55871533203125,-0.021241525471210478,-0.029371211176598442,-0.01852875938117504
1733861069816666400,5.568666259765625,-0.030333178943395614,-0.01697468463985715,-0.020877076072990892
1733861069826616600,5.578616455078125,-0.01852875938117504,-0.03227134393174201,-0.00031856442987918853
1733861069836567300,5.5885673828125,-0.00024199206233024596,-0.013283470005681737,0.01455868670642376
1733861069846518500,5.5985185546875,0.0083306059718132,-0.006329102556826546,0.03897591960430145
1733861069856469500,5.608469482421875,0.007312368839979171,0.010001064501260407,0.04652501980960369
1733861069866420500,5.61842041015625,0.01638648665547371,0.027927643038472158,0.02140080768615007
1733861069876370400,5.628370361328125,0.010088263294100761,0.03408086387200746,0.003196457953751087
1733861069886321700,5.63832177734375,0.013277999246120453,0.02573117417381145,-0.02491933720111847
1733861069896272400,5.6482724609375,0.029672084686160085,-0.006892531426134519,-0.04312544049918651
1733861069906223600,5.6582236328125,0.022048165678977966,-0.018802644419111312,-0.0440475237801671
1733861069916173600,5.668173583984375,-0.006406944432854652,-0.009131834785523823,-0.0456312858402729
1733861069926124500,5.67812451171875,-0.019664485412836073,0.0026139499246375635,-0.05195639720857143
1733861069936075500,5.688075439453125,-0.012808628168702124,0.009733157112961634,-0.042298049764335155
1733861069946026500,5.698026611328125,0.0065413844674825665,-0.003073078169254586,-0.04303337830156088
1733861069955976400,5.7079765625,0.010958031865954398,-0.021204344399133695,-0.04401420603245496
1733861069965927400,5.717927490234375,0.003575520399212837,-0.035086506383749654,-0.03907528832554817
1733861069975878400,5.72787841796875,0.0059440030962228775,-0.03178536421281751,-0.05022007493525743
1733861069985829400,5.737829345703125,0.0171013569265604,-0.04224468474243767,-0.08428367257863283
1733861069995779600,5.747779541015625,0.023280922344326972,-0.06832443032532465,-0.0797732094168663
1733861070005730300,5.757730224609375,-0.0006271919876337051,-0.04980324689582921,-0.06745178024321793
1733861070015681500,5.767681640625,-0.025090017592906952,-0.03371349643091671,-0.04658405652046203
1733861070025632300,5.77763232421875,-0.03026888153553009,0.008701078685442917,-0.039573008714616296
1733861070035583500,5.78758349609375,-0.020326164191961288,0.007987852382170967,-0.03003711860626936
1733861070045533400,5.797533447265625,0.020028058028221128,0.006103878966206684,-0.041405777099728584
1733861070055484400,5.807484375,0.0305342544734478,-0.015534176108497194,-0.051068800719082354
1733861070065435400,5.817435302734375,0.0421019426703453,-0.03532880440675654,-0.04072130196690559
1733861070075386600,5.82738671875,0.04438391612768173,-0.032143173807696435,-0.04531009106189012
1733861070085336300,5.83733642578125,0.03414893783926964,-0.041376048681745305,-0.04990647894144058
1733861070095287600,5.84728759765625,0.0075479311615228644,-0.049740556923160324,-0.056281566931307314
1733861070105238500,5.857238525390625,0.01144552312195301,-0.04744366902448237,-0.06183131001293659
1733861070115189500,5.867189453125,-0.02329144373834133,-0.022412491779611445,-0.0764206841185689
1733861070125139500,5.877139404296875,-0.042973464807868005,-0.02218846006565727,-0.08590016786456108
1733861070135090400,5.88709033203125,-0.0357797539114952,-0.016418023438053205,-0.07889584206044674
1733861070145041400,5.89704150390625,-0.02777005045711994,-0.037786554556107146,-0.06835954273790121
1733861070154992600,5.90699267578125,-0.011331541353464127,-0.02988569547079969,-0.06604980449080466
1733861070164942600,5.916942626953125,0.012823825737833977,-0.03498027409687638,-0.03825666541904211
1733861070174893300,5.926893310546875,0.0066617959767580025,-0.007480291019100695,-0.013930910196900367
1733861070184844500,5.936844482421875,0.012698738053441046,0.02709416048955172,-0.015127718766033648
1733861070194795300,5.946795166015625,0.019928104785084725,0.004660488924593665,-0.01601385395079851
1733861070204746500,5.95674658203125,0.013642156383395195,-0.03992455296549015,-0.020942834785580632
1733861070214696400,5.966696533203125,0.012938976550102232,-0.06519121033351402,-0.014792203201353549
1733861070224647400,5.9766474609375,-0.014596680629253386,-0.06656583685469813,-0.020764555609226226
1733861070234598400,5.986598388671875,-0.006209376034140586,-0.05409043182888999,-0.03753974932134151
1733861070244549600,5.996549560546875,-0.003503624206781387,-0.019953883113735353,-0.04489683408588171
1733861070254499300,6.006499267578125,-0.01978840405344963,-0.01319701556493528,-0.05230068060159683
1733861070264450600,6.016450439453125,-0.013241174367070197,-0.030943095569242723,-0.0532388382345438
1733861070274401500,6.026401611328125,-0.005372925209999084,-0.033505420337920075,-0.04632277523577213
1733861070284352500,6.0363525390625,-0.006130465579032898,0.010865846370742656,-0.022060440638661385
1733861070294302500,6.046302490234375,-0.004435936620831489,0.013129845779971219,0.006669979283213615
1733861070304253700,6.056253662109375,0.008628712135553359,0.009760104485391639,0.014160627299547195
1733861070314204400,6.066204345703125,-0.02030219879448414,-0.030546511166822162,0.008629588918387889
1733861070324155600,6.07615576171875,-0.0276104759812355,-0.04951875369891058,-0.008792378264665604
1733861070334105600,6.086105712890625,-0.0335620778620243,-0.04527053536963649,-0.037164194007217884
1733861070344056300,6.096056396484375,-0.027178514304757116,-0.026947208033222703,-0.04537906464487314
1733861070354007600,6.106007568359375,-0.0180991357922554,-0.008812494037509895,-0.03639467093944549
1733861070363958300,6.115958251953125,0.0052700493574142455,-0.002511494197160937,-0.006994681192934513
1733861070373908500,6.125908447265625,0.015539514437317848,-0.014565911031654104,-0.008478490009903908
1733861070383859500,6.135859375,0.013473814079165458,-0.032327384967915714,-0.029221126048266887
1733861070393810400,6.145810546875,0.009634674307703971,-0.058927907588472585,-0.04418780903369188
1733861070403761400,6.155761474609375,0.005732406172156333,-0.06561718522720039,-0.06599748978167772
1733861070413712400,6.16571240234375,0.00360416197180748,-0.03794758120356127,-0.07576601960211991
1733861070423662300,6.175662353515625,0.017827333113551138,-0.02996226327177137,-0.06635434039533138
1733861070433613600,6.185613525390625,0.013256371936202048,-0.021005890084430573,-0.06774637927561998
1733861070443564300,6.195564208984375,0.000027472528815269467,-0.02443237110150512,-0.051697454011440276
1733861070453515500,6.205515625,0.01574234353303909,-0.015312308952165767,-0.07624620433449744
1733861070463465500,6.215465576171875,0.006535539248585701,-0.032104668428213336,-0.08259469657838345
1733861070473416400,6.22541650390625,0.02574059045612812,-0.025596875703078694,-0.058955754576623436
1733861070483367400,6.235367431640625,0.03020166151821613,-0.018085440627043134,-0.042110125976800916
1733861070493318700,6.245318603515625,0.013384966751933097,-0.013745470627397298,-0.0319154796987772
1733861070503268600,6.2552685546875,-0.024932196682691574,-0.0021084069887176153,-0.041162615993618965
1733861070513219300,6.26521923828125,-0.02311491812765598,0.0062597453813534225,-0.025514965006709096
1733861070523170600,6.275170654296875,-0.013685411003232001,-0.01643895206165034,-0.03180120566934347
1733861070533121500,6.28512158203125,-0.0038309564650058745,-0.03645720564848743,-0.034872283677756785
1733861070543071500,6.295071533203125,0.017719196563959122,-0.05059642483382486,-0.03023001082986593
1733861070553022500,6.3050224609375,0.012075053197145462,-0.041951104056765325,-0.025259821201860905
1733861070562973400,6.314973388671875,-0.0022521628409624098,-0.0007257067589322105,-0.024471885694563388
1733861070572924400,6.32492431640625,0.0007125321835279464,0.026457575052487664,-0.01586012469381094
1733861070582875400,6.33487548828125,0.008750292688608169,-0.015408412570669315,-0.05254617979526519
1733861070592825300,6.344825439453125,-0.00016775778234004974,-0.018977914221049285,-0.1018134840503335
1733861070602776600,6.354776611328125,-0.0033440497308969497,-0.04445861163197551,-0.12640665803700685
1733861070612727300,6.364727294921875,-0.009184592452645302,-0.026634726284258066,-0.12520020485669373
1733861070622678500,6.374678466796875,0.012087912678718567,-0.014322864089976064,-0.07590338224619626
1733861070632628500,6.38462841796875,0.007381926944851875,0.0023946628844598306,-0.042943946452438826
1733861070642579500,6.394579345703125,0.011026420927047729,-0.014573409351520239,0.005220072735846042
1733861070652530400,6.404530517578125,0.035600890213251114,-0.023051748664374462,0.028155250382423398
1733861070662481700,6.414481689453125,0.02472001523673534,-0.03114624432537239,0.022632687568664548
1733861070672431400,6.424431396484375,0.009095745125412941,-0.03191682683906984,0.003363338953256607
1733861070682382600,6.434382568359375,-0.006906710648536682,-0.04101903823788743,-0.028386721050739288
1733861070692333600,6.44433349609375,-0.02833294503688812,-0.03883509092808235,-0.05972586216628551
1733861070702284500,6.454284423828125,-0.03422726377248764,-0.03872397240353748,-0.05834872859418392
1733861070712234500,6.464234375,-0.029468671068549154,-0.05245399886663071,-0.039701603530347344
1733861070722185500,6.474185546875,-0.023429975426197052,-0.017209758337633684,-0.026088380980491637
1733861070732136400,6.484136474609375,-0.014951485416293143,-0.0011098335385788232,-0.016957272280752656
1733861070742087400,6.49408740234375,-0.010704933887720107,0.023421011235029435,-0.0050064299851655955
1733861070752038400,6.504038330078125,-0.006315759018063545,0.01388130346809048,0.0002326397120952606
1733861070761988400,6.51398828125,0.010290507867932319,-0.02138096590794157,-0.011428571987152098
1733861070771939600,6.523939697265625,0.020022212809324265,-0.03124253974012099,-0.02116962927877903
1733861070781890300,6.533890380859375,0.013612930288910864,-0.04001896695040632,-0.03141951287537813
1733861070791841500,6.543841552734375,-0.0014098667979240416,-0.018037290636380203,-0.020466157184541225
1733861070801791000,6.553791015625,-0.016272504886984823,-0.012582861155387945,-0.01223930384814739
1733861070811742000,6.563741943359375,-0.006408113476634025,-0.008740620677964762,-0.02626782920062542
1733861070821693000,6.57369287109375,0.021209376767277716,0.0003515579506056383,-0.011858195576071739
1733861070831644000,6.583643798828125,0.011405191111564636,-0.002187413341947831,-0.023601824861764906
1733861070841593900,6.59359375,0.00400631303191185,-0.0037624167068628592,-0.04135696952193975
1733861070851544800,6.603544921875,-0.004589081355929375,-0.010817700946656987,-0.045643560799956316
1733861070861496000,6.61349609375,-0.005924129351973533,-0.016989781744289213,-0.056741001136600966
1733861070871446800,6.62344677734375,-0.015139701464772224,-0.025343307367386294,-0.04883417353481054
1733861070881397000,6.63339697265625,-0.005079495221376419,-0.033717661149380726,-0.03680822017639875
1733861070891348000,6.643347900390625,-0.0033387890338897703,-0.028007580973464064,-0.01583703607916832
1733861070901299000,6.653298828125,-0.006900280907750129,-0.00790819757496938,-0.006199146901071071
1733861070911250000,6.66325,-0.00678045392036438,-0.014540192068507894,-0.018979425758123395
1733861070921201000,6.673200927734375,0.0003121346890926361,-0.033752883159811606,-0.02963613658994436
1733861070931150800,6.68315087890625,0.0024181670576334,-0.03537032829381059,-0.05016834474802017
1733861070941102000,6.69310205078125,0.008596563431620597,-0.029157330963900312,-0.06660919193923473
1733861070951052800,6.703052734375,0.0033791210442781446,-0.03379055742223281,-0.059034665031731125
1733861070961004000,6.713004150390625,0.01023731637597084,-0.030345928827114402,-0.04967968444824218
1733861070970954000,6.7229541015625,0.002735562443733215,-0.011566847946681082,-0.04049012355953455
1733861070980904700,6.73290478515625,-0.023998130702972412,0.01884420483878348,-0.03540536764115095
1733861070990856000,6.74285595703125,-0.0249789584338665,0.01871209832513705,-0.024524784925580023
1733861071000807000,6.752806884765625,-0.003186228820681572,0.00015886208983138204,-0.026598668590188026
1733861071010756900,6.7627568359375,0.007108370700478554,-0.027581542147696016,-0.025452421164512632
1733861071020707800,6.772707763671875,0.021269582521915433,-0.04225017376830801,-0.003737432962656021
1733861071030659000,6.7826591796875,0.02446516369283199,-0.03111640174295753,0.0010424947902560233
1733861071040609800,6.79260986328125,0.025778584378957747,-0.04143733214861713,0.0074216744333505625
1733861071050560000,6.80256005859375,0.028758476972579956,-0.007002837099926546,0.024658932699263093
1733861071060511000,6.812510986328125,0.011450783818960189,0.011903952680248766,-0.010970891347527503
1733861071070462000,6.8224619140625,0.01818447598814964,0.019246392431505954,-0.06919453225731849
1733861071080413000,6.832412841796875,-0.015620178458094595,0.0009290107786888256,-0.08734569049775599
1733861071090363100,6.842363037109375,-0.04352349990606308,0.003455296119605191,-0.08773439755439758
1733861071100313900,6.85231396484375,-0.028720483049750327,0.01725534191187471,-0.091140991127491
1733861071110265000,6.86226513671875,-0.008172200539708137,0.024662184102274477,-0.048339375755190844
1733861071120215800,6.8722158203125,0.012956512206792831,0.04292604546956718,0.006035480771958828
1733861071130167000,6.8821669921875,0.017169161465764044,0.027708643692662006,0.03813450034409761
1733861071140117000,6.892116943359375,0.00768061763048172,0.003052560537611134,0.035170682102441786
1733861071150068000,6.90206787109375,0.029389760613441465,-0.052568834585067815,0.0005675707548856735
1733861071160019000,6.91201904296875,-0.0028548049092292785,-0.0711663666198263,-0.028243513187766075
1733861071169970000,6.921969970703125,-0.04044248502552509,-0.04712342866074759,-0.039676761350035665
1733861071179920000,6.931919921875,-0.04762976618111133,-0.017750989074865355,-0.01856412295550108
1733861071189870800,6.941870849609375,-0.03045008332133293,0.0013893308999715372,-0.015639759941399097
1733861071199821800,6.95182177734375,-0.019720599514245984,0.006360411010542884,0.006331833370029926
1733861071209772800,6.961772705078125,-0.015504443123936652,-0.0001762561826268211,-0.002141688203811645
1733861071219723000,6.971722900390625,0.008642740660905838,-0.0011064999371767042,-0.013996668909490109
1733861071229674000,6.981674072265625,0.031098902618885038,0.000652865285007283,-0.0384334832906723
1733861071239625000,6.991625,0.02897650363743305,-0.013266633035312406,-0.07487257789373397
1733861071249576000,7.001575927734375,0.03284077785015106,-0.022116157447849397,-0.09126198715865612
1733861071259527000,7.01152685546875,0.015808394506573675,-0.031068822574452495,-0.11468553284406661
1733861071269476900,7.021476806640625,-0.0040630116552114485,-0.039233894687052816,-0.11701397579163313
1733861071279428000,7.031427978515625,-0.015258359408378601,-0.04054419640090782,-0.0790758748024702
1733861071289378800,7.04137890625,-0.004191021949052811,-0.052143530978239136,-0.027571020753681657
1733861071299330000,7.051330078125,0.006891513079404831,-0.0487235345008783,-0.002897475007176399
1733861071309280000,7.061280029296875,0.008552724289894103,-0.032275175290065815,0.01846767684370279
1733861071319231000,7.07123095703125,0.006554828470945358,-0.031112839812692254,0.02103051306903362
1733861071329182000,7.081181884765625,0.010519055926799773,-0.01932666372663807,0.028446050022542475
1733861071339133000,7.0911328125,-0.006475333493947982,-0.016131936505669728,0.020779753178358076
1733861071349083000,7.101082763671875,-0.01200841770172119,-0.020634458389575592,0.016140402939915657
1733861071359033900,7.111033935546875,0.004886602997779846,-0.04364772907393053,0.025616087293624877
1733861071368984800,7.12098486328125,0.007899228817224503,-0.056011654815590006,0.026156477780640123
1733861071378935800,7.130935791015625,-0.019246552261710168,-0.032527738978760316,0.034118542701005936
1733861071388886000,7.140885986328125,-0.03704933545589447,0.005057648715749383,0.010605565166473388
1733861071398836700,7.150836669921875,-0.016395839005708693,0.02859547299717087,-0.003782441148161888
1733861071408788000,7.1607880859375,-0.010323825615644454,0.016808365329355,-0.03593231412470341
1733861071418739000,7.170739013671875,-0.017396540480852127,-0.020503045995673163,-0.06201718797385692
1733861071428690000,7.18068994140625,-0.016270166799426077,-0.061142053673719055,-0.09025514820367098
1733861071438639900,7.190639892578125,-0.024305589216947553,-0.06131671155430376,-0.08861585656404494
1733861071448591000,7.200591064453125,-0.035949849781394004,-0.014891247695614583,-0.0553410712108016
1733861071458541800,7.210541748046875,-0.017974048107862472,0.021525201250799,-0.011262275509536266
1733861071468493000,7.2204931640625,0.006879822641611099,0.011555536534800194,0.01936082629114389
1733861071478443000,7.230443115234375,0.024863807621598243,-0.02391402804951649,0.033487551321089264
1733861071488394000,7.24039404296875,0.02540858202278614,-0.04600312396050431,0.02257423537969589
1733861071498345000,7.250344970703125,0.009947393518686294,-0.037927310167090035,-0.0006201777249574661
1733861071508296000,7.2602958984375,0.010600888991355896,-0.017884059136314318,-0.022174714668095112
1733861071518246000,7.270245849609375,0.02232639809846878,-0.0019868401353945954,-0.04582008641064167
1733861071528196900,7.28019677734375,0.002049333745241165,0.022810313724470323,-0.04662380400896072
1733861071538147800,7.29014794921875,0.020174188500642776,0.01960345310771372,-0.0487576011672616
1733861071548099000,7.30009912109375,0.016669395250082014,0.011914702403126283,-0.03687690149843693
1733861071558049000,7.310049072265625,0.011534954971075057,0.00511970850075595,-0.035215982548892494
1733861071567999700,7.319999755859375,0.02845803272128105,-0.008039596269140019,-0.02865150946676731
1733861071577951000,7.329950927734375,0.02269230880141258,-0.0027617152317194267,-0.02809299880117178
1733861071587902000,7.33990185546875,-0.009033785805106163,0.0023300869153812524,0.0035047932505607605
1733861071597853000,7.34985302734375,-0.040917701321840284,-0.026478485409775748,-0.016048925264179704
1733861071607803000,7.359802978515625,-0.05252104535400867,-0.05347721813425887,-0.0074114453002810474
1733861071617753900,7.36975390625,-0.0389127912402153,-0.07145871889621484,0.011491115829348563
1733861071627704800,7.379704833984375,-0.013990531429648399,-0.07804384660730138,0.010369418323040008
1733861071637656000,7.389656005859375,0.023436405166983604,-0.05852624515213538,-0.0011807342171669005
1733861071647606000,7.39960595703125,0.04850304188430309,-0.026314705116231924,-0.00916851810067892
1733861071657557000,7.409556884765625,0.027968203377723693,0.0028287251864792776,-0.01114186400026083
1733861071667508000,7.419508056640625,-0.004739888003468513,0.003936015141522512,-0.036304362307488916
1733861071677459000,7.429458984375,-0.0293359845995903,0.020902626072778364,-0.03253507290184498
1733861071687409000,7.439408935546875,-0.032145196801424025,0.0351416615039343,-0.045940497919917105
1733861071697360100,7.449360107421875,-0.031012393379211425,0.03941841180794872,-0.0369064198538661
1733861071707310800,7.459310791015625,-0.01818798311948776,0.04264473974357825,-0.04214607407301664
1733861071717262000,7.469261962890625,-0.009879004457592964,0.03765728845351841,-0.060630409790575504
1733861071727212000,7.4792119140625,-0.028527590826153755,0.02179322280352935,-0.05615238759368658
1733861071737162800,7.489162841796875,0.0042132337808609005,0.028912891216157,-0.07536006914973259
1733861071747114000,7.499114013671875,0.011834814700484276,0.022930716100591234,-0.07233049219548701
1733861071757064700,7.509064697265625,0.017276713493466378,0.017467874984280204,-0.06350713427066802
1733861071767016000,7.519015869140625,0.02300911966562271,0.01437780458102934,-0.07066986550688743
1733861071776966000,7.5289658203125,0.006871639335155486,0.0031794657197548076,-0.06923340296298265
1733861071786916900,7.538916748046875,0.00008592471778392792,-0.011891933448892085,-0.053203474660217756
1733861071796867800,7.548867919921875,0.00776946495771408,-0.043905567159364,-0.03913227920979261
1733861071806819300,7.5588193359375,0.007039397117495536,-0.059383222741074854,-0.03333616015166044
1733861071816769500,7.56876953125,0.018515899899601937,-0.08700752631826325,-0.021966332614421845
1733861071826720500,7.578720458984375,0.02515197691321373,-0.06256331864849199,-0.008047112855315208
1733861071836671500,7.58867138671875,0.018961305579543113,-0.05394255235737655,-0.012362345705926418
1733861071846622500,7.59862255859375,-0.014755670583248138,-0.04468075278294272,-0.015506196689605713
1733861071856572700,7.60857275390625,-0.025361235749721527,-0.036811661092366554,-0.00239244809448719
1733861071866523400,7.6185234375,-0.03550619766712188,-0.032432322630134874,0.010087971033155918
1733861071876474600,7.628474609375,-0.00852583628296852,-0.021768378339929038,-0.002613105107843876
1733861071886425600,7.638425537109375,-0.01685118155777454,-0.017923336267354897,0.0014186346262693404
1733861071896376600,7.64837646484375,-0.00993453403711319,-0.00720300616439199,-0.0016676409512758254
1733861071906326500,7.658326416015625,-0.016147417202591895,-0.0022284988375846295,0.000367079746723175
1733861071916277800,7.66827783203125,-0.014942133066058159,-0.00020607821544399484,-0.03825578863620758
1733861071926228500,7.678228515625,-0.0293751475661993,-0.003538369009888265,-0.07710311342477798
1733861071936179700,7.6881796875,-0.0287608150601387,-0.016818660677794833,-0.10303367349505424
1733861071946129700,7.698129638671875,-0.02067979993522167,-0.009379932361654937,-0.09166706082820891
1733861071956080400,7.708080322265625,-0.031821371674537656,0.01300688612058293,-0.07650777788013219
1733861071966031600,7.718031494140625,-0.010257190120220184,0.02210285957485903,-0.02853694317638874
1733861071975982600,7.727982666015625,0.01099018056988716,0.05242403298662975,0.029665070423483847
1733861071985932500,7.7379326171875,0.03904489318728447,0.04127426424112637,0.05338321514129638
1733861071995883500,7.747883544921875,0.046536125725507735,0.022708618332108015,0.05425035336464643
1733861072005834500,7.75783447265625,0.04442191005051136,-0.011992637893988285,0.032312077800929546
1733861072015785500,7.767785400390625,0.009138415223360062,-0.026263778646592982,0.010974398478865622
1733861072025735700,7.777735595703125,-0.02646773568689823,-0.036093754047399854,-0.009540274022519588
1733861072035686400,7.787686279296875,-0.03801262753009796,-0.03798562992531806,-0.03444733626395464
1733861072045637600,7.7976376953125,-0.04088555261790752,-0.033615127790090626,-0.019228724344074726
1733861072055588600,7.807588623046875,-0.03792845637798309,-0.01834791835497599,-0.008483458445966242
1733861072065539600,7.81753955078125,-0.019429507613182066,-0.03841039467602968,-0.004862345339357852
1733861072075489500,7.827489501953125,-0.003963642933964729,-0.044189795494801364,-0.02895692215412855
1733861072085440500,7.8374404296875,0.007005494847893715,-0.051414842244354074,-0.043153205288946624
1733861072095391500,7.8473916015625,-0.0037210663497447964,-0.05423500053188763,-0.041649522727727886
1733861072105342700,7.8573427734375,-0.01236614509820938,-0.03257310792386997,-0.05237988331764936
1733861072115292700,7.867292724609375,-0.01035012910068035,-0.00015261044555809348,-0.04601064054667949
1733861072125243600,7.87724365234375,-0.006654197192192077,0.016388326986110768,-0.04333791420608759
1733861072135194600,7.887194580078125,-0.0014507833302021026,-0.006648380514403107,-0.0251335644736886
1733861072145145600,7.8971455078125,0.010512626186013221,-0.000824747828260297,-0.007459376095235348
1733861072155095600,7.907095458984375,0.017020692905783653,-0.006919629495614208,-0.006636077013611793
1733861072165046500,7.917046630859375,0.029405542704463,-0.011302447689720429,-0.015061375531554221
1733861072174997500,7.92699755859375,0.016435586494207382,-0.008140595258469692,-0.03166530432999134
1733861072184948500,7.936948486328125,-0.004423661661148071,0.015012079329998231,-0.019663024108111857
1733861072194898700,7.946898681640625,0.0070399816393852226,0.026247923490335234,-0.022476912485063075
1733861072204849400,7.956849365234375,-0.004514262554049492,0.02510362827643985,-0.029110359150171277
1733861072214800600,7.966800537109375,-0.0009866729497909545,-0.0005267638204619288,-0.009318447965383529
1733861072224751400,7.97675146484375,0.022940146082639692,-0.04865804064976983,-0.008379705810546874
1733861072234701600,7.98670166015625,0.0071615621924400324,-0.06550785223436542,0.00812894591987133
1733861072244652500,7.996652587890625,0.01271861179769039,-0.03189349391254363,0.024976620346307755
1733861072254603500,8.006603515625,0.02199380514323711,0.007491110382281476,-0.003298457023501396
1733861072264554500,8.016554443359375,0.012404139021039009,0.015215302293008425,-0.028547172309458253
1733861072274505700,8.026505615234376,-0.012079729372262954,-0.004962043995811837,-0.04802285715192556
1733861072284455400,8.036455322265626,-0.007039397117495536,-0.036640553725603965,-0.04773293429464102
1733861072294406700,8.04640673828125,-0.002614566412568092,-0.04799843966329936,-0.041107963196933266
1733861072304357600,8.056357666015625,0.0034580314993858333,-0.03892723075752146,-0.0183212541103363
1733861072314308600,8.06630859375,0.01824117461144924,-0.020385404115507842,-0.0059510173588991164
1733861072324258600,8.076258544921876,0.01682429355084896,-0.003764249045989709,0.021799743875861168
1733861072334209500,8.08620947265625,0.00625146161019802,0.0012141267425817203,0.009682020580768584
1733861072344160500,8.096160400390625,-0.005486322456598282,-0.01713856311481213,0.0012079144850373267
1733861072354111500,8.106111572265625,-0.01705868682861328,-0.03359334978312254,-0.015843173559010028
1733861072364061700,8.116061767578126,-0.007436287480592727,-0.04024474766345229,-0.02854337291717529
1733861072374012400,8.126012451171874,-0.0011140987217426299,-0.03381226236396469,-0.018621406100690362
1733861072383963600,8.135963623046875,0.018824527457356452,-0.02438368910459103,0.013296703946590422
1733861072393914400,8.145914306640625,0.032094343397021295,0.0030173893303523072,0.01000292309820652
1733861072403865600,8.155865478515626,0.0003384381741285324,0.003405680257640779,-0.0006713233903050422
1733861072413815600,8.165815673828124,-0.005730652606487274,0.009058584602933841,-0.0010188216537237167
1733861072423766500,8.1757666015625,0.0027688801914453505,0.005637798107706476,-0.03070405808240175
1733861072433717500,8.185717529296875,0.010594459250569344,0.007384265032410621,-0.03337590764015913
1733861072443668500,8.19566845703125,0.016921324184536932,0.00752566909736488,-0.019431261178851127
1733861072453618400,8.205618408203126,0.005440145227313041,-0.010959192918223561,-0.039304713167250156
1733861072463569700,8.215569580078125,0.0014279869765043258,-0.02973749177230056,-0.03340484147369861
1733861072473520600,8.225520751953125,-0.011437339815497398,-0.015910355902061565,-0.018005320028960704
1733861072483471600,8.2354716796875,-0.002985153290629387,-0.017345838915143394,-0.03109101157337427
1733861072493421600,8.245421630859376,-0.008612345522642135,0.0056285667717689645,-0.03859861072450876
1733861072503372500,8.25537255859375,-0.008920388558506966,0.010706509356875903,-0.02988981909006834
1733861072513323500,8.265323486328125,-0.004069441395998001,-0.0020126310221327,-0.015711656133830545
1733861072523274800,8.275274658203125,-0.018219547301530838,-0.0016437509023235178,-0.01381575938463211
1733861072533225500,8.2852255859375,-0.005394552519917488,-0.02513206663634628,-0.020418518650531767
1733861072543175400,8.295175537109374,0.011367197188735008,-0.044661997850122856,-0.022962650175392625
1733861072553126700,8.305126708984375,0.014849194085597992,-0.03253536516278982,-0.01544832902252674
1733861072563077400,8.315077392578125,0.00006195932030677795,0.002065269958245335,-0.01118278053253889
1733861072573028600,8.325028564453126,0.013414192846417426,0.013199942740960978,-0.026842998740077017
1733861072582978600,8.334978515625,-0.006322188758850098,0.013753180151461855,-0.030031565648317337
1733861072592929500,8.344929443359375,0.014684358912706374,-0.010420470373553689,-0.028558570486307142
1733861072602880500,8.354880615234375,-0.002579495099186897,-0.026677695493015924,-0.05188830040842295
1733861072612831500,8.36483154296875,-0.023700024539232253,-0.015425381971779279,-0.03865618613064289
1733861072622781400,8.374781494140626,-0.04475859465897083,-0.0028900040867738423,-0.022015432453155515
1733861072632732700,8.384732666015625,-0.011628478473424912,-0.0031919461754150685,-0.002740238618850708
1733861072642683400,8.394683349609375,-0.0002554360657930374,-0.03513954717866145,0.011175766269862651
1733861072652634600,8.404634521484375,-0.006938859352469444,-0.03804539957182714,-0.0004945055186748505
1733861072662584600,8.41458447265625,0.006323942324519157,-0.03778944748280337,0.017181436425447463
1733861072672535600,8.42453564453125,-0.009278700476884841,-0.039282040111138485,-0.0024488544568419457
1733861072682486500,8.434486572265625,0.016623802542686462,-0.03834899247814901,-0.004436813403666019
1733861072692437800,8.444437744140625,0.01045475851893425,-0.042217815001821146,0.006590192045271396
1733861072702388500,8.454388427734376,0.005481646281480789,-0.021294141574436796,0.006247954478859901
1733861072712338400,8.46433837890625,-0.021572364860773085,0.010256902425852603,-0.01883154172003269
1733861072722289700,8.47428955078125,-0.013030746486783026,0.03871520457519218,-0.062413201554119585
1733861072732240400,8.484240478515625,-0.00570727173089981,0.030780016245308794,-0.0775008805707097
1733861072742191600,8.494191650390626,-0.01834405046403408,0.013433866802911506,-0.07356178755611181
1733861072752141600,8.5041416015625,-0.013433482068777083,0.007881630370096536,-0.03936842605322599
1733861072762092500,8.514092529296875,-0.015486322945356368,-0.021241735533764586,-0.008076923471689224
1733861072772043500,8.52404345703125,-0.008802899658679962,-0.011238458525820168,0.0267827929854393
1733861072781994500,8.533994384765625,0.0012847791135311127,-0.005320521452615503,0.042155426423251624
1733861072791944400,8.5439443359375,-0.00024316110610961912,0.0010790719324897508,0.06170300745815038
1733861072801895700,8.553895751953124,-0.006603928309679031,-0.021120086482050826,0.06133329736292362
1733861072811846400,8.563846435546875,-0.020365911680459974,-0.005688146905321627,0.04351590112149715
1733861072821797600,8.573797607421875,-0.026803251251578328,-0.00911386644563754,-0.009290975436568259
1733861072831747600,8.58374755859375,-0.04573942238986492,-0.014461441443604416,-0.0392678882881999
1733861072841698600,8.593698486328124,-0.04151917434632778,-0.005556857809005305,-0.053121349334716794
1733861072851649500,8.6036494140625,-0.0056903205960989,0.0018394127550302073,-0.023688334101438523
1733861072861600500,8.6136005859375,0.018534604600071905,-0.0195067878002068,-0.005837035590410232
1733861072871551500,8.623551513671876,0.011078443375229835,-0.025815409258008,-0.013100889113545417
1733861072881501400,8.63350146484375,0.01884030954837799,-0.03824641116979764,-0.01335047996044159
1733861072891452700,8.64345263671875,0.007173252630233764,-0.0369198866902152,-0.04090338053554296
1733861072901403600,8.653403564453125,-0.018474398845434187,-0.03244085299646249,-0.06197714822441339
1733861072911354600,8.663354736328126,-0.011806757649779318,-0.022196426459692883,-0.08138298270106314
1733861072921304600,8.6733046875,-0.00708148269355297,-0.014806647285236976,-0.05126929172724485
1733861072931255600,8.683255615234375,0.006927168914675712,-0.014485744767799041,-0.039427462764084334
1733861072941206500,8.69320654296875,-0.005473462975025177,-0.03070214696981711,-0.036494916443526745
1733861072951157500,8.703157470703125,0.004095744881033897,-0.011237990451650694,-0.016271920365095137
1733861072961107500,8.713107421875,-0.009368716847896575,0.016730715249571947,-0.01613368093818426
1733861072971058700,8.72305859375,-0.0016477672070264815,0.013708988241641781,0.006341185720264911
1733861072981009400,8.733009521484375,-0.00798515353500843,0.016261606750346255,0.014577391406893729
1733861072990960600,8.742960693359375,-0.009702478846907616,0.010256370419601443,0.015839374166727066
1733861073000911400,8.752911376953126,0.005209259080886841,0.010720955724047961,0.008663198927044868
1733861073010861600,8.762861572265624,0.008354571369290352,-0.026127368133876006,-0.006609481267631053
1733861073020812500,8.7728125,-0.019274024790525434,-0.05261095212716609,-0.004828150808811187
1733861073030763500,8.782763427734375,-0.008314239358901977,-0.02937790577886626,-0.012570143237709998
1733861073040714500,8.792714599609376,-0.025690321573615074,-4.5209114905446767e-7,-0.007580079865455627
1733861073050664700,8.802664794921874,-0.007606383350491523,0.010259238230122718,0.004154197070002556
1733861073060615400,8.812615478515625,-0.0015285247415304183,0.024550305242615283,0.011202654276788234
1733861073070566700,8.822566650390625,0.00895195274055004,-0.0011887097443570383,-0.02219312710762024
1733861073080517600,8.832517578125,0.012416413980722426,-0.04285142759708688,-0.056986792591214176
1733861073090467300,8.84246728515625,-0.016164952859282492,-0.03802128576058894,-0.0730021078467369
1733861073100418600,8.85241845703125,-0.01950783354640007,-0.0264487592750811,-0.059687283721566196
1733861073110369500,8.86236962890625,-0.008788871133327483,0.020790283705526963,-0.04950111301094293
1733861073120320500,8.872320556640625,0.011219897672533988,0.03156332124326145,0.0009033785805106163
1733861073130270500,8.8822705078125,0.017485387808084486,0.01679578669228358,0.03477671434879303
1733861073140221700,8.8922216796875,0.03213584445118904,-0.019017104587121865,0.05142535907179117
1733861073150172400,8.90217236328125,0.010652911439538,-0.032823408873530566,0.018902853390574455
1733861073160123600,8.91212353515625,-0.008912789773941039,-0.043716163800796494,-0.014433306761085986
1733861073170074400,8.922074462890626,-0.019026187509298322,-0.05007767078988254,-0.018067863871157167
1733861073180024600,8.932024658203124,-0.023660277050733564,-0.05653798481121193,-0.061036360242962835
1733861073189975600,8.9419755859375,-0.010503273835778235,-0.045732668422092684,-0.05203209279328584
1733861073199926500,8.951926513671875,-0.009674421796202658,-0.027191380636196118,-0.04913783265650272
1733861073209877500,8.96187744140625,-0.0125134446144104,-0.0037363278509583322,-0.03044832975566387
1733861073219827700,8.97182763671875,-0.014544073659181594,0.005599571289436426,-0.026304361818730828
1733861073229778400,8.9817783203125,0.003849661165475845,0.00952511070271721,-0.017444471275806426
1733861073239729700,8.991729736328125,-0.001796235767006874,0.0027024501919979227,-0.0073965399920940395
1733861073249680600,9.0016806640625,-0.0040665187865495675,0.007567119919182732,-0.00971796867698431
1733861073259630300,9.01163037109375,0.010537760627269745,-0.0029353616154403424,0.0019786065965890884
1733861073269581600,9.02158154296875,0.020032149681448935,-0.004019766168529167,0.0019198621466755867
1733861073279532500,9.031532470703125,-0.0032218846559524533,0.00024565674058394505,-0.0028428222104907035
1733861073289483500,9.0414833984375,-0.012692892834544181,-0.0034881572095910086,-0.027408231407403946
1733861073299434800,9.051434814453126,-0.0089057755112648,-0.011088044603925663,-0.04087093957066536
1733861073309384700,9.061384765625,-0.00538227756023407,-0.026347326460911424,-0.053988487558066844
1733861073319335400,9.07133544921875,-0.006398176604509353,-0.024361212411301673,-0.06501052457094192
1733861073329286700,9.08128662109375,-0.018103227445483205,-0.023586775706394107,-0.06072130294442177
1733861073339237400,9.0912373046875,-0.014482114338874816,-0.0332226007915684,-0.055126843938231467
1733861073349187600,9.1011875,-0.00012567220628261565,-0.031888379346008876,-0.06348287661224604
1733861073359138600,9.111138671875,-0.0007382511466741561,-0.01578310023511294,-0.04788081833273172
1733861073369089500,9.121089599609375,0.0071282444447278975,0.00952489379029721,-0.043053836567699906
1733861073379040500,9.13104052734375,-0.0007528641939163207,0.010404800163675098,-0.026300562426447866
1733861073388990700,9.14099072265625,-0.00023380875587463378,0.006670933697861619,-0.02576981655061245
1733861073398941400,9.15094140625,0.021370120286941525,0.009460139724705368,-0.029983634853363035
1733861073408892700,9.160892578125,0.019051906472444532,-0.001982273558131419,-0.03320581177026033
1733861073418843400,9.170843505859375,0.000647065731883049,0.0027324594544828867,-0.03724573481082916
1733861073428793600,9.180793701171876,-0.01651625051498413,-0.02045454894513823,-0.04575695804655552
1733861073438744600,9.19074462890625,-0.02782499551475048,-0.03643003679706017,-0.04848638301044702
1733861073448695600,9.200695556640625,-0.02524550041556358,-0.012333032846474088,-0.029139585244655607
1733861073458646500,9.210646484375,-0.00814940418601036,-0.008198104449233506,-0.02027414174377918
1733861073468597800,9.22059765625,-0.008712298765778542,0.004441816089057829,-0.006914893954992294
1733861073478547500,9.23054736328125,-0.018228315129876136,0.0022947187744779512,0.010262743078172206
1733861073488498400,9.24049853515625,-0.02296761861145496,0.01531235690122703,0.016399638397991655
1733861073498449700,9.25044970703125,-0.004610124143958091,-0.013187432602548505,0.012647007866203784
1733861073508400400,9.260400390625,0.01099193413555622,-0.03568921466738684,0.0241904384046793
1733861073518350600,9.2703505859375,0.017625088539719582,-0.03320722284263465,0.0243275087878108
1733861073528301600,9.280301513671875,0.02053600755035877,-0.03108265930355992,0.02081833162307739
1733861073538252500,9.29025244140625,0.022463760742545125,-0.014091840946231967,-0.018798808494210242
1733861073548203500,9.30020361328125,0.002878770306706428,-0.0021963661166722885,-0.07542436655759811
1733861073558153700,9.31015380859375,-0.0006283610314130782,-0.00823215513259638,-0.09976707291454076
1733861073568104400,9.3201044921875,-0.022387188374996186,0.015356079595233312,-0.09343611632734537
1733861073578055700,9.3300556640625,-0.024034955582022666,-0.0009205397778656333,-0.0669268795862794
1733861073588006400,9.34000634765625,-0.017234043395519257,0.016550719040166587,-0.023265140253305432
1733861073597957600,9.34995751953125,-0.025902503019571303,0.035369168383185746,0.03522533489912748
1733861073607907600,9.359907470703124,-0.016152677899599073,0.027059897460346108,0.07077624849081039
1733861073617858600,9.369858642578125,-0.016919570618867872,0.003787697278591804,0.07696399721503257
1733861073627809500,9.3798095703125,-0.02274550029337406,-0.03216229406669736,0.07647358334958552
1733861073637760500,9.389760498046876,-0.016128712502121924,-0.0748597777776653,0.05002250653654337
1733861073647710500,9.39971044921875,-0.016260229927301407,-0.06217267536309082,0.023309563916921613
1733861073657661400,9.409661376953125,-0.008185060021281242,-0.024397080592415295,-0.0022901567637920377
1733861073667612700,9.41961279296875,0.01414426068663597,0.01800581778588239,-0.00810585730522871
1733861073677563600,9.429563720703126,0.014750409886240958,0.04520331078574527,-0.007856558719277382
1733861073687513600,9.439513671875,0.02121171485483646,0.022965435787523164,-0.026961072161793706
1733861073697464600,9.449464599609374,-0.013277999246120453,-0.009601155630592256,-0.047853053542971605
1733861073707415600,9.45941552734375,-0.007670680758357047,-0.054073398495698345,-0.0678220748603344
1733861073717366500,9.469366455078125,-0.01440612649321556,-0.06623397455182857,-0.05734276642203331
1733861073727317500,9.4793173828125,-0.0013566753059625625,-0.05370186176956631,-0.06027443595975637
1733861073737267500,9.489267333984374,-0.001952303111553192,-0.04217308537752833,-0.03752922792732715
1733861073747218700,9.49921875,-0.0006219312906265258,-0.03631087424666621,-0.031334464940428734
1733861073757169400,9.50916943359375,0.01343932728767395,-0.013539664123300462,-0.01754588582366705
1733861073767120600,9.51912060546875,0.004015665382146835,-0.012956430008402093,-0.01291208854317665
1733861073777070600,9.529070556640624,0.020709610551595686,0.0017621645340463146,-0.0130123340472579
1733861073787021600,9.539021484375,-0.005196399599313736,0.020300280832033602,0.005600011964142323
1733861073796972500,9.54897265625,-0.010364157626032829,0.030968335041776297,0.012276713249087332
1733861073806926600,9.558926513671874,-0.002602291452884674,0.029513542256737125,0.016528233213722706
1733861073816876300,9.568876220703125,-0.001758241844177246,0.03811773187238723,0.016841536946594713
1733861073826827500,9.57882763671875,-0.02167816332280636,0.011281532765855081,-0.00315057298541069
1733861073836778500,9.588778564453126,-0.023467969349026677,-0.012464792300248518,-0.018127192842960358
1733861073846729500,9.5987294921875,-0.014964344897866248,-0.02593332284952048,-0.02523088736832142
1733861073856679400,9.608679443359375,-0.015640052202343938,-0.037718809382407924,-0.016471534590423106
1733861073866630400,9.61863037109375,-0.018644494715332985,-0.005536577639379538,0.0033136545926332472
1733861073876581400,9.628581298828125,-0.01867372080981731,0.026829362940369174,0.003847907599806785
1733861073886532600,9.63853271484375,0.006562427255511283,0.04440011377723422,0.0023559154763817787
1733861073896483300,9.6484833984375,0.006704466074705123,0.02499102333099581,-0.020968553748726842
1733861073906433300,9.658433349609375,0.009043138155341147,-0.013537960789981297,-0.07960895876586437
1733861073916384500,9.668384521484375,-0.014394436055421829,-0.04350936178285628,-0.10026596234738826
1733861073926335200,9.678335205078126,-0.03043137862086296,-0.031924087696918284,-0.08865355822592973
1733861073936286500,9.688286376953124,-0.013677812218666076,-0.024035060613299717,-0.06048924775421619
1733861073946236400,9.698236328125,0.0012684125006198882,-0.024720965084806083,-0.017929039922356605
1733861073956187400,9.7081875,-0.005596212571859359,-0.013658979654032736,0.009257949949800968
1733861073966138400,9.718138427734376,0.005470540365576744,-0.0432682054041652,0.028881226569414137
1733861073976089600,9.728089599609374,0.01424012227654457,-0.03722677438203245,0.013944938722252845
1733861073986039300,9.738039306640625,0.01695639549791813,-0.036599650893057695,-0.015154899033904075
1733861073995990500,9.747990478515625,0.009894786548614502,-0.017055919482791795,-0.02374970889985561
1733861074005941500,9.75794140625,-0.0234627086520195,-0.007441762806731276,-0.01809475187808275
1733861074015892500,9.767892578125,-0.026522096222639083,-0.013492788207693956,-0.033298458489775654
1733861074025843500,9.777843505859375,-0.02702712313532829,-0.025588025676342656,-0.006186871941387653
1733861074035793700,9.787793701171875,0.006986205625534057,-0.0029673893050756305,-0.00018266309052705765
1733861074045744400,9.797744384765625,0.018854338073730468,-0.007213927133916877,-0.02441109541803598
1733861074055695600,9.807695556640626,-0.0010158990442752838,-0.004324034928285982,-0.013132453295588492
1733861074065646300,9.817646240234374,-0.017328735941648483,0.017103503217874093,-0.006539338640868663
1733861074075596300,9.82759619140625,-0.008694178587198257,0.027562880829710045,0.0007768295913934707
1733861074085547500,9.837547607421875,-0.004251812225580215,0.020275160090508868,0.006901742212474346
1733861074095498200,9.847498291015626,-0.00028232407271862027,0.025778066072438377,-0.002315291205048561
1733861074105449500,9.857449462890624,-0.022101357170939445,0.013235116802330594,-0.008980009791254996
1733861074115399400,9.8673994140625,-0.03274725434780121,0.013009671732713468,-0.005768938790261745
1733861074125350400,9.877350341796875,-0.003232406049966812,0.02210883950778516,-0.01619856286793947
1733861074135301400,9.88730126953125,0.004559855261445045,0.014454945487447548,-0.02625292389243841
1733861074145252400,9.89725244140625,-0.011599836900830269,0.004536273456458002,-0.015626900459825992
1733861074155202300,9.907202392578125,-0.021996143230795857,-0.004352212993288413,-0.0064300330474972725
1733861074165153500,9.917153564453125,-0.017225275567173955,-0.018779220161039847,0.017718319781124592
1733861074175104300,9.927104248046875,0.0023638065218925474,-0.030350840180960948,0.025690321573615074
1733861074185055500,9.937055419921874,0.007765957826375961,-0.042524278001952916,0.008588087864220141
1733861074195006500,9.94700634765625,-0.00182429281771183,-0.039734364155633375,-0.007830839756131172
1733861074204956400,9.956956298828125,-0.006046294426918029,-0.027629440976609475,-0.012673019090294836
1733861074214907400,9.966907470703125,0.004267594316601753,-0.027510063797084146,-0.011143909826874732
1733861074224858600,9.976858642578126,0.0012847791135311127,0.0021232848974410442,-0.010876783323287963
1733861074234809300,9.986809326171874,0.0010328501790761947,0.01679318145995494,-0.034062428599596024
1733861074244759300,9.99675927734375,-0.013670797955989836,0.011042833205731585,-0.03274637756496668
1733861074254710500,10.00671044921875,-0.029043723654747007,-0.0063597945226123555,-0.010865092885494232
1733861074264661200,10.0166611328125,-0.0185872115701437,-0.018482189426245167,-0.015890812093019485
1733861074274612500,10.026612548828124,-0.01789221504330635,-0.03598001659079455,-0.029345336949825284
1733861074284562400,10.0365625,0.005479308193922043,-0.048087455953890454,-0.038704701447486875
1733861074294513400,10.046513427734375,0.0038449849903583523,-0.05516356378600467,-0.030504151596128938
1733861074304464400,10.05646435546875,-0.0031868133425712584,-0.041048615958821026,-0.007014262676239013
1733861074314415400,10.066415283203124,-0.0012128829210996627,0.0017225517595768904,0.006220774210989475
1733861074324365300,10.076365234375,-0.008279168045520782,0.04935530219892971,0.0037818566262722013
1733861074334316500,10.086316650390625,-0.026662381476163864,0.04778049976341426,0.008956628915667533
1733861074344267300,10.096267333984375,-0.021986206358671188,0.044734912389283996,0.0052586511805653565
1733861074354218500,10.106218505859376,-0.004250643181800842,0.01954306012340821,-0.0012616904988884926
1733861074364169500,10.11616943359375,0.002886369091272354,-0.002813413452915847,-0.011456336776912211
1733861074374119400,10.126119384765625,-0.0017605799317359924,-0.03388665190758183,-0.023259879556298255
1733861074384070400,10.1360703125,0.00856675281524658,-0.03417059026536299,-0.046616497485339636
1733861074394021600,10.146021728515626,0.031357845816016194,-0.0283184941031388,-0.08805734589844942
1733861074403972400,10.155972412109374,0.016231588354706762,-0.017365558537410106,-0.0992360347777605
1733861074413922300,10.16592236328125,0.011201777493953704,0.002954653121088631,-0.09131108699738978
1733861074423873500,10.17587353515625,0.002139350116252899,0.021973095715348608,-0.0474897731885314
1733861074433824500,10.185824462890626,-0.004136661413311958,0.028960979558026883,0.004135492369532585
1733861074443775500,10.195775390625,-0.028448095849156377,0.031451535998436156,0.04057780184298754
1733861074453725400,10.205725341796875,0.006674070936441421,0.0006705447888816706,0.05837473981827497
1733861074463676400,10.215676513671875,0.025264205116033552,-0.021874115153169258,0.043458325715363025
1733861074473627400,10.22562744140625,0.009777297648787498,-0.029922495233674996,0.03604337328374386
1733861074483578400,10.235578369140624,-0.026953473377227782,-0.018442574368487112,0.016791852585971354
1733861074493529300,10.245529296875,-0.04201835604012012,0.0007426441940013319,0.002119184111058712
1733861074503479600,10.2554794921875,-0.01749649372398853,-0.013540465557610149,-0.018041268125176427
1733861074513430300,10.26543017578125,-0.021606267130374907,-0.04699021246882621,-0.0102194884583354
1733861074523381500,10.275381591796876,0.002878770306706428,-0.04313366033826023,-0.008575812904536724
1733861074533332200,10.285332275390624,0.009610708910226822,-0.05486924331481568,-0.024597850161790846
1733861074543282400,10.295282470703125,0.030005846685171124,-0.04130128924536984,-0.042399464312195774
1733861074553233400,10.3052333984375,0.00836859989464283,-0.04052826817941386,-0.05649462516009807
1733861074563184400,10.315184326171876,-0.028570260924100876,-0.03664112454776186,-0.07510492534488439
1733861074573135400,10.32513525390625,-0.04101064030230045,-0.02323440947161289,-0.07637041523605585
1733861074583085600,10.33508544921875,-0.025524317356944083,-0.0497606133305002,-0.05322597875297069
1733861074593036300,10.345036376953125,-0.008489011403918266,-0.05150062539824284,-0.027548224399983882
1733861074602987500,10.354987548828126,0.021430910563468932,-0.0315021154082031,-0.015391338138282298
1733861074612938500,10.3649384765625,0.03914075477719307,-0.02595521958749741,0.001369242526590824
1733861074622889500,10.374889404296875,0.023629297390580176,-0.000139405045757303,0.009602525603771209
1733861074632839400,10.38483935546875,0.010278817430138587,0.055237601703172545,0.010305997698009014
1733861074642790400,10.394790283203125,-0.02442775429189205,0.08031217513177544,0.005047931039333343
1733861074652741400,10.404741455078126,-0.024668577310442922,0.07691755512426607,0.01834668081253767
1733861074662692400,10.4146923828125,-0.01528232480585575,0.034128664519509765,0.017273790884017943
1733861074672642600,10.424642578125,-0.014757424148917198,-0.010846892791811842,0.017491233026981353
1733861074682593300,10.43459326171875,0.024269933381676673,-0.04637993964995257,0.016369535520672798
1733861074692544500,10.44454443359375,0.028674890342354774,-0.017124832558626076,0.014372224223613738
1733861074702495200,10.4544951171875,-0.009522446104884147,0.029416534455935468,0.0037149288699030872
1733861074712445400,10.464445556640625,-0.030713118171691894,0.05828402476094197,-0.0275800808429718
1733861074722396400,10.474396484375,-0.01841243952512741,0.028202582955756225,-0.046822833712399
1733861074732347400,10.484347412109376,-0.005767477485537529,-0.025072929460788144,-0.07712532525658607
1733861074742298400,10.49429833984375,-0.012834347131848334,-0.07810940439049154,-0.09258183758556843
1733861074752248600,10.50424853515625,-0.004659808504581451,-0.07621605122482869,-0.09151070122271776
1733861074762199300,10.51419921875,-0.017542670953273772,-0.03608632194290403,-0.07410013221651315
1733861074772150500,10.524150634765626,-0.0022977555483579635,-0.016186931795650162,-0.02899403929412365
1733861074782101500,10.5341015625,0.0253927999317646,-0.0016267461102397647,0.020968553748726842
1733861074792052500,10.544052490234375,0.023377952978014944,0.0086580546777579,0.029410218879580497
1733861074801998800,10.553998779296874,0.013090367719531058,-0.003163908532663481,0.04082388555854559
1733861074811950000,10.5639501953125,-0.007007248413562774,-0.01560363603195874,0.03841916250437498
1733861074821900800,10.57390087890625,-0.008308394140005112,-0.02455997268668143,0.027060148622095583
1733861074831852000,10.58385205078125,-0.01280278294980526,-0.026659942923905326,0.037998014482855794
1733861074841802000,10.593802001953126,-0.027139935860037802,-0.034649768067453984,0.034171734192967415
1733861074851753000,10.6037529296875,-0.027923779714107512,-0.017587729371129533,0.037570144459605215
1733861074861704000,10.613703857421875,-0.03292962517738342,0.00010516484943800606,0.029242168836295605
1733861074871655000,10.623655029296875,-0.019374562555551526,0.014152901792462216,0.00907265651077032
1733861074881604900,10.63360498046875,0.0009007482320070266,0.006306566498032771,-0.00013677812218666077
1733861074891556000,10.64355615234375,0.026350246787071225,0.009031157739891204,-0.02172989351004362
1733861074901506800,10.6535068359375,0.011826046872138977,0.010067089216975727,-0.0404161815404892
1733861074911458000,10.6634580078125,-0.012022446227073668,-0.0038334052920632527,-0.03680822017639875
1733861074921408800,10.67340869140625,-0.014054828837513923,-0.017782072624651483,-0.012748422414064407
1733861074931358700,10.683358642578124,-0.021323358535766602,-0.027766330979939084,0.006369827292859554
1733861074941310000,10.69331005859375,-0.02056698721051216,-0.044489997717505315,0.02205722576826811
1733861074951261000,10.703260986328125,0.009874328282475472,-0.04606848081429488,0.040110184331238266
1733861074961212000,10.7132119140625,0.004523614904284477,-0.027924903092114255,0.028915421099960804
1733861074971161900,10.723161865234376,0.016826631638407707,0.019652728759672024,0.016234218703210353
1733861074981112800,10.73311279296875,0.011586392897367476,0.02267041434672428,-0.00008066402077674865
1733861074991063800,10.743063720703125,-0.0010135609567165373,0.019632555904611944,-0.019748948825895785
1733861075001015000,10.75301513671875,-0.020409166300296783,0.006813138055481249,-0.031003917811810968
1733861075010965000,10.762965087890626,-0.00820259567797184,-0.013021009402413618,-0.03830868786722422
1733861075020916000,10.772916015625,0.007656067711114883,-0.01746874263396021,-0.021559213118255136
1733861075030867000,10.782866943359375,0.012727964147925376,-0.035717493197089056,-0.05310469046086073
1733861075040818000,10.79281787109375,-0.0030529578298330307,-0.024821085008012594,-0.04722732286006212
1733861075050769000,10.802768798828126,0.0005137947410345078,-0.01120051369369612,-0.07768880435824393
1733861075060719000,10.812718994140624,-0.00636953503191471,-0.002035752744460478,-0.08337970947623252
1733861075070669800,10.822669921875,-0.021591654083132742,-0.010595089438231661,-0.07437544202655554
1733861075080621000,10.83262109375,-0.008877718460559845,-0.015491714931459864,-0.07391396199464798
1733861075090571800,10.84257177734375,0.00787058724462986,-0.0059706262416671955,-0.05578296975940466
1733861075100522000,10.85252197265625,0.03141922061443329,-0.01244506925304886,-0.05252309118062257
1733861075110473000,10.862472900390625,0.025559973192214966,-0.014015887349902187,-0.06188888541907072
1733861075120424000,10.872423828125,0.01021159741282463,-0.006623665056610479,-0.07046352927982807
1733861075130375000,10.882375,-0.000301028773188591,-0.02658675667339703,-0.06405570806413889
1733861075140324900,10.892324951171876,-0.025857494834065436,-0.033631432754208795,-0.062194298106431956
1733861075150275800,10.90227587890625,-0.017530395993590353,-0.014061799717706162,-0.03404547746479511
1733861075160226800,10.912226806640625,-0.020877952855825423,-0.01913932217770489,0.0199988319337368
1733861075170178000,10.922177978515625,0.004885433954000473,-0.02108245331882499,0.05658318022638559
1733861075180127700,10.932127685546876,0.006343816068768501,-0.028715334233886097,0.049506373707950115
1733861075190079000,10.942078857421874,0.0028618191719055174,-0.009919980355375446,0.051558045540750025
1733861075200030000,10.952030029296875,-0.009425415471196174,0.002876742746401578,0.026007716959714888
1733861075209981000,10.96198095703125,-0.010534253495931624,0.015701290003443134,0.026479426124691962
1733861075219932000,10.971931884765626,-0.03350187210738659,-0.002034528901753947,0.026246494151651856
1733861075229882000,10.981882080078124,-0.028486089771986006,-0.024211554257944225,-0.006162029761075973
1733861075239832800,10.991832763671875,-0.0099514851719141,-0.036646791670145465,-0.03812982416898012
1733861075249784000,11.0017841796875,-0.011745382851362228,-0.023460950519773177,-0.05998685119003057
1733861075259734800,11.01173486328125,-0.024401450806856153,-0.0033436387389432637,-0.06391600733250379
1733861075269685000,11.02168505859375,-0.005489829587936401,0.02132101359834196,-0.04941021985709667
1733861075279636000,11.031635986328125,-0.019434768310189247,0.039945034064515494,-0.01009703112244606
1733861075289587000,11.0415869140625,-0.03132920424342155,0.025986445842823013,0.022608429910242558
1733861075299538000,11.051537841796875,-0.0058066404521465295,0.014677022706333082,0.03807312554568052
1733861075309487900,11.06148779296875,0.005628361275792122,-0.030809954725846182,0.05253799648880958
1733861075319438800,11.07143896484375,0.009170563927292824,-0.05274588078556117,0.0462239910364151
1733861075329389800,11.081389892578125,-0.001983867293596268,-0.014616483591555152,0.027729718446731565
1733861075339340800,11.0913408203125,-0.03044832975566387,0.006698079716402571,-0.004227262306213378
1733861075349292000,11.1012919921875,-0.022031214544177054,0.02584609894050518,-0.01888824034333229
1733861075359242000,11.111241943359374,-0.020186463460326192,0.02390285591824213,-0.022960604348778724
1733861075369193000,11.12119287109375,-0.01987549781501293,0.02820949675373267,-0.014353227262198924
1733861075379144000,11.13114404296875,0.018290274450182914,-0.007648053368018009,-0.015165420427918434
1733861075389095000,11.141094970703126,0.049987142962217325,-0.02698983018210856,-0.026792729857563972
1733861075399044900,11.151044921875,0.014347674304246901,-0.041623858563508837,-0.03138298025727272
1733861075408995800,11.160995849609375,-0.008989362141489982,-0.013955464682844467,-0.05521452222168445
1733861075418947000,11.170947021484375,-0.022931378254294393,0.0067677748185931705,-0.08193447910398244
1733861075428897800,11.180897705078126,-0.013813421297073364,-0.0026206947592552748,-0.09299071064740419
1733861075438848000,11.190847900390626,-0.015095277801156043,-0.017963515297404954,-0.0813698309585452
1733861075448799000,11.200799072265625,0.012988076388835906,-0.022160686142742633,-0.06013005905300378
1733861075458750000,11.21075,0.003855506384372711,-0.009868010422831867,-0.03871843771189451
1733861075468701000,11.220700927734375,0.009232523247599602,0.010420267160865478,-0.02656915023475885
1733861075478652000,11.23065185546875,0.022883447459340095,0.011598912168934475,-0.010054653285443782
1733861075488601900,11.240601806640624,0.012226444366574286,0.0021855798611766656,-0.010401274766027927
1733861075498553000,11.250552978515625,0.013165771043300628,-0.03191267353704898,-0.018608838880062102
1733861075508503800,11.26050390625,-0.016014146211743355,-0.05493764150906354,-0.008733926075696945
1733861075518455000,11.270455078125,-0.01651449694931507,-0.03923532859231345,-0.0008060556858777999
1733861075528405000,11.280405029296874,-0.019461071795225143,-0.017333256853139026,0.004879004213213921
1733861075538355700,11.290355712890625,-0.022898645028471946,0.009612352878041564,0.0063464464172720905
1733861075548307000,11.300306884765625,-0.003324760508537292,0.019936345173756125,-0.0024155367091298102
1733861075558258000,11.3102578125,0.005050269126892089,0.017165565286169294,0.011646306391060351
1733861075568208000,11.320207763671876,-0.003983516678214073,0.008916680497769267,0.023019348798692225
1733861075578158800,11.330158935546875,0.023159341791272162,-0.00912376564349979,0.02926876458227634
1733861075588110000,11.340110107421875,0.01959317374229431,-0.03059661793584237,-0.020339900456368923
1733861075598060800,11.350060791015625,0.011118190863728523,-0.022668373086687642,-0.04713964457660913
1733861075608011000,11.360010986328126,-0.03032324207127094,-0.046758052247343584,-0.07215864275991916
1733861075617962000,11.3699619140625,-0.026619126856327054,-0.04581520017297007,-0.09270400266051292
1733861075627913000,11.379912841796875,-0.008602993172407149,-0.039440975266206074,-0.0643096828252077
1733861075637864000,11.389864013671875,-0.003731587743759155,-0.03335349716224009,-0.026560382406413553
1733861075647815000,11.39981494140625,-0.008670213189721106,-0.019477047965780366,0.0038148821130394935
1733861075657764900,11.409764892578124,-0.0054985974162817,-0.018654513785848394,0.024375439582765102
1733861075667716000,11.419716064453125,-0.01018587844967842,-0.0048059686597553075,0.005662555806338787
1733861075677666800,11.429666748046875,0.011838906353712082,-0.01892552188010886,-0.01942337013334036
1733861075687618000,11.4396181640625,-0.013746201279759406,-0.018241192877758293,-0.023335282880067823
1733861075697568000,11.449568115234374,-0.012001987960934638,-0.020610093416587913,-0.03456014898866415
1733861075707518700,11.459518798828125,-0.009568038812279701,-0.022781834265368523,-0.029141338810324668
1733861075717470000,11.469469970703125,0.006514496460556984,-0.028420098163955843,-0.015136486594378948
1733861075727421000,11.4794208984375,-0.002055178964138031,0.0030894584818975997,-0.004685819728672504
1733861075737371000,11.489370849609376,-0.00092412910759449,0.01334993653774727,-0.0008913958817720412
1733861075747321900,11.49932177734375,-0.0022650223225355146,0.02595442271976499,-0.000014028525352478027
1733861075757272800,11.50927294921875,0.005887888994812965,0.032028616650472394,-0.003234744137525558
1733861075767223800,11.519223876953125,-0.005894903257489204,0.02678900809709448,-0.01024608420431614
1733861075777175000,11.529175048828124,-0.006473579928278923,0.009262906969420146,-0.03815203600078821
1733861075787125000,11.539125,-0.007288403442502022,-0.003416589810722507,-0.05516834499239921
1733861075797076000,11.549075927734375,0.00038519992530345915,-0.014447865009400993,-0.06247662217915058
1733861075807027500,11.55902734375,0.0014162965387105942,0.00017381763036828488,-0.05478840576410293
1733861075816978200,11.568978271484376,-0.0031049802780151363,-0.007783635046961717,-0.04091828584372997
1733861075826928400,11.578928466796874,-0.00241641349196434,-0.0008913456494221464,-0.019039046990871427
1733861075836879400,11.58887939453125,-0.009204466196894644,-0.007878633553767576,0.006118482880294322
1733861075846830300,11.598830322265625,-0.019136077624559402,0.0013778665077523327,-0.022740824118256567
1733861075856781300,11.60878125,-0.008471475747227668,0.0026781149017624556,-0.021063830816745756
1733861075866731500,11.6187314453125,-0.004883095866441726,0.009023497306532227,-0.008638356746733189
1733861075876682200,11.62868212890625,0.0020288754791021346,0.0029167756459792145,-0.004994447286427021
1733861075886633500,11.638633544921875,0.011309329521656036,-0.006474808337562717,-0.009055705375969409
1733861075896584200,11.648584228515626,0.010132102435827255,-0.0028854169599129816,-0.01645867510885
1733861075906535400,11.658535400390624,0.013359832310676573,-0.0330927593002445,-0.00415098219960928
1733861075916485400,11.6684853515625,0.0195762226074934,-0.02345885674409801,-0.022647592876851558
1733861075926436000,11.67843603515625,-0.0014238953232765196,-0.033729431502276565,-0.03550882801562547
1733861075936387300,11.68838720703125,-0.03482815227508545,-0.0275894126436091,-0.041835108427703376
1733861075946338300,11.69833837890625,-0.03277706496417522,-0.012539633935014716,-0.033318332234025
1733861075956288300,11.708288330078124,-0.030787352451682088,0.0032417835163767446,-0.016692191603779792
1733861075966239200,11.7182392578125,-0.013783610680699348,0.03154629019335843,-0.0015641805768013
1733861075976190200,11.728190185546875,-0.0138859020113945,0.009488189925544429,-0.008446341305971146
1733861075986141200,11.73814111328125,0.012433365115523337,0.010742293056310154,-0.0037532150536775588
1733861075996091400,11.74809130859375,0.017471943804621696,0.0003673788575339131,-0.022161562925577163
1733861076006042400,11.75804248046875,0.006820785930752754,-0.0028888190599740482,-0.009960545261204242
1733861076015993300,11.767993408203125,-0.011248539245128631,-0.012432776027056388,-0.004232230742275715
1733861076025944300,11.7779443359375,-0.009935118559002875,-0.021134786294260993,0.009484744442999363
1733861076035894300,11.787894287109374,-0.013340543088316916,-0.02705665290720062,0.027326690603792666
1733861076045845200,11.79784521484375,0.00784136115014553,-0.02298416103759082,0.032003450243175025
1733861076055796500,11.80779638671875,0.0040402153015136714,-0.025146129411028232,0.05656155291646719
1733861076065747200,11.817747314453126,0.008854337584972382,-0.01894592078074347,0.022656360705196856
1733861076075698400,11.827698486328124,0.0084440032184124,-0.021697653474565592,-0.03717208505272865
1733861076085648400,11.8376484375,-0.011219897672533988,-0.02368219433830818,-0.07365384975373744
1733861076095599400,11.847599365234375,-0.010814824002981185,-0.017753101116849575,-0.09655746321827173
1733861076105550300,11.85755029296875,-0.0017009586989879606,-0.0021286848750547505,-0.09604659108668565
1733861076115501300,11.867501220703126,-0.005287585014104843,0.02370255213974742,-0.057574237090349194
1733861076125451300,11.877451171875,-0.006612696138024329,0.03981219689850695,-0.017345979337394235
1733861076135402200,11.88740234375,-0.0243950210660696,0.05164602521830238,0.007310907535254955
1733861076145353200,11.897353271484375,-0.019410802912712095,0.03251882958651986,0.020820377449691296
1733861076155304200,11.90730419921875,-0.001533200916647911,-0.011901036920666228,0.027506138823926447
1733861076165254400,11.91725439453125,-0.020182956328988075,-0.038580152619211,0.014917290885746478
1733861076175205000,11.927205078125,-0.03518646419346332,-0.03588057252102298,0.017113339625298978
1733861076185156400,11.93715625,-0.02694704363644123,-0.014798194550722836,0.017499708594381807
