time,seconds_elapsed,z,y,x
1733861316866932500,0.016932373046875,-0.10757482405602932,0.1069941746238619,-0.09646861589103936
1733861316876883500,0.026883544921875,-0.05156535206437111,0.0875333585569635,-0.07259001991450786
1733861316886834400,0.03683447265625,-0.0471954664170742,0.04800393325574696,-0.08465864337086677
1733861316896784600,0.04678466796875,-0.03169569946825504,0.07755107638798654,-0.14719430226087568
1733861316906735400,0.0567353515625,-0.0442892235815525,0.18726488523408769,-0.2664873289003968
1733861316916686600,0.0666865234375,-0.10945815358459948,0.12365308501254767,-0.30797990750074383
1733861316926637300,0.07663720703125,-0.16935937231779097,0.06487842262387275,-0.20323300034701822
1733861316936588500,0.086588623046875,-0.07446282804906368,0.05896978310197591,-0.12170242586880922
1733861316946539500,0.09653955078125,0.030429040533304214,0.06432941043898463,-0.06171499015688896
1733861316956489200,0.1064892578125,-0.0021066168904304503,0.12123458916135131,-0.07261018591970204
1733861316966440400,0.1164404296875,-0.12185060216784477,0.16630842378195373,-0.14453063600957392
1733861316976391700,0.1263916015625,-0.3006581863105297,0.19317498606070874,-0.18975567913651464
1733861316986342400,0.13634228515625,-0.4416314220994711,0.26976825026720763,-0.2083992970690131
1733861316996293600,0.146293701171875,-0.5374930120080709,0.3886372428083792,-0.23048837928026913
1733861317006243600,0.15624365234375,-0.621145693206787,0.4676596703905612,-0.2443301498889923
1733861317016194300,0.1661943359375,-0.6020657296836376,0.47601774889118964,-0.2918199230775237
1733861317026145500,0.1761455078125,-0.4398340172886848,0.4850986252410337,-0.3418023898646235
1733861317036097000,0.186096923828125,-0.3316495369017124,0.43744840079378333,-0.30127544142603874
1733861317046048000,0.196048095703125,-0.23306816664040086,0.4350936178285628,-0.18429682920873164
1733861317055999000,0.2059990234375,-0.0754290427327156,0.4732863511659205,-0.07530337052643299
1733861317065949000,0.215948974609375,0.10766893208026886,0.4886901834595948,0.02827098571658134
1733861317075900200,0.225900146484375,0.13728490266501903,0.5049772283285856,0.20886457649320364
1733861317085851000,0.235850830078125,0.06841127292513847,0.23029833660088478,0.5730553237766027
1733861317095802000,0.245802001953125,0.11956336801350116,0.2704602145867422,0.657151657089591
1733861317105752800,0.2557529296875,0.09722820208668709,0.4233205797852948,0.9583195464879274
1733861317115704000,0.2657041015625,0.1776718581110239,0.43356878288146106,1.2685560007438064
1733861317125654000,0.275654052734375,0.2806646150738001,0.43332036107834426,1.4040364843353628
1733861317135605000,0.28560498046875,0.3452572064936161,0.4113998038344085,1.4258841590061784
1733861317145556000,0.295555908203125,0.3252542829066515,0.42830077935066074,1.4305410449013114
1733861317155507200,0.305507080078125,0.15098726480305194,0.43949046454802154,1.4245704460591078
1733861317165458000,0.3154580078125,-0.11938684240281582,0.49770953888054936,1.378797121399641
1733861317175409200,0.3254091796875,-0.37395021701455117,0.5960598768649622,1.1810396298542618
1733861317185359000,0.335359130859375,-0.6141027889579534,0.675876231303811,0.8265291495859622
1733861317195310000,0.34531005859375,-0.7483113529175519,0.6818648041941225,0.42326282171607016
1733861317205261000,0.355260986328125,-0.7673872247874737,0.656880292802304,0.04019771648421883
1733861317215212000,0.3652119140625,-0.7661562216877937,0.6310747473511844,-0.2738632644958794
1733861317225163000,0.3751630859375,-0.7849275576531887,0.6299127908997237,-0.5227690517373382
1733861317235113200,0.38511328125,-0.6226701262950897,0.6312064839720726,-0.7580842666521668
1733861317245064000,0.39506396484375,-0.4646387881994247,0.5871797107189893,-0.9109700585529208
1733861317255015200,0.40501513671875,-0.44106502038836476,0.5588096850747242,-0.983192852590233
1733861317264966000,0.4149658203125,-0.3983475761681795,0.5028507742265239,-0.9936091787949204
1733861317274917000,0.424917236328125,-0.23838614679276943,0.4478831029053777,-0.9008842794768511
1733861317284868000,0.4348681640625,-0.1282236443310976,0.44008152577634896,-0.7315142396345734
1733861317294818000,0.444818115234375,-0.12902210123240948,0.4158453850664198,-0.5565671303123235
1733861317304769000,0.45476904296875,-0.025872692403197287,0.4259142495403066,-0.3899085413858294
1733861317314720000,0.464719970703125,0.06085866558849811,0.45897305405531075,-0.22142960516437887
1733861317324671000,0.4746708984375,0.09371581005156039,0.4470312353163957,-0.1056061543315649
1733861317334622200,0.484622314453125,0.24744740512669086,0.4358212379833683,-0.08409662557393312
1733861317344573000,0.494572998046875,0.33661095870137214,0.43914099352322516,-0.15296733270436524
1733861317354523000,0.50452294921875,0.38524902514219284,0.46301542478129265,-0.1383507783308625
1733861317364474000,0.51447412109375,0.4380915575355291,0.526655391651392,-0.022714082241803407
1733861317374424800,0.5244248046875,0.5061024329662323,0.46434875574428586,0.09421908339858054
1733861317384376000,0.5343759765625,0.519476878324151,0.40652372223064304,0.20547493405491113
1733861317394327000,0.5443271484375,0.47457916745543477,0.3757875154443085,0.22527480935044586
1733861317404278000,0.554278076171875,0.41949850074648853,0.3488211095202714,0.1431019914459437
1733861317414228000,0.56422802734375,0.37370647138655183,0.3853549332020804,0.07880560649372637
1733861317424179200,0.57417919921875,0.24029753337204454,0.4030293042436242,0.1008076680086553
1733861317434130000,0.5841298828125,0.15474281794428824,0.3500598940676078,0.15292298210598526
1733861317444081200,0.5940810546875,0.1162023671478033,0.2446969008421525,0.28695268236733973
1733861317454032000,0.604031982421875,0.11153495985865593,0.03528071834817528,0.42456115443091835
1733861317463982000,0.613982177734375,-0.06988017643392086,0.009847969998512417,0.5334857491280883
1733861317473933000,0.62393310546875,-0.019245383217930793,0.027193383080326018,0.5290665444463492
1733861317483884000,0.633884033203125,0.11162146909832954,0.049332167918514455,0.4200057561488822
1733861317493835000,0.6438349609375,0.11669687266647814,0.06864579406706615,0.2995042670350522
1733861317503786000,0.653785888671875,0.029544658914208412,0.089883282683976,0.14541390338381752
1733861317513737000,0.663737060546875,-0.04738835864067077,0.0890145370254293,0.01353681457908824
1733861317523687200,0.673687255859375,-0.16252046620845795,0.04789798866324126,-0.04930317928604781
1733861317533638000,0.683637939453125,-0.31046646361947056,-0.09262748509189113,-0.02857833463270217
1733861317543589000,0.693589111328125,-0.6362023925632238,-0.14741422862187026,0.08234411935079843
1733861317553540000,0.7035400390625,-0.6300228271454572,-0.14168875451399943,0.026281054008379576
1733861317563491000,0.713490966796875,-0.10005027377009391,-0.1664660620290786,-0.1338444068223238
1733861317573442000,0.723442138671875,0.2748819400191307,-0.24574904024358837,-0.368294821601361
1733861317583392300,0.733392333984375,0.42342707236707205,-0.26991401541344817,-0.7275014237966388
1733861317593343000,0.743343017578125,0.35076281817257404,-0.27198965264372527,-1.1383491467062383
1733861317603294200,0.753294189453125,0.09279460355341435,-0.28681358442390337,-1.4513801270514726
1733861317613245000,0.763244873046875,-0.008396656945347785,-0.24529786240998655,-1.4379226795852182
1733861317623196200,0.773196044921875,0.0034878421157598493,-0.17978137934459373,-1.0283262719109654
1733861317633147000,0.78314697265625,-0.037112463819980616,-0.0917021321415901,-0.344095469237864
1733861317643096800,0.793096923828125,-0.08758475995063782,-0.08026988862631843,0.38235176933072507
1733861317653048000,0.803048095703125,-0.02761807476580143,-0.14605702359294517,1.02325408321321
1733861317662999000,0.8129990234375,0.10133213027417659,-0.36373701216652987,1.4024495074048637
1733861317672950000,0.822949951171875,0.23352117110490797,-0.5874251003148034,1.542936859373003
1733861317682901200,0.8329013671875,0.4701204344809055,-0.7515561800576745,1.516415055411309
1733861317692852000,0.84285205078125,0.7655892354547977,-0.8232177600156515,1.4036492385834454
1733861317702802000,0.852802001953125,0.8062368876636028,-0.865496155231446,1.2346885101944207
1733861317712753200,0.862753173828125,0.6628519145578146,-0.9221348650373518,1.0405756587617099
1733861317722704000,0.872703857421875,0.5006505973011255,-1.0495398864619434,0.8094726547144353
1733861317732655000,0.882655029296875,0.29936580841243265,-1.1924040505640208,0.6173739195831119
1733861317742605800,0.892605712890625,0.11762860055863857,-1.322888625564426,0.45290524191632864
1733861317752557000,0.90255712890625,-0.026740707409381864,-1.3737600040152669,0.40547947387471794
1733861317762507000,0.912507080078125,-0.13690847056806088,-1.3859601448968053,0.4243712213493883
1733861317772458000,0.9224580078125,-0.13126257363557814,-1.3194713644668459,0.5168786785244941
1733861317782409000,0.932408935546875,0.010021043276786804,-1.229132337372005,0.5940251926995813
1733861317792360200,0.942360107421875,0.1193354044765234,-1.0718642387337982,0.5957913255892694
1733861317802311000,0.952310791015625,0.15719547179341314,-0.9232570009350776,0.5022977799862622
1733861317812262100,0.96226220703125,0.18125380825102327,-0.8029725521054119,0.29442616005316374
1733861317822212000,0.972212158203125,0.18206220202445983,-0.7066447329245508,0.11577815038636326
1733861317832163000,0.9821630859375,0.1203717617869377,-0.6445642704561352,0.011508943746984005
1733861317842114000,0.992114013671875,0.03307984730303287,-0.625829905500263,-0.10181830635592341
1733861317852065000,1.00206494140625,-0.016207622957229613,-0.5895228763116523,-0.1192969721622765
1733861317862016000,1.01201611328125,-0.026333295652270317,-0.548909455166012,-0.027282413070648905
1733861317871966200,1.02196630859375,0.005713116949796676,-0.4905825000122189,0.07307488082200288
1733861317881917000,1.0319169921875,0.054012160694599146,-0.4073545470315963,0.12786533241271972
1733861317891868200,1.0418681640625,0.052366147053241725,-0.32187004729583857,0.11285042637139558
1733861317901819000,1.05181884765625,-0.021174889975786208,-0.20353337153308093,0.0021206454157829285
1733861317911770000,1.06177001953125,-0.10804828678667544,-0.0923541663095355,-0.16499124023616313
1733861317921721000,1.07172119140625,-0.17221359270513056,0.025583956856001167,-0.2975742488205433
1733861317931671000,1.081671142578125,-0.2211941889733076,0.09553168210079893,-0.39677696585059163
1733861317941622000,1.0916220703125,-0.2427875966221094,0.15802330091968178,-0.4155892183482647
1733861317951573200,1.1015732421875,-0.2713929288595915,0.17906387872500343,-0.399586762574315
1733861317961524000,1.11152392578125,-0.3102794166147709,0.18105465068342164,-0.32350890054404735
1733861317971475200,1.12147509765625,-0.34341187088787556,0.18101179792238398,-0.23724428328126668
1733861317981426000,1.131426025390625,-0.3354039209991693,0.1877957041751593,-0.1709904806509614
1733861317991376000,1.1413759765625,-0.29546354027688504,0.180597992957104,-0.11688070480078458
1733861318001327000,1.1513271484375,-0.17670973508059978,0.19257254492184145,-0.09236088831126689
1733861318011277800,1.16127783203125,-0.02227788278162479,0.195335598160699,-0.10990297474265098
1733861318021229000,1.17122900390625,0.06900573168694972,0.1957609109006822,-0.13493570919036865
1733861318031180000,1.181179931640625,0.08832301109731197,0.21911051456704733,-0.13344400932788847
1733861318041132800,1.1911328125,0.08208733157813548,0.22890209646951407,-0.14224018698483704
1733861318051082500,1.20108251953125,0.017798691540956497,0.23818255051206796,-0.15324702642858026
1733861318061033700,1.21103369140625,-0.018962474623322487,0.25837219231016934,-0.11720920610278844
1733861318070984700,1.220984619140625,-0.056498132291436194,0.2607578088050708,-0.09662029932141303
1733861318080935700,1.230935791015625,-0.07917232091426848,0.27686359708933156,-0.06234978092908859
1733861318090886700,1.24088671875,-0.09220189835727215,0.26269016510713844,-0.05731266354471445
1733861318100837600,1.250837646484375,-0.05438625470399856,0.24223905936125664,-0.034548458550870416
1733861318110787600,1.26078759765625,-0.007186112111806869,0.17941121259164064,-0.03291238178163767
1733861318120738800,1.27073876953125,0.06464402934610844,0.11331770595642737,-0.017380758389830588
1733861318130689500,1.280689453125,0.09259352802336215,0.08512233362616971,-0.029883973871171473
1733861318140640800,1.290640869140625,0.08611351835429668,0.13504785519479773,-0.013391688753664492
1733861318150591500,1.300591552734375,0.11191373004317283,0.17590057412218302,-0.0008612930044531821
1733861318160542700,1.310542724609375,0.0917465558052063,0.17571462309602648,0.008341419626772404
1733861318170492700,1.32049267578125,0.033088030609488485,0.1859841612411663,-0.018408640132844448
1733861318180443600,1.330443603515625,-0.04547112684249878,0.2100180573772639,-0.054203007091581816
1733861318190394600,1.34039453125,-0.1248947921693325,0.235704232498724,-0.0739864427089691
1733861318200345900,1.350345947265625,-0.19643910242319107,0.25225045802686363,-0.08235854973495006
1733861318210296600,1.360296630859375,-0.2248275770395994,0.2563034414784051,-0.0764572167366743
1733861318220246500,1.37024658203125,-0.2142307797014713,0.24223418225673957,-0.07692483424842357
1733861318230197800,1.38019775390625,-0.19153905542194843,0.2323582282727584,-0.08274550322592258
1733861318240148500,1.3901484375,-0.16581249349117277,0.1938934730609879,-0.06381283921897411
1733861318250099700,1.400099609375,-0.14622516496777532,0.17279756660554557,-0.05215162751972675
1733861318260050400,1.410050537109375,-0.10992694014012813,0.12399188851285725,-0.05231850851923227
1733861318270001700,1.420001708984375,-0.05208148489296436,0.07679254050510935,-0.0009697218149900435
1733861318279951600,1.42995166015625,0.007301847445964813,0.019057961753895507,0.05915741462856531
1733861318289902600,1.439902587890625,0.0548901125729084,-0.007576572734117507,0.10184709405899048
1733861318299853600,1.449853515625,0.09747487032413482,-0.05170502539654262,0.16040595827251672
1733861318309804800,1.4598046875,0.1369552323192358,-0.07353159791382495,0.22250351800620555
1733861318319755500,1.469755615234375,0.17803543072640896,-0.07665683096200228,0.2519134446248412
1733861318329706800,1.479706787109375,0.20190496661365032,-0.07414511756913271,0.2272092114791274
1733861318339656700,1.48965673828125,0.21830606631636618,-0.05465772858913988,0.19407880303263664
1733861318349607700,1.499607666015625,0.19451836349368093,-0.03905128182887565,0.11230886684060096
1733861318359558700,1.50955859375,0.2254202822357416,-0.04642895272371825,0.007976093445718289
1733861318369509600,1.519509521484375,0.255904852348566,-0.09408545621470547,-0.11292933682650327
1733861318379460600,1.529460693359375,0.2427092706888914,-0.1335780657700263,-0.20069091464877128
1733861318389411600,1.53941162109375,0.1991436852067709,-0.19510294018229468,-0.2486778237044811
1733861318399361500,1.549361572265625,0.1549228506863117,-0.2047948428362608,-0.27254882089644666
1733861318409312800,1.559312744140625,0.1031359648257494,-0.20522479521874337,-0.31348581144064663
1733861318419263500,1.569263427734375,0.040811318337917325,-0.21595214186767114,-0.348785965141654
1733861318429214700,1.579214599609375,-0.039358781442046166,-0.17593482345165684,-0.3557186870142817
1733861318439165700,1.589165771484375,-0.12841478298902512,-0.09135905432496219,-0.35239129615724085
1733861318449116700,1.59911669921875,-0.18696166450381277,0.01571906540544005,-0.3533642328426242
1733861318459066600,1.609066650390625,-0.16667817040979863,0.1116732358181849,-0.3422951418176293
1733861318469017900,1.619017822265625,-0.11053133577406406,0.13363212491166776,-0.33998540357053275
1733861318478968600,1.628968505859375,-0.03545709782838821,0.08970101231909357,-0.36286183676719663
1733861318488919800,1.638919921875,-0.018043606212735173,0.048456165968696584,-0.37962358647584915
1733861318498870500,1.64887060546875,-0.03531038283407688,0.017161962256708647,-0.3908513751938939
1733861318508820500,1.658820556640625,-0.07493336817026137,-0.032087781225494105,-0.40003976703882216
1733861318518771700,1.668771728515625,-0.06814180833399296,-0.07456037927255965,-0.38453152452260253
1733861318528722700,1.67872265625,-0.07916472212970256,-0.10586749954833649,-0.37052374969720836
1733861318538673700,1.688673583984375,-0.07094049914181232,-0.11493268513870425,-0.3303229644730687
1733861318548624600,1.698624755859375,-0.05588964500427246,-0.14432499390225856,-0.25362375567406414
1733861318558575600,1.70857568359375,-0.02783493238687515,-0.1601005821177736,-0.20759382590502498
1733861318568525600,1.718525634765625,0.01329728846848011,-0.1484979322053492,-0.20263503445386885
1733861318578476500,1.7284765625,0.058520578029751774,-0.15797142460197208,-0.16378157218545675
1733861318588427500,1.738427490234375,0.07982230925559997,-0.14558582588462157,-0.1211912614762783
1733861318598378800,1.748378662109375,0.07389642633795737,-0.10615717581044883,-0.058740942782163616
1733861318608329500,1.75832958984375,0.048073418295383454,-0.07545504025707486,0.0027358547046780583
1733861318618280700,1.76828076171875,-0.03164543058574199,-0.03086001126251649,0.047887248073518275
1733861318628230700,1.778230712890625,-0.0837204857379198,-0.009433279117243364,0.08805909946411848
1733861318638181600,1.788181640625,-0.07361468678712844,-0.017751699177629778,0.13747487227916716
1733861318648132600,1.798132568359375,-0.0573474425971508,-0.025908403037395326,0.17770196098834276
1733861318658083600,1.80808349609375,-0.048718145939707753,-0.000004717274312861264,0.19908289493024348
1733861318668034600,1.81803466796875,-0.0035042087286710735,0.05174424316207878,0.2033402601137757
1733861318677985800,1.82798583984375,0.015250760623812674,0.06458235772016924,0.20775690751224754
1733861318687935500,1.837935546875,0.038379707276821134,0.06501607752889395,0.16837825232595205
1733861318697886700,1.84788671875,0.03639817807078361,0.05515775053314864,0.1403933900743723
1733861318707837700,1.857837646484375,-0.005140285497903824,0.048171864568023005,0.11016805541962385
1733861318717788700,1.86778857421875,-0.017630933758616445,0.027950622055260464,0.040733284665644166
1733861318727739600,1.87773974609375,-0.023848493099212643,-0.011052295153820887,-0.05080138195455074
1733861318737690600,1.887690673828125,-0.006851181069016456,-0.06450031002648174,-0.12418635163903236
1733861318747640600,1.897640625,0.013890578186511992,-0.07798862755503505,-0.16781214287579058
1733861318757591800,1.907591796875,0.01928337714076042,-0.057156952393194654,-0.13272884679585695
1733861318767542500,1.91754248046875,-0.008685410758852959,0.010323323292145505,-0.08492986152768135
1733861318777493800,1.92749365234375,-0.021565350598096847,0.08413269240115769,-0.04025573028177023
1733861318787444500,1.937444580078125,-0.00037117139995098113,0.14486133840181864,0.025372633926570413
1733861318797395700,1.947395751953125,0.044776130315661425,0.17076153073329478,0.0906245660379529
1733861318807345700,1.957345703125,0.10219196197390555,0.2364477626087144,0.14200126366242766
1733861318817296600,1.967296630859375,0.08307984974682331,0.18985829926077274,0.16970628605931995
1733861318827247600,1.97724755859375,0.08191898927390574,0.22188226256901397,0.35886195347607136
1733861318837198800,1.98719873046875,0.03745966982245445,0.24051839131480082,0.44725057715550065
1733861318847149600,1.997149658203125,0.016544307565689087,0.1976651736194268,0.48393429416939615
1733861318857100800,2.007100830078125,0.001793313157558441,0.0976269008143805,0.494860615722835
1733861318867050800,2.01705078125,0.03815992704629898,0.00022664836272597312,0.5032835761532187
1733861318877001700,2.027001708984375,0.06645195555090903,-0.02681676832027733,0.4619159391067922
1733861318886952700,2.03695263671875,0.017257424271106717,-0.01718116243081167,0.34672961713373657
1733861318896903700,2.046903564453125,-0.02209726551771164,-0.030386132973339405,0.20800006861835718
1733861318906854700,2.056854736328125,-0.09344868354797363,-0.010249025080073625,0.09531652324646711
1733861318916804600,2.0668046875,-0.13223930971324444,-0.004468742911890149,0.006963847663253545
1733861318926755600,2.076755615234375,-0.1285328564107418,-0.006453048596903681,-0.046563013732433316
1733861318936706600,2.08670654296875,-0.08598843066990375,-0.000031363252643495796,-0.037151188395172355
1733861318946657500,2.096657470703125,-0.042918519750237465,-0.013027860409952699,-0.004115764755755663
1733861318956608500,2.1066083984375,0.008902852901816367,-0.017824209574703126,0.058844987678527826
1733861318966559700,2.116559814453125,0.051042789494991296,-0.006951426573097706,0.17802300963625312
1733861318976509700,2.126509765625,0.08507365391254425,-0.00869068972216919,0.31811683224216103
1733861318986460700,2.136460693359375,0.15408756890594957,-0.028986111715994772,0.42014322839081286
1733861318996411600,2.14641162109375,0.19320669637322424,0.022890059863217172,0.5311370671100915
1733861319006362600,2.156362548828125,0.17879530918300152,0.03795304282996803,0.5715773601785302
1733861319016313600,2.166313720703125,0.12450608511269091,-0.025517704953067002,0.6162434542484581
1733861319026264600,2.1762646484375,0.06352876158058643,0.021831234992668033,0.7053234211929142
1733861319036212700,2.186212646484375,0.04814297640025615,0.016262933341041206,0.7058411614567041
1733861319046163500,2.19616357421875,-0.007046411380171776,-0.006386522699333727,0.687729312313348
1733861319056114700,2.20611474609375,-0.10516484030485153,-0.02063928526174277,0.6579241027668118
1733861319066065700,2.216065673828125,-0.18694705145657062,-0.03931026612520218,0.5611228939205408
1733861319076016600,2.2260166015625,-0.25187983461618424,-0.05634093243572861,0.46112171998918056
1733861319085967600,2.235967529296875,-0.28178806614577767,-0.08122472339943052,0.3663781743250787
1733861319095917800,2.245917724609375,-0.2675081963807344,-0.09103826140537857,0.26214871517419813
1733861319105868500,2.25586865234375,-0.23539982445836066,-0.07824289457704871,0.1951540310487151
1733861319115819800,2.26581982421875,-0.18887655821442603,-0.07008008292019367,0.15713073599413035
1733861319125770500,2.2757705078125,-0.145931150457263,-0.031867877697385846,0.13239113927409052
1733861319135721700,2.2857216796875,-0.13082593578398227,0.009627185120992362,0.08269917986616492
1733861319145672400,2.29567236328125,-0.08789104942083359,0.02075392461735755,0.060083297301828854
1733861319155622700,2.30562255859375,-0.0552735589325428,0.0629142098788172,0.024360972665995358
1733861319165573600,2.31557373046875,0.00857552064359188,0.08512348440364002,-0.049983197439461946
1733861319175524600,2.325524658203125,0.05997136135995388,0.073429466413334,-0.13941855369284747
1733861319185475600,2.3354755859375,0.09611585693061352,0.06737202953789383,-0.25696692862212656
1733861319195426800,2.3454267578125,0.10165712444484233,0.054176520943455396,-0.3527117602832615
1733861319205377500,2.35537744140625,0.10780103402733802,0.09105166887622326,-0.45320188677534456
1733861319215327700,2.36532763671875,0.05813362453877925,0.13722539103012532,-0.5419046909704804
1733861319225278700,2.37527880859375,0.020755787780880927,0.19334705469198524,-0.584308246935904
1733861319235229700,2.385229736328125,-0.01881634415090084,0.2599313313856721,-0.5827833754561841
1733861319245180700,2.3951806640625,-0.06862053176164627,0.31517007473316044,-0.5389557780370116
1733861319255131600,2.405131591796875,-0.0645931759417057,0.3505577971197665,-0.5135547947987914
1733861319265082600,2.41508251953125,-0.060764557564258574,0.34115419162157923,-0.4930896605275571
1733861319275032800,2.42503271484375,-0.04991466224789619,0.31354115835707635,-0.4991970374919474
1733861319284983600,2.434983642578125,-0.01627659654021263,0.2587791291432455,-0.5323064031504094
1733861319294934800,2.444934814453125,0.0036281273692846294,0.210233307563141,-0.5439645461097359
1733861319304885500,2.454885498046875,-0.012308277431130409,0.18123685711622237,-0.5406126053333282
1733861319314836700,2.464836669921875,0.008250526472926139,0.14313790300954132,-0.5297700165405869
1733861319324786700,2.47478662109375,0.015301029506325722,0.10613770392499863,-0.49679012248069043
1733861319334737700,2.484737548828125,0.009517185407876967,0.06199008077122271,-0.4844324529498815
1733861319344688600,2.494688720703125,-0.022799276307225225,0.0008761252474039792,-0.4484028159305453
1733861319354640000,2.504639892578125,-0.053392567491531366,-0.05163308353833854,-0.41046588398516176
1733861319364590600,2.514590576171875,-0.054908232751488685,-0.07752415184844284,-0.3775488260284066
1733861319374541800,2.524541748046875,-0.04839081368148326,-0.08436601709984243,-0.3323246596843004
1733861319384491800,2.53449169921875,-0.012625672817230224,-0.0814885985000059,-0.3014332623362541
1733861319394442500,2.5444423828125,-0.0005757540613412857,-0.08926642942726612,-0.28356325912475583
1733861319404393700,2.554393798828125,0.02025017634630203,-0.08134849590957165,-0.2613613641887903
1733861319414344400,2.564344482421875,0.038545126971602436,-0.07079564731102436,-0.24674510207623243
1733861319424295700,2.574295654296875,0.025164251872897146,-0.06648494450505822,-0.24362229388058185
1733861319434246700,2.58424658203125,0.012096095985174178,-0.07047109153177589,-0.21099983495622873
1733861319444196600,2.594196533203125,-0.019986556974053382,-0.04627086238544434,-0.16434475902616977
1733861319454147600,2.604147705078125,-0.03198737589120865,0.015502178101614117,-0.10010068878307939
1733861319464098800,2.614098876953125,-0.07517828284204006,0.07281517043989151,-0.006488777497410773
1733861319474049500,2.624049560546875,-0.10356617293655872,0.11832841939106582,0.09737330964580178
1733861319484000800,2.634000732421875,-0.10596095911860465,0.1271280311141163,0.17641440539583564
1733861319493951500,2.643951416015625,-0.09090192167460918,0.09447104886565356,0.25995135126039387
1733861319503901700,2.653901611328125,-0.04374737178981304,0.0600694149069488,0.31611455250903964
1733861319513852700,2.663852783203125,-0.004048398607969284,0.05432659693863243,0.38558527135923504
1733861319523803600,2.6738037109375,-0.004014496338367462,0.009257219297438859,0.4081986697055399
1733861319533754600,2.683754638671875,-0.015969722548127174,-0.013062675995007156,0.4231017859354615
1733861319543705600,2.69370556640625,-0.05350771830379963,-0.03989263259042054,0.3944249958969652
1733861319553656600,2.703656494140625,-0.07552841145396232,-0.01656695778891444,0.3943899245835841
1733861319563606800,2.713606689453125,-0.09592121114134788,0.053957617495767767,0.3744346395306289
1733861319573557500,2.7235576171875,-0.11647066269516944,0.12778938109967858,0.30591245357692237
1733861319583508700,2.7335087890625,-0.10128712208867073,0.14852050936333835,0.2583975459471345
1733861319593459700,2.743459716796875,-0.078365680706501,0.16941599787585437,0.1978948541894555
1733861319603410700,2.75341064453125,-0.038865444967150685,0.12072181733362376,0.12493249383121728
1733861319613361700,2.763361572265625,0.029961423021554946,0.05695606865938752,0.08081833455562591
1733861319623312000,2.773311767578125,0.10893091484010219,0.03724306792970747,0.0754708360478282
1733861319633262600,2.7832626953125,0.1828384470939636,0.033075792182423173,0.0389019775852561
1733861319643213800,2.7932138671875,0.1882581340551376,0.01815828210096806,0.017584610398858783
1733861319653164500,2.80316455078125,0.18459727346003055,0.007445493700355291,-0.043534898082911964
1733861319663115800,2.81311572265625,0.12532792288959024,-0.03821629687603563,-0.11724909972175955
1733861319673066500,2.82306640625,0.060845221585035324,-0.06730506524890661,-0.16744681669473646
1733861319683016400,2.833016357421875,0.027710429224371908,-0.10718297519423067,-0.20616379310190677
1733861319692967700,2.8429677734375,0.02942132479548454,-0.16273005383852868,-0.2133686099141836
1733861319702918700,2.852918701171875,0.05152385101020336,-0.18007099167462437,-0.1814133827269077
1733861319712869600,2.86286962890625,0.07068798568546772,-0.18101926884278655,-0.15851590674221513
1733861319722820900,2.87282080078125,0.0748585493683815,-0.17039477978013454,-0.16689795064032076
1733861319732771600,2.882771484375,0.04734276593327522,-0.1452021420629695,-0.18289397667348384
1733861319742721500,2.892721435546875,0.01495733063519001,-0.11577654295116663,-0.19093787465840578
1733861319752672800,2.9026728515625,-0.03197685449719429,-0.08616619838960468,-0.14816227051019668
1733861319762623500,2.91262353515625,-0.06622633010149001,-0.10456800692286342,-0.13628800058215856
1733861319772574700,2.92257470703125,-0.0773205555677414,-0.11200977429617195,-0.11561463038772343
1733861319782525400,2.932525390625,-0.0632990444779396,-0.15543193271961062,-0.06526303802728653
1733861319792476700,2.9424765625,-0.06426993533670902,-0.18055702162589876,-0.032312077800929546
1733861319802426600,2.952426513671875,-0.07172960369288921,-0.17693086701799182,0.007155424712598324
1733861319812377600,2.962377685546875,-0.07357610834240913,-0.13083400949258356,0.026625264336168766
1733861319822328600,2.97232861328125,-0.0578004470616579,-0.10534315601382405,0.03159603848606348
1733861319832279800,2.98227978515625,-0.028531097957491872,-0.0789016872793436,0.03148293350040912
1733861319842230500,2.99223046875,-0.025648820519447325,-0.0650373395126313,0.01569762760847807
1733861319852181800,3.002181640625,-0.01575286492705345,-0.04399513600580394,0.022847207102179527
1733861319862131700,3.012131591796875,-0.036029344758391375,-0.03923270737696439,0.032627427360415455
1733861319872082700,3.022082763671875,-0.018151742762327193,-0.01664071714486927,0.06021569150984287
1733861319882033700,3.03203369140625,-0.0045364743858575815,-0.009784531107172369,0.08089344561845063
1733861319891984600,3.041984619140625,-0.008015548673272132,0.007647701741568744,0.07776771481335162
1733861319901935600,3.051935546875,-0.000017535656690597534,0.0169622772494331,0.06628039837628602
1733861319911885800,3.0618857421875,-0.022160393881797788,0.03252539175804704,0.04034136273860931
1733861319921836500,3.07183642578125,-0.03548983105421066,0.05050915754232555,0.025220073713362216
1733861319931787800,3.081787841796875,-0.02740881592929363,0.06945004138834775,0.01123158811032772
1733861319941738500,3.091738525390625,-0.04174246170818805,0.09608305063955486,0.03374415643066168
1733861319951689700,3.101689697265625,-0.042457916501164435,0.11202515452839433,0.03405775242447853
1733861319961640700,3.111640625,-0.02699848156273365,0.1525073139771819,0.016210253305733203
1733861319971590700,3.121590576171875,-0.022539748588204383,0.1565254635773599,0.016813479895889757
1733861319981541600,3.131541748046875,-0.018123685711622237,0.14253515134342015,0.002388356441259384
1733861319991492900,3.141492919921875,-0.0451999086856842,0.14457294078134,-0.013184475743770598
1733861320001443600,3.151443603515625,-0.05157587345838546,0.13321213680077343,-0.0003007365122437477
1733861320011394800,3.161394775390625,-0.05847323175668716,0.13074220302328465,-0.009248889860510826
1733861320021345500,3.171345458984375,-0.04916647422909736,0.14113931307084857,0.010147007744014263
1733861320031295500,3.18129541015625,-0.05639467191696167,0.1693028928902,0.0483808768093586
1733861320041247000,3.1912470703125,-0.038922728112339974,0.1810426862509921,0.07153729599118232
1733861320051198000,3.201197998046875,-0.021122283005714414,0.18956611138116566,0.06823153244405984
1733861320061149000,3.21114892578125,-0.00796644883453846,0.18358674471061676,0.06581716477870941
1733861320071100000,3.221099853515625,0.007460837399959563,0.16039598486777393,0.029235739095509052
1733861320081051000,3.23105078125,0.019411387434601784,0.13570450160577893,-0.01711275510340929
1733861320091000800,3.241000732421875,0.024341245052218435,0.10555734675377607,-0.0555719573572278
1733861320100951800,3.250951904296875,0.015036241090297699,0.09243037335090339,-0.09131605543345213
1733861320110902800,3.26090283203125,-0.00175415019094944,0.08644501533098518,-0.1104573937550187
1733861320120854000,3.27085400390625,0.010950433081388473,0.08397804069556296,-0.10510697263777255
1733861320130805000,3.280804931640625,0.01332300743162632,0.0466324622394517,-0.09312398163825272
1733861320140756000,3.290755859375,0.014790741896629333,-0.00032967034578323365,-0.09781155493259429
1733861320150706000,3.300705810546875,0.01165770456790924,-0.020359116613492368,-0.10581132151484489
1733861320160657000,3.310656982421875,0.022094342908263204,-0.027143077665194866,-0.1362254567399621
1733861320170607900,3.32060791015625,0.049640521481633185,-0.043475897904671726,-0.17338877396434543
1733861320180558800,3.330558837890625,0.03285597541928291,-0.06356335796993226,-0.221010649099946
1733861320190509800,3.340509765625,0.016164952859282492,-0.04427406254503876,-0.2833691978573799
1733861320200460800,3.350460693359375,0.03194645935893058,-0.05292465771883726,-0.2926578352063894
1733861320210410800,3.36041064453125,0.019823475366830826,-0.06253467250932007,-0.28699644844383
1733861320220362000,3.370362060546875,0.013064648756384849,-0.045963988393358884,-0.2570800336077809
1733861320230312700,3.380312744140625,0.0159989486426115,-0.020668694019317625,-0.18807693226933478
1733861320240264000,3.390263916015625,0.03236965320706367,-0.007890935912914574,-0.11189356403797865
1733861320250215000,3.40021484375,0.005424363136291504,-0.022446736542508006,-0.02859042692929506
1733861320260166000,3.410165771484375,-0.015194646522402763,-0.0628601781366393,0.009882511588931083
1733861320270115800,3.42011572265625,-0.049635260784626004,-0.07882215576972812,0.03844546598941088
1733861320280067000,3.430067138671875,-0.06037585050761699,-0.09249773949868977,0.08504939625412225
1733861320290017800,3.440017822265625,-0.032844869503378865,-0.06269150703884661,0.08967968640327453
1733861320299969000,3.449968994140625,-0.026805589339137077,-0.009704853467084466,0.09538520456850529
1733861320309919700,3.459919677734375,-0.005372340688109397,0.023132417251728474,0.08656330794841051
1733861320319871000,3.46987109375,-0.018355156379938124,0.027927798302099106,0.08633592893332243
1733861320329821000,3.479821044921875,-0.013002104914188383,0.03674045216981321,0.10290303285270928
1733861320339772000,3.48977197265625,-0.013420038065314293,0.0340690410034731,0.09755290399640798
1733861320349723000,3.499722900390625,0.006087210959196091,0.034967122354358435,0.08700754458457231
1733861320359673900,3.509673828125,0.015839374166727066,0.05438826399799436,0.07678893290907145
1733861320369624800,3.519624755859375,0.0025496844828128812,0.08132369026187806,0.054711541135609144
1733861320379576000,3.529576171875,-0.014999416211247443,0.09126311966981739,0.03474719599336386
1733861320389526000,3.539526123046875,-0.007462590965628624,0.08822419036533682,0.024500819528102874
1733861320399477000,3.54947705078125,-0.004789572364091873,0.09268920695018022,0.010085048423707485
1733861320409428000,3.559427978515625,-0.020688567763566968,0.10460329743195325,-0.019224340429902075
1733861320419379000,3.56937890625,-0.012762450939416884,0.07463723476789891,-0.03620908523947
1733861320429330000,3.579329833984375,-0.022971710264682768,0.05566113347802311,-0.026588439457118508
1733861320439281000,3.589281005859375,-0.027775311154127118,0.03227883311845362,-0.032361177639663216
1733861320449230800,3.59923095703125,-0.002289572241902351,0.021227131619676945,0.006672609631717205
1733861320459181800,3.609181884765625,-0.0014186346262693404,0.0066120020182803265,0.032409692956507204
1733861320469132800,3.6191328125,0.0020738836646080018,0.0072643649797886605,0.027612229546904562
1733861320479084000,3.629083984375,0.011046879193186759,0.012986980410292745,0.014018588480353355
1733861320489035000,3.639034912109375,-0.020208675292134284,0.010775514905899763,-0.0020835282757878304
1733861320498986000,3.648986083984375,-0.03215980984866619,0.005370258328877389,-0.0296627323359251
1733861320508936000,3.65893603515625,-0.04200608108043671,-0.013467968860268593,-0.06526946776807308
1733861320518887000,3.668886962890625,-0.016526771908998487,-0.02439918578453362,-0.07552782693207263
1733861320528838000,3.678837890625,-0.013289689683914184,-0.043341275206953286,-0.0757929076090455
1733861320538788900,3.688788818359375,-0.017627426627278328,-0.049033057107776404,-0.10014496631622313
1733861320548739800,3.69873974609375,-0.013467968860268593,-0.04842168374378234,-0.09509469718933104
1733861320558690800,3.70869091796875,-0.010140870264172553,-0.045404272151365874,-0.07294891635477542
1733861320568641000,3.71864111328125,0.0030208091259002682,-0.0433501526331529,-0.07485884162932634
1733861320578591700,3.728591796875,-0.018255787658691406,-0.05059906431548297,-0.0672293696641922
1733861320588543000,3.73854296875,-0.01790215191543102,-0.025060499237477777,-0.0794619515106082
1733861320598493700,3.74849365234375,0.009286883783340454,-0.008454488079808652,-0.0938879517480731
1733861320608445000,3.75844482421875,0.01927811644375324,-0.0032299583645537494,-0.10787760639488696
1733861320618396000,3.76839599609375,0.009556932896375655,0.006793897923827171,-0.0961009516224265
1733861320628345900,3.778345947265625,-0.008405424773693083,0.01935271604992449,-0.07994564337432385
1733861320638296800,3.788296875,-0.026475334471464156,0.03413322881348431,-0.04962883104383945
1733861320648248000,3.798248046875,-0.00713467418551445,0.04525160234030336,-0.024118834473192692
1733861320658198800,3.80819873046875,-0.017314122894406318,0.03721095575839281,-0.004364624950289726
1733861320668150000,3.81814990234375,-0.03125613900721073,0.04768412671685218,0.0082914430052042
1733861320678100700,3.828100830078125,-0.02748947995007038,0.06717270757351071,-0.0011707973450422286
1733861320688051000,3.838051025390625,-0.03513911792039871,0.08861370113957673,0.010028057539463042
1733861320698002000,3.848001953125,-0.03501695284545421,0.08443703650943934,0.0028854923084378242
1733861320707953000,3.857952880859375,-0.016066753181815146,0.07541475847903639,0.018769582399725912
1733861320717904000,3.86790380859375,-0.02254559380710125,0.0560256194088608,0.043513270772993565
1733861320727854800,3.877854736328125,-0.028332360514998434,0.07542286872025579,0.03550619766712188
1733861320737805800,3.887805908203125,-0.03301204276382923,0.0652338484654203,0.03165916685014963
1733861320747756000,3.897756103515625,-0.03616963001191616,0.06034706280454993,0.04581336440891027
1733861320757707000,3.90770703125,-0.016633739414811135,0.05384148030281066,0.06044891574382782
1733861320767658000,3.917657958984375,-0.007914426386356354,0.052036403642222284,0.0713379740267992
1733861320777609000,3.92760888671875,-0.038998715957999225,0.0478786263756454,0.08752426193505525
1733861320787560000,3.937559814453125,-0.041833062601089474,0.03553133210837841,0.06338467693477869
1733861320797511000,3.947510986328125,-0.048182723888754844,0.004836005321703851,0.031688977466523646
1733861320807460900,3.9574609375,-0.05451601856350898,-0.015867248554341493,0.005690612857043743
1733861320817411800,3.967411865234375,-0.05527180536687374,-0.04158781913574785,0.005149637848138809
1733861320827363000,3.977363037109375,-0.06939093161225318,-0.08309099219534545,0.015468202766776084
1733861320837313800,3.987313720703125,-0.031217560562491416,-0.08217438880708068,0.009799801741540432
1733861320847265000,3.99726513671875,-0.01779459988772869,-0.10411438140384852,0.014318155948817728
1733861320857216000,4.007216064453125,-0.06032675066888332,-0.09604987902231514,0.0054936289802193635
1733861320867165700,4.017165771484375,-0.09607610944211482,-0.07809340310376137,-0.0002814472898840904
1733861320877117000,4.027116943359375,-0.11073942556679248,-0.09250522868540137,0.005364741903543472
1733861320887068000,4.03706787109375,-0.07116203293800354,-0.13441197757720946,0.0035886721417307853
1733861320897019000,4.047018798828125,-0.02670095992088318,-0.1539722354305908,0.046430619524419306
1733861320906969900,4.056969970703125,0.027045243313908576,-0.12899660146497188,0.07478928352445363
1733861320916920800,4.0669208984375,0.09901567002534865,-0.06763941176980734,0.10407470698058605
1733861320926870800,4.076870849609375,0.14926234070658684,-0.0024903189783915874,0.13039426636844872
1733861320936822000,4.086822021484375,0.185823600384593,0.05745623673386872,0.11643296103328465
1733861320946772700,4.096772705078125,0.17496785984933375,0.11891995554342866,0.08524638013094663
1733861320956724000,4.106723876953125,0.17235504700243473,0.11490239046514034,-0.0034466333225369452
1733861320966674700,4.1166748046875,0.13094517824947832,0.14832100473586468,-0.09723550861030816
1733861320976626000,4.1266259765625,0.07761749268770217,0.16673998359963296,-0.15442279220968483
1733861320986576000,4.136575927734375,0.016616788280010224,0.1494471592215821,-0.17999650166630743
1733861320996526800,4.14652685546875,-0.0008843816190958022,0.1380482882529497,-0.1781274929240346
1733861321006477800,4.156477783203125,-0.012064531803131103,0.10155808451715856,-0.15176497117727994
1733861321016429000,4.166428955078125,-0.03823240776062011,0.07050682043228299,-0.13445727802366017
1733861321026379800,4.1763798828125,-0.04218436025679111,0.039782157953269774,-0.13542436949014663
1733861321036333800,4.186333740234375,-0.04684592232704162,0.027111805744096634,-0.14520312844365835
1733861321046283800,4.19628369140625,-0.03182604784965515,-0.0008224953640252351,-0.13282383160293101
1733861321056234800,4.20623486328125,-0.039548751056194306,-0.014082885888218879,-0.10713730942159891
1733861321066185700,4.216185791015625,-0.006168459501862526,-0.023196422398649153,-0.07749912700504064
1733861321076136700,4.22613671875,0.008811082965135573,-0.005382862082123756,-0.04949351422637701
1733861321086087700,4.236087646484375,0.017359131079912184,0.02205945425797254,-0.028242051883041856
1733861321096039000,4.246038818359375,0.017054595175385476,0.08076448547653853,-0.01084726496785879
1733861321105988900,4.25598876953125,0.027546178573369978,0.0908629048384726,-0.004369593386352062
1733861321115939800,4.26593994140625,0.012993921607732772,0.11994414749201386,-0.03573036181181669
1733861321125890800,4.275890869140625,0.008379705810546874,0.10371935420427471,-0.08030687790215014
1733861321135841800,4.285841796875,0.009539397239685058,0.08687248349543661,-0.10469020853042602
1733861321145792800,4.295792724609375,0.004472176977992058,0.0817087805893272,-0.11402297728210686
1733861321155743700,4.30574365234375,0.0030348376512527465,0.07798990619666873,-0.10095014521926642
1733861321165693700,4.315693603515625,-0.01858545800447464,0.04642134023942053,-0.08931377570033074
1733861321175645000,4.32564501953125,-0.033360417810082435,0.044647791228257114,-0.05132862069904804
1733861321185595600,4.335595703125,-0.03302840937674045,0.025803901483304796,-0.03555734333246946
1733861321195547000,4.345546875,-0.0598439355880022,0.0014466186117380857,-0.038841187308728695
1733861321205497900,4.355497802734375,-0.07112520805895328,-0.02096683671567589,-0.04349339702874422
1733861321215448800,4.36544873046875,-0.060683893543481825,-0.031303594878129656,-0.061245326818525785
1733861321225398800,4.375398681640625,-0.053736850884556764,-0.04352280578631908,-0.07813333325535059
1733861321235350000,4.38535009765625,-0.04080079694390297,-0.03428695807047188,-0.08301555233895778
1733861321245300700,4.39530078125,-0.028536358654499053,-0.027744075765646994,-0.07302490420043468
1733861321255252000,4.405251953125,-0.007831424278020858,-0.017599990631081162,-0.03733487439900637
1733861321265202700,4.41520263671875,0.008021393892168998,0.014294044420868157,0.0103065822198987
1733861321275154000,4.42515380859375,0.037215924194455144,0.03382288422267884,0.038276831424236296
1733861321285103900,4.435103759765625,0.049397944897413254,0.04730974044650793,0.06094342126250267
1733861321295054600,4.4450546875,0.04716857841014862,0.03724620973486453,0.08686930515766143
1733861321305005800,4.455005859375,0.041892683833837506,0.028485212989151475,0.10548165116906165
1733861321314956500,4.46495654296875,0.03254091812074184,0.027994360732287168,0.1078691308274865
1733861321324907800,4.47490771484375,0.000495090040564537,0.03161010354403406,0.09850538241565227
1733861321334859000,4.48485888671875,-0.02190846494734287,0.034563692652620374,0.08012216898500919
1733861321344808700,4.49480859375,-0.04133271186351776,0.013156710954010485,0.07791121493726968
1733861321354759700,4.504759765625,-0.06975041257441043,-0.01223557752110064,0.05970043546408414
1733861321364711000,4.5147109375,-0.07187281155586242,-0.018141075237840414,0.03977876041978597
1733861321374661600,4.52466162109375,-0.06769055743515491,-0.012231960791908204,0.03888327288478613
1733861321384612900,4.53461279296875,-0.07079144605994224,-0.0126768184825778,0.01277706398665905
1733861321394563600,4.5445634765625,-0.07523088981211185,0.0018168036310002207,-0.00829582691937685
1733861321404513800,4.554513671875,-0.04136076891422272,0.004496178908087313,-0.02040127525478601
1733861321414464800,4.56446484375,-0.044594928529858587,-0.017998415364138782,-0.026358137832581997
1733861321424415700,4.574415771484375,-0.04557166460752487,-0.019846162122674284,-0.021411621341109275
1733861321434366700,4.58436669921875,-0.04079553624689579,-0.04431406576186418,-0.006683131025731563
1733861321444317700,4.594317626953125,-0.038111996251344676,-0.02571973033118993,-0.00935498058348894
1733861321454268700,4.6042685546875,-0.01861936027407646,-0.008628858266025781,-0.00940203459560871
1733861321464219000,4.614218994140625,0.02336509349644184,0.009594926819205284,-0.0417751949340105
1733861321474169900,4.624169921875,0.027204233267903326,0.0055320978270843625,-0.12171499308943748
1733861321484120800,4.634120849609375,0.028158172991871833,-0.00018375906907021998,-0.16069295852035284
1733861321494071800,4.64407177734375,0.038001521614193914,0.020584595932438967,-0.17331950812041758
1733861321504022800,4.654022705078125,0.0268219559520483,0.02318970039691776,-0.17160568993985653
1733861321513973800,4.663973876953125,0.04103168309032917,0.0226060187574476,-0.13500672859996557
1733861321523924000,4.673924072265625,0.033492519757151604,0.03867269887402654,-0.08801964423656464
1733861321533874700,4.683874755859375,0.011280103427171706,0.049393780178949236,-0.03894406316131353
1733861321543826000,4.693825927734375,-0.020444822135567663,0.047380613725632424,-0.010843173314630984
1733861321553776600,4.703776611328125,-0.03065700407028198,0.016757146598771214,0.00981032313555479
1733861321563728000,4.713727783203125,-0.04230594080984592,0.0018390154628083108,0.017278174798190594
1733861321573678800,4.723678955078125,-0.07545593073964119,-0.007547419704869389,0.009688450321555138
1733861321583628800,4.73362890625,-0.06182604931592941,0.02590418352000415,0.025026596967875955
1733861321593579800,4.743579833984375,-0.062303019177913664,0.052297429198585446,0.04434007698595523
1733861321603531000,4.753531005859375,-0.03629471769630909,0.06627400516811757,0.06424187828600406
1733861321613481700,4.763481689453125,-0.02461129416525364,0.058294806449860334,0.06437544153779745
1733861321623433000,4.773432861328125,-0.020296353575587272,0.04786138297989964,0.06479746634215117
1733861321633383700,4.7833837890625,-0.02307750872671604,0.04543053910378366,0.037005204053223134
1733861321643333600,4.793333740234375,-0.005231470912694931,0.03444916289485991,-0.01029313821643591
1733861321653284900,4.803284912109375,-0.015132687202095985,0.008107464740425348,-0.04481529328227043
1733861321663235600,4.813235595703125,-0.030161914029717445,-0.002610657422430813,-0.050934652945399284
1733861321673186800,4.823186767578125,-0.04870177932679653,-0.029684432711079716,-0.056842123423516744
1733861321683137800,4.8331376953125,-0.04763093522489071,-0.003544029282405972,-0.05132423678487539
1733861321693088800,4.8430888671875,-0.05352057778537273,0.021389263378828762,-0.024990941132605075
1733861321703038700,4.853038818359375,-0.06199789875149726,0.021833098156191406,-0.0186459560200572
1733861321712989700,4.86298974609375,-0.09587971008718013,0.015020495531894267,0.0246434428691864
1733861321722940700,4.872940673828125,-0.1292003804087639,0.04147639465052634,0.051481765434145926
1733861321732892000,4.882891845703125,-0.13246318159699438,0.07067074228972196,0.09420826974362134
1733861321742842600,4.892842529296875,-0.12560031009018421,0.09592975977398455,0.1315741238027811
1733861321752793900,4.9027939453125,-0.13185410978794096,0.11996540947575121,0.17084230435192585
1733861321762743800,4.912743896484375,-0.1483744519561529,0.10933306590020656,0.1737239972680807
1733861321772694800,4.92269482421875,-0.15609890872836113,0.10986498081982135,0.16798194648474454
1733861321782645800,4.932645751953125,-0.13163140694797038,0.09886815131343901,0.15330021792054174
1733861321792596700,4.9425966796875,-0.08582359549701213,0.09998623209055513,0.09997399366348982
1733861321802547700,4.952547607421875,-0.04786182137131691,0.08028254717849194,0.06743570589125156
1733861321812498700,4.962498779296875,0.011494038438796997,0.029854966972395775,0.036026422148942944
1733861321822448600,4.97244873046875,0.03451426402032375,-0.010987184895202517,0.018942016357183455
1733861321832400000,4.98239990234375,0.07300619949996472,-0.015549670505151152,-0.0008490180447697638
1733861321842350800,4.992350830078125,0.11107552565336226,-0.007424706640653312,-0.01648322502821684
1733861321852301800,5.0023017578125,0.13367957164943217,0.0271264187913388,-0.020999533408880233
1733861321862252800,5.012252685546875,0.14395429742634294,0.047823571720160545,-0.05686404299437999
1733861321872203800,5.022203857421875,0.12627017217576503,0.03772844029385596,-0.0722641489610076
1733861321882153700,5.03215380859375,0.12352291929423809,0.051074536340124904,-0.08359656709730624
1733861321892105000,5.04210498046875,0.09231763369143009,0.041918512394838035,-0.11133242302387952
1733861321902055700,5.0520556640625,0.08095861980915069,0.02142035263683647,-0.13847615827620027
1733861321912007000,5.0620068359375,0.08009002028107642,0.023829569203034043,-0.16592413717210291
1733861321921957600,5.07195751953125,0.05305763644874096,0.0286224295027554,-0.19458499898910522
1733861321931908900,5.081908935546875,0.03366027753949165,-0.010065795733965932,-0.2413800679117441
1733861321941858800,5.09185888671875,0.04639057977497577,-0.02422455986998975,-0.2665285376936197
1733861321951809800,5.101809814453125,0.06379238095283508,-0.037244675364904105,-0.28471915116161106
1733861321961760800,5.1117607421875,0.06203823076188564,-0.039597083709947765,-0.2889817770421505
1733861321971712000,5.1217119140625,0.047962943658232685,-0.014257804063707588,-0.31520342901349063
1733861321981662700,5.131662841796875,0.014026771786808967,-0.022087328645586966,-0.34968583659082647
1733861321991614000,5.141614013671875,-0.017150456765294073,-0.03537701832950115,-0.3889896729752421
1733861322001564000,5.15156396484375,-0.018334698113799095,-0.06205923701729625,-0.39969402234107254
1733861322011514600,5.1615146484375,0.03118424281477928,-0.10097593724764883,-0.3671308923885226
1733861322021465900,5.1714658203125,0.051830725002288816,-0.0999022801341489,-0.3265492911532521
1733861322031416800,5.181416748046875,0.05453998396098613,-0.09417729008346795,-0.28412410787791015
1733861322041364500,5.191364501953125,0.08299626311659812,-0.11027524212114512,-0.24366087232530115
1733861322051315200,5.201315185546875,0.1003816976815462,-0.12426909801904111,-0.19391630594730377
1733861322061265400,5.211265380859375,0.1169207445502281,-0.17063710063602774,-0.14305968667417765
1733861322071216400,5.22121630859375,0.11464110918045044,-0.18072434101682155,-0.09143179076761007
1733861322081167400,5.23116748046875,0.1041682304829359,-0.16839100220967082,-0.0387514631986618
1733861322091118300,5.241118408203125,0.09280921660065651,-0.12095241121910512,-0.008892916029691696
1733861322101069600,5.251069580078125,0.06770984665751457,-0.08466050653439014,0.004825228199362755
1733861322111020300,5.261020263671875,0.0339238969117403,-0.05068108004312962,0.0397512878909707
1733861322120971500,5.270971435546875,0.018089783442020415,-0.04669544447306543,0.06971972517520189
1733861322130921500,5.28092138671875,-0.014395020577311514,-0.03834266320206225,0.11872341005802153
1733861322140872400,5.29087255859375,-0.03771978206336498,-0.033258016881532966,0.1889540073648095
1733861322150823400,5.300823486328125,-0.0801391201198101,-0.01618979503959417,0.20305179856121539
1733861322160774400,5.3107744140625,-0.10927578275501727,-0.0038491497088223693,0.21710838096439838
1733861322170725400,5.320725341796875,-0.0925350758343935,0.005206263406202197,0.19819471391886473
1733861322180675600,5.330675537109375,-0.07966507286727428,0.018214067408815024,0.20158932479321956
1733861322190626300,5.340626220703125,-0.10432137521803378,0.040737924308143554,0.1945551883727312
1733861322200577500,5.35057763671875,-0.12312427536547184,0.0712400666102767,0.17885551493763924
1733861322210528300,5.3605283203125,-0.11691139219999312,0.08209226348157972,0.15373217959702015
1733861322220479500,5.3704794921875,-0.11051321559548377,0.11954784165080636,0.10510755715966225
1733861322230430500,5.380430419921875,-0.10442717368006706,0.13165573767162858,0.049477732135355466
1733861322240380200,5.390380126953125,-0.09885609554946422,0.1377997933845967,-0.018873627296090125
1733861322250331400,5.400331298828125,-0.024358780708909032,0.1606568277610466,-0.09122954619377852
1733861322260282600,5.41028271484375,0.018484920239448546,0.1594216964755207,-0.16450608706772327
1733861322270233300,5.4202333984375,0.019666238978505134,0.18881006884947418,-0.2783332495167851
1733861322280184600,5.4301845703125,-0.01764437776207924,0.19191490299701688,-0.3144043875902891
1733861322290135300,5.44013525390625,-0.03070318129956722,0.17915804154817014,-0.3268775001943111
1733861322300085200,5.450085205078125,0.0019131401449441908,0.1172635666385293,-0.3135854724228382
1733861322310036500,5.460036376953125,0.030356559818983078,0.05375559211764484,-0.3022296734109521
1733861322319987200,5.4699873046875,0.09610475101470947,0.01877159169372171,-0.2503442956119776
1733861322329938400,5.4799384765625,0.1315641869306564,-0.0032879356294870377,-0.2322805233940482
1733861322339889400,5.489889404296875,0.13062719834148884,0.015763167125359176,-0.2168202116727829
1733861322349840400,5.49984033203125,0.12435586298704146,0.0637789734819904,-0.1417085643261671
1733861322359791600,5.50979150390625,0.07959726832807064,0.07687478456161916,-0.08699439284205436
1733861322369741300,5.5197412109375,0.031765842095017434,0.06257394507378339,-0.020058453166484833
1733861322379692300,5.5296923828125,-0.005275894576311111,0.033135888339206575,0.05128156668692827
1733861322389643500,5.5396435546875,-0.05541676679551601,0.005060790520906448,0.1122962996199727
1733861322399594200,5.54959423828125,-0.09683248076736926,-0.0431563836267218,0.14711626858860252
1733861322409545500,5.55954541015625,-0.1252916825324297,-0.08656012961063533,0.1866546443812549
1733861322419496200,5.56949609375,-0.12660101156532763,-0.09891611864101141,0.19423282455056903
1733861322429446400,5.5794462890625,-0.11175707817673683,-0.11432338500078768,0.20168474799171088
1733861322439397400,5.5893974609375,-0.11295534805059432,-0.12231047476455569,0.2119974676914513
1733861322449348400,5.599348388671875,-0.10375263541936874,-0.10007244906928389,0.20000205560177564
1733861322459299300,5.60929931640625,-0.08067337312698364,-0.06206274414863437,0.18956877826228738
1733861322469250600,5.61925048828125,-0.06216273392438888,-0.042053938810154796,0.19622589806392787
1733861322479201300,5.629201171875,0.0025917700588703155,-0.001811250673048198,0.1912197603397071
1733861322489151500,5.6391513671875,0.00016249708533287046,0.04246204468701035,0.16574717317000032
1733861322499102500,5.6491025390625,0.010526654711365699,0.06428958988524973,0.1387577516965568
1733861322509053400,5.659053466796875,0.008938508737087248,0.08242624467629939,0.13110124559402464
1733861322519004400,5.66900439453125,0.03444645948112011,0.0664557914758101,0.11137538538277149
1733861322528955400,5.678955322265625,0.05116729265749454,0.05517755121216178,0.08689093246757984
1733861322538906400,5.68890625,0.07046528284549712,0.029278555323928594,0.06041998191028833
1733861322548856600,5.698856689453125,0.07673720272183418,0.032983108930289745,0.02929419128447771
1733861322558807300,5.708807373046875,0.04795066869854927,0.026213651327975093,-0.03733867379128933
1733861322568758500,5.718758544921875,0.006866963160037994,0.037887649443559344,-0.11004062964767217
1733861322578709200,5.728709228515625,-0.0316366627573967,0.04559964859299361,-0.14359861585646866
1733861322588660500,5.738660400390625,-0.05084755918383598,0.03985873032081872,-0.12150573425292968
1733861322598611500,5.748611572265625,-0.06385784740447997,0.016139928015880285,-0.06247428409159183
1733861322608561400,5.7585615234375,-0.07366261758208274,-0.006285948401689529,0.007369651985168457
1733861322618512400,5.768512451171875,-0.08152852865159511,-0.03313756883963943,0.0727326432555914
1733861322628463600,5.778463623046875,-0.07642097637951374,-0.05169953637067228,0.10001403341293334
1733861322638414300,5.788414306640625,-0.05146306073367595,-0.06463836679030209,0.1057479008898139
1733861322648365600,5.798365478515625,-0.03164426154196262,-0.03771072197407484,0.0689522479340434
1733861322658316300,5.80831640625,-0.01106207676231861,-0.01897708767056465,0.012690262486040592
1733861322668266200,5.818266357421875,0.016710896304249764,-0.02173610405512154,-0.050501814486086365
1733861322678217500,5.828217529296875,0.008682488149404526,-0.022823972357064484,-0.06919891617149114
1733861322688168200,5.838168212890625,0.012577742022275924,-0.018971242451667786,-0.09764964236915111
1733861322698119400,5.848119384765625,0.012141688692569732,-0.01637713430523872,-0.10121230328679084
1733861322708070400,5.8580703125,0.014311433947086333,-0.0036679844556376335,-0.09706599726229906
1733861322718021400,5.868021484375,-0.001973345899581909,0.022864194769598542,-0.10643062245696783
1733861322727971300,5.877971435546875,0.012073299631476402,0.03341591085698455,-0.10133446836173533
1733861322737922300,5.88792236328125,0.027005495825409887,0.04876604020204395,-0.11179390305578708
1733861322747873300,5.897873291015625,0.03960603420138359,0.0686943276502192,-0.09587386486828327
1733861322757824500,5.907824462890625,0.04463175340890884,0.059170968229882416,-0.09894961905181407
1733861322767775200,5.917775146484375,0.03136544460058212,0.05079173734337091,-0.1182221825376153
1733861322777726500,5.9277265625,0.012139350605010986,0.031479170640744264,-0.09943477222025394
1733861322787676400,5.937676513671875,-0.00646364305615425,0.01185604015160352,-0.1015428504154086
1733861322797627400,5.94762744140625,-0.021405776122212408,0.0035382205961272117,-0.08915741609483957
1733861322807578400,5.957578369140625,-0.01923895347714424,-0.006968304642662406,-0.06024959377944469
1733861322817529300,5.967529296875,-0.03729366560578346,-0.014021036165766417,-0.01842939065992832
1733861322827480300,5.977480224609375,-0.025643559822440147,-0.01416424402873963,-0.006418342609703541
1733861322837431600,5.987431640625,-0.020351883155107497,-0.009242350521869957,0.028351065215468405
1733861322847381200,5.99738134765625,-0.04957914668321609,-0.004510755422711372,0.04341740918308496
1733861322857332500,6.00733251953125,-0.056090136012434955,0.017094452261738478,0.03847089269161224
1733861322867283500,6.017283447265625,-0.038107320076227184,0.03764715521857142,0.04534194750487804
1733861322877234400,6.027234375,-0.031283611536026,0.05194364732485264,0.0639113311573863
1733861322887185400,6.037185302734375,-0.00782441001534462,0.0634435309825465,0.08656213890463113
1733861322897136400,6.047136474609375,-0.0031681086421012877,0.056397959852591155,0.06398235056698322
1733861322907086300,6.05708642578125,0.00931143370270729,0.04813676585517823,0.01620996104478836
1733861322917037600,6.06703759765625,0.02151157458424568,0.029260873536765573,-0.039918753412365914
1733861322926988300,6.07698828125,0.015214520266652107,0.02889521856214851,-0.07587181806415319
1733861322936939500,6.086939453125,-0.03672901746034622,0.043780397276580334,-0.08386486264467238
1733861322946890200,6.09689013671875,-0.02679623698890209,0.04702979099396616,-0.07188508651554584
1733861322956841500,6.106841552734375,-0.03167816381156444,0.06824775292649865,-0.049664779140055175
1733861322966791400,6.11679150390625,-0.04182838642597198,0.06358871160689741,0.00023936171382665631
1733861322976742400,6.126742431640625,-0.02754384048581123,0.06421232339795678,0.05704962869435549
1733861322986693400,6.136693359375,-0.011580547678470611,0.029184337701834737,0.08884294331818819
1733861322996644600,6.14664453125,-0.01503916369974613,0.009541187337972223,0.10681289977282285
1733861323006595300,6.15659521484375,-0.03672141867578029,0.006378558588586747,0.09702245038151741
1733861323016546600,6.166546630859375,-0.04810907413065433,0.0006445815138518809,0.08503887486010789
1733861323026496500,6.17649658203125,-0.0426291814148426,0.010798347792215645,0.09079524642974138
1733861323036447200,6.186447265625,-0.0069482117027044295,0.017228782698512076,0.08148819664120674
1733861323046402800,6.19640283203125,0.02653086405098438,0.006002966741845011,0.09221592688262462
1733861323056353800,6.206353759765625,0.042014848908782,-0.023521489634551106,0.1046563062608242
1733861323066304800,6.2163046875,0.03658054890036583,-0.05757953431997448,0.06700199064910412
1733861323076255700,6.226255859375,0.028255203625559805,-0.0293292260652408,0.023557108937203884
1733861323086206700,6.236206787109375,0.02166939549446106,-0.023859452884644267,-0.03194236770570278
1733861323096157000,6.246156982421875,0.02824059057831764,-0.03983173271603882,-0.06838876883238554
1733861323106107600,6.256107666015625,0.024807108998298643,-0.028057306433282792,-0.09288695801198482
1733861323116059000,6.266058837890625,0.025446575945615765,-0.004313223556615412,-0.10770517243742943
1733861323126009600,6.276009521484375,0.022830255967378615,0.001872844667173922,-0.091933602809906
1733861323135960800,6.2859609375,0.009326631271839142,0.010575718017481266,-0.08788461968004703
1733861323145911800,6.295911865234375,0.018638064974546432,0.0022541721349582074,-0.08680003931373358
1733861323155861800,6.30586181640625,0.010917699855566024,-0.0027668343648314473,-0.072647595320642
1733861323165812700,6.315812744140625,0.008839140015840529,-0.008379194353893398,-0.08945815260708331
1733861323175764000,6.325763916015625,0.009526537758111953,-0.00950315688252449,-0.04675882856547832
1733861323185714700,6.335714599609375,0.0015057283878326415,-0.01258373337164521,-0.04207125527113676
1733861323195666000,6.345666015625,-0.013480828341841698,-0.00806987267639488,-0.029775837321579453
1733861323205616600,6.35561669921875,-0.036027591192722315,-0.0035192601673305034,-0.05011778360456228
1733861323215566800,6.36556689453125,-0.04968202253580093,0.023449849170446395,-0.06074731416851282
1733861323225517800,6.375517822265625,-0.061651861792802805,0.026154870345443487,-0.0895174815788865
1733861323235468800,6.38546875,-0.07028408105969429,0.019959522836655377,-0.12974573933184147
1733861323245419800,6.395419677734375,-0.06385375575125217,-0.006870031899958848,-0.1799678600937128
1733861323255370800,6.405370849609375,-0.07209785248339176,-0.019764803982153533,-0.21028993312120436
1733861323265321700,6.41532177734375,-0.07909107237160205,-0.027934118445031342,-0.2050190069809556
1733861323275272000,6.42527197265625,-0.0924473975509405,-0.04394475752543658,-0.17806378003805876
1733861323285222700,6.43522265625,-0.07499240488111972,-0.031091778758354484,-0.1202548574090004
1733861323295174000,6.445173828125,-0.04803133271932602,-0.033115795399248596,-0.04892331312298774
1733861323305124900,6.455124755859375,0.005748188263177871,-0.06964556396044791,0.011004209095239638
1733861323315075800,6.465075927734375,0.041785716328024865,-0.08508209294732659,0.02762625807225704
1733861323325026800,6.47502685546875,0.08090835092663765,-0.09769994778428226,0.038817221911251545
1733861323334976800,6.484976806640625,0.11152619203031063,-0.07301518652401864,0.010175357055664061
1733861323344927700,6.494927734375,0.13472995748519898,-0.04455021260529756,-0.0646282472550869
1733861323354878700,6.504878662109375,0.1167600010305643,-0.007780022884346544,-0.10801233869045972
1733861323364829700,6.51482958984375,0.10561258407235145,0.04783873275667429,-0.1242325288683176
1733861323374781000,6.524781005859375,0.08156009283363819,0.09162497525215148,-0.14856617513597012
1733861323384731600,6.534731689453125,0.04479834214746952,0.11577829651683569,-0.1466550808176398
1733861323394681600,6.544681640625,0.05435585956573486,0.12071655663661658,-0.1575157897889614
1733861323404632800,6.5546328125,0.03720540280044079,0.12255962722003459,-0.12441753004640341
1733861323414583800,6.564583740234375,0.036196518018841745,0.14315236992631106,-0.09260375715643167
1733861323424534800,6.57453466796875,0.016967501413822174,0.14968162556458264,-0.06930880628675222
1733861323434485800,6.58448583984375,-0.01037760162949562,0.12946217315010725,-0.060140580447018144
1733861323444436700,6.594436767578125,-0.023418869510293004,0.13127525045406072,-0.03148527158796787
1733861323454386700,6.60438671875,-0.05912205105423927,0.11981354338228702,-0.0043897593915462494
1733861323464338000,6.614337890625,-0.0583148263245821,0.08639237182829529,0.006155600020289421
1733861323474288600,6.62428857421875,-0.06131634622812271,0.07433752116896211,0.026426234632730482
1733861323484240000,6.634239990234375,-0.08081541194617747,0.0635657325901091,0.059303837361931795
1733861323494190600,6.644190673828125,-0.07224690556526184,0.05321224248856306,0.08517010002434253
1733861323504141800,6.654141845703125,-0.05226853189766407,0.02498947982788086,0.11535130327641964
1733861323514091800,6.664091796875,-0.04883563483953476,0.02014627758041024,0.12590016981959343
1733861323524042800,6.674042724609375,-0.050049686804413795,-0.0015458046698942779,0.14159195220917462
1733861323533993700,6.68399365234375,-0.012990998998284339,-0.008015219879709184,0.14366145195960997
1733861323543945000,6.693945068359375,0.012005495092272759,-0.02015782188773155,0.1399047297745943
1733861323553895700,6.703895751953125,0.04146890546381473,-0.019023995552212,0.15255699833780526
1733861323563847000,6.713846923828125,0.023305472263693807,-0.02095704597402364,0.1725999616742134
1733861323573796900,6.723796875,0.010409750333428383,-0.01486329567618668,0.16129793867617845
1733861323583747800,6.733747802734375,0.005175941333174706,0.0007391644621267914,0.11488134767711163
1733861323593698800,6.74369873046875,0.02053250041902065,-0.03117094494178891,0.05332768556177616
1733861323603649800,6.75364990234375,0.05000818575024604,-0.038752559177204965,-0.002660159119963646
1733861323613600800,6.763600830078125,0.06294540873467921,-0.05494527682624757,-0.05457330170869827
1733861323623551700,6.7735517578125,0.06608604484796524,-0.06124116210006177,-0.10281155517697334
1733861323633502700,6.783502685546875,0.0643926849335432,-0.03443180990125984,-0.13601882825195788
1733861323643453000,6.793452880859375,0.04044716120064258,-0.004318520786240697,-0.1510153218537569
1733861323653403600,6.803403564453125,-0.008327098840475082,-0.0010469517696648837,-0.15575024142116306
1733861323663355000,6.81335498046875,-0.07699146974384784,0.015897168768569826,-0.14473872580230235
1733861323673305900,6.823305908203125,-0.14711363824009893,0.00432414680942893,-0.11835486900657415
1733861323683256800,6.8332568359375,-0.18473989680111408,-0.048299591734074054,-0.06438450162708759
1733861323693207800,6.843207763671875,-0.17253274165689944,-0.08440240358747542,0.014214695574343204
1733861323703157800,6.85315771484375,-0.11768296109437942,-0.11115268254280089,0.11981091303378343
1733861323713108700,6.863108642578125,-0.08736848685145378,-0.10811240153145045,0.2023620627313852
1733861323723060000,6.87306005859375,-0.04724748886525631,-0.09499357490241526,0.24754005184620617
1733861323733010700,6.8830107421875,-0.00940378816127777,-0.09351524597816169,0.22295301533937453
1733861323742962000,6.8929619140625,-0.006035188511013984,-0.07642455657608807,0.17145605233609676
1733861323752912600,6.90291259765625,-0.0319675021469593,-0.017905878242477774,0.09745587336272
1733861323762862600,6.912862548828125,-0.03216156341433525,0.016506642436422407,0.006706219640374184
1733861323772813800,6.922813720703125,-0.0011585223853588103,0.05593889097347855,-0.05729162075668573
1733861323782764800,6.932764892578125,0.01966156280338764,0.06898845175858587,-0.10557429788857697
1733861323792715800,6.9427158203125,0.033359248766303064,0.0883637084338814,-0.09854396086037158
1733861323802666800,6.952666748046875,0.04587795407772064,0.10474924524128436,-0.10285305623114109
1733861323812617700,6.96261767578125,0.04730243392288685,0.11486410428136587,-0.09511281736791133
1733861323822567700,6.972567626953125,0.06410451564192772,0.11561349787656217,-0.10982201846092939
1733861323832519000,6.982518798828125,0.09550269346833229,0.12740885734949262,-0.14198971935510635
1733861323842469600,6.9924697265625,0.07523439694344997,0.12401132386568933,-0.1595391123101115
1733861323852420900,7.0024208984375,0.07361468678712844,0.12628032824359833,-0.18797054928541182
1733861323862371600,7.01237158203125,0.04748655831813812,0.10739537583589553,-0.20605799463987348
1733861323872322800,7.02232275390625,0.029555764830112456,0.08963029430359601,-0.22018530419170856
1733861323882272800,7.032272705078125,0.0025759879678487778,0.08635558348186313,-0.2192939083099365
1733861323892223700,7.0422236328125,-0.03874561797976494,0.062454848738759755,-0.19125088613033295
1733861323902174700,7.0521748046875,-0.04674012386500835,0.04499141703415662,-0.19162118074744938
1733861323912126000,7.0621259765625,-0.07243629065752029,0.04910962947532534,-0.19553601610362528
1733861323922076700,7.07207666015625,-0.11180442444980143,0.0403615652764216,-0.19872984370887278
1733861323932028000,7.08202783203125,-0.1325157885670662,0.011177592900767922,-0.20826865642666814
1733861323941977900,7.091977783203125,-0.13008242394030092,-0.013567629842460155,-0.2033186328038573
1733861323951928800,7.1019287109375,-0.10485036752820015,-0.028615561370551584,-0.19211305591762065
1733861323961879800,7.1118798828125,-0.057196051427721974,-0.06317527196779847,-0.1660319814607501
1733861323971830800,7.121830810546875,-0.012330489262938499,-0.08639463685061782,-0.1194657528579235
1733861323981781800,7.13178173828125,0.029186346995830535,-0.09317585795596241,-0.05825549735277891
1733861323991732700,7.141732666015625,0.03388122681379318,-0.09170724670812487,0.010768354512751101
1733861324001682700,7.1516826171875,0.040138533642888066,-0.0876528567507863,0.042048751178383824
1733861324011634000,7.161634033203125,0.06546995877623557,-0.07660729273185134,0.057141398631036275
1733861324021584600,7.171584716796875,0.07185469137728213,-0.07080361142177134,0.04941606507599353
1733861324031535900,7.181535888671875,0.03540215277075767,-0.05210139516983181,0.013550386446714401
1733861324041483300,7.191483154296875,0.05144143342375755,-0.012121997611410916,-0.02687953135818243
1733861324051434000,7.20143408203125,0.04633855732679367,0.0007272548286244273,-0.05291705893427133
1733861324061384200,7.21138427734375,0.04588087668716907,0.002386675940826535,-0.0460585713416338
1733861324071335200,7.221335205078125,0.06805413005053997,0.03584459930863231,-0.07466244227439164
1733861324081286100,7.2312861328125,0.08640227216780186,0.06613244127295911,-0.07195552140325308
1733861324091237000,7.241237060546875,0.07673428011238574,0.07128814353570341,-0.08658610430210828
1733861324101188000,7.25118798828125,0.02408405542075634,0.08256141536328941,-0.08260141858011484
1733861324111139000,7.26113916015625,0.0011754735201597213,0.11746478829905391,-0.08469576051086188
1733861324121090000,7.271090087890625,-0.027567221361398695,0.1188243496818468,-0.07123305234760045
1733861324131040000,7.2810400390625,-0.05577917036712169,0.10915946289896965,-0.033469431142508985
1733861324140991200,7.2909912109375,-0.059379240685701364,0.1070684819690883,-0.008606208042800425
1733861324150942200,7.300942138671875,-0.02228840417563915,0.09751242585554719,0.0037231121763586996
1733861324160893200,7.31089306640625,-0.037681203618645666,0.08691478826720267,0.025473756213486194
1733861324170844200,7.32084423828125,-0.048424131429195404,0.08356076513156295,0.05094137494713068
1733861324180795100,7.330795166015625,-0.05332476295232773,0.0844778799764812,0.05122282223701477
1733861324190745000,7.3407451171875,-0.0638303748756647,0.0781624497519806,0.05003068984299898
1733861324200696300,7.3506962890625,-0.06450725122392177,0.09802749923821538,0.008546586810052395
1733861324210647000,7.36064697265625,-0.06327975525557994,0.1227973814986646,-0.027005495825409887
1733861324220598300,7.370598388671875,-0.06683773999810218,0.13180490035135298,-0.07527619025856257
1733861324230549000,7.380549072265625,-0.05623159030973911,0.13701072536613793,-0.11668547448962927
1733861324240500200,7.390500244140625,-0.04298866237699985,0.153438932271488,-0.15355799207389353
1733861324250450200,7.4004501953125,-0.03798164786994457,0.14484934656992554,-0.18719108934551476
1733861324260401200,7.410401123046875,-0.039977790123224256,0.11587466956339776,-0.21196663416177033
1733861324270352100,7.42035205078125,-0.03479892618060112,0.08371500584520399,-0.2349222700744867
1733861324280303400,7.430303466796875,0.0037169746965169904,0.059751142738014455,-0.2455292965456843
1733861324290254000,7.440254150390625,0.04437339473366737,0.043437063731625675,-0.2291954168602824
1733861324300205300,7.450205322265625,0.07959376119673252,0.017028328222967685,-0.21727350839823484
1733861324310155300,7.4601552734375,0.09748246910870074,-0.006003806992061436,-0.18748861098736525
1733861324320106200,7.470106201171875,0.10924363405108452,-0.03400773927029222,-0.14158084629327058
1733861324330057200,7.48005712890625,0.11680617825984954,-0.024532493308000267,-0.10917407594621181
1733861324340008200,7.49000830078125,0.11875731232762336,-0.015113251849263905,-0.07207476386874914
1733861324349959200,7.499959228515625,0.09597966333031654,-0.03431318849027157,-0.04010521589517593
1733861324359910100,7.50991015625,0.03793547064065933,-0.06454922720212489,-0.017097557534277438
1733861324369860000,7.519860107421875,-0.013050035709142684,-0.10283573977015911,-0.04104191222339868
1733861324379811000,7.52981103515625,-0.05101531696617603,-0.12654825846478343,-0.04478431362211704
1733861324389762000,7.539761962890625,-0.06642799015343188,-0.11425773588605224,-0.05485913291275501
1733861324399713000,7.549713134765625,-0.06993336792588234,-0.07029968048762529,-0.042348903168737885
1733861324409664300,7.559664306640625,-0.03788520175814628,-0.044196540329419075,-0.005525193162262439
1733861324419615200,7.569615234375,-0.010421440771222115,-0.012079875502735376,0.045052024647593496
1733861324429566200,7.579566162109375,0.0018447510838508604,-0.00037858752142637967,0.12242299522832036
1733861324439516200,7.58951611328125,-0.004561024305224418,0.010285831692814827,0.18709259740710257
1733861324449467100,7.599467041015625,0.028024317479133604,-0.013232516136579215,0.19736133183464408
1733861324459418000,7.609418212890625,0.020011106893420217,-0.0414477530779317,0.21801088276207445
1733861324469369000,7.619369140625,-0.00008534019589424133,-0.051364861056208605,0.20793635573238134
1733861324479320000,7.629320068359375,-0.04007423623502254,-0.07262074384633452,0.17289222261905668
1733861324489271000,7.63927099609375,-0.0425204603433609,-0.07914817285370081,0.15832009190917015
1733861324499221000,7.649220947265625,-0.07680325369536876,-0.07297744832951575,0.12100713708102702
1733861324509172200,7.659172119140625,-0.1032575453788042,-0.08274214222505688,0.08535919285565614
1733861324519123200,7.669123291015625,-0.09098083212971687,-0.09296265359669924,0.045362551901489495
1733861324529074200,7.67907421875,-0.0861953514188528,-0.08877166818026452,0.0050621056951582425
1733861324539025200,7.689025146484375,-0.05794716205596923,-0.07725943649765103,-0.030828707375377414
1733861324548976000,7.69897607421875,-0.043944355666637416,-0.07429393775556237,-0.020730214948207138
1733861324558926000,7.708926025390625,-0.012871756532788275,-0.06729713767077773,0.0010158990442752838
1733861324568877300,7.718877197265625,0.00895545987188816,-0.06553801904376595,0.0264418705932796
1733861324578828000,7.728828125,0.023141221612691876,-0.04963752580694854,0.0830878869228065
1733861324588779300,7.738779296875,0.06689969931840896,-0.024478826892003414,0.13165420330166816
1733861324598730000,7.74872998046875,0.07914718647301197,0.011343670182675122,0.1683056254811585
1733861324608681200,7.75868115234375,0.05505085609257221,0.037445312503539024,0.13208748015239835
1733861324618631200,7.768631103515625,0.018731003955006598,0.05691168152838945,0.10654942653104663
1733861324628582100,7.77858203125,-0.0204214412599802,0.0865328762775287,0.08179960067793726
1733861324638533000,7.788533203125,-0.047121232137084,0.09768296011686324,0.06027224400267005
1733861324648484400,7.798484375,-0.04133914160430431,0.09375866281259805,0.06514350330084562
1733861324658435000,7.80843505859375,-0.015988427248597146,0.09608195466101169,0.055399377269297834
1733861324668386300,7.81838623046875,-0.03995966994464397,0.0853481234723702,0.057915159482508895
1733861324678336300,7.828336181640625,-0.06966156524717808,0.08209708578716964,0.06388020536676049
1733861324688287200,7.838287353515625,-0.09536474630236626,0.04456497178301215,0.06950301368460059
1733861324698238200,7.84823828125,-0.09492343227565288,0.043955315452069044,0.057928457355499265
1733861324708189200,7.858189208984375,-0.1025993737310171,0.0428458563728258,0.05193725411668419
1733861324718140200,7.86814013671875,-0.07267477558851242,0.008065123436041176,0.07113163779973983
1733861324728091100,7.878091064453125,-0.0534434208959341,-0.024952874144539235,0.0667521075412631
1733861324738041000,7.888041015625,-0.009513678276538848,-0.0638485681194812,0.005426262832432985
1733861324747992000,7.897991943359375,0.017892799565196037,-0.08412723990790545,-0.0214279879540205
1733861324757943000,7.907943115234375,0.016770517536997796,-0.09559881078656762,-0.04983838214129209
1733861324767894300,7.917894287109375,0.02189326737821102,-0.08397493542302399,-0.06002776772230863
1733861324777845200,7.92784521484375,0.012646131083369254,-0.08828910882771014,-0.0916439722135663
1733861324787796200,7.937796142578125,0.016235095486044883,-0.09538213582858443,-0.10405161836594343
1733861324797746200,7.94774609375,0.03140285400152206,-0.09675422789938748,-0.09568681786358356
1733861324807697200,7.957697265625,0.03870762405693531,-0.07865202336721122,-0.06900047098994255
1733861324817648000,7.967648193359375,0.06204056884944439,-0.06873750920481979,-0.040165129388868806
1733861324827599000,7.97759912109375,0.055925885361433024,-0.05412716537639498,0.010251637162268162
1733861324837550000,7.987550048828125,0.08869535154104233,-0.029338651480711995,0.03310761209279298
1733861324847501000,7.9975009765625,0.08874912755489349,-0.018179434486851095,0.05821750342994928
1733861324857452000,8.0074521484375,0.08759703491032123,-0.01367364750020206,0.08379501227885484
1733861324867402000,8.017402099609376,0.06285188523232936,-0.02964808275606483,0.09017273061722517
1733861324877353200,8.027353271484374,0.04921557406783104,-0.016589936805702744,0.12754267632961272
1733861324887304200,8.03730419921875,0.05893909570276737,-0.00004661562070250511,0.12241028187721967
1733861324897255200,8.047255126953125,0.0408037195533514,0.024885142670571802,0.13363076407164334
1733861324907206100,8.0572060546875,0.039433600243926045,0.03996741485968232,0.15942717636823653
1733861324917157000,8.0671572265625,0.014607202023267745,0.03307038535494357,0.15117489632964135
1733861324927107000,8.077107177734375,0.009428338080644607,0.022831534609012303,0.13324410284161567
1733861324937058300,8.087058349609375,-0.006072013390064239,0.008443309098668396,0.1062704634591937
1733861324947009000,8.097009033203125,-0.057471361237764355,-0.029171441687643525,0.05813216323405504
1733861324956960300,8.106960205078124,-0.09205226075351237,-0.03247720523476601,-0.022862696932256222
1733861324966911000,8.116910888671875,-0.12001929508745669,-0.009184154061228036,-0.1012403603374958
1733861324976862200,8.1268623046875,-0.1652934380531311,0.007817359220050274,-0.18608838880062104
1733861324986812200,8.136812255859375,-0.14882394928932188,0.06047554802242666,-0.24764000508934259
1733861324996763100,8.14676318359375,-0.11753683062195777,0.11641615602895616,-0.2836500606253743
1733861325006714000,8.156714111328125,-0.07607610846459865,0.17565850899461655,-0.3060200056046247
1733861325016665300,8.166665283203125,-0.0465811339110136,0.19766323739066718,-0.31788843031376596
1733861325026616000,8.176615966796875,-0.014855039304494857,0.20526118170637636,-0.3150105367898941
1733861325036567300,8.1865673828125,-0.006281272226572036,0.18588563277013598,-0.30084406427145005
1733861325046520000,8.19652001953125,0.014369886136054992,0.1562707946965471,-0.2614598561272025
1733861325056470800,8.206470703125,0.03893208046257496,0.14255126222800463,-0.20622429111748933
1733861325066422000,8.216422119140624,0.09044482555687428,0.14894973109345883,-0.16085224073529242
1733861325076372700,8.226372802734375,0.10184475597143172,0.12847652311362326,-0.10070932220071553
1733861325086324000,8.236323974609375,0.11898527586460113,0.13014884024001658,-0.037248657420277595
1733861325096275000,8.24627490234375,0.10803250469565391,0.14538820268698036,-0.02981704611480236
1733861325106225000,8.256224853515626,0.09307809666991233,0.13887779787965118,-0.006941489700973033
1733861325116176000,8.26617578125,0.0794289260238409,0.13558708577118814,-0.020556758077442644
1733861325126127000,8.276127197265625,0.07389467277228831,0.1438601528694853,-0.03529518526494503
1733861325136077800,8.286077880859375,0.06275953077375888,0.12799469441343098,-0.047423722214996814
1733861325146029000,8.296029052734376,0.03337386181354522,0.11641221050620078,-0.0361745984479785
1733861325155979800,8.305979736328124,-0.007209492987394333,0.08643314223010093,-0.015294307504594325
1733861325165929700,8.3159296875,-0.019568623822927473,0.058250930775515734,0.03945785790234804
1733861325175881000,8.325880859375,-0.002941314148902893,0.011193301926553248,0.10031360088139772
1733861325185831700,8.335831787109376,0.01241933659017086,-0.03547678890954703,0.17503858699798583
1733861325195783000,8.345782958984374,0.011769932770729064,-0.06441763671170919,0.22799656246453523
1733861325205734000,8.35573388671875,0.005023381119966507,-0.06717457073703408,0.2685825476139784
1733861325215684900,8.365684814453125,0.003965396499633789,-0.10389186122696846,0.2805345589533448
1733861325225636000,8.375635986328126,0.0003869534909725189,-0.11648984231967478,0.2775973364576697
1733861325235586000,8.3855859375,-0.02291325807571411,-0.13886212538648396,0.2478527710571885
1733861325245536800,8.395536865234375,-0.0608592501103878,-0.167084486188367,0.2023255301132798
1733861325255488000,8.405488037109375,-0.0877116012006998,-0.16317074681073426,0.13499503816217184
1733861325265438700,8.415438720703126,-0.10955109256505965,-0.1786925794608891,0.08200520625263452
1733861325275390000,8.425389892578124,-0.09791735339462757,-0.22258750649522988,0.03808803085386753
1733861325285340700,8.435340576171875,-0.10104922167956829,-0.24350286875199526,-0.019717384643852708
1733861325295291000,8.445290771484375,-0.07317278823852538,-0.2506832817753777,-0.06572013414502144
1733861325305241900,8.455241943359376,-0.05492226127684116,-0.2582621925970539,-0.1290364220187068
1733861325315192800,8.46519287109375,-0.04244681058526039,-0.24144586315695196,-0.18607640610188245
1733861325325143800,8.475143798828125,-0.036378888848423954,-0.2105621741913259,-0.21354776587337254
1733861325335095000,8.485094970703125,-0.035952772390842436,-0.1784787175145,-0.20361790801137686
1733861325345045800,8.495045654296876,-0.053503042128682135,-0.16694960776232182,-0.15228870279043913
1733861325354996000,8.504995849609376,-0.0626496406584978,-0.13706899489201604,-0.07814268560558557
1733861325364947000,8.514947021484375,-0.07337620185613632,-0.11189542720150202,-0.00816810888648033
1733861325374898000,8.52489794921875,-0.07728139260113238,-0.09239701907057314,0.08732640127539634
1733861325384849000,8.534848876953125,-0.0607458528637886,-0.08173899306450039,0.14555822549164293
1733861325394799900,8.5447998046875,-0.05278466472625732,-0.04997844819910824,0.17706746247708796
1733861325404750800,8.554750732421875,-0.041215222963690755,-0.03817885094247758,0.21520985386669633
1733861325414701000,8.564701171875,-0.019643442624807356,0.004948891111649573,0.2248044884249568
1733861325424651800,8.57465185546875,0.003603577449917793,0.038964667557924985,0.2076242210432887
1733861325434603000,8.58460302734375,0.022463760742545125,0.07433953046295791,0.18355828580111264
1733861325444553700,8.5945537109375,0.05585632725656032,0.12595518794246016,0.12558102086782455
1733861325454505000,8.6045048828125,0.05318330865502357,0.1767503958845511,0.052367608357965945
1733861325464456000,8.6144560546875,0.029720600003004072,0.22476696942616253,-0.021109131263196468
1733861325474406000,8.624406005859376,0.0053653264254331584,0.28170064359065144,-0.06460603542327881
1733861325484356900,8.63435693359375,-0.0030155484288930893,0.3070527096532285,-0.12343231840133666
1733861325494308000,8.64430810546875,0.0034808278530836104,0.30446605416089295,-0.13857786508500575
1733861325504258800,8.6542587890625,0.042642040896415705,0.2735270182788372,-0.13684212733358145
1733861325514210000,8.6642099609375,0.04789046294391155,0.2617187993243337,-0.1424491535604
1733861325524160800,8.674160888671874,0.042000235861539836,0.2621328600179404,-0.14775895040631293
1733861325534112000,8.684112060546875,0.03899053265154361,0.26240349365286525,-0.16067220799326895
1733861325544062000,8.69406201171875,0.026255554240942,0.24890268196891993,-0.2038242442384362
1733861325554013000,8.704012939453126,0.01170388179719448,0.2270998328205198,-0.2552300218269229
1733861325563964000,8.7139638671875,-0.013771920242905616,0.2304955396734178,-0.30340017849504947
1733861325573915000,8.723914794921875,-0.018161095112562177,0.201927032314986,-0.36158991713523864
1733861325583865900,8.733865966796875,-0.015772154149413107,0.17619312732797116,-0.4041036554768681
1733861325593817000,8.743817138671876,0.0031797990798950195,0.14296126780100166,-0.4037377447739243
1733861325603767000,8.75376708984375,0.04009469450116157,0.08044727275352924,-0.36813656229972835
1733861325613717800,8.7637177734375,0.05007949742078781,0.03243775000721216,-0.268469442628324
1733861325623669000,8.7736689453125,0.05053600901663303,0.0016598595036193728,-0.15421704050451515
1733861325633619700,8.78361962890625,0.044812955194711686,-0.02806980058867484,-0.04801467384546995
1733861325643571000,8.793571044921874,0.0311877499461174,-0.06077672292608768,0.032683541461825366
1733861325653522000,8.80352197265625,0.004815291327238082,-0.09272468012236058,0.08422054421454668
1733861325663471900,8.813471923828125,-0.03969780413806438,-0.14128686831537635,0.09450345329791307
1733861325673422800,8.8234228515625,-0.0783697723597288,-0.18052107352968305,0.11379472148418426
1733861325683373800,8.833373779296876,-0.08935469223260879,-0.19629297195076942,0.1292450963333249
1733861325693324800,8.84332470703125,-0.0948661491304636,-0.18992709018066525,0.1540478214174509
1733861325703276000,8.853276123046875,-0.09103869979679584,-0.17387352527398614,0.1622381421357393
1733861325713226800,8.863226806640625,-0.08115501916408538,-0.15328816215656696,0.16168021599203347
1733861325723177000,8.873177001953126,-0.06709142249822617,-0.124992005466111,0.17129677012115715
1733861325733128000,8.8831279296875,-0.05514087246358394,-0.09438559907190501,0.12666647801697253
1733861325743079000,8.893078857421875,-0.04284603903591633,-0.039258389807492494,0.08499795832782983
1733861325753030000,8.90302978515625,-0.010330839878320694,0.0015751403622329234,0.02833352955877781
1733861325762980900,8.91298095703125,-0.0024748656809329985,0.025688494942709802,-0.019716507861018178
1733861325772931800,8.922931884765624,0.03664601535201072,0.046109680474363264,-0.01061199490725994
1733861325782882000,8.932882080078125,0.04255260904729366,0.05277271856013685,0.005252513700723648
1733861325792832800,8.942832763671875,0.04983341370522976,0.03715498778745532,0.0705468236491084
1733861325802784000,8.952783935546876,0.055039750176668165,0.057602988260798155,0.10651800847947597
1733861325812734700,8.962734619140624,0.06955050608813762,0.029963468848168848,0.11174217286854982
1733861325822686000,8.97268603515625,0.05596913998126983,0.029334998218901454,0.08348316985070704
1733861325832637000,8.982636962890625,0.013747954845428467,0.030759697259776293,0.038333530047535896
1733861325842587000,8.9925869140625,0.004272270491719246,0.032357195584289726,-0.02413841595649719
1733861325852537900,9.002537841796874,-0.018021394380927085,0.03894647431410849,-0.06285626914650201
1733861325862489000,9.012489013671875,-0.02184358301758766,0.04638327325135469,-0.13190116380006073
1733861325872439800,9.022439697265625,-0.021286533656716344,0.07097940638009459,-0.164415193913877
1733861325882391000,9.03239111328125,-0.032786417314410204,0.09251505595967173,-0.17544015353620052
1733861325892341800,9.042341796875,-0.014375731354951857,0.11402911476194857,-0.16217735185921192
1733861325902293000,9.05229296875,-0.01053659158349037,0.11257464163731783,-0.15528145486563444
1733861325912243000,9.062242919921875,0.008635726398229598,0.1026850792530924,-0.16138795504719017
1733861325922194000,9.07219384765625,-0.006916062998771667,0.08124960211236029,-0.17437193978279827
1733861325932145000,9.082144775390624,-0.00819733498096466,0.06960409943889827,-0.16853285836577414
1733861325942096000,9.092095947265625,0.009684358668327332,0.04034432188067585,-0.15728578042536973
1733861325952046800,9.102046875,0.01987082163989544,0.02011683229021728,-0.16225743135809897
1733861325961998000,9.111998046875,0.0171884506881237,-0.007699943385459482,-0.14444851068407297
1733861325971948000,9.121947998046876,0.011145078870654105,-0.021421448615379632,-0.12393997566252946
1733861325981898800,9.131898681640624,0.003867196822166443,-0.01167713992074132,-0.12900719592422247
1733861325991850000,9.14185009765625,0.019012158983945846,-0.01914502811599523,-0.12065700846910477
1733861326001801000,9.151801025390625,0.01937105542421341,-0.01888919019140303,-0.12866466609686614
1733861326011752000,9.161751953125,0.0031599253356456754,-0.03791479317881167,-0.114481534704566
1733861326021703000,9.171702880859375,-0.013174538871645927,-0.05045662363748997,-0.08881927018165588
1733861326031652900,9.18165283203125,-0.03569792084693908,-0.0613054960405454,-0.03643091129660606
1733861326041605000,9.191605224609376,-0.015118658676743507,-0.07465100756492465,0.021579671384394167
1733861326051556000,9.20155615234375,-0.0028086276799440383,-0.060766493793018156,0.0627913872167468
1733861326061507300,9.21150732421875,0.016420973446965217,-0.06222684866916388,0.10678045880794525
1733861326071458000,9.2214580078125,0.03211304809749126,-0.06469729390330613,0.1385796186506748
1733861326081409300,9.2314091796875,0.027714520877599715,-0.05351557281669229,0.174534729129076
1733861326091359200,9.241359130859376,0.0031850597769021985,-0.038391361181996764,0.16119477056264878
1733861326101310200,9.251310302734375,-0.012336334481835364,-0.015304609702900051,0.1187426992803812
1733861326111261200,9.26126123046875,-0.016072598400712013,-0.017959873452037572,0.07416472188532353
1733861326121212200,9.271212158203125,-0.037116555473208426,0.0012712620448321102,0.048964521916210646
1733861326131163100,9.2811630859375,-0.03709375911951065,0.019082301610708237,0.02855389431118965
1733861326141114000,9.291114013671875,-0.04654723164141178,0.02516637076474726,0.024939795467257497
1733861326151064000,9.30106396484375,-0.02317687744796276,0.04943276048246771,0.020436638829112053
1733861326161015300,9.311015380859375,0.0019786065965890884,0.07868614483252168,0.01974573395550251
1733861326170966300,9.32096630859375,0.040945758372545236,0.0930447789222002,0.02552870127111673
1733861326180917200,9.330917236328125,0.026677579045295715,0.11569887460507451,-0.007762158434092998
1733861326190868200,9.3408681640625,0.024838088658452034,0.14599128314666449,-0.06728636054843663
1733861326200819200,9.350819091796875,0.00713116705417633,0.17984401451833545,-0.16022241839915513
1733861326210770200,9.360770263671874,-0.012677110743522643,0.20881438067592678,-0.2750248556211591
1733861326220720400,9.370720458984374,-0.021809680747985838,0.2304032582800835,-0.3309019334048033
1733861326230671000,9.380671142578125,-0.008194996893405913,0.21894648311175405,-0.3411149921223521
1733861326240622300,9.390622314453125,0.02069032132923603,0.21278580505754796,-0.3024149668499827
1733861326250573000,9.400572998046876,0.04830079731047153,0.20101214595977215,-0.21573183191418646
1733861326260524300,9.410524169921874,0.07654547954201697,0.18473770484402774,-0.12280395736992358
1733861326270475300,9.420475341796875,0.08318915534019469,0.11882698003035037,-0.03230272545069456
1733861326280425200,9.43042529296875,0.06928630219399928,0.06772420397642999,0.0351633755788207
1733861326290376200,9.440376220703126,0.055928807970881456,-0.01199822510126978,0.06203560041338205
1733861326300327400,9.450327392578124,0.027898645272850988,-0.05790149628333747,0.0720028676763177
1733861326310278100,9.460278076171875,-0.027263269978761672,-0.07827212067153304,0.06799743142724037
1733861326320229400,9.4702294921875,-0.05940554417073726,-0.08727741103451699,0.05821574986428022
1733861326330180000,9.48018017578125,-0.07006196274161339,-0.09091839788537472,0.06830430541932582
1733861326340130000,9.490130126953124,-0.10634557452201843,-0.10161142213959247,0.0909399155974388
1733861326350081300,9.500081298828125,-0.09995616574585438,-0.12573544424455613,0.13738456364721058
1733861326360032000,9.510031982421875,-0.08470774320960045,-0.13320811821278183,0.1692535738557577
1733861326369983200,9.519983154296876,-0.054070612883567806,-0.14788739909157156,0.2141173824548721
1733861326379934200,9.529934326171874,-0.02032908680140972,-0.16599391447268425,0.2515583475768566
1733861326389885200,9.53988525390625,-0.015045593440532683,-0.17865655829943716,0.2316930788949132
1733861326399835100,9.549835205078125,-0.018465046495199203,-0.18066643681712447,0.22813100249916313
1733861326409786000,9.5597861328125,-0.0339414325684309,-0.16733170241508633,0.1893584965124726
1733861326419737000,9.569737060546874,-0.05177987159788608,-0.15166253371611238,0.14055880976915358
1733861326429688300,9.579688232421875,-0.0910883841574192,-0.1376619923491031,0.08850392062216997
1733861326439639000,9.58963916015625,-0.10093991608619689,-0.11197517790682614,0.025552958929538724
1733861326449590300,9.59959033203125,-0.11377017156481742,-0.09076857761852443,-0.02643120306879282
1733861326459541000,9.609541015625,-0.10331249043643474,-0.06369206238351761,-0.08156067735552787
1733861326469491200,9.6194912109375,-0.07575052977204322,-0.02992383095752448,-0.10488660788536071
1733861326479442200,9.629442138671875,-0.05030570739209651,0.004811565000191331,-0.10223901598602533
1733861326489393200,9.63939306640625,-0.03412380339801311,0.04553294003233313,-0.10283522831350564
1733861326499344100,9.64934423828125,0.0028629882156848904,0.06956493647228926,-0.11245149018168449
1733861326509295000,9.659295166015625,0.020723639076948165,0.11021923761758953,-0.09617050972729921
1733861326519246000,9.66924609375,0.047691140979528424,0.1339334368126467,-0.10773907470703124
1733861326529196300,9.6791962890625,0.053415363845229144,0.13000731287747622,-0.10365355895906686
1733861326539147300,9.689147216796876,0.06608429128229618,0.10552607483267784,-0.14391893385201693
1733861326549098200,9.69909814453125,0.06741349405944347,0.10184786124397069,-0.1784995411068201
1733861326559049200,9.70904931640625,0.06855506531000137,0.09986684349458665,-0.19188129298835993
1733861326569000200,9.719000244140625,0.06171148302555084,0.09316672480143606,-0.1993158269032836
1733861326578951200,9.728951171875,0.05087503171265125,0.08384571955278515,-0.17683160789459942
1733861326588901400,9.7389013671875,0.014825813210010528,0.07784973054099828,-0.1615650651797652
1733861326598852000,9.74885205078125,-0.014989479339122772,0.058556891452148555,-0.14884616112112997
1733861326608803300,9.75880322265625,-0.025454759252071378,0.04225468554664403,-0.14864859272241593
1733861326618754000,9.768754150390626,-0.022085575079917905,0.009584113164246082,-0.15172522368878125
1733861326628705300,9.778705322265624,-0.013947861331701278,-0.0016486439898610115,-0.1495011178985238
1733861326638656300,9.78865625,-0.0053068742364645,-0.0002498831078410148,-0.11842647293806076
1733861326648606200,9.798606201171875,-0.007650222492218017,-0.0032653219388797876,-0.09758037652522325
1733861326658557200,9.80855712890625,0.001064998883008957,-0.0051951209576800465,-0.08498948276042938
1733861326668508400,9.81850830078125,0.0000011690437793731689,0.0048836438557133075,-0.07797434330135583
1733861326678459100,9.828459228515625,-0.0099906481385231,-0.0019226751582697033,-0.07010784770995378
1733861326688410400,9.838410400390625,-0.0078068743586540215,0.003176986068300903,-0.07608341498821973
1733861326698361000,9.848361083984376,-0.025179449442028996,0.02693286898061633,-0.07047580423951148
1733861326708311000,9.85831103515625,-0.024724106889963147,0.02501804833523929,-0.040458559377491474
1733861326718262300,9.86826220703125,-0.02093815861046314,0.017653766644932328,-0.020935820522904394
1733861326728213200,9.878213134765625,-0.026081951239705085,-0.0007577960973605513,0.0026996143475174904
1733861326738164200,9.888164306640626,-0.024906477719545364,0.006697999801300466,0.0323401348516345
1733861326748115200,9.898115234375,-0.010698504146933555,-0.004130268205143511,0.04913344874233007
1733861326758066200,9.908066162109375,-0.01543137788772583,-0.005784136359393596,0.055315059986710546
1733861326768017400,9.918017333984375,0.008752630776166915,0.014679025150462984,0.061816989226639266
1733861326777967000,9.927967041015625,0.0030465280890464783,0.006558773993700743,0.08852496341019868
1733861326787918000,9.93791796875,-0.013549217402935028,-0.006837737065553665,0.10819997021704912
1733861326797869300,9.947869384765625,-0.008008534410595894,-0.014375731354951857,0.1356555478975177
1733861326807820000,9.957820068359375,0.001222235271334648,-0.0011117606341838836,0.13768003946244717
1733861326817771300,9.967771240234375,0.003642740416526794,0.004450841929018497,0.11839373971223831
1733861326827722200,9.97772216796875,-0.010540098714828491,0.00593538139835,0.09198971691131591
1733861326837672200,9.987672119140624,-0.028614684587717053,0.006852203982323408,0.07182955693602562
1733861326847623200,9.997623046875,-0.02929331450164318,0.0066539779964834445,0.06392565194368362
1733861326857574100,10.00757421875,-0.0231271930873394,0.01076740466468036,-0.009185761496424675
1733861326867525000,10.017525146484376,-0.028096213671565055,0.009329919207468628,-0.04562690192610025
1733861326877476000,10.02747607421875,-0.03953238444328308,0.004966974757611751,-0.08529752579629421
1733861326887427000,10.037427001953125,-0.049209728848934174,0.005570347478240728,-0.09816226806640624
1733861326897377300,10.047377197265625,-0.02878127332627773,0.019168226328492164,-0.07682868039757013
1733861326907328300,10.057328369140626,0.001985036337375641,0.04069412169903516,-0.03650076166242361
1733861326917279200,10.067279296875,-0.0039151276171207425,0.07250796765424311,-0.029846856731176374
1733861326927230200,10.077230224609375,-0.01270867492556572,0.09086202805563807,-0.008494856622815131
1733861326937181200,10.08718115234375,-0.03391279099583626,0.0880308962829411,-0.01012011973708868
1733861326947132200,10.097132080078126,-0.055847559428215024,0.05002301799319684,-0.04719517415612936
1733861326957082400,10.107082275390624,-0.06258300516307354,0.02989164572097361,-0.05852905359715223
1733861326967033000,10.117033203125,-0.0459843370616436,0.018320450392737983,-0.045481940497457976
1733861326976984300,10.126984375,-0.009891279417276381,0.003687894732505083,-0.022249825730919836
1733861326986935000,10.13693505859375,0.009115034347772598,0.003380582349002361,-0.009569500117003917
1733861326996886300,10.14688623046875,0.04187807078659534,0.0015068243663758038,-0.01408113232254982
1733861327006837200,10.156837158203125,0.036570027506351466,0.0028113310936838387,-0.030083295835554597
1733861327016788200,10.166788330078125,0.043049452653527255,-0.00979965561106801,-0.0591249736636877
1733861327026738200,10.17673828125,0.025704934620857236,-0.0061919134426862,-0.09139292006194591
1733861327036689400,10.186689453125,0.032220015603303905,0.00935140038691461,-0.11241817243397235
1733861327046639600,10.1966396484375,0.04630348601341247,0.010039601846784353,-0.10962532684504986
1733861327056590800,10.2065908203125,0.04201251082122326,0.012107055770605802,-0.08675269304066896
1733861327066541600,10.21654150390625,0.059687868243455885,0.0022775164779275654,-0.04279810824096202
1733861327076492800,10.226492919921874,0.04144143293499946,-0.021661650579422712,-0.009989771355688572
1733861327086442800,10.23644287109375,0.020647066709399222,-0.014059212751686572,-0.019763269612193105
1733861327096393700,10.246393798828125,-0.00293839153945446,-0.015669132166355848,-0.03917991774380207
1733861327106344700,10.2563447265625,-0.011359598404169082,-0.002022811064496636,-0.06278700330257415
1733861327116296000,10.2662958984375,-0.030314474242925642,0.015407850881665944,-0.05700199016034603
1733861327126246700,10.27624658203125,-0.022459084567427633,0.004281257515773177,-0.02494593294709921
1733861327136198000,10.286197998046875,-0.006650690060853958,0.0026664427302777764,-0.0023839725270867348
1733861327146147800,10.29614794921875,0.008937339693307875,0.0004139145631343126,0.03702303197085857
1733861327156098800,10.306098876953126,0.02604454183876514,0.005103241423144936,0.055981122680008405
1733861327166049800,10.3160498046875,0.011772855380177498,0.02239756363853812,0.06525953089594841
1733861327176000800,10.326000732421875,-0.017860650861263275,0.028755700493603945,0.051045712104439735
1733861327185951700,10.33595166015625,-0.02499415600299835,0.015240239229798317,0.02872983539998531
1733861327195902700,10.34590283203125,-0.04631283836364746,0.01285173665806651,-0.006059153908491134
1733861327205852700,10.355852783203124,-0.04561784183681011,0.017779110057651995,0.0037587680116295814
1733861327215804000,10.365803955078125,-0.037273791861534115,0.02111760683059692,0.001151215861737728
1733861327225754600,10.375754638671875,-0.03385375428497791,0.005508680418878794,0.009624152913689612
1733861327235705900,10.385705810546876,-0.014894202271103859,0.005878463579341769,0.02514759299904108
1733861327245656800,10.39565673828125,0.0005441898792982101,0.005562821758911013,0.03701923257857561
1733861327255607800,10.40560791015625,-0.010887889239192008,-0.008919877101853489,0.04444879805743694
1733861327265557800,10.415557861328125,-0.002026537391543388,-0.008016790782287717,0.010046177718043326
1733861327275509000,10.425509033203125,-0.003981763112545013,-0.0007172083586454391,-0.02362725156396627
1733861327285459700,10.435459716796874,-0.015403320837020873,0.01631364061497152,-0.04787760346233844
1733861327295411000,10.445410888671875,0.010554711762070654,0.04525485374331474,-0.06601327187269926
1733861327305361700,10.455361572265625,-0.01279752225279808,0.05449651014544069,-0.07929419372826814
1733861327315313000,10.46531298828125,-0.008997545447945595,0.033914690691977736,-0.06913257293701172
1733861327325263600,10.475263671875,-0.007123568269610405,0.027952640482410786,-0.059140171232819554
1733861327335213600,10.485213623046874,-0.003111410018801689,0.03083075320199132,-0.0572428131788969
1733861327345164800,10.495164794921875,-0.004136076891422272,0.04326550655700266,-0.032713936600089075
1733861327355115800,10.50511572265625,-0.010063713374733925,0.046763650871068235,-0.03260784587711096
1733861327365066800,10.515066650390626,-0.012324059522151947,0.04634630224183202,-0.027917057712376115
1733861327375018000,10.52501806640625,-0.013044775012135504,0.04551927683316171,-0.021602759999036786
1733861327384968700,10.53496875,-0.002055178964138031,0.03753836108185351,-0.02950637273043394
1733861327394918700,10.544918701171875,0.0068634560286998745,0.04763130055107176,-0.015677169342339037
1733861327404870000,10.554869873046876,-0.008247603863477707,0.007062120405957102,0.0038102059379220006
1733861327414820600,10.564820556640624,-0.02174596786201,-0.0006046148296445608,-0.011216390541195869
1733861327424771800,10.574771728515625,-0.011641337954998016,-0.01976874950490892,-0.023820143787562847
1733861327434722600,10.58472265625,-0.01707914509475231,-0.0037966158039867874,-0.027027415396273135
1733861327444673800,10.594673828125,-0.02607961315214634,0.0054182987216860054,-0.03265519215017557
1733861327454623700,10.604623779296874,-0.013486673560738563,0.01848791591413319,-0.047535658156871795
1733861327464574700,10.61457470703125,-0.01810264292359352,0.03335530324354768,-0.04382657450586557
1733861327474525700,10.624525634765625,-0.001934182932972908,0.01886193685829639,-0.038703240142762656
1733861327484477000,10.634476806640626,0.004416647398471832,0.008746420231088995,-0.03990092549473047
1733861327494427600,10.644427734375,-0.005820668977499008,0.003004004121571779,-0.023945231471955774
1733861327504379000,10.65437890625,0.010308043524622917,-0.012956804467737674,-0.0055085342884063715
1733861327514328800,10.664328857421875,0.0159206227093935,-0.009437032843753695,-0.01412380242049694
1733861327524279800,10.67427978515625,0.02194821243584156,-0.009816241419687866,0.0016287702456116676
1733861327534230800,10.684230712890624,-0.010948094993829727,-0.02689575184062123,0.0035915947511792183
1733861327544181800,10.694181640625,-0.002850713256001472,-0.04195851561166346,-0.031878947080671786
1733861327554132700,10.7041328125,0.0013794716596603393,-0.051024450120702385,-0.04653057276755571
1733861327564083700,10.714083740234376,-0.021360183414816856,-0.058103302465751766,-0.06763619689941405
1733861327574034700,10.72403466796875,-0.03197276284396648,-0.043705651539936656,-0.061546940113604065
1733861327583985000,10.73398486328125,-0.013441080853343008,-0.0390538802113384,-0.044693420468270774
1733861327593935600,10.743935546875,-0.002331073296070099,0.005527458184584975,-0.017546178084611893
1733861327603886800,10.753886962890626,0.0028518822997808456,0.034747853580489756,0.02452010875046253
1733861327613837800,10.763837890625,-0.015111644414067267,0.048196606283634896,0.0353705885887146
1733861327623788800,10.773788818359375,-0.03313186975121498,0.054211555724218485,0.0379629431694746
1733861327633739800,10.78373974609375,-0.04771101472377777,0.04167560701705515,-0.0014610124632716177
1733861327643690000,10.79368994140625,-0.07148118188977241,0.010582768812775612,-0.01914104606062174
1733861327653640700,10.803640625,-0.04526011444032192,-0.008593421626463532,-0.02418079379349947
1733861327663592000,10.813592041015625,-0.003321837899088859,0.023077947118133307,-0.021264321824908256
1733861327673542700,10.823542724609375,0.018376783689856527,0.051173137876391404,0.005283201099932193
1733861327683494000,10.833493896484375,0.003544540739059448,0.0592660626348108,0.01857493661046028
1733861327693444600,10.843444580078126,0.01312251642346382,0.049038683130964635,0.008880933330953121
1733861327703394800,10.853394775390624,-0.002467266896367073,0.046252194217592475,-0.007770634001493453
1733861327713345800,10.863345703125,0.0012339257091283798,0.023287279019877313,-0.03522767298668623
1733861327723296800,10.873296875,0.0006412205129861831,-0.0028170301821082828,-0.03490793951302767
1733861327733247700,10.883247802734376,0.008326514318585396,-0.004274973905459046,-0.06610328824371099
1733861327743199000,10.893198974609374,0.008261632388830185,-0.017313757568225265,-0.06783873373419046
1733861327753149700,10.903149658203125,-0.005383446604013443,-0.025298911103233693,-0.06528437307626009
1733861327763099600,10.913099609375,-0.011553659671545029,-0.018228095934167503,-0.06803045691400766
1733861327773051000,10.92305078125,-0.016022329518198965,-0.012147460846230387,-0.06901625308096408
1733861327783001600,10.933001708984374,-0.01374386319220066,0.008522475282102824,-0.0574649314969778
1733861327792952800,10.942952880859375,-0.029834581771492955,0.003273687908425927,-0.05737842225730419
1733861327802903800,10.95290380859375,-0.039814123994112015,0.0044372517950832845,-0.04137275161296129
1733861327812854800,10.962854736328126,-0.026756489500403404,0.012119184599816799,-0.030303076066076753
1733861327822805800,10.9728056640625,-0.014296236377954482,-0.0009214987590909004,-0.030889059260487555
1733861327832755700,10.982755615234375,-0.0030465280890464783,0.011308891130238771,0.0018359832555055618
1733861327842706700,10.992706787109375,0.004126724541187286,0.006170213067531585,0.0182712774887681
1733861327852658000,11.002657958984376,0.006390577819943428,0.006812091167643666,0.046136605013906956
1733861327862608600,11.012608642578124,-0.0026093057155609127,0.02948335718102753,0.05383300473541021
1733861327872559900,11.022559814453125,0.000405073669552803,0.04207783114239573,0.028906945532560346
1733861327882510600,11.032510498046875,-0.012853636354207991,0.020257409804686904,0.009598726211488247
1733861327892460800,11.042460693359375,-0.0180512049973011,-0.011386194150149822,-0.027196049961447713
1733861327902411800,11.052411865234374,-0.04601765480935573,-0.0028893647659569976,-0.05583090055435896
1733861327912362800,11.06236279296875,-0.033709961900115014,-0.017968129823729397,-0.06465951917618512
1733861327922313700,11.072313720703125,-0.010761632511019706,0.006975172774866223,-0.051533203360438345
1733861327932264700,11.0822646484375,-0.012671850046515463,0.007375497204065323,-0.028423253668844697
1733861327942215700,11.092215576171874,-0.010820084699988365,0.00856843331567943,-0.010191431407630442
1733861327952166000,11.102165771484374,-0.015412673187255858,-0.008173004257306457,-0.019460487273335457
1733861327962116600,11.11211669921875,-0.011315174740552901,0.004313040893524885,-0.014419278235733508
1733861327972067800,11.12206787109375,-0.0018500117808580398,0.011801935344189404,-0.021148878751695153
1733861327982018800,11.132018798828126,-0.002051671832799911,0.002631955938786268,-0.02670563609600067
1733861327991969800,11.1419697265625,-0.018501286852359772,-0.003753507314622402,-0.02739186479449272
1733861328001920800,11.151920654296875,-0.014709493353962898,-0.0005636982973664999,-0.029086978274583813
1733861328011871000,11.16187109375,-0.015523147824406622,0.01768558655530214,-0.024497020135819912
1733861328021821700,11.17182177734375,-0.005897825866937637,0.006966770272701978,-0.015862462781369685
1733861328031773000,11.18177294921875,0.00896422770023346,0.013908917560800909,-0.0026677579045295712
1733861328041723600,11.1917236328125,0.00724924047589302,0.0185730369143188,-0.0014805939465761184
1733861328051670300,11.201670166015624,-0.014405541971325873,0.01339234634079039,-0.018982932889461516
1733861328061621200,11.211621337890625,-0.041586394363641734,0.029698680432140825,-0.029179040472209452
1733861328071571500,11.221571533203125,-0.020697920113801956,0.03928462022729218,-0.027461715160310266
1733861328081522200,11.231522216796876,-0.02989186491668224,0.032762086590752006,-0.03423310899138451
1733861328091473400,11.241473388671874,-0.038085692766308785,0.030638956956937906,-0.032685002766549585
1733861328101424000,11.251424072265625,0.00452478394806385,0.018960867188125848,-0.02259527816772461
1733861328111375400,11.261375244140625,0.01826689357459545,-0.008282090654969215,-0.005289046318829059
1733861328121326300,11.271326416015626,-0.00028057050704956055,-0.009277823694050311,-0.00236935947984457
1733861328131277300,11.28127734375,-0.007324643799662589,0.004020487687736749,0.002802490200102329
1733861328141227300,11.291227294921875,-0.018406594306230543,-0.0009933218862861394,-0.0028720483049750325
1733861328151178200,11.30117822265625,-0.019933365482091903,0.001142594163864851,0.002949497455358505
1733861328161129200,11.311129150390625,0.003760813838243484,0.00447144632562995,-0.015440730237960814
1733861328171080400,11.32108056640625,-0.00423895274400711,-0.015736571379378436,-0.01746785215139389
1733861328181031200,11.33103125,-0.0443546900331974,-0.007921586779505014,-0.004225508740544319
1733861328190982400,11.340982421875,-0.032818566018342966,-0.000054506666213274,-0.016978022807836533
1733861328200932400,11.350932373046875,-0.008854922106862067,-0.00820003839470446,-0.010937573599815368
1733861328210883300,11.36088330078125,-0.009394435811042785,-0.01384498547911644,-0.0027118893072009087
1733861328220834300,11.370834228515625,-0.0011199439406394957,-0.007243395256996154,-0.0023167525097727774
1733861328230785300,11.380785400390625,-0.0022129998743534085,-0.005586348764970898,-0.004801555062830448
1733861328240736300,11.390736328125,-0.017552023303508756,0.005392652823776006,0.0001429156020283699
1733861328250687500,11.4006875,-0.022073884642124175,0.014145502795651554,0.004616846145689487
1733861328260637200,11.41063720703125,-0.01954699651300907,0.014066227014362812,0.016940905667841434
1733861328270588200,11.420588134765625,-0.04289163174331188,-0.005108575185388326,0.016314590463042258
1733861328280539400,11.430539306640625,-0.016773440146446227,-0.010333835553005337,0.019299451492726803
1733861328290490400,11.440490478515626,0.005532499685883522,-0.0012842676568776369,0.0622229396790266
1733861328300441300,11.45044140625,0.012316460737586021,0.0015193915870040655,0.05144669412076473
1733861328310392300,11.460392333984375,-0.015285247415304183,0.015841858384758233,0.05567191060036421
1733861328320342300,11.47034228515625,-0.016501637467741966,0.013498071737587452,0.00031739538609981536
1733861328330293200,11.480293212890626,-0.011365443623065947,0.01962057320587337,-0.05071165784448385
1733861328340244200,11.490244140625,-0.02325871051251888,0.0028672259993851182,-0.09422200600802898
1733861328350195200,11.5001953125,-0.03348725906014442,0.014091507586091756,-0.0986567735850811
1733861328360146200,11.510146240234375,-0.022688217148184774,0.023557912654802202,-0.06971271091252565
1733861328370097200,11.52009716796875,-0.006398176604509353,0.032966303925961254,-0.03455751864016056
1733861328380048400,11.53004833984375,-0.016260814449191092,0.039156463802978395,0.014255319845676422
1733861328389998000,11.539998046875,-0.013515899655222891,0.0343890302054584,0.05784194811582565
1733861328399949300,11.54994921875,-0.032279052314162254,0.020974033641442656,0.050157238832116126
1733861328409900300,11.559900390625,-0.0390086528301239,-0.007602364762499928,0.021216975551843643
1733861328419851300,11.569851318359374,-0.04409925396740436,-0.035100977867096664,0.011519465140998364
1733861328429802200,11.57980224609375,-0.03026712796986103,-0.014691811566799879,0.00997018987238407
1733861328439753200,11.589753173828125,0.006855272722244263,0.004763049683347344,0.014540858788788318
1733861328449703200,11.599703125,0.00293839153945446,0.00807926155924797,0.02829991955012083
1733861328459654400,11.609654296875,0.006314005452394485,0.010876271866634488,0.02351502336114645
1733861328469605000,11.619605224609375,0.028326515296101567,0.0059306321579962965,0.021662088970839977
1733861328479556400,11.629556396484375,0.03477086912989616,-0.004030132298916578,0.014388883097469806
1733861328489507000,11.639507080078126,0.012397124758362769,-0.0027844430867582557,-0.020234394255280494
1733861328499458300,11.649458251953124,0.011747720938920974,-0.005347571573033928,-0.023875381106138228
1733861328509408300,11.659408203125,0.015205752438306807,-0.006441869615763426,-0.0569660420641303
1733861328519359200,11.669359130859375,-0.0017675941944122313,-0.014951047024875878,-0.05896744501441717
1733861328529310200,11.679310302734375,0.00887654941678047,-0.012864669204875827,-0.07274696404188871
1733861328539261400,11.689261474609374,-0.01983107415139675,-0.016306626352295277,-0.06913754137307405
1733861328549212200,11.699212158203125,-0.038787119033932685,-0.010442264363542198,-0.06891834566444158
1733861328559163400,11.709163330078125,-0.05257715945541858,-0.012369067707657814,-0.04419453103542328
1733861328569113300,11.71911328125,-0.023966566520929336,-0.010339826902374625,-0.002785539065301418
1733861328579064300,11.729064208984376,-0.019568623822927473,-0.014797390833124518,0.01667524046897888
1733861328589015300,11.739015380859374,-0.014274024546146392,0.0014181962348520755,0.04824848260134458
1733861328598966300,11.74896630859375,-0.02502981183826923,0.02771927011795342,0.04179010024219751
1733861328608917200,11.758917236328125,-0.02917699464559555,0.02348937746323645,0.04586918624937534
1733861328618868200,11.7688681640625,-0.0007213000118732452,0.04884359895028174,0.04983779761940241
1733861328628818200,11.778818115234374,0.029302666851878163,0.0452728277914226,0.029118834717571734
1733861328638769400,11.788769287109375,0.009664484924077987,0.05600223853327334,0.007748714430630206
1733861328648720400,11.798720458984375,-0.006582885521650314,0.0308016001727432,0.008496025666594504
1733861328658671400,11.80867138671875,-0.0053869537353515625,0.018346242421120405,0.0029278701454401013
1733861328668622300,11.818622314453124,-0.013072832062840462,-0.019620865466818214,-0.015483108074963092
1733861328678573300,11.8285732421875,-0.03495966970026493,-0.023624109758809207,-0.02915565959662199
1733861328688524300,11.838524169921875,-0.04074351379871368,-0.027057591338828204,-0.03369856372326612
1733861328698474200,11.84847412109375,-0.012385434320569037,-0.022799933894351122,-0.030978491109609603
1733861328708425200,11.85842529296875,-0.01101765309870243,-0.019551891883835194,-0.024173487269878387
1733861328718376200,11.868376220703125,-0.02459901920557022,-0.007778890373185276,-0.013977964209020137
1733861328728327200,11.8783271484375,-0.011537293058633803,-0.02343508999273181,-0.008547463592886924
1733861328738278400,11.8882783203125,-0.018770751443505287,-0.01655365991592407,-0.029082886621356007
1733861328748229400,11.8982294921875,-0.007252163085341453,-0.009617942368611692,-0.03947860842943191
1733861328758179000,11.908178955078125,-0.022498247534036633,-0.013402283212915062,-0.06896919906884431
1733861328768130300,11.91813037109375,-0.005074819046258926,-0.00543203498609364,-0.04789543137997389
1733861328778081300,11.928081298828126,-0.010166004705429077,-0.01691664800941944,-0.04073533049225807
1733861328788032300,11.9380322265625,-0.02846855411529541,0.020723858272656798,-0.055228550747036934
1733861328797983200,11.947983154296875,-0.006917816564440727,0.03577215512692928,-0.04196048837304115
1733861328807934200,11.957934326171875,0.007656067711114883,0.023443784755840896,-0.013607377330958842
1733861328817884200,11.96788427734375,0.019289806881546974,0.024593173986673354,0.010049392588436602
1733861328827835400,11.97783544921875,0.002461421677470207,0.038163141916692254,0.028956629893183705
1733861328837786000,11.9877861328125,0.02357552137672901,0.009398819725215434,0.04319938251823187
1733861328847737300,11.9977373046875,0.012261515679955481,0.00472542108669877,0.013243512454628943
1733861328857688000,12.00768798828125,-0.03990764749646187,0.007311272861436009,-0.011513619922101497
1733861328867639300,12.017639404296874,-0.045428456744551655,0.024301132237538693,-0.017424889792501924
