time,seconds_elapsed,z,y,x
1733703379436777000,0.01777685546875,0.020663784816861153,0.007678366266191006,0.004227870609611273
1733703379446743800,0.027743896484375,0.019762039184570312,0.013186316005885601,0.0003114258870482445
1733703379456710000,0.0377099609375,0.01931215450167656,0.01669691875576973,0.0005206249188631773
1733703379466677000,0.047677001953125,0.020802726969122887,0.017642874270677567,-0.0025460051838308573
1733703379476643800,0.057643798828125,0.020820360630750656,0.017458830028772354,-0.00504229124635458
1733703379486611000,0.06761083984375,0.0169832780957222,0.01514827273786068,-0.005186368711292744
1733703379496576800,0.07757666015625,-0.007052733097225428,0.0330379419028759,0.0042693400755524635
1733703379506543900,0.0875439453125,-0.0038731852546334267,0.020390590652823448,0.0048509747721254826
1733703379516510700,0.0975107421875,-0.001286323880776763,0.0009369412437081337,0.0031714895740151405
1733703379526477800,0.107477783203125,0.0032546319998800755,0.0032855826430022717,0.0006276379572227597
1733703379536444000,0.11744384765625,0.004014273639768362,0.005381377879530191,-0.00819557998329401
1733703379546410800,0.12741064453125,0.0035266487393528223,0.00465007359161973,-0.008238190785050392
1733703379556377900,0.1373779296875,0.002876837505027652,0.006965159438550472,-0.0013501911889761686
1733703379566344700,0.1473447265625,0.0015902644954621792,0.004743018187582493,-0.0028287784662097692
1733703379576310800,0.157310791015625,-0.0010668057948350906,0.0007968386635184288,-0.00696597108617425
1733703379586277600,0.167277587890625,-0.0031278261449187994,-0.0013648495078086853,-0.01014605164527893
1733703379596244700,0.17724462890625,-0.0054822927340865135,-0.004449681378901005,-0.010045145638287067
1733703379606211800,0.1872119140625,-0.006638370454311371,-0.008631642907857895,-0.007457352243363857
1733703379616178000,0.197177978515625,-0.004113883711397648,-0.013376621529459953,-0.0060364315286278725
1733703379626144800,0.207144775390625,-0.0027788409497588873,-0.014969991520047188,-0.006968804635107517
1733703379636111600,0.217111572265625,-0.002051054732874036,-0.013634848408401012,-0.004519695416092873
1733703379646078700,0.22707861328125,0.0007026538369245827,-0.013401555828750134,-0.002668798668310046
1733703379656045000,0.237045166015625,0.004550463519990444,-0.007028899155557156,-0.00009872135706245899
1733703379666012000,0.247011962890625,0.005483635701239109,-0.00029562972486019135,0.0011404475662857294
1733703379675979000,0.25697900390625,0.01010819524526596,0.00591034023091197,-0.00038923718966543674
1733703379685945900,0.26694580078125,0.013256850652396679,0.009477111510932446,-0.001249970868229866
1733703379695912000,0.276911865234375,0.017858223989605904,0.011624695733189583,-0.003878174815326929
1733703379705878800,0.286878662109375,0.018150106072425842,0.012583168223500252,-0.0026877415366470814
1733703379715846000,0.296845947265625,0.020708709955215454,0.009457207284867764,0.0003715859493240714
1733703379725813000,0.30681298828125,0.01719173975288868,0.0035889316350221634,0.0019343289313837886
1733703379735778800,0.31677880859375,0.01656162552535534,-0.0039546433836221695,0.004631818272173405
1733703379745746000,0.326745849609375,0.013232674449682236,-0.009559531696140766,0.006563142873346806
1733703379755712800,0.336712646484375,0.008308526128530502,-0.013271105475723743,0.007214444689452648
1733703379765679900,0.346679931640625,0.004629102535545826,-0.012854586355388165,0.007147599942982197
1733703379775647000,0.35664697265625,0.003402551170438528,-0.010590489022433758,0.0039053226355463266
1733703379785612800,0.36661279296875,0.003665405325591564,-0.005945934914052486,0.00019260973203927279
1733703379795580000,0.376579833984375,0.00271779322065413,0.0005889497697353363,-0.0028411555103957653
1733703379805546800,0.386546630859375,0.0014754286967217922,0.0024262643419206142,-0.0057032546028494835
1733703379815513900,0.396513916015625,0.0002450067549943924,0.004825340583920479,-0.0062752654775977135
1733703379825479700,0.406479736328125,-0.0015981670003384352,0.004804301541298628,-0.004404127597808838
1733703379835446800,0.41644677734375,-0.002108867047354579,0.0017949827015399933,-0.0022358684800565243
1733703379845414000,0.426413818359375,-0.004278011620044708,-0.004951603710651398,-0.002626288216561079
1733703379855380700,0.436380615234375,-0.004048103466629982,-0.012278599664568901,-0.004506179131567478
1733703379865346800,0.446346923828125,-0.001516502583399415,-0.01853969134390354,-0.0015657830517739058
1733703379875313700,0.456313720703125,-0.00280475034378469,-0.020436637103557587,0.004695184528827667
1733703379885280800,0.46628076171875,-0.0030526905320584774,-0.021942922845482826,0.006099202670156956
1733703379895248000,0.476247802734375,-0.0038122774567455053,-0.019759997725486755,0.005578428506851196
1733703379905214000,0.4862138671875,-0.0025398193392902613,-0.01337426993995905,0.00127529283054173
1733703379915180800,0.496180908203125,-0.0007813535048626363,-0.001677926629781723,-0.0019348456989973783
1733703379925147600,0.506147705078125,0.0037755814846605062,0.009538242593407631,-0.0070065688341856
1733703379935114800,0.51611474609375,0.006579260341823101,0.014234759844839573,-0.01507470291107893
1733703379945080800,0.526080810546875,0.01208481378853321,0.0167812742292881,-0.022058844566345215
1733703379955048000,0.5360478515625,0.014670819975435734,0.012448284775018692,-0.023311203345656395
1733703379965015000,0.54601513671875,0.013946706429123878,0.005055882502347231,-0.014342210255563259
1733703379974982000,0.55598193359375,0.00965229980647564,-0.0043351175263524055,-0.0020457934588193893
1733703379984948000,0.565947998046875,0.0070463973097503185,-0.012257755734026432,0.0017840986838564277
1733703379994914800,0.575914794921875,0.0071690925396978855,-0.011996558867394924,0.0012907948112115264
1733703380004882000,0.5858818359375,0.0042662471532821655,-0.008952566422522068,0.0022396789863705635
1733703380014849000,0.59584912109375,-0.0015970601234585047,-0.007048997096717358,0.00457867793738842
1733703380024814800,0.60581494140625,-0.00553321186453104,-0.0033099185675382614,0.005967250093817711
1733703380034782000,0.615781982421875,-0.0051992516964674,0.003381007816642523,0.009558256715536118
1733703380044748800,0.625748779296875,-0.007563606835901737,0.007793066557496786,0.009850671514868736
1733703380054716000,0.6357158203125,-0.00565685098990798,0.01114591769874096,0.00731551181524992
1733703380064681700,0.645681640625,-0.003047752194106579,0.009703549556434155,0.0012091501848772168
1733703380074648800,0.65564892578125,0.0015307639259845018,0.00818243995308876,-0.0033521081786602736
1733703380084616000,0.665615966796875,0.004379281308501959,0.008225317113101482,-0.004695406183600426
1733703380094582800,0.675582763671875,0.004658893682062626,0.003655871842056513,-0.00692204013466835
1733703380104548900,0.685548828125,0.0039768582209944725,0.0029203067533671856,-0.005029330961406231
1733703380114515700,0.695515625,0.0021815053187310696,0.0029421821236610413,-0.002495385939255357
1733703380124482800,0.70548291015625,0.0006464592297561467,0.0036963894963264465,-0.0011915022041648626
1733703380134450000,0.715449951171875,0.00011688220547512174,0.0033119628205895424,-0.002902504289522767
1733703380144415700,0.725415771484375,-0.0023353565484285355,0.004318105056881905,-0.0038633726071566343
1733703380154382800,0.7353828125,-0.004964685533195734,0.0017269374802708626,-0.0038945937994867563
1733703380164349700,0.745349609375,-0.006060043815523386,-0.004168502055108547,-0.0023307858500629663
1733703380174316800,0.75531689453125,-0.006165141239762306,-0.008784592151641846,-0.0012473256792873144
1733703380184283000,0.765282958984375,-0.006918283179402351,-0.008773406967520714,-0.00008325790986418724
1733703380194250000,0.77525,-0.006280229426920414,-0.007882566191256046,0.0015858173137530684
1733703380204216800,0.785216796875,-0.007577721029520035,-0.008458075113594532,0.0020678495056927204
1733703380214183700,0.79518359375,-0.002393728354945779,-0.00937576126307249,-0.0015708785504102707
1733703380224150000,0.80514990234375,-0.0015300652012228966,-0.005867046304047108,-0.005809299647808075
1733703380234116900,0.815116943359375,-0.0006706826388835907,-0.004382593557238579,-0.0031570217106491327
1733703380244084000,0.825083984375,-0.0002701432094909251,-0.003982320427894592,0.0006694080075249076
1733703380254050800,0.83505078125,-0.00289653311483562,-0.0026821717619895935,0.0015727166319265962
1733703380264017000,0.845016845703125,0.0013615950010716915,-0.001260310411453247,0.001896823407150805
1733703380273984000,0.85498388671875,0.004995447583496571,0.005823085550218821,-0.0012080555316060781
1733703380283950800,0.864950927734375,0.004107282962650061,0.010641010478138924,-0.002676788717508316
1733703380293918000,0.87491796875,0.004809440113604069,0.013683712109923363,-0.0019085165113210678
1733703380303883800,0.8848837890625,0.003387578297406435,0.014081322588026524,-0.003943704068660736
1733703380313851000,0.894850830078125,-0.0020516617223620415,0.015098916366696358,-0.00402439758181572
1733703380323817000,0.90481689453125,-0.0029089334420859814,0.016043273732066154,-0.002096269279718399
1733703380333783800,0.91478369140625,-0.005335077177733183,0.013083789497613907,-0.0002741680946201086
1733703380343750000,0.92475,-0.006303402129560709,0.012388970702886581,-0.0004379523452371359
1733703380353716700,0.934716796875,-0.003995837643742561,0.012315577827394009,-0.0011807705741375685
1733703380363683800,0.944683837890625,-0.004667486995458603,0.013365661725401878,-0.00480932742357254
1733703380373651000,0.95465087890625,-0.0073519241996109486,0.011336947791278362,-0.002691147616133094
1733703380383617000,0.964616943359375,-0.01089605875313282,0.01027115061879158,-0.0011129581835120916
1733703380393584000,0.974584228515625,-0.013285141438245773,0.007555779069662094,0.0004204181022942066
1733703380403551000,0.984551025390625,-0.015038566663861275,0.004092338029295206,0.0007224205182865262
1733703380413517800,0.994517822265625,-0.014271131716668606,0.004709330853074789,-0.00007791910320520401
1733703380423484000,1.00448388671875,-0.012648201547563076,0.0027159550227224827,-0.0009245378896594048
1733703380433451000,1.014450927734375,-0.0078026242554187775,0.004081276711076498,-0.0028615929186344147
1733703380443418000,1.024418212890625,-0.0066774385049939156,0.0029512974433600903,-0.0023036603815853596
1733703380453385000,1.034385009765625,-0.004975348245352507,-0.0007259221747517586,-0.0030598968733102083
1733703380463351000,1.04435107421875,-0.004744984675198793,-0.0012391135096549988,-0.0037973264697939157
1733703380473318000,1.05431787109375,-0.0047947256825864315,-0.0018002623692154884,0.0009176906896755099
1733703380483285000,1.064284912109375,-0.004090852104127407,-0.0004372568801045418,0.0023627218324691057
1733703380493252000,1.074252197265625,-0.005747064016759396,0.002330923452973366,0.0006877994164824486
1733703380503218000,1.084218017578125,-0.005447458475828171,0.003886209335178137,0.004191454034298658
1733703380513185000,1.09418505859375,-0.0027488048654049635,0.00895586609840393,0.0022322575096040964
1733703380523152000,1.10415185546875,-0.0004366483772173524,0.009989172220230103,-0.00039761397056281567
1733703380533119000,1.114118896484375,-0.0016636621439829469,0.013837471604347229,-0.0037692654877901077
1733703380543084800,1.124084716796875,-0.003234394360333681,0.013954916968941689,-0.00494371959939599
1733703380553052000,1.134052001953125,-0.0012071928940713406,0.011837881989777088,-0.008303262293338776
1733703380563019000,1.14401904296875,-0.003185122739523649,0.00875021331012249,-0.009730450809001923
1733703380572985900,1.15398583984375,-0.0020231856033205986,0.006376803852617741,-0.009732048027217388
1733703380582952000,1.163951904296875,-0.004707385320216417,0.00431072385981679,-0.008436420001089573
1733703380592918800,1.173918701171875,-0.006482343189418316,0.0045400080271065235,-0.0028933894354850054
1733703380602886000,1.183885986328125,-0.008302080444991589,0.0034268065355718136,0.0019559606444090605
1733703380612852700,1.193852783203125,-0.011085370555520058,0.007963242940604687,0.0008177616400644183
1733703380622819000,1.203819091796875,-0.014835101552307606,0.005603681784123182,0.001084876712411642
1733703380632786000,1.213785888671875,-0.017072349786758423,0.003893463406711817,0.00021411420311778784
1733703380642752800,1.223752685546875,-0.01675543375313282,-0.0021170247346162796,0.0029318700544536114
1733703380652719900,1.233719970703125,-0.01671987771987915,-0.006731528788805008,0.005893854424357414
1733703380662686000,1.24368603515625,-0.009153571911156178,-0.010452762246131897,0.007445145398378372
1733703380672653000,1.253653076171875,-0.007339782081544399,-0.007474343292415142,0.0046133482828736305
1733703380682620000,1.263619873046875,-0.003527999622747302,-0.003090514801442623,0.002838617656379938
1733703380692587000,1.2735869140625,0.0015026128385215998,0.004632153082638979,0.0011170648504048586
1733703380702553000,1.283552978515625,0.0019188649021089077,0.011855711229145527,-0.0019415754359215498
1733703380712520000,1.29352001953125,0.0032901593949645758,0.016189634799957275,-0.004767469596117735
1733703380722487000,1.303487060546875,0.006321635562926531,0.01657392829656601,-0.005915824789553881
1733703380732454000,1.313453857421875,0.0044639501720666885,0.012944711372256279,-0.004102018661797047
1733703380742420000,1.323419921875,0.002287881448864937,0.006004513707011938,-0.00034562963992357254
1733703380752386800,1.33338671875,-0.0027353730984032154,-0.002477654255926609,0.006251286715269089
1733703380762354000,1.34335400390625,-0.0032024916727095842,-0.008268964476883411,0.007318947464227676
1733703380772321000,1.353321044921875,-0.006307185161858797,-0.00830066204071045,0.004310871474444866
1733703380782286800,1.363286865234375,-0.007033429108560085,-0.0026366515085101128,0.004379314836114645
1733703380792254000,1.37325390625,-0.009779464453458786,-0.002647644840180874,0.008416002616286278
1733703380802220800,1.383220703125,-0.0081179179251194,-0.004333958961069584,0.0053826626390218735
1733703380812188000,1.39318798828125,-0.005069743376225233,-0.00046089570969343185,0.004192375112324953
1733703380822153700,1.40315380859375,-0.0018196216551586986,0.007025516591966152,0.004259753040969372
1733703380832120800,1.413120849609375,-0.0004286204930394888,0.00540159922093153,0.008770513348281384
1733703380842088000,1.423087890625,0.004847634118050337,0.002969068009406328,0.009963076561689377
1733703380852054800,1.4330546875,0.007842248305678368,0.0014504818245768547,0.005037540569901466
1733703380862020900,1.443020751953125,0.01164976879954338,0.0021476978436112404,0.0017131164204329252
1733703380871987700,1.45298779296875,0.01110009290277958,0.0023000305518507957,-0.0006685485132038593
1733703380881954800,1.462954833984375,0.0092651741579175,0.00468542380258441,-0.00007093511521816254
1733703380891922000,1.472921875,0.005871420726180077,0.0035465946421027184,0.0009079831652343273
1733703380901888000,1.482887939453125,0.003066579345613718,0.0016586799174547195,0.005947482772171497
1733703380911855000,1.492855224609375,0.0003349748731125146,0.000802207738161087,0.0062345718033611774
1733703380921822000,1.502822021484375,-0.001979311928153038,0.0017644073814153671,0.004226282238960266
1733703380931788800,1.512788818359375,-0.0005327623803168535,0.005678749643266201,0.0033723514061421156
1733703380941755000,1.5227548828125,-0.0031338718254119158,0.009683078154921532,0.0024125482887029648
1733703380951722000,1.532721923828125,-0.0015724406111985445,0.013306035660207272,0.0005996981635689735
1733703380961689000,1.542689208984375,0.0001498255878686905,0.014974239282310009,-0.0013492030557245016
1733703380971656000,1.552656005859375,0.00045818003127351403,0.01720252074301243,-0.002939570229500532
1733703380981622000,1.5626220703125,-0.000761547707952559,0.01649918034672737,-0.0020253071561455727
1733703380991588900,1.5725888671875,0.003575589507818222,0.012899854220449924,-0.004424876533448696
1733703381001556000,1.582555908203125,0.005914644338190556,0.010192218236625195,-0.0015529238153249025
1733703381011523000,1.592523193359375,0.004896850790828466,0.006857211235910654,0.0029465844854712486
1733703381021489000,1.602489013671875,0.00543214613571763,0.004172478802502155,0.004861930385231972
1733703381031456000,1.6124560546875,0.004855917301028967,0.0030304882675409317,0.007067947648465633
1733703381041422800,1.6224228515625,0.00607910705730319,0.0027346108108758926,0.008412577211856842
1733703381051389000,1.632388916015625,0.007741502486169338,0.0032177818939089775,0.0070252008736133575
1733703381061355800,1.642355712890625,0.008404895663261414,0.002872370183467865,0.002098619472235441
1733703381071323000,1.652322998046875,0.0020418050698935986,0.0021168310195207596,0.004881889093667269
1733703381081290000,1.6622900390625,0.0009248754940927029,-0.0015026712790131569,0.0070616863667964935
1733703381091255800,1.672255859375,-0.0038806069642305374,-0.004409673623740673,0.0063367364928126335
1733703381101223000,1.682222900390625,-0.006720069330185652,-0.00739667471498251,0.0031068543903529644
1733703381111189800,1.692189697265625,-0.006868955213576555,-0.007666350342333317,0.0033489156048744917
1733703381121156900,1.702156982421875,-0.008112652227282524,-0.005177626386284828,-0.0009273220784962177
1733703381131123000,1.712123046875,-0.004392747767269611,-0.005040207877755165,-0.0039108614437282085
1733703381141089800,1.72208984375,-0.0028624956030398607,-0.005505462177097797,-0.00600810069590807
1733703381151057000,1.732056884765625,0.0016210356261581182,-0.004538503475487232,-0.006758228875696659
1733703381161023700,1.742023681640625,0.0022351606748998165,-0.0012449724599719048,-0.002401297213509679
1733703381170990000,1.751989990234375,0.0002943089057225734,0.0011241547763347626,-0.0011896686628460884
1733703381180957000,1.76195703125,-0.0010210262844339013,0.003196094185113907,-0.0016991314478218555
1733703381190924000,1.771924072265625,0.00202395161613822,0.004686427768319845,-0.0003751278854906559
1733703381200891100,1.78189111328125,0.0006119436584413052,0.0027716150507330894,0.00023846456315368414
1733703381210857000,1.79185693359375,0.0016993421595543623,0.004547758027911186,0.0013164132833480835
1733703381220824000,1.801823974609375,0.0033390503376722336,0.002522424329072237,0.0027654392179101706
1733703381230791000,1.811791015625,0.006193317472934723,0.003510137554258108,0.0013491478748619556
1733703381240758000,1.821758056640625,0.0073278238996863365,0.0052904607728123665,0.0013073363807052374
1733703381250723800,1.831723876953125,0.004150288179516792,0.010068478062748909,0.0018175484146922827
1733703381260691000,1.84169091796875,0.0043929023668169975,0.014851781539618969,-0.0008615916594862938
1733703381270658000,1.851657958984375,0.001064168638549745,0.016188614070415497,-0.0007341585587710142
1733703381280625000,1.861625,-0.00041388580575585365,0.017061330378055573,-0.0015126003418117762
1733703381290591000,1.871591064453125,-0.0008060688269324601,0.011384500190615654,-0.003254224546253681
1733703381300557800,1.881557861328125,-0.002236985368654132,0.0051452466286718845,-0.004386600572615862
1733703381310525000,1.89152490234375,-0.0031478269957005978,-0.0029384978115558624,-0.0046805404126644135
1733703381320492300,1.9014921875,-0.006562531925737858,-0.009592670947313309,0.00063219980802387
1733703381330458400,1.911458251953125,-0.009898774325847626,-0.01613549143075943,0.005365884862840176
1733703381340425200,1.92142529296875,-0.00890195369720459,-0.016537360846996307,0.004310207441449165
1733703381350392300,1.931392333984375,-0.011405580677092075,-0.013033885508775711,0.00153406523168087
1733703381360359200,1.941359130859375,-0.007543197367340326,-0.009246870875358582,-0.0024777206126600504
1733703381370325200,1.9513251953125,-0.006366914138197899,-0.007595619186758995,-0.0029239109717309475
1733703381380292400,1.961292236328125,-0.0028784391470253468,-0.008629191666841507,-0.002829901408404112
1733703381390259200,1.97125927734375,0.0015152283012866974,-0.00969275739043951,-0.002992107067257166
1733703381400226300,1.981226318359375,0.0051925210282206535,-0.010164669714868069,-0.005346341524273157
1733703381410192100,1.991192138671875,0.006684604566544294,-0.006744435057044029,-0.0012382117565721273
1733703381420159200,2.0011591796875,0.006851051934063435,-0.00012062210589647293,0.001749855000525713
1733703381430126000,2.0111259765625,0.009204650297760963,0.007954820990562439,-0.0002139895223081112
1733703381440093200,2.02109326171875,0.01255517266690731,0.014741088263690472,-0.0035799588076770306
1733703381450059500,2.0310595703125,0.014406092464923859,0.01769781857728958,-0.006155858281999826
1733703381460026400,2.0410263671875,0.01242842897772789,0.016472764313220978,-0.0032564750872552395
1733703381469993500,2.050993408203125,0.011338050477206707,0.011620848439633846,-0.0014737725723534822
1733703381479960300,2.060960205078125,0.005509456619620323,0.003638023044914007,0.002759321825578809
1733703381489926400,2.070926513671875,0.00421624630689621,0.0011321790516376495,0.004930724389851093
1733703381499893200,2.080893310546875,-0.0016014294233173132,-0.0033163651823997498,0.005092111881822348
1733703381509860400,2.0908603515625,-0.003953024744987488,-0.0038195233792066574,0.0030293194577097893
1733703381519827500,2.100827392578125,-0.00706546101719141,-0.0038189906626939774,0.0033952377270907164
1733703381529793300,2.110793212890625,-0.00991876795887947,-0.002431921660900116,0.003600511932745576
1733703381539760400,2.120760498046875,-0.009206372313201427,-0.002125924453139305,0.0023906377609819174
1733703381549727200,2.130727294921875,-0.008846300654113293,0.0063379546627402306,0.0020270519889891148
1733703381559693300,2.140693359375,-0.008577854372560978,0.011817675083875656,-0.0027818181551992893
1733703381569660200,2.15066015625,-0.0031638459768146276,0.011350174434483051,-0.005230676382780075
1733703381579627300,2.160627197265625,0.0007331575616262853,0.013029830530285835,-0.0077753267250955105
1733703381589594400,2.170594482421875,0.0060057127848267555,0.011335344053804874,-0.009080905467271805
1733703381599560200,2.180560302734375,0.007829445414245129,0.003656651359051466,-0.006543445400893688
1733703381609527300,2.19052734375,0.008407486602663994,-0.0033823279663920403,-0.0045129344798624516
1733703381619494100,2.200494140625,0.0035347011871635914,-0.006803159601986408,-0.004317191895097494
1733703381629461200,2.210461181640625,0.001875774934887886,-0.006114614196121693,-0.00373260211199522
1733703381639427000,2.220427001953125,0.0005508523317985237,-0.005968139506876469,-0.0019962210208177567
1733703381649394200,2.230394287109375,-0.0005473331548273563,-0.005424627102911472,-0.0026139928959310055
1733703381659361300,2.240361328125,-0.0021670679561793804,-0.006027032621204853,-0.0017138444818556309
1733703381669328100,2.250328125,-0.004132541827857494,-0.004707414656877518,0.0020775427110493183
1733703381679294500,2.26029443359375,-0.004326153546571732,-0.008142626844346523,0.004623258486390114
1733703381689261300,2.27026123046875,-0.004917764570564032,-0.005129845812916756,0.0035840990021824837
1733703381699228200,2.280228271484375,-0.003885789541527629,-0.007267565466463566,0.00143785763066262
1733703381709195300,2.2901953125,-0.0015814641956239939,-0.005068630911409855,0.002694440074265003
1733703381719161300,2.300161376953125,0.001622318523004651,-0.004456103779375553,0.0035405263770371675
1733703381729128400,2.31012841796875,0.004543608520179987,-0.004147824831306934,0.0008996543474495411
1733703381739095300,2.32009521484375,0.0049044666811823845,-0.0023437999188899994,0.0023529413156211376
1733703381749062400,2.3300625,0.00651981495320797,0.00295610586181283,0.0061090728268027306
1733703381759028200,2.3400283203125,0.00802689790725708,0.0038410741835832596,0.005932238884270191
1733703381768995300,2.349995361328125,0.006669217254966497,0.00845811516046524,0.0046556987799704075
1733703381778962400,2.35996240234375,0.009204546920955181,0.0106245968490839,0.0008822658564895391
1733703381788929300,2.36992919921875,0.008820093236863613,0.009791167452931404,-0.0010832988191395998
1733703381798895400,2.379895263671875,0.005373429507017136,0.00609523244202137,-0.001437765546143055
1733703381808862200,2.3898623046875,0.0025210846215486526,0.00218361709266901,0.0008583273738622665
1733703381818829300,2.399829345703125,-0.0008177205454558134,-0.004726753570139408,0.004719112068414688
1733703381828796400,2.40979638671875,-0.00809437409043312,-0.007003189064562321,0.00688124680891633
1733703381838762200,2.41976220703125,-0.010900015011429787,-0.007038078270852566,0.005311845801770687
1733703381848729300,2.429729248046875,-0.011279928497970104,-0.006313738413155079,0.005020545795559883
1733703381858696200,2.4396962890625,-0.010822930373251438,-0.0046157073229551315,0.0011118240654468536
1733703381868663300,2.449663330078125,-0.0038164397701621056,0.0003268606960773468,-0.0015720734372735023
1733703381878629000,2.459629150390625,-0.0012664631940424442,0.0003148764371871948,-0.003945216070860624
1733703381888596200,2.46959619140625,-0.0012031043879687786,0.0025629294104874134,-0.0045876940712332726
1733703381898563300,2.479563232421875,0.002401484176516533,0.002624714747071266,-0.0034284198191016912
1733703381908530200,2.4895302734375,0.0015009950147941709,0.00465772720053792,-0.0027239760383963585
1733703381918496300,2.499496337890625,0.0006836709217168391,0.007223150227218866,-0.003409207332879305
1733703381928463000,2.509463134765625,-0.0011793976882472634,0.005819104611873627,-0.0008950615301728249
1733703381938430200,2.51943017578125,-0.002429485321044922,0.0028970842249691486,0.0009595637675374746
1733703381948396300,2.529396240234375,-0.000040097394958138466,0.0005298005416989326,0.0040288567543029785
1733703381958363400,2.53936328125,0.0008102499414235353,-0.0029003508388996124,0.0038560177199542522
1733703381968330500,2.54933056640625,0.0020425706170499325,-0.0071868328377604485,0.004222378600388765
1733703381978297300,2.55929736328125,0.00451052188873291,-0.007188164629042149,0.0038631181232631207
1733703381988263400,2.569263427734375,0.0029524769634008408,-0.005562440492212772,0.0017899738159030676
1733703381998230300,2.579230224609375,0.0025506059173494577,-0.001402582973241806,-0.0006241817027330399
1733703382008197400,2.589197265625,0.00843645166605711,0.004007270559668541,-0.0013389161322265863
1733703382018164500,2.59916455078125,0.00578873697668314,0.006576155312359333,-0.0028169704601168633
1733703382028130300,2.60913037109375,0.0019634950440376997,0.011185775510966778,-0.0028139962814748287
1733703382038097400,2.619097412109375,0.00001592538319528103,0.007529787719249725,-0.0005364608950912952
1733703382048064300,2.629064208984375,0.00031362895970232785,-0.0007031960412859917,-0.00075312121771276
1733703382058031400,2.63903125,0.0008521201089024544,-0.006867614574730396,-0.00019119423814117908
1733703382067997200,2.6489970703125,0.0002356157056055963,-0.007525320164859295,-0.0007758422289043665
1733703382077964300,2.65896435546875,0.001314462162554264,-0.011028441600501537,0.002644189400598407
1733703382087931400,2.668931396484375,0.0038521678652614355,-0.011256933212280273,0.0010780212469398975
1733703382097898200,2.678898193359375,0.0014095165533944964,-0.009721355512738228,-0.0018498578574508429
1733703382107864300,2.6888642578125,-0.000605348963290453,-0.0034395214170217514,-0.0011203002650290728
1733703382117831200,2.6988310546875,-0.0028434693813323975,0.002730756998062134,-0.00007793912664055824
1733703382127798300,2.70879833984375,-0.006017322186380625,0.0030685062520205975,-0.002597526181489229
1733703382137765400,2.718765380859375,-0.005983766634017229,0.0024506528861820698,-0.0028060516342520714
1733703382147731200,2.728731201171875,-0.006284145172685385,0.000472276471555233,-0.0015030612703412771
1733703382157698300,2.7386982421875,-0.004171459469944239,-0.004519020207226276,0.000871945871040225
1733703382167665200,2.7486650390625,-0.0037669306620955467,-0.007975365035235882,0.003682703711092472
1733703382177632300,2.75863232421875,-0.0017940609250217676,-0.00995515938848257,0.0021670986898243427
1733703382187598300,2.768598388671875,0.0006603847723454237,-0.008429273031651974,0.0022781880106776953
1733703382197565400,2.7785654296875,-0.000124182493891567,-0.003990849480032921,0.0024518261197954416
1733703382207532300,2.7885322265625,0.001698187435977161,0.0019433926790952682,-0.00026742718182504177
1733703382217499100,2.7984990234375,0.004343771375715733,0.009055097587406635,-0.0020576040260493755
1733703382227465500,2.808465576171875,0.009760120883584023,0.013681894168257713,-0.004754652269184589
1733703382237432300,2.818432373046875,0.009132945910096169,0.011150559410452843,-0.006268925964832306
1733703382247399400,2.8283994140625,0.009266724810004234,0.0069881826639175415,-0.0037329145707190037
1733703382257365200,2.838365234375,0.005140955559909344,-0.0057254815474152565,-0.0011163586750626564
1733703382267332400,2.848332275390625,-0.0007157872314564884,-0.0154847651720047,0.0041621970012784
1733703382277299500,2.858299560546875,-0.0030529776122421026,-0.0177037101238966,0.0037960121408104897
1733703382287266300,2.868266357421875,-0.008320258930325508,-0.015506739728152752,-0.00021487870253622532
1733703382297232400,2.878232421875,-0.01106358040124178,-0.01374958548694849,0.0024988825898617506
1733703382307199200,2.88819921875,-0.009072227403521538,-0.008930540643632412,0.006341848522424698
1733703382317166300,2.898166259765625,-0.010041352361440659,-0.007556348107755184,0.007816707715392113
1733703382327133400,2.908133544921875,-0.00996500626206398,-0.0033504823222756386,0.0042501408606767654
1733703382337099300,2.918099365234375,-0.00866751465946436,0.0023670587688684464,0.0018985695205628872
1733703382347066400,2.92806640625,-0.004884146153926849,0.005908400751650333,0.0026865017134696245
1733703382357033200,2.938033203125,0.0014517803210765123,0.005258056800812483,0.0026625331956893206
1733703382367000300,2.948000244140625,0.0032468955032527447,0.006732527166604996,-0.0013671917840838432
1733703382376966100,2.957966064453125,0.006850152276456356,0.007048644125461578,-0.00376137369312346
1733703382386933200,2.967933349609375,0.00915086641907692,0.0068812198005616665,-0.0028969740960747004
1733703382396900400,2.977900390625,0.006867206189781427,0.004698226694017649,-0.003190187970176339
1733703382406867200,2.9878671875,0.005106048192828894,0.004221432376652956,-0.00370305054821074
1733703382416833300,2.997833251953125,0.0018950748490169644,0.0014674579724669456,-0.0008558649569749832
1733703382426800000,3.007800048828125,0.0007964568212628365,0.0011976053938269615,-0.001035729655995965
1733703382436767200,3.017767333984375,-0.00046827830374240875,-0.0015342645347118378,0.002834375947713852
1733703382446734000,3.027734130859375,-0.00009717646753415465,-0.004064581356942654,0.004813414067029953
1733703382456700400,3.037700439453125,-0.0017536624800413847,-0.009661748073995113,0.0033460124395787716
1733703382466667500,3.04766748046875,-0.0005515513475984335,-0.011681641452014446,0.003331652842462063
1733703382476634400,3.05763427734375,0.0012564687058329582,-0.012994046323001385,0.0031558843329548836
1733703382486601500,3.0676015625,0.0011013464536517859,-0.012281517498195171,0.0038309176452457905
1733703382496567300,3.0775673828125,0.0016728609334677458,-0.010074556805193424,0.0010441860649734735
1733703382506534400,3.087534423828125,0.001984576927497983,-0.0029645822942256927,-0.005055706482380629
1733703382516501200,3.097501220703125,0.00169615657068789,-0.0003123404458165169,-0.006594215054064989
1733703382526467300,3.10746728515625,0.0016167344292625785,-0.0019320538267493248,-0.002736782655119896
1733703382536434400,3.117434326171875,0.0018737295176833868,-0.0007557356730103493,-0.002749832347035408
1733703382546401300,3.1274013671875,0.0006766760488972068,-0.0019808998331427574,-0.0014457013458013535
1733703382556368400,3.137368408203125,0.0015595139702782035,-0.0003585023805499077,-0.003228954039514065
1733703382566334200,3.147334228515625,0.0032270019873976707,0.0027617248706519604,-0.002217153087258339
1733703382576301300,3.15730126953125,0.002061336301267147,0.0018639732152223587,0.0005043313140049577
1733703382586268200,3.16726806640625,0.0027922093868255615,0.00228817667812109,0.0002759142080321908
1733703382596235300,3.1772353515625,-0.0013343585887923837,0.0045233676210045815,0.001508158864453435
1733703382606201300,3.187201416015625,-0.0019042136846110225,0.007605954073369503,0.0014744920190423727
1733703382616168200,3.197168212890625,-0.005705343559384346,0.008264554664492607,0.0007706184405833483
1733703382626135300,3.20713525390625,-0.0049853213131427765,0.007714210078120232,-0.0012841494753956795
1733703382636102100,3.21710205078125,-0.0022880714386701584,0.009477755054831505,-0.0018639196641743183
1733703382646068200,3.227068115234375,0.0015578342135995626,0.009527181275188923,-0.0020708634983748198
1733703382656035000,3.23703515625,0.0017706208163872361,0.008024092763662338,-0.0006260983645915985
1733703382666002200,3.247002197265625,0.0026732105761766434,0.00045180879533290863,0.0043111080303788185
1733703382675969300,3.25696923828125,0.0012457561679184437,-0.003341597504913807,0.001961667323485017
1733703382685935400,3.266935302734375,-0.0015843476867303252,-0.0026149991899728775,0.0019817869178950787
1733703382695902500,3.27690234375,-0.007376988884061575,-0.002185431309044361,-0.001040368340909481
1733703382705869300,3.286869384765625,-0.0077830529771745205,-0.0022683870047330856,0.00037716329097747803
1733703382715836200,3.296836181640625,-0.008262954652309418,-0.002160528674721718,-0.00007557403296232224
1733703382725802200,3.30680224609375,-0.006925971247255802,-0.004410025663673878,-0.0025588979478925467
1733703382735769300,3.316769287109375,-0.00429556705057621,-0.0041000330820679665,-0.00418129563331604
1733703382745736400,3.326736328125,-0.0014356189640238881,-0.004690447822213173,-0.0012472535017877817
1733703382755702300,3.336702392578125,0.0015295445919036865,-0.0023761605843901634,0.0003226798726245761
1733703382765669400,3.34666943359375,0.0033456585370004177,-0.0010944893583655357,0.002341332845389843
1733703382775636200,3.35663623046875,0.00617446843534708,0.000889832153916359,0.00015327963046729565
1733703382785603300,3.366603271484375,0.005765772424638271,0.0017224671319127083,0.0028011298272758722
1733703382795569200,3.376569091796875,0.005710911471396685,0.003201853483915329,0.0025720978155732155
1733703382805536300,3.386536376953125,0.0069759744219481945,0.004447224549949169,-0.0001862999051809311
1733703382815503400,3.39650341796875,0.007988507859408855,0.005313551053404808,-0.0037663872353732586
1733703382825470200,3.40647021484375,0.007931392639875412,0.009230741299688816,-0.0024763448163866997
1733703382835436300,3.416436279296875,0.006992895156145096,0.00638089282438159,-0.002607105765491724
1733703382845403100,3.426403076171875,0.004317054525017738,0.006984058767557144,-0.003405708121135831
1733703382855370200,3.436370361328125,0.002048573922365904,0.006706024520099163,-0.003048844402655959
1733703382865337300,3.44633740234375,0.0008733002468943596,0.000704166479408741,-0.003294401802122593
1733703382875303200,3.45630322265625,-0.0013025023508816957,-0.00011475570499897003,-0.0015977018047124147
1733703382885270300,3.466270263671875,-0.0003140781191177666,0.002372489310801029,0.000653826748020947
1733703382895237000,3.476237060546875,-0.0013159592635929585,0.00022251904010772705,0.00042878964450210333
1733703382905204200,3.486204345703125,-0.00033434166107326746,0.0004940051585435867,-0.0021249253768473864
1733703382915170300,3.49617041015625,0.0003602107462938875,0.0019299816340208054,-0.002965685212984681
1733703382925137400,3.506137451171875,-0.0007537051569670439,0.0037796138785779476,0.0010594804771244526
1733703382935104300,3.516104248046875,0.0027851033955812454,0.0038597751408815384,-0.0004819571040570736
1733703382945071000,3.526071044921875,0.002789239166304469,0.003210976719856262,-0.0020241839811205864
1733703382955037400,3.536037353515625,0.0035218747798353434,0.0032005906105041504,-0.003755771555006504
1733703382965004300,3.54600439453125,0.0006550074904225767,0.0009154193103313446,-0.0020264089107513428
1733703382974971400,3.555971435546875,-0.00014447345165535808,-0.0037648193538188934,-0.00006072944961488247
1733703382984937200,3.565937255859375,-0.0018882916774600744,-0.004986685700714588,-0.001142808236181736
1733703382994904300,3.575904296875,-0.003792984178289771,-0.006398160941898823,-0.0018413553480058908
1733703383004871400,3.585871337890625,-0.0025998272467404604,-0.007467641495168209,0.0018183515639975667
1733703383014838300,3.59583837890625,-0.004434478934854269,-0.008834642358124256,0.004031704738736153
1733703383024804400,3.605804443359375,-0.00031049567041918635,-0.01445676852017641,0.002703125588595867
1733703383034771200,3.615771240234375,0.0007659540278837085,-0.016240820288658142,0.0007313210517168045
1733703383044738300,3.62573828125,0.0018497370183467865,-0.017411498352885246,0.001915585482493043
1733703383054705400,3.635705322265625,0.0016108514973893762,-0.014637283980846405,0.0021174531430006027
1733703383064671200,3.645671142578125,0.0032322867773473263,-0.009648422710597515,0.0022917045280337334
1733703383074638300,3.655638427734375,0.005409154109656811,-0.0026443088427186012,0.0010117893107235432
1733703383084605200,3.665605224609375,0.009908140636980534,0.001956455409526825,-0.00458327354863286
1733703383094572300,3.675572265625,0.011036788113415241,0.005660646595060825,-0.0071817198768258095
1733703383104538000,3.6855380859375,0.01382167637348175,0.005371804349124432,-0.010543515905737877
1733703383114505200,3.695505126953125,0.01146611012518406,0.00023643113672733307,-0.009494496509432793
1733703383124472300,3.705472412109375,0.0102285947650671,-0.007471791468560696,-0.00882577896118164
1733703383134439200,3.715439208984375,0.007255708333104849,-0.013134204782545567,-0.004647279158234596
1733703383144405200,3.7254052734375,0.0023885765112936497,-0.013920125551521778,-0.0032532261684536934
1733703383154372000,3.7353720703125,-0.0031268298625946045,-0.01570390909910202,0.0008182146120816469
1733703383164339200,3.745339111328125,-0.006292587611824274,-0.012897087261080742,0.004595965147018433
1733703383174306300,3.755306396484375,-0.0040696472860872746,-0.012290684506297112,0.0085792550817132
1733703383184272400,3.7652724609375,-0.0029919100925326347,-0.005513553507626057,0.009525871835649014
1733703383194239500,3.775239501953125,-0.000042991829104721546,0.0026301266625523567,0.002287666080519557
1733703383204206300,3.785206298828125,-0.0006333328783512115,0.008180391043424606,-0.0006914942059665918
1733703383214172400,3.79517236328125,0.005034673027694225,0.01184543315321207,0.00009893206879496574
1733703383224139300,3.80513916015625,0.005608051549643278,0.008880536071956158,0.0016504896339029074
1733703383234106400,3.8151064453125,0.00772686256095767,0.001749921590089798,0.0009037392446771264
1733703383244073500,3.825073486328125,0.008476871065795422,-0.00035629700869321823,-0.0007835365831851959
1733703383254039300,3.835039306640625,0.007743969559669495,-0.007204880937933922,-0.002874384168535471
1733703383264006400,3.84500634765625,0.008637376129627228,-0.006386826746165752,-0.003817741759121418
1733703383273973200,3.85497314453125,0.0048349155113101006,-0.005167098715901375,-0.006227636244148016
1733703383283940400,3.8649404296875,0.004657160025089979,-0.0033345315605401993,-0.010810181498527527
1733703383293906200,3.87490625,0.003719194559380412,-0.002756359986960888,-0.009631998836994171
1733703383303873300,3.884873291015625,0.0006313614430837333,-0.004628865979611874,-0.005710680037736893
1733703383313840400,3.89484033203125,-0.0024419263936579227,-0.008044370450079441,-0.004580700770020485
1733703383323807700,3.904807861328125,2.126907929778099e-7,-0.010623383335769176,-0.0005729461554437876
1733703383333773600,3.914773681640625,-0.0026435074396431446,-0.014141152612864971,0.003099286463111639
1733703383343740700,3.92474072265625,-0.0017000718507915735,-0.012646008282899857,0.006934726610779762
1733703383353707800,3.934707763671875,-0.00361142260953784,-0.010468607768416405,0.0062676044180989265
1733703383363673600,3.944673583984375,-0.0007740842993371189,-0.008249304257333279,0.004405730403959751
1733703383373640700,3.954640625,0.0012826749589294195,-0.00491715595126152,-0.00007344014011323452
1733703383383607600,3.964607666015625,0.003320954507216811,-0.0032492121681571007,-0.002936532022431493
1733703383393574700,3.97457470703125,0.003263962920755148,-0.002534419298171997,0.0005548723274841905
1733703383403540700,3.984540771484375,0.0005054606590420008,-0.0020435992628335953,-0.0006014721002429724
1733703383413507600,3.994507568359375,0.003448786213994026,-0.00007898546755313873,0.00044568267185240984
1733703383423474700,4.004474609375,0.003584297839552164,0.0017620101571083069,-0.002467040903866291
1733703383433441500,4.014441650390625,0.004815477412194014,-0.00005319993942975998,-0.0028984728269279003
1733703383443408000,4.024407958984375,0.0027835709042847157,-0.0013400083407759666,-0.003067901823669672
1733703383453374700,4.034374755859375,0.004313024692237377,-0.0008981907740235329,-0.003811456263065338
1733703383463341800,4.044341796875,0.0005208016955293715,0.0000030817463994026184,-0.0024244836531579494
1733703383473308700,4.05430859375,-0.0033988389186561108,0.002707522362470627,-0.0008750562556087971
1733703383483274800,4.064274658203125,-0.009993748739361763,0.00180033128708601,0.0024253062438219786
1733703383493241900,4.074241943359375,-0.012936808168888092,0.0020325584337115288,0.0019669760949909687
1733703383503208700,4.084208740234375,-0.013201013207435608,0.005101858638226986,0.001141965389251709
1733703383513174800,4.0941748046875,-0.008937026374042034,0.005348733626306057,-0.0005637891590595245
1733703383523141600,4.1041416015625,-0.005941729061305523,0.004680532496422529,-0.002176140435039997
1733703383533108700,4.114108642578125,-0.0012503043981269002,0.0022061895579099655,-0.00001924624666571617
1733703383543075600,4.12407568359375,0.00043647963320836425,0.002058042213320732,-0.0009690327569842339
1733703383553041700,4.134041748046875,0.0024152081459760666,0.004553956910967827,-0.0015605208463966846
1733703383563008800,4.1440087890625,0.0016027400270104408,0.005088528618216515,-0.00045680347830057144
1733703383572975600,4.1539755859375,0.0013007374946027994,0.004660825245082378,0.0017498917877674103
1733703383582942700,4.163942626953125,-0.0005993612576276064,0.0011401968076825142,0.0037444313056766987
1733703383592908500,4.173908447265625,-0.0014707475202158093,-0.0020662490278482437,0.0051790764555335045
1733703383602875600,4.183875732421875,-0.0031197010539472103,-0.003597424365580082,0.005155283957719803
1733703383612842500,4.193842529296875,-0.0028845439665019512,-0.004236316308379173,0.0023805364035069942
1733703383622809600,4.2038095703125,-0.003396539017558098,-0.004342464730143547,-0.00219389027915895
1733703383632775700,4.213775634765625,-0.00007238134276121855,-0.0027397749945521355,-0.006002476438879967
1733703383642742500,4.223742431640625,-0.0011147696059197187,0.0022895541042089462,-0.00829924363642931
1733703383652709600,4.233709716796875,-0.001514243776910007,0.006847287528216839,-0.0071860421448946
1733703383662676500,4.243676513671875,-0.00447737704962492,0.006921958643943071,-0.004383313935250044
1733703383672642800,4.253642822265625,-0.0067439936101436615,0.005241503939032555,-0.003752144519239664
1733703383682609700,4.263609619140625,-0.006135628093034029,0.0027680243365466595,-0.0010098537895828485
1733703383692576800,4.27357666015625,-0.0103719187900424,-0.0012655993923544884,0.0014485102146863937
1733703383702542800,4.28354296875,-0.010590193793177605,-0.003372466191649437,0.004712825641036034
1733703383712509700,4.293509765625,-0.012505538761615753,-0.0029980260878801346,0.004794850945472717
1733703383722476800,4.303476806640625,-0.01135122962296009,-0.0003866748884320259,0.0018420906271785498
1733703383732443600,4.313443603515625,-0.015018136240541935,0.0028962031938135624,-0.000489506870508194
1733703383742409700,4.32340966796875,-0.013851810246706009,0.004493031185120344,-0.0022843382321298122
1733703383752376600,4.33337646484375,-0.013753805309534073,0.0041425591334700584,-0.002366097178310156
1733703383762343700,4.34334375,-0.012431689538061619,0.0062259044498205185,-0.0031948285177350044
1733703383772310800,4.353310791015625,-0.012289476580917835,0.006148139946162701,-0.003535979427397251
1733703383782276600,4.363276611328125,-0.008849102072417736,0.0069944532588124275,-0.0051511069759726524
1733703383792243700,4.37324365234375,-0.010508251376450062,0.006305493880063295,-0.007090686820447445
1733703383802210600,4.38321044921875,-0.010729458183050156,0.0053303055465221405,-0.006046163849532604
1733703383812177700,4.393177734375,-0.010431983508169651,0.0029622227884829044,-0.004214974120259285
1733703383822143700,4.403143798828125,-0.012459836900234222,-0.0009625321254134178,0.0026400084607303143
1733703383832110600,4.413110595703125,-0.010839569382369518,-0.005063800141215324,0.005664294585585594
1733703383842077700,4.42307763671875,-0.007756140548735857,-0.004068850539624691,0.005229628644883633
1733703383852043500,4.43304345703125,-0.005695120431482792,-0.0028864070773124695,0.006213933229446411
1733703383862010600,4.4430107421875,-0.003334823064506054,-0.004584946669638157,0.005244654603302479
1733703383871977500,4.4529775390625,-0.0015081606106832623,-0.00695462804287672,0.0045114862732589245
1733703383881944600,4.462944580078125,-0.0009721243986859918,-0.006351236253976822,0.0007635111687704921
1733703383891911000,4.472910888671875,-0.0014685377245768905,-0.00507771223783493,0.004220827016979456
1733703383901877800,4.482877685546875,-0.0015409175539389253,-0.0025361767038702965,0.0074484203942120075
1733703383911844600,4.4928447265625,0.00042715854942798615,0.0010300623252987862,0.006246003322303295
1733703383921811500,4.5028115234375,0.003244599560275674,0.0037656286731362343,0.0016151494346559048
1733703383931777800,4.51277783203125,0.007316839415580034,0.010309548117220402,-0.005382572300732136
1733703383941744600,4.52274462890625,0.014081308618187904,0.014899058267474174,-0.006419198587536812
1733703383951711700,4.532711669921875,0.0126402722671628,0.01276666484773159,-0.006414671428501606
1733703383961678800,4.542678955078125,0.011127563193440437,0.005657696630805731,-0.004640041850507259
1733703383971644700,4.552644775390625,0.005530664697289467,-0.004200260154902935,0.0016570023726671934
1733703383981611800,4.56261181640625,-0.0015442550648003817,-0.011129713617265224,0.009245563298463821
1733703383991578600,4.57257861328125,-0.010051190853118896,-0.017730623483657837,0.01260381005704403
1733703384001544700,4.582544677734375,-0.01447580847889185,-0.016424760222434998,0.01158837042748928
1733703384011511600,4.592511474609375,-0.017776796594262123,-0.00976312905550003,0.00992655847221613
1733703384021478700,4.602478759765625,-0.02075965702533722,-0.0038414811715483665,0.0025475251022726297
1733703384031445800,4.61244580078125,-0.018405955284833908,0.0016118735074996948,-0.0029060961678624153
1733703384041411600,4.62241162109375,-0.014937375672161579,0.0082309665158391,-0.005003263708204031
1733703384051378700,4.632378662109375,-0.012967434711754322,0.013802831992506981,-0.005550276953727007
1733703384061345500,4.642345458984375,-0.011989625170826912,0.016273219138383865,-0.0070569077506661415
1733703384071312600,4.652312744140625,-0.010225281119346619,0.015194373205304146,-0.008510993793606758
1733703384081278500,4.662278564453125,-0.005011978093534708,0.013785498216748238,-0.005571960937231779
1733703384091245600,4.67224560546875,-0.00490545155480504,0.017512593418359756,-0.005290997214615345
1733703384101212700,4.682212646484375,-0.005067161284387112,0.01767576113343239,-0.006366492714732885
1733703384111179500,4.692179443359375,-0.0020388811826705933,0.01733354479074478,-0.004229572601616383
1733703384121145600,4.7021455078125,-0.0035608836915344,0.019361382350325584,-0.005785700399428606
1733703384131112400,4.712112548828125,-0.004801384173333645,0.01938881352543831,-0.007147375028580427
1733703384141079600,4.72207958984375,-0.005102179013192654,0.01554005965590477,-0.004831000696867704
1733703384151045600,4.732045654296875,-0.0058332160115242004,0.0016554035246372223,0.0003238141071051359
1733703384161012700,4.7420126953125,-0.008765162900090218,-0.007376888766884804,0.00710339518263936
1733703384170979800,4.751979736328125,-0.0095982002094388,-0.01800236850976944,0.013685397803783417
1733703384180946700,4.76194677734375,-0.010392116382718086,-0.027795173227787018,0.017789704725146294
1733703384190912800,4.771912841796875,-0.009690639562904835,-0.030668724328279495,0.01818172261118889
1733703384200879600,4.781879638671875,-0.009065470658242702,-0.027496734634041786,0.016785088926553726
1733703384210846700,4.7918466796875,-0.0048273163847625256,-0.02343887649476528,0.011943195015192032
1733703384220813800,4.801813720703125,-0.0006750335451215506,-0.01286805048584938,0.010596701875329018
1733703384230779600,4.811779541015625,0.004458209499716759,-0.002955232746899128,0.009117581881582737
1733703384240746800,4.821746826171875,0.009559164755046368,0.005905396770685911,0.0069586713798344135
1733703384250713600,4.831713623046875,0.014960321597754955,0.00958508625626564,0.000861364183947444
1733703384260680700,4.8416806640625,0.01834709756076336,0.016165316104888916,-0.0036709217820316553
1733703384270646500,4.851646484375,0.02099960669875145,0.019658848643302917,-0.004245897755026817
1733703384280613600,4.861613525390625,0.020128916949033737,0.020245317369699478,-0.0037620817311108112
1733703384290580700,4.871580810546875,0.01766975410282612,0.016868960112333298,0.0014073802158236504
1733703384300546600,4.881546630859375,0.013796765357255936,0.014929259195923805,0.005217800848186016
1733703384310513700,4.891513671875,0.004752137698233128,0.016984952613711357,0.004899553023278713
1733703384320480000,4.90147998046875,-0.0021755900233983994,0.016448980197310448,0.007246627472341061
1733703384330447000,4.911447021484375,-0.004123958293348551,0.020410165190696716,0.0043206121772527695
1733703384340413400,4.921413330078125,-0.005565036088228226,0.0263221338391304,0.002963273087516427
1733703384350380300,4.93138037109375,-0.006283024325966835,0.02998744137585163,-0.0021007275208830833
1733703384360347400,4.941347412109375,-0.004619910381734371,0.03034064546227455,-0.004142678342759609
1733703384370314200,4.951314208984375,-0.004396737087517977,0.025833778083324432,-0.004849481396377087
1733703384380280300,4.9612802734375,-0.004246747586876154,0.01911923661828041,-0.007722118869423866
1733703384390247200,4.9712470703125,-0.005551163572818041,0.012752151116728783,-0.006595069542527199
1733703384400214300,4.98121435546875,-0.006357260048389435,0.010633856058120728,-0.004392444156110287
1733703384410180400,4.991180419921875,-0.008465951308608055,0.004730693064630032,-0.004005220718681812
1733703384420147200,5.001147216796875,-0.007087316829711199,0.003158395178616047,-0.003365644719451666
1733703384430114300,5.0111142578125,-0.009782969020307064,-0.003271806985139847,-0.004170185420662165
1733703384440081200,5.0210810546875,-0.012834887951612473,-0.012596889398992062,-0.007394321728497744
1733703384450047200,5.031047119140625,-0.014092965051531792,-0.018795397132635117,-0.007394321728497744
1733703384460014000,5.04101416015625,-0.014170315116643906,-0.02336091548204422,0.0021525786723941565
1733703384469981200,5.050981201171875,-0.0107939587906003,-0.02781132236123085,0.01006749365478754
1733703384479948300,5.0609482421875,-0.00850895419716835,-0.02640533819794655,0.010779544711112976
1733703384489914000,5.0709140625,-0.003137091873213649,-0.017281081527471542,0.008679375052452087
1733703384499881200,5.080881103515625,0.004757231567054987,-0.007214781828224659,0.008386960253119469
1733703384509848000,5.09084814453125,0.011850827373564243,0.007592660840600729,0.004137619864195585
1733703384519815200,5.100815185546875,0.01720486953854561,0.015238801017403603,0.004666636697947979
1733703384529781000,5.110781005859375,0.02273891679942608,0.018973086029291153,0.005266380496323109
1733703384539748000,5.120748046875,0.026570413261651993,0.0185556598007679,0.006384950131177902
1733703384549715200,5.130715087890625,0.02463509514927864,0.017087992280721664,0.007072844542562962
1733703384559681300,5.140681396484375,0.02195943146944046,0.01141694188117981,0.008549867197871208
1733703384569648400,5.1506484375,0.01865178532898426,0.008146047592163086,0.009844430722296238
1733703384579615200,5.160615234375,0.01393282599747181,0.0013019787147641182,0.009686045348644257
1733703384589582000,5.17058203125,0.011538111604750156,-0.0017524007707834244,0.008407196030020714
1733703384599548200,5.180548095703125,0.008052625693380833,0.0016358550637960434,0.00509402621537447
1733703384609515300,5.190515380859375,0.005548188462853432,0.0072143785655498505,0.0008358978666365147
1733703384619482400,5.200482421875,0.0013646949082612991,0.005712391808629036,-0.005934150889515877
1733703384629449200,5.21044921875,0.00038172214408405125,0.003264946863055229,-0.006785296835005283
1733703384639415300,5.220415283203125,0.0015272102318704128,-0.0026984289288520813,-0.001029785955324769
1733703384649382100,5.230382080078125,0.001155965612269938,-0.011701510287821293,0.0008975436212494969
1733703384659349200,5.240349365234375,-0.003748145420104265,-0.014444234780967236,0.00009303574915975332
1733703384669316400,5.25031640625,-0.004537506494671106,-0.013611464761197567,0.0013140952214598656
1733703384679282200,5.2602822265625,-0.006272997707128525,-0.00943417102098465,0.003248507622629404
1733703384689249300,5.270249267578125,-0.007230404764413834,-0.000560251995921135,-0.0016985805705189705
1733703384699216100,5.280216064453125,-0.004725572653114796,0.011302480474114418,-0.0044823456555604935
1733703384709182200,5.29018212890625,-0.0014347046380862594,0.020671214908361435,-0.00969708152115345
1733703384719149000,5.300149169921875,0.003794092917814851,0.023160066455602646,-0.015767186880111694
1733703384729116200,5.3101162109375,0.004915283992886543,0.014950872398912907,-0.015324302949011326
1733703384739083300,5.320083251953125,0.003466603811830282,0.0032815057784318924,-0.010266624391078949
1733703384749049000,5.330049072265625,0.0025560688227415085,-0.0033353837206959724,-0.0025770124047994614
1733703384759016200,5.34001611328125,-0.0031183077953755856,-0.006597497500479221,0.006636955309659243
1733703384768983000,5.349983154296875,-0.00741558475419879,-0.010048155672848225,0.008118737488985062
1733703384778950100,5.3599501953125,-0.009271170012652874,-0.00999568123370409,0.00521421991288662
1733703384788916200,5.369916259765625,-0.011611822061240673,-0.009065438993275166,0.004058407619595528
1733703384798883000,5.379883056640625,-0.011958854272961617,-0.010197224095463753,0.0003690059529617429
1733703384808850200,5.38985009765625,-0.013231579214334488,-0.003230128437280655,-0.0021279738284647465
1733703384818816300,5.399816162109375,-0.013690615072846413,0.004282938316464424,-0.0034289888571947813
1733703384828783400,5.409783447265625,-0.009590145200490952,0.008096318691968918,-0.0028737199027091265
1733703384838750200,5.419750244140625,-0.0005525919841602445,0.00847401563078165,-0.0028023463673889637
1733703384848717300,5.42971728515625,0.002960650250315666,0.008336329832673073,-0.004180798772722483
1733703384858683100,5.43968310546875,0.009468324482440948,0.007791828364133835,-0.0010878099128603935
1733703384868650200,5.449650146484375,0.01567615196108818,0.007546817418187857,-0.0002667573280632496
1733703384878617300,5.459617431640625,0.013261694461107254,0.0020201364532113075,0.0017025041161105037
1733703384888584200,5.469584228515625,0.01383347436785698,-0.002345849759876728,0.00422798004001379
1733703384898550300,5.47955029296875,0.010460146702826023,-0.0017377343028783798,0.005404447205364704
1733703384908517000,5.48951708984375,0.006561278831213713,-0.00048258621245622635,0.006023365538567305
1733703384918484200,5.499484130859375,0.0042293379083275795,-0.0021674269810318947,0.00408945744857192
1733703384928450000,5.509449951171875,0.005881562829017639,-0.002837744541466236,0.002061726525425911
1733703384938417200,5.519417236328125,0.003876287490129471,-0.00520399771630764,0.0019233566708862782
1733703384948384300,5.52938427734375,0.005188426934182644,-0.009770785458385944,0.0015260130167007446
1733703384958351000,5.53935107421875,0.004319864325225353,-0.013149495236575603,0.0020327360834926367
1733703384968317200,5.549317138671875,0.002943808911368251,-0.01084692683070898,0.00147746701259166
1733703384978284000,5.559283935546875,0.0015144903445616364,-0.010285266675055027,0.006284738890826702
1733703384988251100,5.569251220703125,0.0005757260951213539,-0.01222857553511858,0.0043869707733392715
1733703384998218200,5.57921826171875,0.002869921736419201,-0.005652224645018578,0.0011781281791627407
1733703385008184300,5.589184326171875,0.003092561848461628,0.0017851842567324638,-0.004217702429741621
1733703385018151200,5.599151123046875,0.002979698358103633,0.010012306272983551,-0.004811208229511976
1733703385028118000,5.609117919921875,0.004407951608300209,0.010535617358982563,-0.0032013277523219585
1733703385038084400,5.61908447265625,0.003934911452233791,0.010168393142521381,-0.0007772056851536036
1733703385048051200,5.62905126953125,0.004296036437153816,0.008253846317529678,-0.004029191564768553
1733703385058018300,5.639018310546875,0.0024580482859164476,0.0041402787901461124,-0.005700284615159035
1733703385067985400,5.6489853515625,-0.0018999483436346054,0.0010091997683048248,-0.00380704365670681
1733703385077951200,5.658951171875,-0.009106943383812904,0.00330886198207736,-0.002048266353085637
1733703385087918300,5.66891845703125,-0.01016794703900814,0.005124871619045734,-0.0011441230308264494
1733703385097885200,5.67888525390625,-0.01495699118822813,0.007778354920446873,-0.002914389595389366
1733703385107852300,5.688852294921875,-0.01781589351594448,0.00703852903097868,-0.0040510268881917
1733703385117818000,5.698818115234375,-0.017232201993465424,0.011203897185623646,-0.0062287733890116215
1733703385127785200,5.70878515625,-0.011539161205291748,0.00942437257617712,-0.0078114899806678295
1733703385137752300,5.71875244140625,-0.004810929764062166,0.014498751610517502,-0.011033686809241772
1733703385147718100,5.72871826171875,-0.00032297091092914343,0.014571722596883774,-0.01153675839304924
1733703385157685200,5.738685302734375,0.0024023130536079407,0.014786187559366226,-0.010267416015267372
1733703385167652000,5.748652099609375,0.005732862278819084,0.011843927204608917,-0.009763278998434544
1733703385177619200,5.758619140625,0.0068733361549675465,0.009855033829808235,-0.007302443962544203
1733703385187585000,5.7685849609375,0.008052850142121315,0.008154072798788548,-0.003240590915083885
1733703385197552000,5.77855224609375,0.00653611496090889,0.002677575685083866,0.0021345822606235743
1733703385207519200,5.788519287109375,0.007969960570335388,-0.004604306071996689,0.007596192881464958
1733703385217485300,5.7984853515625,0.008086009882390499,-0.008064256981015205,0.013559924438595772
1733703385227452200,5.8084521484375,0.007422084454447031,-0.010066688060760498,0.014725856482982635
1733703385237419000,5.8184189453125,0.0074676573276519775,-0.007328866980969906,0.013310004957020283
1733703385247386000,5.82838623046875,0.009992334060370922,-0.0030592866241931915,0.010471341200172901
1733703385257352200,5.838352294921875,0.014347829855978489,0.002854620572179556,0.0060774278827011585
1733703385267319300,5.8483193359375,0.014811486005783081,0.012230278924107552,-0.0003884611651301384
1733703385277286400,5.858286376953125,0.015436061657965183,0.01398474257439375,-0.006057382095605135
1733703385287253200,5.868253173828125,0.01210737694054842,0.015127771534025669,-0.011077707633376122
1733703385297219300,5.87821923828125,0.011082908138632774,0.008061431348323822,-0.013288543559610844
1733703385307186200,5.888186279296875,0.0056255585514009,0.0016999384388327599,-0.011905297636985779
1733703385317153300,5.8981533203125,0.003013444598764181,-0.006072996184229851,-0.013435397297143936
1733703385327120600,5.90812060546875,-0.002381320809945464,-0.015543995425105095,-0.013231133110821247
1733703385337086500,5.91808642578125,-0.009573036804795265,-0.022376395761966705,-0.015698552131652832
1733703385347053600,5.928053466796875,-0.01971515268087387,-0.027243856340646744,-0.014165106229484081
1733703385357020400,5.9380205078125,-0.02883070707321167,-0.02947608195245266,-0.010021072812378407
1733703385366986500,5.947986572265625,-0.034945059567689896,-0.02768057771027088,-0.011695935390889645
1733703385376953300,5.957953369140625,-0.04190696030855179,-0.02686043456196785,-0.016814079135656357
1733703385386920400,5.96792041015625,-0.042139988392591476,-0.026123803108930588,-0.02171722613275051
1733703385396887600,5.977887451171875,-0.03415558859705925,-0.013624992221593857,-0.02529529295861721
1733703385406853400,5.987853271484375,-0.027211930602788925,-0.0020378446206450462,-0.021841438487172127
1733703385416820500,5.997820556640625,-0.01997973397374153,0.007520302198827267,-0.01891595497727394
1733703385426787300,6.007787353515625,-0.01701670140028,0.011138739064335823,-0.01481548510491848
1733703385436753400,6.01775341796875,-0.013245729729533195,0.008693451061844826,-0.0076733059249818325
1733703385446720300,6.02772021484375,-0.012248109094798565,0.004564219154417515,0.0012605339288711548
1733703385456687400,6.037687255859375,-0.007626914884895086,-0.001306110993027687,0.012094080448150635
1733703385466654500,6.047654541015625,-0.009337197989225388,-0.009125418029725552,0.017431320622563362
1733703385476620500,6.05762060546875,-0.00561407720670104,-0.014265859499573708,0.02028645947575569
1733703385486587600,6.067587646484375,-0.005216467194259167,-0.020505912601947784,0.02171631157398224
1733703385496554500,6.077554443359375,-0.003605624893680215,-0.028423450887203217,0.023963406682014465
1733703385506521300,6.087521240234375,-0.0036849870812147856,-0.03488454595208168,0.020549766719341278
1733703385516487400,6.0974873046875,-0.0005224129417911172,-0.030623886734247208,0.01499780360609293
1733703385526454500,6.10745458984375,0.0019202383700758219,-0.019657522439956665,0.009040579199790955
1733703385536421600,6.117421630859375,0.008702683262526989,-0.010067016817629337,0.002569322707131505
1733703385546387500,6.127387451171875,0.01466683205217123,-0.002796587534248829,-0.007192227989435196
1733703385556354600,6.1373544921875,0.023636529222130775,0.0002843048423528671,-0.01691131852567196
1733703385566321400,6.1473212890625,0.02564268745481968,0.0034699775278568268,-0.017985638231039047
1733703385576288500,6.15728857421875,0.024623047560453415,-0.004770675674080849,-0.016595885157585144
1733703385586254300,6.16725439453125,0.02302994392812252,-0.02167668752372265,-0.014622217044234276
1733703385596221400,6.177221435546875,0.0225626602768898,-0.038343168795108795,-0.0213880967348814
1733703385606188500,6.1871884765625,0.022292349487543106,-0.04901845008134842,-0.03947655111551285
1733703385616155400,6.1971552734375,0.019192542880773544,-0.048345938324928284,-0.05977356433868408
1733703385626121500,6.20712158203125,0.009041638113558292,-0.04972172528505325,-0.06380745023488998
1733703385636088300,6.21708837890625,-0.007248556707054377,-0.06305903196334839,-0.06803891062736511
1733703385646055400,6.227055419921875,-0.023536982014775276,-0.07829657196998596,-0.07871659100055695
1733703385656021200,6.237021240234375,-0.039016541093587875,-0.0837254524230957,-0.08069010078907013
1733703385665988400,6.24698828125,-0.05602109059691429,-0.07831284403800964,-0.07071736454963684
1733703385675955500,6.25695556640625,-0.07533822953701019,-0.07073672860860825,-0.05638708919286728
1733703385685922300,6.26692236328125,-0.0954994186758995,-0.06244071573019028,-0.038014739751815796
1733703385695888600,6.276888671875,-0.10868611186742783,-0.05480419844388962,-0.02263643592596054
1733703385705855500,6.28685546875,-0.1146947368979454,-0.04197441786527634,-0.010401608422398567
1733703385715822300,6.296822265625,-0.1176704466342926,-0.019422056153416634,-0.008098004385828972
1733703385725788400,6.306788330078125,-0.1131097823381424,0.020838014781475067,-0.004071038216352463
1733703385735755500,6.316755615234375,-0.10725844651460648,0.06997515261173248,-0.0004802222829312086
1733703385745722600,6.32672265625,-0.10100720822811127,0.1249510645866394,0.0076211136765778065
1733703385755689500,6.336689453125,-0.09493178874254227,0.17427723109722137,0.015222989022731781
1733703385765655600,6.346655517578125,-0.09475575387477875,0.21229998767375946,0.023057211190462112
1733703385775622400,6.356622314453125,-0.092664435505867,0.23865662515163422,0.03285342454910278
1733703385785589500,6.366589599609375,-0.09150169789791107,0.2521074712276459,0.04794475808739662
1733703385795556400,6.376556396484375,-0.0921897441148758,0.25763028860092163,0.07035346329212189
1733703385805522400,6.3865224609375,-0.09284381568431854,0.25207945704460144,0.09107312560081482
1733703385815489500,6.396489501953125,-0.09175368398427963,0.23258373141288757,0.09940224140882492
1733703385825456400,6.406456298828125,-0.08278389275074005,0.20594865083694458,0.09811140596866608
1733703385835422500,6.41642236328125,-0.07260921597480774,0.18929776549339294,0.09558767825365067
1733703385845389300,6.426389404296875,-0.055800408124923706,0.17406128346920013,0.09123926609754562
1733703385855356400,6.4363564453125,-0.04407484084367752,0.16141606867313385,0.07684287428855896
1733703385865323500,6.446323486328125,-0.02920508198440075,0.15538561344146729,0.05798689275979996
1733703385875289300,6.456289306640625,-0.012985637411475182,0.15277987718582153,0.03799966722726822
1733703385885256400,6.46625634765625,0.00001564889680594206,0.15576234459877014,0.027812546119093895
1733703385895223300,6.476223388671875,0.011379807256162167,0.15642589330673218,0.01878025382757187
1733703385905189600,6.486189697265625,0.01769096776843071,0.1500244438648224,0.009555063210427761
1733703385915156500,6.496156494140625,0.022364700213074684,0.13555116951465607,-0.0015431307256221771
1733703385925123300,6.506123291015625,0.02703029103577137,0.11937353014945984,-0.017643803730607033
1733703385935090400,6.51609033203125,0.03299780935049057,0.10995225608348846,-0.03349018841981888
1733703385945056500,6.526056396484375,0.036219172179698944,0.10480809211730957,-0.03855125978589058
1733703385955023600,6.536023681640625,0.03168761357665062,0.10030753910541534,-0.03685188665986061
1733703385964990500,6.545990478515625,0.029613278806209564,0.08229205012321472,-0.030681077390909195
1733703385974957600,6.55595751953125,0.025677980855107307,0.06541083008050919,-0.029413390904664993
1733703385984923400,6.56592333984375,0.028735822066664696,0.05855931341648102,-0.025455664843320847
1733703385994890500,6.575890380859375,0.02719549462199211,0.05346040427684784,-0.022290045395493507
1733703386004857600,6.585857666015625,0.028792325407266617,0.05594993382692337,-0.022828271612524986
1733703386014823400,6.595823486328125,0.026108035817742348,0.04678629711270332,-0.022682437673211098
1733703386024790500,6.60579052734375,0.020616065710783005,0.02582642063498497,-0.030234897509217262
1733703386034757400,6.61575732421875,0.016407590359449387,0.002086380496621132,-0.04146657511591911
1733703386044724500,6.625724365234375,0.014823541045188904,-0.026592135429382324,-0.051835592836141586
1733703386054690300,6.635690185546875,0.012845366261899471,-0.04507555067539215,-0.05582744628190994
1733703386064657400,6.645657470703125,0.008948362432420254,-0.05685205012559891,-0.048492301255464554
1733703386074624500,6.65562451171875,0.005046897102147341,-0.06735504418611526,-0.037935107946395874
1733703386084590300,6.66559033203125,0.0016476380405947566,-0.07724709063768387,-0.021569186821579933
1733703386094557400,6.675557373046875,0.0007814202690497041,-0.08257612586021423,-0.00775290047749877
1733703386104524300,6.685524169921875,-0.00024815776851028204,-0.08650189638137817,0.008287052623927593
1733703386114491400,6.695491455078125,0.0002828330034390092,-0.08389037847518921,0.020379211753606796
1733703386124457500,6.70545751953125,0.0036567917559295893,-0.07520980387926102,0.030259273946285248
1733703386134424600,6.715424560546875,0.01127045601606369,-0.06254443526268005,0.035041388124227524
1733703386144391400,6.725391357421875,0.020079128444194794,-0.04570979252457619,0.04163511097431183
1733703386154358300,6.735358154296875,0.031851209700107574,-0.02793685346841812,0.04386790841817856
1733703386164324600,6.74532470703125,0.03917517140507698,-0.010824182070791721,0.04973538592457771
1733703386174291500,6.75529150390625,0.03806630149483681,-0.0001552114263176918,0.05611347034573555
1733703386184258600,6.765258544921875,0.03393866866827011,0.00783027708530426,0.05754917860031128
1733703386194224400,6.775224365234375,0.025926498696208,0.01171589083969593,0.05650942772626877
1733703386204191500,6.78519140625,0.024762963876128197,0.005096870008856058,0.04991330951452255
1733703386214158600,6.79515869140625,0.021378394216299057,-0.00212952122092247,0.03521678224205971
1733703386224125400,6.80512548828125,0.025804035365581512,-0.0018514879047870636,0.021645579487085342
1733703386234091500,6.815091552734375,0.02947673574090004,0.004278287291526794,0.015660393983125687
1733703386244058400,6.825058349609375,0.032394494861364365,0.01725134253501892,0.011061381548643112
1733703386254025500,6.835025390625,0.030717970803380013,0.02898664027452469,0.004567226395010948
1733703386263991300,6.8449912109375,0.02281610481441021,0.034502580761909485,-0.004737325944006443
1733703386273958400,6.85495849609375,0.018529236316680908,0.036343879997730255,-0.013368403539061546
1733703386283925500,6.864925537109375,0.012246573343873024,0.03244634345173836,-0.018713366240262985
1733703386293892400,6.874892333984375,0.007443986367434263,0.024130936712026596,-0.01921731047332287
1733703386303858400,6.8848583984375,0.002189835999161005,0.016189122572541237,-0.012711741030216217
1733703386313825300,6.8948251953125,-0.0007674309890717268,0.007565886713564396,-0.009537765756249428
1733703386323792000,6.9047919921875,-0.0022963518276810646,-0.003960274159908295,-0.009330304339528084
1733703386333758200,6.91475830078125,-0.003965310286730528,-0.01615559309720993,-0.008424704894423485
1733703386343725300,6.924725341796875,-0.008352868258953094,-0.025886517018079758,-0.00954163447022438
1733703386353692200,6.934692138671875,-0.004933278542011976,-0.03122418001294136,-0.0064215706661343575
1733703386363659300,6.9446591796875,-0.0051636421121656895,-0.030848409980535507,-0.006742482073605061
1733703386373625000,6.954625,-0.0018936594715341926,-0.026819676160812378,-0.007460602093487978
1733703386383592200,6.96459228515625,0.0071741375140845776,-0.01895509660243988,-0.010331489145755768
1733703386393559000,6.97455908203125,0.011700866743922234,-0.011255432851612568,-0.008134921081364155
1733703386403526100,6.984526123046875,0.013203422538936138,-0.007230331189930439,-0.0058717671781778336
1733703386413492200,6.9944921875,0.012525585480034351,-0.006172649562358856,-0.0038365295622497797
1733703386423459000,7.004458984375,0.01050025224685669,-0.010387102141976357,-0.0036437164526432753
1733703386433426200,7.01442626953125,0.011880652979016304,-0.011868502013385296,-0.0017255304846912622
1733703386443392000,7.02439208984375,0.011271588504314423,-0.015734612941741943,0.0048607331700623035
1733703386453359000,7.034359130859375,0.011459652334451675,-0.023927997797727585,0.010941918939352036
1733703386463326000,7.044325927734375,0.009708624333143234,-0.029348596930503845,0.013417859561741352
1733703386473293000,7.05429296875,0.011362401768565178,-0.02252620831131935,0.017236709594726562
1733703386483259100,7.064259033203125,0.008446507155895233,-0.010818949900567532,0.019782692193984985
1733703386493226000,7.07422607421875,0.008766130544245243,0.002277657389640808,0.020727768540382385
1733703386503193000,7.084193115234375,0.006678745150566101,0.012295936234295368,0.019891003146767616
1733703386513159000,7.094158935546875,0.005780549719929695,0.016105664893984795,0.018900353461503983
1733703386523126000,7.1041259765625,0.008959298022091389,0.020675648003816605,0.018056929111480713
1733703386533092900,7.1140927734375,0.005832436960190535,0.01601235754787922,0.015532927587628365
1733703386543060000,7.12406005859375,0.0055578649044036865,0.010386430658400059,0.012151245027780533
1733703386553026300,7.1340263671875,0.003278221469372511,0.0005581406876444817,0.007777701131999493
1733703386562993200,7.1439931640625,0.0013737949775531888,-0.007461437024176121,0.008241357281804085
1733703386572960300,7.153960205078125,-0.001199639867991209,-0.008513490669429302,0.010791435837745667
1733703386582926000,7.163926025390625,-0.00606390368193388,-0.009388872422277927,0.009082218632102013
1733703386592893200,7.17389306640625,-0.006851688958704472,-0.009321751073002815,0.002309040632098913
1733703386602860000,7.183860107421875,-0.010034964419901371,-0.004422599449753761,-0.0013253751676529646
1733703386612827100,7.1938271484375,-0.008008144795894623,-0.008772557601332664,-0.005331638269126415
1733703386622793200,7.203793212890625,-0.011733640916645527,-0.016367893666028976,-0.005650152452290058
1733703386632760000,7.213760009765625,-0.0112544484436512,-0.026335228234529495,-0.007069838233292103
1733703386642727200,7.22372705078125,-0.011745534837245941,-0.03792450949549675,-0.009030723944306374
1733703386652693000,7.23369287109375,-0.010899046435952187,-0.056098662316799164,-0.012415636330842972
1733703386662660000,7.24366015625,-0.013882053084671497,-0.07156949490308762,-0.01668601483106613
1733703386672627200,7.253627197265625,-0.015441713854670525,-0.09613094478845596,-0.019876688718795776
1733703386682594000,7.263593994140625,-0.014863275922834873,-0.1288183182477951,-0.02940201759338379
1733703386692560100,7.27356005859375,-0.014129264280200005,-0.1580357551574707,-0.048379845917224884
1733703386702527000,7.28352685546875,-0.014381465502083302,-0.1862194687128067,-0.0614628866314888
1733703386712494000,7.293494140625,-0.018518798053264618,-0.20486539602279663,-0.06618601828813553
1733703386722460000,7.3034599609375,-0.02521584928035736,-0.23066343367099762,-0.057132329791784286
1733703386732427000,7.313427001953125,-0.034478187561035156,-0.25992831587791443,-0.04262132942676544
1733703386742394000,7.32339404296875,-0.04244876280426979,-0.2805100381374359,-0.029408853501081467
1733703386752361000,7.33336083984375,-0.050201646983623505,-0.2984466254711151,-0.02334696240723133
1733703386762327300,7.343327392578125,-0.05085145682096481,-0.29938992857933044,-0.02430969662964344
1733703386772294100,7.353294189453125,-0.05823083594441414,-0.2885357439517975,-0.021500220522284508
1733703386782261200,7.36326123046875,-0.06364451348781586,-0.2848363518714905,-0.013897162862122059
1733703386792228000,7.37322802734375,-0.07185283303260803,-0.2900451123714447,-0.008152252063155174
1733703386802194200,7.383194091796875,-0.08125299215316772,-0.2995544672012329,-0.005414789542555809
1733703386812161300,7.393161376953125,-0.09072727710008621,-0.31593021750450134,-0.0028481415938585997
1733703386822128000,7.403128173828125,-0.09955113381147385,-0.32591548562049866,-0.0018672994337975979
1733703386832094200,7.41309423828125,-0.10412488877773285,-0.323769748210907,0.005307601764798164
1733703386842061000,7.42306103515625,-0.10734011977910995,-0.31270137429237366,0.011398251168429852
1733703386852028200,7.433028076171875,-0.10539838671684265,-0.286477655172348,0.017689337953925133
1733703386861995000,7.4429951171875,-0.10298849642276764,-0.25468936562538147,0.019863009452819824
1733703386871961000,7.452961181640625,-0.09685869514942169,-0.22112926840782166,0.021987944841384888
1733703386881928200,7.46292822265625,-0.08476687967777252,-0.1874067336320877,0.030328433960676193
1733703386891895000,7.47289501953125,-0.07049631327390671,-0.1559826284646988,0.037961870431900024
1733703386901861000,7.482861083984375,-0.05426913872361183,-0.11939025670289993,0.04280083253979683
1733703386911828000,7.492827880859375,-0.037920836359262466,-0.07101326435804367,0.050167690962553024
1733703386921795000,7.502795166015625,-0.014245068654417992,-0.028267133980989456,0.07165300846099854
1733703386931762000,7.512761962890625,0.010530943982303143,0.0027018082328140736,0.08574716001749039
1733703386941728000,7.52272802734375,0.036678656935691833,0.031404025852680206,0.08991101384162903
1733703386951695000,7.532695068359375,0.06330624967813492,0.06027776002883911,0.09240509569644928
1733703386961662000,7.542661865234375,0.08870295435190201,0.09403732419013977,0.09854181855916977
1733703386971628300,7.552628173828125,0.1147221177816391,0.12867112457752228,0.10806074738502502
1733703386981595100,7.56259521484375,0.13173440098762512,0.16687364876270294,0.11882417649030685
1733703386991562200,7.572562255859375,0.14294330775737762,0.19585780799388885,0.12429369240999222
1733703387001529000,7.582529052734375,0.14803446829319,0.2220958024263382,0.1248985007405281
1733703387011495200,7.5924951171875,0.14981496334075928,0.2459736317396164,0.12044967710971832
1733703387021462300,7.602462158203125,0.15182217955589294,0.24876222014427185,0.10634184628725052
1733703387031429000,7.61242919921875,0.14895665645599365,0.2467721551656723,0.08564788103103638
1733703387041395200,7.622395263671875,0.1483185589313507,0.23295965790748596,0.058679115027189255
1733703387051362000,7.632362060546875,0.14402370154857635,0.2102613002061844,0.036209337413311005
1733703387061329200,7.6423291015625,0.1421336531639099,0.17687831819057465,0.021649036556482315
1733703387071296000,7.6522958984375,0.12930020689964294,0.13994088768959045,0.012993858195841312
1733703387081262000,7.662261962890625,0.10829132795333862,0.11061789095401764,0.010352801531553268
1733703387091229200,7.672229248046875,0.08564479649066925,0.09565103054046631,0.00802435353398323
1733703387101196000,7.682196044921875,0.061174605041742325,0.0865321010351181,0.0062070125713944435
1733703387111162000,7.692162109375,0.03234744817018509,0.07727223634719849,0.0027110595256090164
1733703387121129000,7.70212890625,0.0008156192488968372,0.05009493976831436,-0.007082182914018631
1733703387131096000,7.712095947265625,-0.03527265787124634,0.019736522808670998,-0.02245440147817135
1733703387141063000,7.72206298828125,-0.06867028772830963,-0.010450675152242184,-0.03325485438108444
1733703387151029000,7.732029052734375,-0.10237506031990051,-0.04346597567200661,-0.042875610291957855
1733703387160996000,7.74199609375,-0.13054251670837402,-0.07930945605039597,-0.04629724100232124
1733703387170963000,7.751962890625,-0.15474578738212585,-0.11995746940374374,-0.048789866268634796
1733703387180929300,7.76192919921875,-0.1734241396188736,-0.15415164828300476,-0.05171775072813034
1733703387190896000,7.771896240234375,-0.18532204627990723,-0.17873704433441162,-0.04776066169142723
1733703387200863200,7.78186328125,-0.19229181110858917,-0.19993314146995544,-0.0452791266143322
1733703387210830000,7.791830078125,-0.1931762397289276,-0.20881132781505585,-0.04322716221213341
1733703387220796200,7.801796142578125,-0.18626001477241516,-0.2065332531929016,-0.04487299546599388
1733703387230763300,7.81176318359375,-0.17198167741298676,-0.18708087503910065,-0.04730185493826866
1733703387240730000,7.821730224609375,-0.15098237991333008,-0.1591174155473709,-0.04752742126584053
1733703387250696200,7.8316962890625,-0.12374502420425415,-0.12341716140508652,-0.04661243036389351
1733703387260663000,7.8416630859375,-0.09441855549812317,-0.08643463999032974,-0.04085440933704376
1733703387270630100,7.851630126953125,-0.06780563294887543,-0.05211808532476425,-0.03618054464459419
1733703387280597200,7.86159716796875,-0.04091862216591835,-0.017301512882113457,-0.031265150755643845
1733703387290563000,7.87156298828125,-0.01383502408862114,0.01519678719341755,-0.02096160501241684
1733703387300530200,7.8815302734375,0.010584564879536629,0.050737738609313965,-0.013853627257049084
1733703387310497000,7.8914970703125,0.02897035889327526,0.08291144669055939,-0.008104155771434307
1733703387320463000,7.901463134765625,0.044449981302022934,0.10853052884340286,-0.0034324394073337317
1733703387330430700,7.9114306640625,0.05803454667329788,0.12671241164207458,0.00020843034144490957
1733703387340397600,7.9213974609375,0.06967256218194962,0.14089001715183258,0.003128053853288293
1733703387350364700,7.93136474609375,0.07574527710676193,0.14878448843955994,0.008057315833866596
1733703387360330500,7.94133056640625,0.07934054732322693,0.144200399518013,0.011623022146522999
1733703387370297600,7.951297607421875,0.08062167465686798,0.1299288272857666,0.014634721912443638
1733703387380264700,7.9612646484375,0.07928876578807831,0.11191839724779129,0.012855730950832367
1733703387390230500,7.97123046875,0.0759553536772728,0.08159467577934265,0.013129855506122112
1733703387400197600,7.98119775390625,0.06915683299303055,0.056106086820364,0.01770889386534691
1733703387410164500,7.99116455078125,0.061667051166296005,0.026136580854654312,0.021231895312666893
1733703387420131600,8.001131591796875,0.04972810298204422,-0.002595198340713978,0.019683266058564186
1733703387430097700,8.01109765625,0.03795494884252548,-0.026027746498584747,0.021842900663614273
1733703387440064800,8.021064697265626,0.026738779619336128,-0.045992396771907806,0.02230602130293846
1733703387450031900,8.031031982421876,0.016495423391461372,-0.06271892040967941,0.019934678450226784
1733703387459997700,8.040997802734376,0.008103801868855953,-0.07557053864002228,0.015418224036693573
1733703387469964800,8.05096484375,0.001000693067908287,-0.08573783934116364,0.01325327716767788
1733703387479931600,8.060931640625,-0.0020494251511991024,-0.09465757012367249,0.011970432475209236
1733703387489897700,8.070897705078124,-0.006987389177083969,-0.1033317819237709,0.0106344697996974
1733703387499864600,8.080864501953124,-0.00855439342558384,-0.11407577246427536,0.013209480792284012
1733703387509831700,8.090831787109375,-0.011109823361039162,-0.1232227236032486,0.017149385064840317
1733703387519798800,8.100798828125,-0.011829675175249577,-0.12943029403686523,0.017738208174705505
1733703387529764600,8.1107646484375,-0.013687855564057827,-0.1323874145746231,0.018866753205657005
1733703387539731700,8.120731689453125,-0.01497389655560255,-0.1309455931186676,0.01890004239976406
1733703387549698600,8.130698486328125,-0.015689648687839508,-0.1304246038198471,0.017325064167380333
1733703387559664600,8.14066455078125,-0.014078170992434025,-0.1271156221628189,0.016312263906002045
1733703387569631500,8.150631591796875,-0.012782878242433071,-0.1224164366722107,0.012263579294085503
1733703387579598600,8.1605986328125,-0.011191372759640217,-0.11541366577148438,0.006038973107933998
1733703387589565700,8.170565673828126,-0.005903692916035652,-0.10830128937959671,0.003412545658648014
1733703387599531800,8.18053173828125,0.0006024096510373056,-0.09712959080934525,0.001127020688727498
1733703387609498600,8.19049853515625,0.005886414088308811,-0.08514256775379181,0.005032831337302923
1733703387619465500,8.200465576171876,0.007269926369190216,-0.07211890816688538,0.006405157968401909
1733703387629431800,8.210431884765624,0.011342279613018036,-0.057443346828222275,0.007318688556551933
1733703387639398700,8.220398681640624,0.011051462963223457,-0.03859535977244377,0.012181354686617851
1733703387649365800,8.23036572265625,0.010568631812930107,-0.020930612459778786,0.016703136265277863
1733703387659332900,8.240332763671875,0.01157290954142809,-0.006010519340634346,0.017859213054180145
1733703387669298700,8.250298583984375,0.014355085790157318,0.010445286519825459,0.021901078522205353
1733703387679265800,8.260265869140625,0.017829712480306625,0.0193245317786932,0.015153693035244942
1733703387689232600,8.270232666015625,0.02109694480895996,0.021800708025693893,0.004281485918909311
1733703387699198700,8.28019873046875,0.03070962429046631,0.01763605698943138,0.0020548170432448387
1733703387709165600,8.29016552734375,0.0398525670170784,0.017655329778790474,-0.00155470403842628
1733703387719132700,8.300132568359375,0.04978695511817932,0.022405076771974564,-0.0016420558094978333
1733703387729099800,8.310099853515625,0.05613850802183151,0.031198756769299507,0.0038586552254855633
1733703387739065600,8.320065673828125,0.05978943407535553,0.04368205741047859,0.009829462505877018
1733703387749032700,8.33003271484375,0.05418849363923073,0.05792158097028732,0.010619104839861393
1733703387758999600,8.33999951171875,0.04380269721150398,0.06634382903575897,0.003927380312234163
1733703387768965600,8.349965576171876,0.0334002785384655,0.07087353616952896,-0.005587834864854813
1733703387778932500,8.359932373046876,0.02479454316198826,0.07106927782297134,-0.013531245291233063
1733703387788899600,8.369899658203124,0.02134035713970661,0.06667417287826538,-0.023921390995383263
1733703387798866700,8.37986669921875,0.017438028007745743,0.057642862200737,-0.030961191281676292
1733703387808832800,8.389832763671874,0.01681617647409439,0.04438513517379761,-0.0375710166990757
1733703387818799600,8.399799560546874,0.012559647671878338,0.029795540496706963,-0.03744371607899666
1733703387828766500,8.409766357421875,0.009106726385653019,0.012384096160531044,-0.03187042474746704
1733703387838732800,8.41973291015625,0.00394072663038969,-0.00189976766705513,-0.024587474763393402
1733703387848699600,8.42969970703125,-0.002342334482818842,-0.01588248834013939,-0.014448259957134724
1733703387858666800,8.439666748046875,-0.00827798806130886,-0.022339586168527603,-0.0006237903144210577
1733703387868633900,8.4496337890625,-0.012544501572847366,-0.023735411465168,0.012250490486621857
1733703387878599700,8.459599609375,-0.014129082672297955,-0.016007184982299805,0.014603925868868828
1733703387888566800,8.46956689453125,-0.014110866002738476,-0.0032079610973596573,0.007823263294994831
1733703387898533600,8.47953369140625,-0.014114327728748322,0.00470429053530097,0.003878855612128973
1733703387908499700,8.489499755859375,-0.011160203255712986,0.006245273631066084,0.0026304442435503006
1733703387918466600,8.499466552734376,-0.008642983622848988,-0.0009324783459305763,0.006265658885240555
1733703387928433700,8.50943359375,-0.009990354999899864,-0.010705322958528996,0.007831133902072906
1733703387938399700,8.519399658203126,-0.011117671616375446,-0.02032173052430153,0.010134502314031124
1733703387948366600,8.52936669921875,-0.009789833799004555,-0.025703562423586845,0.00856652483344078
1733703387958333700,8.539333740234374,-0.006866748444736004,-0.027462581172585487,0.004724382888525724
1733703387968300500,8.549300537109374,-0.0021931296214461327,-0.01849374733865261,-0.0004755712579935789
1733703387978266600,8.5592666015625,0.005124704446643591,-0.004374733194708824,-0.009440836496651173
1733703387988233500,8.5692333984375,0.014772986993193626,0.017872964963316917,-0.01614539697766304
1733703387998200600,8.57920068359375,0.02659795433282852,0.039043232798576355,-0.015084395185112953
1733703388008167000,8.5891669921875,0.03502904996275902,0.05379549041390419,-0.014419103041291237
1733703388018133800,8.5991337890625,0.03682801499962807,0.06327448040246964,-0.00847998820245266
1733703388028100600,8.6091005859375,0.034530773758888245,0.061290837824344635,-0.0017937961965799332
1733703388038067500,8.6190673828125,0.02889818698167801,0.05460657179355621,0.004826555959880352
1733703388048033800,8.62903369140625,0.02326064370572567,0.05134483054280281,0.00980842113494873
1733703388058000600,8.639000732421875,0.013642904348671436,0.05024707317352295,0.009295497089624405
1733703388067967700,8.6489677734375,0.00185948156286031,0.04720334708690643,0.007178550120443106
1733703388077933800,8.658933837890626,-0.009705827571451664,0.040105223655700684,0.002294579055160284
1733703388087900700,8.668900634765626,-0.015189779922366142,0.026262875646352768,-0.009813401848077774
1733703388097867800,8.67886767578125,-0.017493946477770805,0.02008194476366043,-0.019739802926778793
1733703388107834600,8.688834716796874,-0.016155840829014778,0.02588837593793869,-0.022762726992368698
1733703388117800700,8.69880078125,-0.009072363376617432,0.030010413378477097,-0.02398724853992462
1733703388127767600,8.708767578125,-0.004717067815363407,0.034502796828746796,-0.02455943077802658
1733703388137734700,8.718734619140625,0.0028138193301856518,0.035890836268663406,-0.029087603092193604
1733703388147700700,8.72870068359375,0.0064568365924060345,0.03756590187549591,-0.030711067840456963
1733703388157667600,8.73866748046875,0.005591575521975756,0.03772436082363129,-0.027463877573609352
1733703388167634700,8.748634765625,-0.0020177187398076057,0.03955905884504318,-0.016940735280513763
1733703388177600500,8.7586005859375,-0.006561337970197201,0.03667245805263519,-0.007517404854297638
1733703388187567600,8.768567626953125,-0.005005325190722942,0.03638717532157898,-0.001092469785362482
1733703388197534500,8.778534423828125,0.002864049281924963,0.03541938215494156,0.004771011881530285
1733703388207501600,8.78850146484375,0.013118497096002102,0.027327798306941986,0.0031053696293383837
1733703388217468000,8.798468017578125,0.025259582325816154,0.019747644662857056,-0.004989841021597385
1733703388227434800,8.808434814453125,0.034609220921993256,0.019558623433113098,-0.020622413605451584
1733703388237401600,8.818401611328126,0.037082500755786896,0.014081832952797413,-0.025256846100091934
1733703388247367700,8.82836767578125,0.04032057896256447,0.014436474069952965,-0.019648320972919464
1733703388257334800,8.838334716796876,0.035192929208278656,0.016677258536219597,-0.010391172021627426
1733703388267301600,8.848301513671874,0.02823980711400509,0.022116580978035927,-0.004133695736527443
1733703388277268700,8.858268798828124,0.018028980121016502,0.01797403395175934,-0.0017363186925649643
1733703388287234800,8.86823486328125,0.01155557669699192,0.010831587947905064,0.0006690818117931485
1733703388297201700,8.87820166015625,0.004555989988148212,0.0047563849948346615,0.0020467350259423256
1733703388307168800,8.888168701171875,0.0003351460618432611,-0.004463745281100273,0.00565478578209877
1733703388317134600,8.898134521484375,-0.006241263821721077,-0.01683945581316948,0.01112385280430317
1733703388327102000,8.90810205078125,-0.014056217856705189,-0.03514020889997482,0.010619023814797401
1733703388337068800,8.91806884765625,-0.02353121154010296,-0.04964698106050491,0.00783948227763176
1733703388347036000,8.928035888671875,-0.031468529254198074,-0.05530446395277977,0.011296252720057964
1733703388357001700,8.938001708984375,-0.0382196418941021,-0.06624073535203934,0.019642865285277367
1733703388366968800,8.94796875,-0.04252084344625473,-0.08059173822402954,0.022512301802635193
1733703388376936000,8.95793603515625,-0.042978640645742416,-0.08711462467908859,0.018927153199911118
1733703388386901800,8.96790185546875,-0.04213377460837364,-0.07966474443674088,0.020038291811943054
1733703388396868900,8.977868896484376,-0.03619785234332085,-0.06494172662496567,0.018792198970913887
1733703388406835700,8.987835693359376,-0.03268084675073624,-0.05061938613653183,0.01984655298292637
1733703388416802000,8.997802001953126,-0.027149995788931847,-0.04027753323316574,0.020383447408676147
1733703388426769000,9.007768798828126,-0.02139444276690483,-0.03073539212346077,0.018191786482930183
1733703388436735700,9.01773583984375,-0.012106400914490223,-0.019629213958978653,0.016868460923433304
1733703388446702800,9.027702880859374,0.0005292905261740088,-0.01331822294741869,0.019898436963558197
1733703388456669000,9.0376689453125,0.010326261632144451,-0.005779878236353397,0.02304043434560299
1733703388466636000,9.047635986328125,0.017015231773257256,0.00620332220569253,0.023336471989750862
1733703388476603000,9.057602783203125,0.0222142543643713,0.01641920767724514,0.02230423130095005
1733703388486569000,9.06756884765625,0.02682279422879219,0.02305544540286064,0.020727012306451797
1733703388496535800,9.077535888671875,0.030039360746741295,0.030311226844787598,0.019742440432310104
1733703388506503000,9.0875029296875,0.02957744337618351,0.030722085386514664,0.017656676471233368
1733703388516470000,9.097469970703125,0.031129267066717148,0.023145925253629684,0.012024623341858387
1733703388526435800,9.107435791015625,0.025407826527953148,0.017474127933382988,0.0068964045494794846
1733703388536403000,9.11740283203125,0.024667201563715935,0.013682052493095398,0.005045773461461067
1733703388546369800,9.127369873046876,0.016023805364966393,0.011720562353730202,0.004616193473339081
1733703388556335900,9.1373359375,0.0076939696446061134,0.005456008482724428,0.005762950517237186
1733703388566302700,9.147302734375,-0.005597518291324377,-0.004712102934718132,0.003265364095568657
1733703388576269800,9.157269775390626,-0.012971545569598675,-0.016752520576119423,0.0026019709184765816
1733703388586235600,9.167235595703126,-0.02187422662973404,-0.02888375148177147,-0.004062590189278126
1733703388596202800,9.17720263671875,-0.02771480567753315,-0.03161375969648361,-0.013117603957653046
1733703388606169900,9.187169921875,-0.028272714465856552,-0.03174399957060814,-0.017361924052238464
1733703388616136700,9.19713671875,-0.02994544617831707,-0.030705098062753677,-0.018216533586382866
1733703388626103000,9.20710302734375,-0.02682914212346077,-0.027645211666822433,-0.023548025637865067
1733703388636070000,9.21706982421875,-0.02549809403717518,-0.023091737180948257,-0.026561925187706947
1733703388646036700,9.22703662109375,-0.02559575065970421,-0.020503569394350052,-0.028420617803931236
1733703388656002800,9.2370029296875,-0.022510478273034096,-0.023473531007766724,-0.025001918897032738
1733703388665970000,9.246969970703125,-0.018613198772072792,-0.028230346739292145,-0.021726051345467567
1733703388675937000,9.25693701171875,-0.018830779939889908,-0.026914212852716446,-0.020750269293785095
1733703388685902800,9.26690283203125,-0.017082156613469124,-0.026379037648439407,-0.016819089651107788
1733703388695870000,9.276869873046875,-0.011570479720830917,-0.025596868246793747,-0.014515988528728485
1733703388705836800,9.2868369140625,-0.011155026033520699,-0.027461081743240356,-0.012935668230056763
1733703388715804000,9.296803955078126,-0.013278364203870296,-0.03269632160663605,-0.013987617567181587
1733703388725769700,9.306769775390626,-0.01598491333425045,-0.030111737549304962,-0.014122946187853813
1733703388735736800,9.31673681640625,-0.01639637164771557,-0.022310536354780197,-0.011024891398847103
1733703388745704000,9.326703857421874,-0.017095472663640976,-0.020467352122068405,-0.0009724833071231842
1733703388755669800,9.336669677734376,-0.013645614497363567,-0.020474541932344437,0.005841480568051338
1733703388765636900,9.346636962890624,-0.011713271960616112,-0.0216473788022995,0.008089004084467888
1733703388775603700,9.356603759765624,-0.0031544051598757505,-0.021849777549505234,0.0039059766568243504
1733703388785569800,9.36656982421875,0.005499107763171196,-0.022200973704457283,0.004348078276962042
1733703388795536600,9.37653662109375,0.009698912501335144,-0.02043556235730648,0.008354270830750465
1733703388805503700,9.386503662109375,0.01200295239686966,-0.017605487257242203,0.01511712558567524
1733703388815470800,9.396470947265625,0.011292953975498676,-0.016190016642212868,0.018090013414621353
1733703388825437000,9.40643701171875,0.0068392567336559296,-0.01263278815895319,0.021150680258870125
1733703388835404000,9.416404052734375,0.002538517815992236,-0.006683020852506161,0.023061497136950493
1733703388845371000,9.426370849609375,0.002573937876150012,0.004102781880646944,0.026936130598187447
1733703388855337000,9.4363369140625,0.0037092433776706457,0.019451111555099487,0.02719419077038765
1733703388865303800,9.4463037109375,0.003115638392046094,0.027593843638896942,0.02162010408937931
1733703388875271000,9.45627099609375,0.003978502470999956,0.03544004634022713,0.014310791157186031
1733703388885238000,9.466238037109376,0.007494430989027023,0.03289911523461342,0.009926123544573784
1733703388895203800,9.476203857421876,0.007910682819783688,0.02448512427508831,0.0027518337592482567
1733703388905171000,9.4861708984375,0.011827858164906502,0.00956215150654316,-0.009415625594556332
1733703388915137800,9.4961376953125,0.017011435702443123,0.0006453553214669228,-0.019859211519360542
1733703388925103900,9.506103759765624,0.02403208427131176,-0.00580642931163311,-0.025949368253350258
1733703388935070700,9.51607080078125,0.025028638541698456,-0.007083149626851082,-0.02428196370601654
1733703388945037800,9.526037841796875,0.028052736073732376,-0.007249242626130581,-0.019243469461798668
1733703388955003600,9.536003662109374,0.029772603884339333,-0.0062979599460959435,-0.015963787212967873
1733703388964970800,9.545970703125,0.027819732204079628,-0.001442229375243187,-0.013955006375908852
1733703388974937900,9.555937744140625,0.027278577908873558,0.0053512281738221645,-0.016911379992961884
1733703388984904700,9.56590478515625,0.029507886618375778,0.007933173328638077,-0.020926320925354958
1733703388994870800,9.575870849609375,0.029000820592045784,0.0029775630682706833,-0.019642943516373634
1733703389004837600,9.585837646484375,0.028911596164107323,-0.005859325639903545,-0.02175813354551792
1733703389014804700,9.5958046875,0.026397040113806725,-0.00979600939899683,-0.016731683164834976
1733703389024770800,9.605770751953125,0.021188892424106598,-0.016791721805930138,-0.011530086398124695
1733703389034738000,9.615738037109375,0.013369318097829819,-0.02451968379318714,-0.0073582446202635765
1733703389044705000,9.625705078125,0.00020461002714000642,-0.0384640209376812,-0.00406580651178956
1733703389054672000,9.635671875,-0.007598185446113348,-0.05164507031440735,0.0016890184488147497
1733703389064638000,9.645637939453126,-0.013377887196838856,-0.061871692538261414,0.005791204981505871
1733703389074604800,9.655604736328126,-0.0159640833735466,-0.06427812576293945,0.003619929775595665
1733703389084572000,9.665572021484374,-0.013089162297546864,-0.05981481447815895,-0.0016802896279841661
1733703389094537700,9.675537841796874,-0.011215095408260822,-0.04705427959561348,-0.0034901737235486507
1733703389104504800,9.6855048828125,-0.00616062805056572,-0.03693895787000656,-0.003345996141433716
1733703389114472000,9.695471923828125,-0.0004425549414008856,-0.02544262632727623,-0.0050448267720639706
1733703389124437800,9.705437744140625,0.0027122425381094217,-0.016472969204187393,-0.005143853835761547
1733703389134404900,9.71540478515625,0.004543432034552097,-0.014039638452231884,-0.005508706904947758
1733703389144371700,9.725371826171875,0.0017224459443241358,-0.01710272580385208,-0.004086557775735855
1733703389154337800,9.735337890625,0.0037094303406774998,-0.015426533296704292,0.0012243175879120827
1733703389164304600,9.7453046875,0.0013083009980618954,-0.010363318957388401,0.007459617219865322
1733703389174271700,9.755271728515625,0.0004536926280707121,-0.0032646628096699715,0.015635788440704346
1733703389184238800,9.76523876953125,-0.002067960100248456,0.0049218484200537205,0.01868547685444355
1733703389194205000,9.775204833984375,-0.001259424490854144,0.016047203913331032,0.015865188091993332
1733703389204171800,9.785171875,0.001192915951833129,0.02683015540242195,0.016492117196321487
1733703389214138600,9.795138671875,0.007053467910736799,0.03225314989686012,0.01349952258169651
1733703389224105000,9.80510498046875,0.011403498239815235,0.03853287175297737,0.00521358847618103
1733703389234071800,9.81507177734375,0.016615571454167366,0.04435374215245247,0.002187705133110285
1733703389244039000,9.825038818359374,0.017835957929491997,0.04704040288925171,0.004742185585200787
1733703389254005000,9.8350048828125,0.01809481717646122,0.04223340004682541,0.0047957152128219604
1733703389263971800,9.844971923828124,0.01615932397544384,0.0327298641204834,0.0015494264662265778
1733703389273939000,9.85493896484375,0.011890810914337635,0.021517690271139145,-0.0007563384715467691
1733703389283905800,9.86490576171875,0.010890607722103596,0.011487781070172787,-0.007362784817814827
1733703389293871900,9.874871826171875,0.008223718032240868,0.006319916807115078,-0.007748144678771496
1733703389303838700,9.884838623046875,0.006804878823459148,0.0013727853074669838,-0.008767231367528439
1733703389313805800,9.894805908203125,0.006185694132000208,-0.0004986170679330826,-0.0036640821490436792
1733703389323772000,9.90477197265625,0.002526673721149564,0.0013577966019511223,-0.0032241453882306814
1733703389333737700,9.91473779296875,0.0030909976921975613,0.006063868757337332,-0.0034795424435287714
1733703389343704800,9.924704833984375,0.0026014549657702446,0.007869388908147812,-0.0027198446914553642
1733703389353671000,9.9346708984375,0.0029572532512247562,0.008289103396236897,-0.003233568277209997
1733703389363638000,9.944637939453125,0.005797058809548616,0.006447086110711098,-0.0009431885555386543
1733703389373605000,9.954605224609375,0.0054844035767018795,0.004799388349056244,0.0017300925683230162
1733703389383572000,9.964572021484376,0.005071762949228287,0.0023946091532707214,0.0031428365036845207
1733703389393538000,9.9745380859375,0.0049692317843437195,0.0008550351485610008,0.005224096588790417
1733703389403505000,9.9845048828125,0.004473946988582611,0.0011980291455984116,0.005913359113037586
1733703389413472000,9.994471923828126,0.003254751907661557,0.005023393779993057,0.007898479700088501
1733703389423437800,10.004437744140626,0.001164271030575037,0.015050404705107212,0.005422217305749655
1733703389433405000,10.014405029296874,-0.00014067778829485178,0.026780031621456146,0.005055233836174011
1733703389443372000,10.0243720703125,-0.002331470139324665,0.03529566526412964,0.0026569950859993696
1733703389453337900,10.034337890625,-0.005305422004312277,0.03696493059396744,0.0028343615122139454
1733703389463305000,10.044304931640625,-0.005054647568613291,0.03372364491224289,0.0003324863500893116
1733703389473271800,10.054271728515625,-0.0072674681432545185,0.02706308104097843,-0.0041970182210206985
1733703389483239000,10.064239013671875,-0.005789997521787882,0.016424445435404778,-0.007376670837402344
1733703389493204700,10.074204833984375,-0.001110557117499411,0.0023640207946300507,-0.011029995046555996
1733703389503171800,10.084171875,0.0011912162881344557,-0.006214426830410957,-0.012959267944097519
1733703389513139000,10.094138916015625,0.005543353967368603,-0.007936425507068634,-0.012652472592890263
1733703389523105000,10.10410498046875,0.006254439242184162,-0.00889184232801199,-0.01143297366797924
1733703389533072000,10.11407177734375,0.00726697314530611,-0.005124800838530064,-0.0060291532427072525
1733703389543038700,10.124038818359375,0.004081544931977987,-0.0013339174911379814,-0.009459608234465122
1733703389553005000,10.134005126953125,0.004730557091534138,0.0017063478007912636,-0.009399953298270702
1733703389562972000,10.143971923828126,0.006316442042589188,0.003938759211450815,-0.00668048020452261
1733703389572939000,10.15393896484375,0.00780861172825098,0.000811941921710968,-0.0038455447647720575
1733703389582906000,10.163906005859374,0.012137121520936489,0.0003334656357765198,-0.0034715731162577868
1733703389592872000,10.173871826171874,0.015420532785356045,-0.0006838617846369743,-0.0010907070245593786
1733703389602839000,10.183839111328124,0.02083183266222477,-0.001070961356163025,0.0055861398577690125
1733703389612806000,10.193805908203124,0.02310776896774769,0.0012944582849740982,0.008325734175741673
1733703389622772000,10.20377197265625,0.022499771788716316,0.003440297208726406,0.009332598187029362
1733703389632738800,10.21373876953125,0.018278129398822784,0.0055133020505309105,0.012445300817489624
1733703389642706000,10.223705810546875,0.013628177344799042,0.008395680226385593,0.01586187817156315
1733703389652671700,10.233671630859375,0.009840896353125572,0.0075943348929286,0.018960731104016304
1733703389662638800,10.243638916015625,0.0060122376307845116,0.010609480552375317,0.01725160889327526
1733703389672606000,10.25360595703125,0.00019429571693763137,0.017842359840869904,0.014592442661523819
1733703389682572800,10.26357275390625,0.001251279842108488,0.023332346230745316,0.013206117786467075
1733703389692539000,10.273538818359375,0.0018440994899719954,0.025984589010477066,0.010891564190387726
1733703389702505700,10.283505615234375,0.00345959747210145,0.03263195976614952,0.00689457543194294
1733703389712472800,10.293472900390626,0.0064676376059651375,0.03973114490509033,0.002312873490154743
1733703389722439000,10.30343896484375,0.011938207782804966,0.03984011709690094,-0.0017890287563204765
1733703389732406000,10.313406005859376,0.01376353856176138,0.0371689647436142,-0.006569668650627136
1733703389742372900,10.323372802734376,0.012694036588072777,0.03155021741986275,-0.008325265720486641
1733703389752339000,10.3333388671875,0.008342697285115719,0.025229204446077347,-0.009230474010109901
1733703389762306000,10.34330615234375,0.0036721897777169943,0.01810624450445175,-0.011745013296604156
1733703389772273000,10.35327294921875,-0.0058318329975008965,0.011104526929557323,-0.012947696261107922
1733703389782240000,10.363239990234375,-0.013719147071242332,-0.0031782248988747597,-0.009738155640661716
1733703389792205800,10.373205810546875,-0.021419145166873932,-0.01314324140548706,-0.0023169908672571182
1733703389802173000,10.3831728515625,-0.026727572083473206,-0.01781405694782734,-0.00025853049010038376
1733703389812140000,10.39314013671875,-0.03474528342485428,-0.023269809782505035,-0.00027983589097857475
1733703389822105900,10.40310595703125,-0.034058064222335815,-0.025630634278059006,-0.0033028123434633017
1733703389832073000,10.413072998046875,-0.03263433650135994,-0.027676206082105637,-0.00579606369137764
1733703389842039800,10.423039794921875,-0.027393536642193794,-0.028561949729919434,-0.007774056866765022
1733703389852006000,10.433005859375,-0.023680556565523148,-0.029641862958669662,-0.009037460200488567
1733703389861972700,10.44297265625,-0.01699267514050007,-0.029690410941839218,-0.007089764345437288
1733703389871939800,10.45293994140625,-0.01233880128711462,-0.02909466251730919,-0.004456963390111923
1733703389881906000,10.462906005859375,-0.010585282929241657,-0.03132243826985359,-0.0019767736084759235
1733703389891872800,10.472872802734376,-0.007295746356248856,-0.027590814977884293,0.004762088879942894
1733703389901840000,10.48283984375,-0.005222429521381855,-0.028559565544128418,0.009302357211709023
1733703389911806700,10.492806640625,-0.005510050803422928,-0.02610066905617714,0.011151655577123165
1733703389921773000,10.50277294921875,-0.004469479434192181,-0.019870106130838394,0.015194931998848915
1733703389931740000,10.512739990234374,0.000582270382437855,-0.01719256490468979,0.017665281891822815
1733703389941707000,10.52270703125,-0.001296565867960453,-0.01565460115671158,0.019061800092458725
1733703389951673000,10.532673095703124,-0.001549566281028092,-0.009912559762597084,0.025856856256723404
1733703389961640000,10.542639892578125,-0.0023784395307302475,-0.007012194953858852,0.03587138280272484
1733703389971607000,10.55260693359375,-0.0006838703411631286,-0.004428129643201828,0.03655554726719856
1733703389981572900,10.56257275390625,0.0017183506861329079,-0.005100737325847149,0.030991779640316963
1733703389991540000,10.5725400390625,0.0028920057229697704,-0.0075958529487252235,0.026497961953282356
1733703390001507000,10.582507080078125,-0.00041359616443514824,-0.008766944520175457,0.020729633048176765
1733703390011474000,10.592473876953125,-0.0024937912821769714,-0.011598150245845318,0.013981183990836143
1733703390021440000,10.60243994140625,-0.0021336155477911234,-0.015568447299301624,0.007659435737878084
1733703390031406800,10.61240673828125,-0.0035560098476707935,-0.022678818553686142,0.0034013076219707727
1733703390041374000,10.6223740234375,-0.004625926725566387,-0.03589801862835884,-0.0046568638645112514
1733703390051339800,10.63233984375,-0.0032903512474149466,-0.04330107569694519,-0.00875040888786316
1733703390061307000,10.642306884765626,-0.00034283928107470274,-0.04756102338433266,-0.010331516154110432
1733703390071274000,10.65227392578125,0.0028124740347266197,-0.04692239686846733,-0.010881192982196808
1733703390081240000,10.662239990234376,0.0007303414167836308,-0.04773275926709175,-0.010893850587308407
1733703390091207000,10.67220703125,-0.006240748800337315,-0.046447254717350006,-0.011125545017421246
1733703390101173800,10.682173828125,-0.010653752833604813,-0.052826520055532455,-0.010135398246347904
1733703390111140000,10.69214013671875,-0.01569405198097229,-0.056006330996751785,-0.008296485990285873
1733703390121107000,10.70210693359375,-0.01862822286784649,-0.05288529023528099,-0.00439865980297327
1733703390131074000,10.712073974609375,-0.02044449932873249,-0.044788748025894165,-0.0032473758328706026
1733703390141041200,10.722041259765625,-0.019727695733308792,-0.030589517205953598,-0.003284188685938716
1733703390151007000,10.732007080078125,-0.014895123429596424,-0.016315240412950516,-0.007092508487403393
1733703390160974000,10.74197412109375,-0.008546773344278336,0.004518978297710419,-0.008428719826042652
1733703390170941000,10.75194091796875,-0.00043451861711218953,0.021354418247938156,-0.013683137483894825
1733703390180907000,10.761906982421875,0.0030030596535652876,0.029787737876176834,-0.016714755445718765
1733703390190873900,10.771873779296875,0.003620113944634795,0.03482750430703163,-0.014871582388877869
1733703390200841000,10.781841064453126,0.004637246951460838,0.03798491135239601,-0.013048505410552025
1733703390210806800,10.791806884765625,0.0041589438915252686,0.0353129617869854,-0.009944058954715729
1733703390220774000,10.80177392578125,0.004401193931698799,0.02844884619116783,-0.00196418771520257
1733703390230741000,10.811740966796876,0.0030086268670856953,0.020776811987161636,0.0005327920662239194
1733703390240707800,10.821707763671874,0.005181195680052042,0.013057383708655834,-0.0033701497595757246
1733703390250674000,10.831673828125,0.009059824049472809,0.004850053694099188,-0.006620804779231548
1733703390260640800,10.841640869140624,0.008034193888306618,0.003854053094983101,-0.007508621551096439
1733703390270608000,10.85160791015625,0.006897823419421911,0.005668198224157095,-0.011675668880343437
1733703390280574000,10.861573974609374,0.007135805673897266,0.007364162243902683,-0.01370558887720108
1733703390290541000,10.871541015625,0.0025698160752654076,0.0041193668730556965,-0.01219903863966465
1733703390300508000,10.8815078125,-0.0010369488736614585,-0.00023022480309009552,-0.005611055064946413
1733703390310474000,10.891473876953125,-0.004134737886488438,-0.004870250821113586,0.001403711037710309
1733703390320441000,10.901441162109375,-0.0006417662370949984,-0.009343675337731838,0.005745586473494768
1733703390330408000,10.911407958984375,0.0027633514255285263,-0.008181204088032246,0.010555521585047245
1733703390340374000,10.9213740234375,0.0080312080681324,-0.005002387799322605,0.009163467213511467
1733703390350340900,10.9313408203125,0.012433679774403572,-0.00208462867885828,0.008991426788270473
1733703390360308000,10.941307861328125,0.014536315575242043,0.0025279372930526733,0.009862575680017471
1733703390370275000,10.951275146484376,0.011765562929213047,0.007853993214666843,0.012299368157982826
1733703390380241000,10.961240966796876,0.0063767023384571075,0.0045416634529829025,0.011175890453159809
1733703390390208000,10.9712080078125,0.0010565054835751653,-0.004912291653454304,0.007244265638291836
1733703390400174800,10.9811748046875,-0.002430249471217394,-0.007887770421802998,0.006073789671063423
1733703390410141000,10.991140869140626,0.0003407695621717721,-0.0009124195203185081,0.01183074526488781
1733703390420107800,11.001107666015624,-0.0010710452916100621,0.012293301522731781,0.017531974241137505
1733703390430075000,11.011074951171874,-0.003021810669451952,0.024584589526057243,0.012141736224293709
1733703390440040700,11.021040771484374,-0.003850804176181555,0.03439325466752052,0.006410529371351004
1733703390450007800,11.0310078125,-0.0018339920789003372,0.03780423104763031,-0.0005499082617461681
1733703390459975000,11.040974853515625,-0.0004719310672953725,0.03941205516457558,-0.003553970018401742
1733703390469941000,11.05094091796875,0.0012540635652840137,0.034773360937833786,-0.001806936226785183
1733703390479908000,11.060908203125,0.005089984275400639,0.029219649732112885,-0.0022587089333683252
1733703390489875000,11.070875,0.004869741387665272,0.021115384995937347,-0.0026840155478566885
1733703390499842000,11.080842041015625,0.008443075232207775,0.008738390170037746,-0.001778908772394061
1733703390509807900,11.090807861328125,0.007474217098206282,0.0003499649465084076,-0.003646317170932889
1733703390519775000,11.10077490234375,0.006886528804898262,0.002849975135177374,0.0005204163026064634
1733703390529742000,11.1107421875,0.003140792716294527,0.00390831520780921,0.0033673355355858803
1733703390539708000,11.1207080078125,0.005200727842748165,0.006257898174226284,0.00394455436617136
1733703390549675000,11.130675048828126,0.0067078107967972755,0.007921840995550156,0.0005181310698390007
1733703390559641900,11.140641845703126,0.010043222457170486,0.011924139223992825,-0.0032080926466733217
1733703390569608000,11.15060791015625,0.014291231520473957,0.01583339273929596,-0.003750578733161092
1733703390579574800,11.16057470703125,0.015424647368490696,0.008298523724079132,-0.006718896329402924
1733703390589542000,11.1705419921875,0.014435282908380032,-0.001293117180466652,-0.010286999866366386
1733703390599509000,11.180509033203125,0.013336900621652603,-0.008544725365936756,-0.015561151318252087
1733703390609474800,11.190474853515624,0.010363748297095299,-0.018265530467033386,-0.011954698711633682
1733703390619442000,11.20044189453125,0.006972211413085461,-0.02395590767264366,-0.003108891425654292
1733703390629408800,11.21040869140625,0.0020477601792663336,-0.028198853135108948,0.00365207577124238
1733703390639374800,11.220374755859375,-0.003218545112758875,-0.02744748815894127,0.008215578272938728
1733703390649341700,11.230341796875,-0.005900881253182888,-0.02329828217625618,0.010237716138362885
1733703390659308800,11.240308837890625,-0.008472377434372902,-0.012157248333096504,0.013219154439866543
1733703390669275000,11.25027490234375,-0.0066909887827932835,-0.0008425414562225342,0.012711555697023869
1733703390679242000,11.260241943359375,0.0002890556352213025,0.011452797800302505,0.010983219370245934
1733703390689209000,11.270208984375,0.0031405023764818907,0.020178377628326416,0.011525704525411129
1733703390699175000,11.2801748046875,0.005978443659842014,0.015807019546628,0.010274005122482777
1733703390709142000,11.29014208984375,0.010476789437234402,0.0075648026540875435,0.00921699684113264
1733703390719108900,11.30010888671875,0.015670940279960632,-0.0010845661163330078,0.00771072693169117
1733703390729075000,11.310074951171876,0.016939669847488403,-0.0058188671246171,0.004721062257885933
1733703390739042000,11.3200419921875,0.021216223016381264,-0.00206663366407156,0.007471948862075806
1733703390749009000,11.3300087890625,0.020516877993941307,0.005617118440568447,0.008543338626623154
1733703390758976000,11.33997607421875,0.021420298144221306,0.013186980038881302,0.0036754091270267963
1733703390768941800,11.34994189453125,0.019845571368932724,0.017417144030332565,-0.0027659782208502293
1733703390778909000,11.359908935546875,0.018141748383641243,0.019409824162721634,-0.008504603989422321
1733703390788875800,11.369875732421875,0.012927279807627201,0.01836799643933773,-0.0070302775129675865
1733703390798841900,11.379841796875,0.00755316624417901,0.015268934890627861,-0.00467184092849493
1733703390808809000,11.38980908203125,0.0031381777953356504,0.015347497537732124,-0.0005439408123493195
1733703390818775800,11.39977587890625,0.0007866073865443468,0.010712933726608753,0.0010644164867699146
1733703390828742100,11.4097421875,0.0005977892433293164,0.00723537802696228,-0.0014948812313377857
1733703390838709000,11.419708984375,0.0034377356059849262,0.008210251107811928,-0.004374815616756678
1733703390848675800,11.42967578125,0.005570394918322563,0.009092822670936584,-0.00813653040677309
1733703390858642000,11.439641845703125,0.008989893831312656,0.007883349433541298,-0.011689910665154457
1733703390868609000,11.449609130859375,0.009752889163792133,0.00666335504502058,-0.013026284985244274
1733703390878576000,11.459576171875,0.009901129640638828,0.009103392250835896,-0.014602710492908955
1733703390888543000,11.46954296875,0.007604685612022877,0.01057239156216383,-0.014231731183826923
1733703390898509000,11.479509033203126,0.0044861240312457085,0.00672359112650156,-0.01078320387750864
1733703390908476000,11.489475830078124,-0.00021755078341811895,0.002489964012056589,-0.006493117660284042
1733703390918443000,11.499443115234374,-0.001880186377093196,-0.002913045696914196,-0.0022791563533246517
1733703390928408800,11.509408935546874,-0.004133486654609442,-0.0011835889890789986,-0.0020716963335871696
1733703390938376000,11.5193759765625,-0.008554257452487946,0.0007984302937984467,-0.001719148363918066
1733703390948343000,11.529343017578125,-0.010757757350802422,-0.0004748273640871048,-0.00159957236610353
1733703390958308900,11.539308837890625,-0.011675195768475533,0.0020486433058977127,0.00039475702214986086
1733703390968276000,11.54927587890625,-0.01331596914678812,0.0005831057205796242,-0.00016690371558070183
1733703390978242800,11.559242919921875,-0.011477104388177395,-0.0055691832676529884,0.0005532688228413463
1733703390988209000,11.569208984375,-0.005935066845268011,-0.01279540453106165,0.00003235461190342903
1733703390998175700,11.57917578125,-0.002914846409112215,-0.01728198677301407,-0.0006529162637889385
1733703391008142800,11.589142822265625,0.003712962381541729,-0.02162932977080345,-0.0024412288330495358
1733703391018109000,11.59910888671875,0.003853333182632923,-0.018279217183589935,-0.0012434530071914196
1733703391028076000,11.609075927734375,0.006230204366147518,-0.016829926520586014,0.0013336879201233387
1733703391038043100,11.619043212890626,0.006865974981337786,-0.018395237624645233,0.007999379187822342
1733703391048010000,11.629010009765626,0.0066209640353918076,-0.020438682287931442,0.012721695005893707
1733703391057976000,11.63897607421875,0.0017839886713773012,-0.02584323287010193,0.014342742040753365
1733703391067943000,11.64894287109375,-0.00435379846021533,-0.03361566737294197,0.01634943298995495
1733703391077910000,11.658909912109374,-0.009640386328101158,-0.04139705002307892,0.01627899520099163
1733703391087875800,11.668875732421874,-0.013886264525353909,-0.04755241423845291,0.012635525315999985
1733703391097843000,11.678843017578124,-0.016380179673433304,-0.05295203626155853,0.011285712011158466
1733703391107810000,11.68881005859375,-0.01506084855645895,-0.05259197950363159,0.008793791756033897
1733703391117776000,11.69877587890625,-0.012270145118236542,-0.05176505446434021,0.005970350932329893
1733703391127743000,11.708742919921875,-0.009679689072072506,-0.04738468676805496,0.0040411571972072124
1733703391137709800,11.718709716796875,-0.006583926733583212,-0.04198664799332619,0.0028623417019844055
1733703391147676000,11.728676025390625,-0.0028206135611981153,-0.03706565871834755,0.0037153521552681923
1733703391157642800,11.738642822265625,0.00034868705552071333,-0.027918700128793716,0.0020546703599393368
1733703391167609900,11.74860986328125,0.005145040340721607,-0.019115090370178223,0.0020474798511713743
1733703391177577000,11.758576904296875,0.009627430699765682,-0.012384493835270405,-0.002939596539363265
