time,seconds_elapsed,z,y,x
1733698193178635800,0.0236357421875,-0.34337153887748717,-0.10856745182257145,0.19054332238286734
1733698193188591000,0.033591064453125,-0.17139117040634155,0.046598030246887356,0.28008783809915183
1733698193198545000,0.043544921875,0.060851651325821876,0.14742253979248926,0.16612638174593447
1733698193208499000,0.0534990234375,0.21479718141257761,0.17535106874695047,-0.0007920271605253219
1733698193218453800,0.063453857421875,0.21065116764903066,0.16543330318154767,-0.16509250865355132
1733698193228407800,0.07340771484375,0.09946166022717952,0.1230677046063356,-0.20878902703896163
1733698193238363100,0.083363037109375,-0.010742343288660049,0.06978725571976974,-0.17971856150776147
1733698193248317000,0.09331689453125,-0.05145838455855846,0.03730833345195278,-0.10462225786074995
1733698193258272000,0.10327197265625,-0.044081718310713766,0.029567510066833346,-0.06441168189495801
1733698193268225800,0.113225830078125,0.01950257284939289,0.04825995384342968,-0.06625935558825731
1733698193278180900,0.123180908203125,0.06291267550885676,0.0456734627478756,-0.06097586222738027
1733698193288135000,0.133135009765625,0.05733166050612926,0.05699159663049504,-0.06165142340138554
1733698193298090000,0.143090087890625,-0.0030699089646339414,0.06808240629695356,-0.004154927722364664
1733698193308044000,0.1530439453125,-0.0338280353218317,0.04825007177023217,0.05413754063993692
1733698193317998800,0.162998779296875,-0.020052607947587966,0.016548380952607838,0.07130129527822136
1733698193327953000,0.172952880859375,0.004104512709379196,-0.01963372494839132,0.08520371003299951
1733698193337907000,0.182906982421875,0.037005496314167975,-0.03314370631948113,0.05978913666084409
1733698193347862000,0.192862060546875,0.055633624416589735,-0.02484009795244783,0.05145414677485823
1733698193357816000,0.202816162109375,0.026294717207551,0.0038995099228806792,0.028193390435725448
1733698193367771000,0.21277099609375,-0.01279752225279808,0.00009038169719278812,0.04351195559874177
1733698193377725000,0.222724853515625,-0.0392044676631689,-0.0053571065863594405,0.06748012955486773
1733698193387679700,0.2326796875,-0.03124211048185825,-0.03393631800189614,0.10765227320641278
1733698193397634000,0.242634033203125,0.006825462105870247,-0.04113675090000033,0.1326597270824015
1733698193407588900,0.2525888671875,0.05678045636415481,-0.032716640013828874,0.13737331160083413
1733698193417543000,0.26254296875,0.06987257764935494,-0.03895315978322178,0.09603782325834036
1733698193427498000,0.272498046875,0.0676823741286993,-0.011288505929335951,0.04267287442609668
1733698193437451800,0.28245166015625,0.06664718586206436,0.018976905007474124,-0.04510097835585475
1733698193447407000,0.292406982421875,0.07589315311312675,0.03218856101911515,-0.12470935259982943
1733698193457361000,0.30236083984375,0.08047931185960769,0.015525120585784315,-0.2254553535491228
1733698193467315000,0.31231494140625,0.10042904395461082,-0.041231735707074404,-0.28689883328825233
1733698193477269800,0.322269775390625,0.1126513966679573,-0.07568415000494569,-0.3009861030906439
1733698193487223800,0.332223876953125,0.09831950445473193,-0.07687957033459096,-0.27007453973740336
1733698193497179100,0.34217919921875,0.09165069421529769,-0.049945313114486634,-0.22272037562727928
1733698193507133000,0.3521328125,0.039598435416817665,-0.012242518718540667,-0.14846592963188887
1733698193517088000,0.362087890625,0.010315057787299155,0.033217904066853224,-0.0805462396159768
1733698193527041800,0.372041748046875,0.01870703855752945,0.066145574749168,-0.049005876839905975
1733698193536996900,0.381996826171875,0.027017770785093306,0.08230082819834351,-0.0017540040604770183
1733698193546951000,0.391950927734375,0.035011692148447036,0.08800839219018816,0.018907675696164368
1733698193556906000,0.401906005859375,0.05867372276484966,0.07026714819120243,0.03190218182578683
1733698193566860000,0.411860107421875,0.059391515645384786,0.05537384096924215,0.02712181568145752
1733698193576813800,0.421813720703125,0.04145136980712413,0.01640776690552011,0.012918372153490782
1733698193586769000,0.431768798828125,0.027414661148190498,0.01868672642186284,-0.004530775297433138
1733698193596723000,0.441722900390625,0.025518472138047216,0.014408409781847148,-0.002450315761566162
1733698193606678000,0.451677978515625,0.010869184538722038,0.01034019222855568,-0.007946721220761538
1733698193616632000,0.461632080078125,0.015620762979984283,-0.0062483563376590605,-0.030887305694818495
1733698193626587000,0.4715869140625,0.049852118405699725,-0.01342307027261704,-0.01768266394585371
1733698193636541000,0.481541015625,0.05956453412473201,-0.02751419426621869,0.01640168422460556
1733698193646495700,0.491495849609375,0.051557168757915495,-0.034490042894519866,0.03332666167095304
1733698193656450000,0.501449951171875,0.043998131680488585,-0.069292439673841,0.04300239864140749
1733698193666404900,0.51140478515625,0.0608767857670784,-0.061042223728168754,0.06994725032076239
1733698193676359000,0.52135888671875,0.03125438544154167,-0.03521528842914849,0.05997472236081958
1733698193686314000,0.53131396484375,0.02226093164682388,0.006758443017955869,0.06170476102381944
1733698193696267800,0.541267822265625,0.02647650351524353,0.04460205239038914,0.049090340252965686
1733698193706221800,0.551221923828125,-0.020116320833563805,0.057234465475659815,0.018772797270119188
1733698193716177000,0.561177001953125,-0.02868716530203819,0.0651409642838873,-0.006506897675991058
1733698193726131000,0.571130859375,-0.010455343040823935,0.05645632071001455,-0.028856968910992143
1733698193736086000,0.5810859375,-0.0032727380603551864,0.05120738720586523,-0.031362521991133686
1733698193746039800,0.591039794921875,0.014610124632716178,0.03414384153904393,-0.04665010749399662
1733698193755995100,0.6009951171875,0.022859482061862946,0.032201201304979624,-0.05028057295083999
1733698193765949000,0.610948974609375,0.024615385818481442,0.02605526416217908,-0.033911475821584464
1733698193775904000,0.620904052734375,0.017309446719288826,0.03584450797708705,-0.027776334067434072
1733698193785857800,0.63085791015625,0.01922200234234333,0.02590478630820289,-0.03126139970421791
1733698193795812900,0.640812744140625,0.016936521753668783,0.029281477933377025,-0.04109934149906039
1733698193805767000,0.650766845703125,0.009418985730409621,0.02140462534474209,-0.05284779309034347
1733698193815722000,0.660721923828125,0.005207505515217781,0.02948295532222837,-0.057276130926609034
1733698193825676000,0.670676025390625,-0.0069482117027044295,0.05720657282173633,-0.043135377371311186
1733698193835629800,0.6806298828125,0.009175824624300003,0.06524791352339089,-0.016933745274692772
1733698193845585000,0.6905849609375,0.052229368931055065,0.05402816198132932,0.005690612857043743
1733698193855539000,0.7005390625,0.0512999791264534,0.0499214573148638,0.020443945352733132
1733698193865494000,0.710493896484375,0.04349544285535812,0.025941373725235462,0.013560761710256337
1733698193875448000,0.720447998046875,0.038158758002519604,-0.004382343270070851,0.011121990256011485
1733698193885403000,0.73040283203125,0.04324643653035164,0.002433620355091989,0.007850713500380515
1733698193895357000,0.74035693359375,0.044237201133370395,-0.015505082444753496,0.018622575144469737
1733698193905311700,0.750311767578125,0.058767246267199515,-0.023312760521005838,0.01009980760142207
1733698193915265800,0.760265869140625,0.06710369745790958,-0.032914811200741675,0.005024842424690723
1733698193925220900,0.770220947265625,0.06985621103644371,-0.05113342692051082,0.010082125814259052
1733698193935175000,0.7801748046875,0.053203766921162604,-0.06189498636629432,0.0017692016296088694
1733698193945130000,0.7901298828125,0.029764439144730565,-0.05952352626090869,0.005504734896123409
1733698193955083800,0.800083740234375,0.04396422941088676,-0.03305836612358689,0.008808598747104405
1733698193965039000,0.8100390625,0.04379296449720859,-0.01836065453896299,-0.009902239202708005
1733698193974993000,0.819992919921875,0.04887538232803344,0.009626436202321202,0.007564590035378933
1733698193984947000,0.829947021484375,0.036813188612461085,0.010781670652050525,0.00806508690342307
1733698193994902000,0.839902099609375,0.017925532791018484,0.022833836163952945,0.024636866997927425
1733698194004855800,0.849855712890625,-0.0016027590215206145,0.0426831400917843,0.02051642606705427
1733698194014811000,0.859810791015625,-0.011073767200112342,0.06408805769747122,0.012160685653984546
1733698194024765000,0.869764892578125,-0.024157120656967162,0.06336418213602155,-0.01766132889688015
1733698194034720000,0.879719970703125,-0.03263619518876076,0.03241824158914387,-0.027749007669091223
1733698194044673800,0.889673828125,-0.04030453785955906,0.025443945597112178,-0.012912819195538758
1733698194054628900,0.89962890625,0.000002922609448432922,0.011987594109401107,0.0334033801689744
1733698194064583000,0.9095830078125,0.010125088173151015,0.01908697778582573,0.08007774532139302
1733698194074538000,0.9195380859375,0.015298106896877288,0.023611834799125788,0.11860109885260461
1733698194084492000,0.929491943359375,0.01604571039378643,0.04124578249873593,0.12031608607694506
1733698194094446800,0.93944677734375,0.028369185394048688,0.06214390135975554,0.08889978807196021
1733698194104401000,0.94940087890625,0.050697921580076216,0.05855037037981674,0.03185848881453276
1733698194114355000,0.95935498046875,0.0826180774539709,0.023653080124966797,-0.04376519970744848
1733698194124310000,0.96931005859375,0.08903028258383273,-0.03895737930061295,-0.11209551635086536
1733698194134264000,0.97926416015625,0.09216624252200126,-0.08004912201510742,-0.13346286015883088
1733698194144219000,0.989218994140625,0.09971242011785507,-0.10000385907879099,-0.13018705335855482
1733698194154173000,0.9991728515625,0.08113456089794635,-0.10731662977756931,-0.1357772745810449
1733698194164127700,1.009127685546875,0.061218731072545045,-0.07911447151349857,-0.11519611271470784
1733698194174081800,1.019081787109375,0.03605331015586853,-0.049397415174450725,-0.06839066852852702
1733698194184036900,1.029036865234375,0.04930032974183559,0.009054481533262878,-0.03198679136931896
1733698194193991000,1.038990966796875,0.03409516182541847,0.02795598321696743,-0.00044642859324812886
1733698194203946000,1.048946044921875,0.0016284779846668243,0.029390454733185467,0.010315934570133686
1733698194213899800,1.058899658203125,0.017740823873877525,0.04566043886952102,0.012987784127891063
1733698194223855000,1.068855224609375,0.0294318461894989,0.04045782872512936,0.026693945658206937
1733698194233809000,1.078808837890625,-0.004479775762557983,0.033295809874963014,0.027888416139781474
1733698194243763000,1.088762939453125,-0.029722353568673133,0.020300353897269814,0.021848551453649997
1733698194253718000,1.098718017578125,-0.045265375137329096,0.006350775532517582,0.025965923644602297
1733698194263671800,1.108671875,-0.038725159713625903,0.020245006980840117,0.031491116806864734
1733698194273627000,1.118626953125,-0.025952771902084348,0.0258748112950474,0.04341448657363653
1733698194283581000,1.128580810546875,0.016337386816740036,0.02722728534992784,0.04565291315019131
1733698194293536000,1.138535888671875,0.05700666633546352,0.06108149629263207,0.09704100895151495
1733698194303490000,1.148489990234375,0.04221066374182701,0.0639605771265924,0.13150997252538799
1733698194313444900,1.15844482421875,0.03719663497209549,0.04448991551911458,0.13478709449991583
1733698194323399000,1.16839892578125,0.011843582528829574,0.01742445140108466,0.10719254674017428
1733698194333354000,1.17835400390625,0.011292378386855125,0.03987062168801203,0.08521993051543832
1733698194343308000,1.18830810546875,-0.02469429627358913,0.06794643189236521,0.050901189067214726
1733698194353262800,1.198262939453125,-0.04265782298743725,0.09060368764670565,0.017817834632843733
1733698194363217000,1.208216796875,-0.034297990921139714,0.08981127689369023,-0.00634907676577568
1733698194373171000,1.2181708984375,-0.026388240709900854,0.08125537426602095,-0.013984832341223954
1733698194383126000,1.2281259765625,-0.002975216418504715,0.030333599068503823,-0.001594283454120159
1733698194393080000,1.238080078125,0.009957914912700653,-0.013075955601688474,0.03080503423884511
1733698194403035000,1.248034912109375,0.032839608806371684,-0.050453938490059226,0.043389790523797274
1733698194412989000,1.257989013671875,0.03123743430674076,-0.0833069182346575,0.03876534559354186
1733698194422943700,1.26794384765625,0.03313829949200153,-0.08827208462767303,0.049259120948612685
1733698194432897800,1.277897705078125,0.03524316281676292,-0.06781986463693901,0.0582068359054625
1733698194442852900,1.287852783203125,0.061363107979297636,-0.050313945497479286,0.05618336725383997
1733698194452807000,1.297806884765625,0.06379530356228351,-0.044522009424120185,0.0312681217059493
1733698194462762000,1.307761962890625,0.08356091126203537,-0.025329982094932348,0.026238164714723823
1733698194472715800,1.3177158203125,0.07319149293899535,0.00021417247364297507,0.009020926323533058
1733698194482671000,1.327671142578125,0.05554068543612957,0.008210541522409767,-0.01026756538376212
1733698194492625000,1.337625,0.04863222122192382,0.003208002261072397,-0.046627018879354
1733698194502580000,1.347580078125,0.06409867042303084,0.021981986841280013,-0.055887745308130975
1733698194512534000,1.357533935546875,0.0700917733579874,0.016259481008630245,-0.0663544865258038
1733698194522487800,1.36748779296875,0.06730360394418239,0.02959711975380778,-0.07395020235180855
1733698194532443000,1.37744287109375,0.03627016777694225,0.0567188989026472,-0.07501622414812445
1733698194542397000,1.38739697265625,0.010313304221630095,0.05502994116870686,-0.08122048561573028
1733698194552352000,1.39735205078125,-0.02204582759141922,0.046347854878101495,-0.09302008287236094
1733698194562306000,1.40730615234375,-0.0008697685718536376,0.0369624608900398,-0.08602540167942643
1733698194572260900,1.4172607421875,0.04097147733569145,0.04846798883723095,-0.06622033875212073
1733698194582215000,1.42721484375,0.0589028553456068,0.04584620723258704,-0.02869154921621084
1733698194592170000,1.437169921875,0.06828910785019397,0.018716336108837276,-0.009228285463899373
1733698194602124000,1.4471240234375,0.043348143339157104,-0.00119733829209581,-0.010035217932611704
1733698194612078800,1.457078857421875,0.03660568334162235,-0.007371643012855202,-0.01316942430511117
1733698194622033000,1.467032958984375,0.040626609420776366,-0.008889463697280735,-0.03457271620929241
1733698194631987700,1.47698779296875,0.056231005787849425,-0.001893321199622005,-0.02720554844215512
1733698194641942000,1.48694189453125,0.058979427713155744,0.02208573947669938,-0.038871290186047555
1733698194651896800,1.496896728515625,0.06689969931840896,0.032884580459259447,-0.01992503604516387
1733698194661851000,1.506850830078125,0.05227613068222999,0.024782814807258545,-0.01518631708547473
1733698194671805000,1.516804931640625,0.041052141356468196,0.008094513927306979,-0.023095482774823903
1733698194681759700,1.526759765625,0.043297874456644056,0.0035328868338838216,0.0003369768694043159
1733698194691713800,1.5367138671875,0.06332125630974769,0.04654958799527958,0.014206950659304857
1733698194701668900,1.5466689453125,0.03627952012717724,0.06413045380078256,-0.006061491996049881
1733698194711623000,1.556622802734375,0.0032107787400484085,0.0558798177300021,-0.04874518007710576
1733698194721578000,1.566577880859375,-0.014102175110578536,0.01961483758483082,-0.04224412762001156
1733698194731531800,1.57653173828125,0.02320785710811615,0.0051162470351904625,-0.03374912486672401
1733698194741487000,1.586487060546875,0.05158931746184826,0.014689035087823868,-0.013613953202217817
1733698194751441000,1.59644091796875,0.07218260815739631,0.005180727106146514,0.016490677682310342
1733698194761396000,1.60639599609375,0.06271919876337051,-0.009003299335297197,0.0029692250691354272
1733698194771350000,1.61635009765625,0.0676432111620903,-0.005752572177350521,-0.01917407154738903
1733698194781304800,1.626304931640625,0.06083119305968284,-0.0062228565702214834,-0.05627791366949677
1733698194791259000,1.6362587890625,0.08183657168745995,-0.0391656152238138,-0.09845409061983228
1733698194801213000,1.646212890625,0.11267536206543445,-0.07989774911198765,-0.12111878076195716
1733698194811168000,1.65616796875,0.11779285120964049,-0.10493572599040343,-0.11948708790689706
1733698194821122000,1.6661220703125,0.11023498317599296,-0.085830481895525,-0.09666735333353281
1733698194831076900,1.676076904296875,0.08641162451803684,-0.06784850620953366,-0.07593202381879091
1733698194841031000,1.686031005859375,0.0713940881282091,-0.02979114448856562,-0.031411037307977674
1733698194850986000,1.695986083984375,0.045969139492511746,0.011804510893765836,-0.007795768442749976
1733698194860940000,1.70593994140625,0.028766660279035565,0.0499032275384292,-0.0052241643890738486
1733698194870894800,1.715894775390625,0.038786534512042996,0.07506304069822654,-0.006339578285068273
1733698194880849000,1.725848876953125,0.027045827835798262,0.09250701878368854,-0.033216917686164374
1733698194890803700,1.7358037109375,0.02902969512939453,0.09230948691759258,-0.04402443516552448
1733698194900758000,1.745758056640625,0.018130699974298475,0.09571852817609906,-0.07902092974483967
1733698194910712800,1.755712890625,0.00672375529706478,0.06406809262167662,-0.08522665251716971
1733698194920667000,1.7656669921875,0.004379237997531891,0.045384818532224744,-0.10280629447996616
1733698194930622000,1.7756220703125,0.012796937730908392,0.03651857131375,-0.07991554049700499
1733698194940575700,1.78557568359375,-0.004366963037848472,0.04529785263482481,-0.06627966772392392
1733698194950529800,1.79552978515625,0.007504676541686057,0.0335917423479259,-0.05994228139594197
1733698194960484900,1.80548486328125,0.011968670213222503,0.00657388023128733,-0.015295914939790963
1733698194970439000,1.81543896484375,0.01982055275738239,0.006226290636323392,0.023795886129140853
1733698194980394000,1.82539404296875,0.0201034613519907,-0.0312414346284233,0.06389788715392351
1733698194990347800,1.83534765625,0.020849895805120467,-0.038909265842568125,0.09305749227330089
1733698195000303000,1.84530322265625,0.011959902384877204,-0.05269656631769612,0.13174816519543528
1733698195010257000,1.8552568359375,0.03331482510268688,-0.03113307888312265,0.15750819100439548
1733698195020212000,1.8652119140625,0.0178857853025198,-0.009007281390670686,0.17446341745853422
1733698195030166000,1.875166015625,0.01404664553105831,0.03188424431029707,0.17213643581569193
1733698195040120800,1.885120849609375,-0.001191255611181259,0.05028534045750275,0.16030951216071843
1733698195050075000,1.895074951171875,0.0011310498565435408,0.04794445815347135,0.13720219281762838
1733698195060030000,1.905030029296875,0.0033417116433382033,0.006753346717730164,0.0728076081879437
1733698195069984000,1.91498388671875,0.021149755534529684,-0.0260044290240854,0.026420389413833616
1733698195079938000,1.92493798828125,0.04986673145294189,-0.026294936403259632,-0.02278817039132118
1733698195089892900,1.934892822265625,0.04426175105273723,-0.00764227664778009,-0.045591538351774215
1733698195099847000,1.944846923828125,0.02791910353899002,0.005012896258570254,-0.043200697692483664
1733698195109802000,1.954802001953125,0.02867196773290634,0.005869458288978785,-0.05541238288134336
1733698195119756000,1.964756103515625,0.05524024118483066,-0.006455149222444743,-0.0653458940051496
1733698195129710800,1.9747109375,0.08221709543764591,0.009279577259719372,-0.0723958125166595
1733698195139665000,1.984664794921875,0.08329086214900017,-0.011047372383531182,-0.08285743916779756
1733698195149619700,1.99461962890625,0.06934007820785046,0.0006836348826065659,-0.10734423017054795
1733698195159574000,2.004573974609375,0.056169046467542644,0.016425686154700813,-0.09501885547414421
1733698195169528800,2.01452880859375,0.04390285461246967,0.022483397024776787,-0.08700228388756513
1733698195179482600,2.024482666015625,0.06731061820685863,0.013669153988175094,-0.08325213757380842
1733698195189438000,2.03443798828125,0.07706570402383804,0.005667359845619648,-0.05948445462584495
1733698195199391700,2.044391845703125,0.056720250609517096,0.043840329036582255,-0.047021571154892444
1733698195209346800,2.054346923828125,0.06475684207081794,0.04375100678531453,-0.0423057946793735
1733698195219300900,2.06430078125,0.031001287463307377,0.04258243792997673,-0.04783244914636016
1733698195229254700,2.074254638671875,0.00682663114964962,0.04339481375878677,-0.05047828748002648
1733698195239210000,2.0842099609375,0.006569441518187523,0.040753907328564674,-0.05910699961557984
1733698195249163800,2.094163818359375,0.028899346747994423,0.036138011030945924,-0.04216857816576958
1733698195259118800,2.104118896484375,0.04364274237155914,0.01694905244167894,-0.03002776625603437
1733698195269073000,2.114072998046875,0.05498363607525825,0.029034042510949074,-0.01779723023623228
1733698195279027700,2.12402783203125,0.030832360637187955,0.012065171123947947,-0.02428732290789485
1733698195288981800,2.133981689453125,0.015578092882037162,-0.02778097370993346,-0.02964958059340715
1733698195298936800,2.143936767578125,0.020603812089562416,-0.052525648463889955,-0.036988983570784326
1733698195308891000,2.153890869140625,0.04026128323972225,-0.05655444732224568,-0.03262465088143945
1733698195318845700,2.163845703125,0.050632455128431314,-0.039386564498115326,-0.01268207917958498
1733698195328799700,2.1737998046875,0.08796294561326504,-0.04683337337272241,0.016064853485673665
1733698195338754800,2.1837548828125,0.049614802518486975,-0.03730358421159908,0.04163900133371353
1733698195348708900,2.193708984375,0.026094226199388504,-0.017056403539981693,0.04230126463472843
1733698195358663700,2.20366357421875,0.008744447469711304,0.004877469843253493,0.06790127757638692
1733698195368617700,2.21361767578125,0.009977788656949996,0.031388825476169585,0.03923997736796737
1733698195378572800,2.22357275390625,0.01954524294734001,0.0718236934508197,0.043430853186547755
1733698195388526600,2.233526611328125,-0.020710195073485375,0.05553962599020451,0.019131985971331596
1733698195398481000,2.24348095703125,-0.020673370194435117,0.03266136616263538,0.010669862574338912
1733698195408435700,2.253435791015625,-0.006557166558504105,0.018640457861032335,0.03851575474664569
1733698195418389800,2.2633896484375,0.027108956199884415,0.016214235361106694,0.0712475192643702
1733698195428344800,2.2733447265625,0.058655602586269374,0.028818700993526725,0.0976198317527771
1733698195438298600,2.283298583984375,0.05455635057389736,0.013099391276203095,0.1046238652959466
1733698195448254000,2.29325390625,0.035300445961952205,0.02753903644653037,0.10390797211155295
1733698195458207700,2.303207763671875,0.033412440258264536,0.03739458696329966,0.059483139451593156
1733698195468162800,2.313162841796875,0.04152151243388653,0.011562738027144222,0.001944850457459688
1733698195478116900,2.323116943359375,0.06659925506711006,-0.008795282607804983,-0.06988090708628296
1733698195488071700,2.33307177734375,0.06749181999266148,-0.034365996389742935,-0.1114564877949655
1733698195498026000,2.34302587890625,0.08033025877773761,-0.06361037544943392,-0.12795973269790412
1733698195507980800,2.352980712890625,0.05515840812027454,-0.07274225133415312,-0.12117226451486349
1733698195517934800,2.362934814453125,0.03887947349250316,-0.05993429901888594,-0.07886164752990008
1733698195527889700,2.3728896484375,0.036649522483348844,-0.04663596937078982,-0.05405833792388439
1733698195537843700,2.38284375,0.04262333619594574,-0.023002817788999527,-0.010730068328976631
1733698195547797800,2.3927978515625,0.03847147721350193,0.004900686322059482,0.013278437637537718
1733698195557752800,2.4027529296875,0.040029812571406365,0.02685448824847117,0.03940452027991414
1733698195567707000,2.412706787109375,0.04421615834534168,0.02621363306166604,0.021761457692086695
1733698195577661700,2.42266162109375,0.03630933074355125,0.03683435926465317,-0.010059329460561275
1733698195587615700,2.43261572265625,0.04949439100921154,0.0313230850298889,-0.020216712468117473
1733698195597570800,2.44257080078125,0.04125087879896164,0.038322241468541324,-0.02861789945811033
1733698195607524900,2.45252490234375,0.03578618365228176,0.009884703546017408,-0.03874883285015821
1733698195617479700,2.462479736328125,0.023148820397257804,-0.0020536263278685507,-0.04683087088838219
1733698195627433700,2.472433837890625,0.04013093485832214,0.00010112228691577911,-0.05631123141720891
1733698195637388800,2.482388916015625,0.03556523437798023,0.008207746777124703,-0.05113455943167209
1733698195647342600,2.492342529296875,0.03400280736684799,0.0006501710044220089,-0.027300971640646456
1733698195657298000,2.5022978515625,0.04795651391744613,0.02315466561615467,-0.00015767477974295617
1733698195667251700,2.512251708984375,0.05463876816034317,0.017445402857568112,0.03167173407077789
1733698195677206800,2.522206787109375,0.044103930142521855,-0.0052265207429416476,0.06803790956810116
1733698195687160800,2.532160888671875,0.015033903002738951,-0.02712917700400576,0.08502426181286572
1733698195697114600,2.542114501953125,0.028217794224619865,-0.01974852870078757,0.07547200509160756
1733698195707070000,2.552070068359375,0.013462708163261413,0.01708621415635571,0.10107976294830441
1733698195717023700,2.562023681640625,0.0069207391738891596,0.04097494793441146,0.1015671080738306
1733698195726978800,2.571978759765625,-0.005826514196395874,0.04110734214242547,0.08696823548749089
1733698195736932900,2.581932861328125,0.014822890600562095,0.04837601797115058,0.08093786928206682
1733698195746887700,2.5918876953125,0.017694062122702598,0.048186066623311485,0.06913622619882226
1733698195756842000,2.601842041015625,0.03867489083111286,0.01806605550656095,0.04076411819532513
1733698195766796800,2.611796875,0.0407908600717783,-0.005706869872100651,0.013669775042682885
1733698195776750800,2.621750732421875,0.034929859083890916,-0.011375015169009565,-0.014286007244884966
1733698195786705700,2.63170556640625,0.016866379126906392,-0.025467764864116907,-0.03433203932121396
1733698195796659700,2.64165966796875,0.022936638951301574,-0.016018548392225055,-0.03390606899410486
1733698195806614800,2.65161474609375,0.03804068458080292,-0.019824772274773566,-0.035677754841744895
1733698195816568800,2.66156884765625,0.04136369152367115,-0.014583072229009121,-0.049474517264962194
1733698195826524000,2.67152392578125,0.039058921712636946,-0.001955846775509417,-0.040179888566583395
1733698195836477700,2.681477783203125,0.02861760719716549,-0.00723344011856243,-0.04558233213201165
1733698195846432800,2.691432861328125,0.03236497703194618,0.005684000453166664,-0.013732611145824193
1733698195856386800,2.70138671875,0.04434416863918304,0.01810425035879016,-0.0028093583323061467
1733698195866340900,2.7113408203125,0.05890519343316555,0.019267741180211306,0.011642799259722232
1733698195876295700,2.721295654296875,0.062763037905097,0.022582637881860136,0.030413258442282674
1733698195886249700,2.731249755859375,0.05173895506560802,0.01665465433867648,0.0305200798176229
1733698195896204800,2.741204833984375,0.039160043999552724,0.018913648779224603,0.04073635340556502
1733698195906158600,2.75115869140625,0.024168811094760892,0.02088759746700525,0.020641952142864465
1733698195916114000,2.761114013671875,0.007341010412573814,0.01129038735916838,0.000012274959683418274
1733698195926067700,2.771067626953125,-0.007170330020785332,0.013685319671686737,-0.023616730169951913
1733698195936022800,2.781022705078125,-0.0024099837511777876,0.017593305161967873,-0.024380115757882594
1733698195945976800,2.790976806640625,0.026750644281506537,0.026710056542791426,-0.00038388475105166435
1733698195955932000,2.800931884765625,0.06225567290484905,0.027500841594301162,0.02230959309414029
1733698195965886000,2.810885986328125,0.0465115758061409,0.015622607877198606,0.029453473499417303
1733698195975840800,2.8208408203125,0.041140404161810876,-0.006999065107107162,0.028493250165134668
1733698195985794800,2.830794921875,0.039702480313181875,-0.014766228509880602,0.028036592438817023
1733698195995749600,2.84074951171875,0.02964402763545513,-0.004757460192777216,0.005723638343811035
1733698196005703700,2.85070361328125,0.028490765947103498,0.001489928030502051,-0.004355272600054741
1733698196015658800,2.86065869140625,0.05184475352764129,0.010706614388152956,-0.01896378979757428
1733698196025612800,2.87061279296875,0.05370236409306526,0.0066465618750080465,-0.031003041028976438
1733698196035566800,2.88056689453125,0.04320493547618389,0.005919069584365934,-0.030642391023039815
1733698196045521700,2.890521728515625,0.04236439299881458,0.020146186248864977,-0.025872546272724867
1733698196055475700,2.900475830078125,0.0384726462572813,0.029966007865127174,-0.007018646590411663
1733698196065430800,2.9104306640625,0.012907996889948843,0.05788872813330963,-0.02085559489354491
1733698196075384800,2.920384765625,-0.0024146599262952805,0.05305405625216662,-0.035179596061259505
1733698196085340000,2.93033984375,-0.01879237875342369,0.013822280456963926,-0.040187925742566584
1733698196095293700,2.940293701171875,-0.022713351589441298,-0.0021847784268669785,-0.0263905787974596
1733698196105248800,2.950248779296875,-0.009198036456108092,0.01501189210033044,0.010750088203698396
1733698196115202800,2.960202880859375,0.03932137204110622,0.026367983373161402,0.07242050856649875
1733698196125158000,2.970157958984375,0.04640343925654888,0.010415705150179564,0.10262889208644628
1733698196135112000,2.98011181640625,0.0336626156270504,0.02948361290935427,0.11917860647961497
1733698196145066800,2.990066650390625,0.03788520175814628,0.031548747011926025,0.091140991127491
1733698196155020800,3.000020751953125,0.044917000091075895,0.04904695776896551,0.01670972726047039
1733698196164975900,3.009975830078125,0.03508241929709911,0.019849303927831352,-0.06198883866220712
1733698196174930200,3.01993017578125,0.042077977272868154,-0.0428529619670473,-0.12954130280092357
1733698196184884000,3.029884033203125,0.07068214046657086,-0.08774144834969193,-0.1569154858082533
1733698196194839300,3.03983935546875,0.0846054518789053,-0.13158035261416806,-0.15554901976063848
1733698196204793000,3.04979296875,0.07272445994913578,-0.12517165461564436,-0.1185543371014297
1733698196214748200,3.059748046875,0.057617491710186,-0.10033100867392494,-0.048138446355611084
1733698196224702200,3.0697021484375,0.04453004660010337,-0.06564084009742364,0.0264081144541502
1733698196234657000,3.079656982421875,0.03993161289393902,-0.008087116072140634,0.08132073111981153
1733698196244611300,3.089611328125,0.02492576694190502,0.026335816402919588,0.13700418602749703
1733698196254566100,3.099566162109375,0.03173018625974655,0.05598965304633602,0.14673589096888898
1733698196264520200,3.109520263671875,0.03068096946775913,0.08317359244488179,0.14127762556299567
1733698196274475000,3.11947509765625,0.0513040707796812,0.09320323915323242,0.09973550873249769
1733698196284429000,3.129428955078125,0.0437970561504364,0.07637310038348659,0.07392477564960717
1733698196294384000,3.139384033203125,0.04045008381009101,0.08041386367427185,0.028684534953534603
1733698196304338200,3.149338134765625,0.024069442373514174,0.0664115322089754,-0.03184723676815629
1733698196314293200,3.159293212890625,-0.0008230068206787109,0.05498219303684309,-0.10699731642901897
1733698196324247000,3.1692470703125,0.009393266767263412,0.06922405061274767,-0.1312203419290483
1733698196334202000,3.1792021484375,0.0004091653227806091,0.03657263958854601,-0.17087956762239337
1733698196344156200,3.18915625,0.039454058510065074,0.03412858917098492,-0.16485314693972467
1733698196354110200,3.199110107421875,0.061521513411402697,0.022863427584618328,-0.1008136593580246
1733698196364065300,3.209065185546875,0.05510287854075432,-0.004603329076990485,-0.04203764526247978
1733698196374019000,3.21901904296875,0.04470248055756092,-0.023742639838252214,0.010637421609461307
1733698196383974100,3.22897412109375,0.03998772699534893,-0.05178728771936148,0.07639993359148502
1733698196393928000,3.238927978515625,0.025446575945615765,-0.022576536934636533,0.1203906126178801
1733698196403883300,3.24888330078125,0.008000935626029968,0.0029337701632641254,0.1319178226739168
1733698196413837300,3.25883740234375,0.006930676046013832,0.022959179576672612,0.12079101011231541
1733698196423792000,3.268792236328125,0.010939327165484427,0.03996043712962419,0.0936260859414935
1733698196433746200,3.27874609375,0.01368365743756294,0.02170963617330417,0.08793883408531546
1733698196443701200,3.288701171875,0.022605799561738967,-0.013105601821281015,0.05693199366405606
1733698196453655300,3.2986552734375,0.04617079954445362,-0.02726790962126106,0.020703911463171243
1733698196463610000,3.308610107421875,0.04963350721895694,-0.051162287688814104,-0.011208207234740256
1733698196473564200,3.318564208984375,0.0456792166352272,-0.057223049032501874,-0.02449789691865444
1733698196483519000,3.32851904296875,0.03172141843140125,-0.058563284660317,-0.047398880034685134
1733698196493473000,3.33847314453125,0.032304186755418775,-0.025122312427312134,-0.06133782740756869
1733698196503428000,3.348427978515625,0.039702480313181875,-0.00804247321281582,-0.045005993548780675
1733698196513382100,3.358382080078125,0.02640636088848114,-0.007328753719199449,-0.04028817124664783
1733698196523337200,3.368337158203125,0.04066694143116474,0.0008834865699522197,-0.03393880221992731
1733698196533291000,3.378291015625,0.048828620576858515,0.0036697745539247986,-0.023197043453156947
1733698196543245000,3.3882451171875,0.0428296724230051,0.03868418838242069,-0.0034631460659205913
1733698196553200000,3.3982001953125,0.03566986379623413,0.05620946980947628,0.007221767947077751
1733698196563154200,3.408154296875,0.02616670691370964,0.09038399874772876,0.011383709932118654
1733698196573109200,3.418109130859375,0.01071311719417572,0.1158607871685177,-0.00016249708533287046
1733698196583063000,3.42806298828125,0.0018324761241674422,0.12295008784234523,-0.008249211298674345
1733698196593018000,3.43801806640625,0.02893324901759624,0.111049788423907,-0.023942601123452187
1733698196602972200,3.44797216796875,0.02975216418504715,0.07371942580323666,-0.040766748543828724
1733698196612927200,3.45792724609375,0.023716391152143478,0.028194961338303983,-0.05275441571846604
1733698196622881300,3.46788134765625,0.0298544555157423,-0.021394871135707944,-0.02701280234903097
1733698196632836000,3.477836181640625,0.026819033342599868,-0.03707313645659014,-0.019528584073483943
1733698196642790100,3.4877900390625,0.0492389549434185,-0.042707160288188606,0.0067046122051775455
1733698196652745200,3.4977451171875,0.07963876938223838,-0.029524419843778012,0.012072130587697029
1733698196662699300,3.50769921875,0.08377543079555035,-0.042002519150171426,0.016927753925323485
1733698196672654000,3.517654052734375,0.06136369250118732,-0.05613950984580442,0.03317819311097264
1733698196682608000,3.527608154296875,0.05696574980318546,-0.05832154832631349,0.024571108285337685
1733698196692563000,3.53756298828125,0.031063246783614155,-0.04871217285664752,0.01781067423969507
1733698196702517200,3.547517333984375,0.036466567131876945,-0.03801841795006767,0.024218787716329095
1733698196712471300,3.55747119140625,0.04938040924072265,-0.03249123376011848,0.015509703820943832
1733698196722426000,3.567426025390625,0.05187397962212562,-0.034870986769814045,0.004249912529438734
1733698196732380200,3.577380126953125,0.051426820376515386,-0.020818148959986866,-0.0031437048532068725
1733698196742335000,3.5873349609375,0.024781390035152433,0.00638140813279897,0.012886223449558018
1733698196752289000,3.5972890625,0.012215338450670242,0.0336059535363689,0.018462854538112878
1733698196762244400,3.607244384765625,0.009016834670305252,0.06145348967649042,-0.014073679668456315
1733698196772198100,3.6171982421875,0.0007990414232015609,0.03597036284646019,-0.06543883298560976
1733698196782153200,3.6271533203125,-0.0024228432327508924,-0.0005678264832124114,-0.08436594403460622
1733698196792107000,3.63710693359375,0.004615969362854957,-0.006832001444511115,-0.05956424186378717
1733698196802062300,3.647062255859375,0.05688917743563652,0.0055344359146431085,0.0007012801371514797
1733698196812016000,3.65701611328125,0.07583879257738589,0.045627870040480044,0.09553995673879981
1733698196821971200,3.66697119140625,0.022433365604281424,0.041527394185401495,0.14315291791558266
1733698196831925200,3.67692529296875,0.01813186901807785,0.048457175182271744,0.1136687570169568
1733698196841880000,3.686880126953125,0.026782208463549614,0.05759993778718635,0.05085208922848105
1733698196851834000,3.696834228515625,0.055443070280551905,0.04721645440617576,-0.00982099066004157
1733698196861789200,3.7067890625,0.0845265414237976,0.02280910358149558,-0.0782731801174581
1733698196871743200,3.7167431640625,0.11303192041814326,-0.03884650280466303,-0.11322495877221227
1733698196881698000,3.726697998046875,0.11111936479508876,-0.08384385638926178,-0.1361620361149311
1733698196891652000,3.736652099609375,0.11521978585124015,-0.10689091517878696,-0.14352613514214754
1733698196901606100,3.746606201171875,0.10481178908348082,-0.11486720955390482,-0.15084040367826818
1733698196911561200,3.756561279296875,0.0893541077107191,-0.0906478921146132,-0.12499182280302047
1733698196921515300,3.766515380859375,0.05457037909924984,-0.048315519955568015,-0.10982830207124351
1733698196931470000,3.776469970703125,0.041381811702251435,-0.0301936791411601,-0.07437734172269701
1733698196941424000,3.786424072265625,0.02038870803415775,0.0009861797594465315,-0.03836509422957897
1733698196951379000,3.79637890625,0.010187047493457793,0.019063870904874054,-0.007246463996917009
1733698196961333200,3.806333251953125,0.017037059518694875,0.01838832799717784,0.013593641066551207
1733698196971288300,3.816288330078125,-0.014324293428659438,0.03523017547102645,0.0023303426437079906
1733698196981242000,3.8262421875,-0.06244622704088688,0.0407787312425673,-0.01254895431920886
1733698196991197200,3.836197265625,-0.07832301060855389,0.010526508580893278,-0.01773074087128043
1733698197001151000,3.84615087890625,-0.07510404856204986,-0.007755071106180548,0.015719693309813737
1733698197011106300,3.856106201171875,-0.03437573233246803,-0.014607019360177219,0.055403468922525644
1733698197021060400,3.866060302734375,-0.02401566635966301,-0.013939513628464191,0.14751754286587238
1733698197031015200,3.87601513671875,0.0024140754044055935,-0.017475706664286553,0.22988763690814373
1733698197040969200,3.88596923828125,0.02249181779325008,0.01209441548474133,0.34183220048099755
1733698197050924000,3.895924072265625,0.0005751695394515991,0.02646262112036347,0.40516003266200423
1733698197060878300,3.90587841796875,0.01655073730647564,0.020711181454174218,0.4238847530066967
1733698197070833200,3.915833251953125,0.017292495584487914,-0.00034852117672562596,0.3839532862432301
1733698197080787200,3.925787109375,0.025249592068791387,0.023534440447669475,0.32681422569975255
1733698197090742000,3.935741943359375,0.025925883895158767,0.06153462862130254,0.26727687184289095
1733698197100696000,3.945696044921875,0.01480827755331993,0.0896907009876333,0.18383666435107587
1733698197110650000,3.955650146484375,-0.0204693720549345,0.11422286550207063,0.08123992096856236
1733698197120605200,3.965605224609375,-0.03965630308389664,0.11059915857957675,-0.01596226989403367
1733698197130559200,3.975559326171875,-0.03884849383234978,0.09312624666057527,-0.10403320592641829
1733698197140514000,3.98551416015625,-0.018890578430891036,0.05648722730493173,-0.14472498953789473
1733698197150468000,3.995468017578125,-0.03302314867973327,0.031124603315722196,-0.15266235840842127
1733698197160423200,4.005423095703125,-0.018849077376723287,0.0311182283738628,-0.15199176567047834
1733698197170376400,4.01537646484375,0.015137947899103164,0.007443922797776758,-0.11559329533874987
1733698197180331500,4.02533154296875,0.0281073195874691,-0.009382051253505051,-0.08481471071541309
1733698197190285600,4.03528564453125,0.053338791477680204,-0.015978106783982364,-0.03746668408513069
1733698197200240600,4.04524072265625,0.07024608713686466,-0.032260365880001335,-0.02827858450114727
1733698197210194700,4.055194580078125,0.07115034250020981,-0.0499012182444334,-0.029095161581039426
1733698197220149500,4.0651494140625,0.06164367848634719,-0.06809935743175446,-0.013961013074219226
1733698197230103600,4.075103515625,0.04268295742869377,-0.058442142498679454,-0.00870601515546441
1733698197240058600,4.08505859375,0.04779927752912044,-0.05772022143229842,0.012338380308449267
1733698197250012700,4.0950126953125,0.06682721860408783,-0.044253074555937195,0.011661942351609467
1733698197259967500,4.104967529296875,0.05794190135896206,-0.03861417361982167,0.00767886406481266
1733698197269921500,4.114921630859375,0.05535305390954017,-0.03340029316274449,-0.0002792553327977657
1733698197279876400,4.12487646484375,0.04016366808414459,-0.03594068009424954,-0.018488135109841822
1733698197289830400,4.134830322265625,0.039455812075734134,-0.02862330628558993,-0.0342735871322453
1733698197299784700,4.14478466796875,0.04579553649127483,-0.0197774077353999,-0.042405017270147796
1733698197309739500,4.154739501953125,0.04647416640520095,0.007894917968288064,-0.027802491421997547
1733698197319693600,4.164693603515625,0.04463409149646759,0.015520407878048717,-0.019155805238336324
1733698197329648400,4.1746484375,0.047429275172948836,0.036750096780993044,0.013007511741667985
1733698197339602400,4.1846025390625,0.04838146133124828,0.012092168728727846,0.018285159883648157
1733698197349557800,4.194557861328125,0.04071370318233967,0.004251465165708214,0.004306465022265911
1733698197359511600,4.204511474609375,0.02370411619246006,0.015191431652009486,-0.01516878142878413
1733698197369466600,4.214466552734375,0.028823358902335165,0.010111461506597696,-0.015023673869669437
1733698197379420400,4.22442041015625,0.05459083736538887,0.027878570599202065,-0.00978723452091217
1733698197389375500,4.23437548828125,0.048611178433895105,0.03548310905247926,-0.01406169696971774
1733698197399329500,4.24432958984375,0.01878945614397526,0.06293691490096971,-0.011106354295462369
1733698197409284600,4.25428466796875,0.015863339564204215,0.062265719374828034,-0.005077741655707359
1733698197419238700,4.26423876953125,0.006173135676980019,0.06298471783176064,0.013389204535633324
1733698197429193500,4.274193359375,0.026478257080912587,0.09279741656500845,0.029888503915816544
1733698197439147500,4.2841474609375,0.047509354671835896,0.11369635740993544,0.023754238944500683
1733698197449102600,4.2941025390625,0.03876958337724209,0.09784827021379024,-0.00766556619182229
1733698197459056600,4.304056640625,0.0091062665194273,0.08452069620490074,-0.014529314481467008
1733698197469011500,4.314011474609375,0.04620411729216575,0.06987179219806566,0.001239186406135559
1733698197478965500,4.323965576171875,0.05716507176756858,0.053661739821732043,0.013115940552204847
1733698197488920600,4.333920654296875,0.0739782594025135,0.02858480090610683,0.05970715746581554
1733698197498874400,4.343874267578125,0.11426876873672008,-0.01894482936877757,0.07659501777216791
1733698197508828700,4.35382861328125,0.10219254649579525,-0.013919493753742426,0.07822597997486591
1733698197518783500,4.363783447265625,0.06358662924766541,-0.024379184176120904,0.03640767655149102
1733698197528737500,4.373737548828125,0.055602644756436344,-0.05554654892133549,-0.01218494331240654
1733698197538692400,4.3836923828125,0.07622106989324093,-0.06439146109083667,-0.07156301495432853
1733698197548646400,4.393646484375,0.09249006764888763,-0.061222293002810325,-0.12344137849062681
1733698197558601700,4.403601806640625,0.10147709170281886,-0.053487460967060176,-0.12525704961046577
1733698197568555500,4.413555419921875,0.11986907296180724,-0.027167773715034125,-0.10422931302040815
1733698197578510600,4.423510498046875,0.08069324687123298,-0.031797990798950196,-0.08709843773841858
1733698197588464400,4.43346435546875,0.05873217495381832,-0.022891502901632336,-0.05110197233632206
1733698197598419500,4.44341943359375,0.033625790748000144,-0.008285762183088808,-0.027153818254917857
1733698197608373800,4.453373779296875,0.046431496307253836,0.022501133610866964,-0.028325200121849775
1733698197618328600,4.46332861328125,0.07057283487319946,0.05936221648566425,-0.029994886899739504
1733698197628282600,4.47328271484375,0.08310264610052108,0.06532947259331122,-0.03849412743672728
1733698197638237400,4.483237548828125,0.07804068653583526,0.06438119542514904,-0.08274141157269477
1733698197648191500,4.49319140625,0.06977496249377727,0.04715312511269003,-0.09908113647699356
1733698197658146600,4.503146484375,0.06839899796545505,0.045762237009871747,-0.10273454441800713
1733698197668100600,4.5131005859375,0.0809013366639614,0.03407505061915144,-0.13370514448210596
1733698197678055400,4.523055419921875,0.07818798605203628,0.017972458938974888,-0.13349457047134636
1733698197688009500,4.533009521484375,0.06126607734560966,-0.002809888055268675,-0.14173252972364425
1733698197697964500,4.542964599609375,0.06663900255560874,-0.025234065706096587,-0.11459814682155847
1733698197707918600,4.552918701171875,0.0900298150151968,-0.017845270629040896,-0.09190832223817706
1733698197717873700,4.562873779296875,0.09266834682524204,-0.021047391138598322,-0.07065466793775559
1733698197727827500,4.572827392578125,0.09905132586061954,-0.02411457842318341,-0.022751199381798506
1733698197737781500,4.582781494140625,0.08260346440672874,-0.016102390750776976,0.012544132013618946
1733698197747736600,4.592736572265625,0.05411562106907367,-0.012117540632002054,0.053327977822721
1733698197757690400,4.6026904296875,0.031867548903822894,-0.0040269539611414076,0.06519494122713804
1733698197767645700,4.612645751953125,0.03648176470100879,-0.0002794014632701874,0.0556003066688776
1733698197777599500,4.622599609375,0.03822597801983356,0.018000936114788053,0.06424947707057
1733698197787554600,4.632554443359375,0.01104863275885582,0.013962675308343022,0.0986716788932681
1733698197797508400,4.64250830078125,-0.026951719811558722,0.02044789087548852,0.21032149730324745
1733698197807463700,4.652463623046875,-0.09577274258136749,0.053151854070834816,0.34424423005878924
1733698197817417700,4.662417724609375,-0.10307751263678074,0.05102815818144008,0.4593434582702815
1733698197827372500,4.67237255859375,-0.10327274294793605,0.03454217494055629,0.475740612450242
1733698197837326600,4.68232666015625,-0.08234335216581821,-0.004816807430889457,0.4375707485318184
1733698197847281400,4.692281494140625,-0.0728980629503727,-0.00699263536632061,0.37980376534834503
1733698197857235500,4.7022353515625,-0.09213058668673038,-0.0033551921794191,0.3361167454436421
1733698197867190500,4.7121904296875,-0.11765081239044665,0.018623762454558164,0.32840748624056576
1733698197877144600,4.72214453125,-0.1280313366293907,0.053481433085072784,0.34579116723984477
1733698197887099400,4.732099365234375,-0.0928179844290018,0.06759215682828798,0.32550518892779945
1733698197897053400,4.742053466796875,-0.002423427754640579,0.02477671386003494,0.26174437215700747
1733698197907008800,4.7520087890625,0.04962357034683227,-0.015986016095802188,0.21290844505652784
1733698197916962600,4.761962646484375,0.09158347419798374,-0.024377540208306164,0.15462752100154756
1733698197926917600,4.771917724609375,0.10039221907556056,0.005067804783582687,0.14167276236042378
1733698197936871400,4.781871337890625,0.0943254663825035,0.03669100527120754,0.11856354332119226
1733698197946826500,4.791826416015625,0.08385258768498897,0.03829182806396857,0.07762669890746474
1733698197956780500,4.801780517578125,0.09696867436766624,0.021304964362550527,-0.016488924116641282
1733698197966734600,4.811734619140625,0.12295768662691116,-0.005582622437924146,-0.12202785843089223
1733698197976689700,4.821689697265625,0.1543178705304861,-0.03201528681144118,-0.25214213881418107
1733698197986643500,4.8316435546875,0.19189795186221598,-0.034013986347988245,-0.3649249067768454
1733698197996598500,4.8415986328125,0.14715630833804608,-0.013883710054308175,-0.4462929841697216
1733698198006552600,4.851552490234375,0.12713351100683212,-0.006577752688806503,-0.49387920347005126
1733698198016507600,4.861507568359375,0.10457447319626807,0.007260894381068647,-0.5147181394897401
1733698198026461700,4.871461669921875,0.106861122828722,-0.0025168964580632746,-0.5113980551563203
1733698198036416500,4.88141650390625,0.0883352860569954,-0.004028579662647098,-0.5201628147616982
1733698198046370600,4.89137060546875,0.12071312257051467,-0.013221538084838539,-0.5023220376446843
1733698198056325400,4.901325439453125,0.1532540406912565,-0.01828844781927764,-0.5052386557437479
1733698198066279700,4.91127978515625,0.16841829207539558,-0.04918784581068903,-0.5057540579199791
1733698198076234500,4.921234375,0.14201485379636286,-0.053553365810122336,-0.48397301874458787
1733698198086188500,4.9311884765625,0.10272036976218223,-0.013152984626963734,-0.4469181303307414
1733698198096143400,4.941143310546875,0.0634077655494213,0.027745993728097527,-0.4461304870843887
1733698198106097400,4.951097412109375,0.03537409572005272,0.06641123994803055,-0.4114576715014875
1733698198116052700,4.961052734375,0.006287701967358589,0.09583546908665448,-0.37990035759061574
1733698198126006500,4.971006591796875,0.002516366735100746,0.08159653412019834,-0.3400701592445373
1733698198135961600,4.980961669921875,-0.0027291327029466627,0.09236012112628668,-0.2552005034714937
1733698198145915400,4.990915283203125,0.010491583397984503,0.09326196533683687,-0.15221651433706282
1733698198155870500,5.000870361328125,0.0325689751714468,0.07870183559199795,-0.06401508379280567
1733698198165824800,5.01082470703125,0.043996962636709214,0.03310017770500853,0.01035538979768753
1733698198175780600,5.020780517578125,0.032278467792272565,0.004486187237035483,0.06961129636466502
1733698198185734400,5.030734375,0.05065232887268066,-0.0008039915929548442,0.10667290678024291
1733698198195688400,5.0406884765625,0.03477963695824146,-0.0042179464885964985,0.1541848918005824
1733698198205643500,5.0506435546875,0.026333295652270317,0.013347173758503049,0.1943317548803985
1733698198215597300,5.060597412109375,0.008296119180321693,-0.002443867754470557,0.16841741529256105
1733698198225552400,5.070552490234375,0.048422962385416025,-0.05575423685526475,0.14608736393228172
1733698198235506400,5.08050634765625,0.07148001284599304,-0.0822197257861495,0.12044497315362095
1733698198245461500,5.09046142578125,0.04430968184769153,-0.1003820082088001,0.12042378423511982
1733698198255415600,5.10041552734375,0.006348492243885994,-0.09379539636010303,0.16360051653012633
1733698198265370400,5.110370361328125,-0.04404021725654602,-0.06896030337633564,0.2072765766493976
1733698198275324400,5.120324462890625,-0.06707739397287368,-0.024213618350867182,0.27531653204411266
1733698198285279500,5.130279541015625,-0.04203647621870041,0.015798402835521846,0.35813451598435636
1733698198295233500,5.140233642578125,0.0416840095192194,0.04152410624977201,0.4240801294483244
1733698198305188400,5.150188232421875,0.09852934781312941,-0.004417560713924467,0.4088870903611183
1733698198315142400,5.160142333984375,0.11009469792246818,-0.03608443594649434,0.3756932612895965
1733698198325097200,5.17009716796875,0.05590659613907337,-0.02538253426607698,0.30528073154464364
1733698198335051300,5.18005126953125,-0.04484451937675476,-0.01420042958697304,0.21394538688883183
1733698198345006600,5.190006591796875,-0.08527823657393455,0.008276300234999508,0.08176438323408365
1733698198354960400,5.19996044921875,-0.06806991214156151,0.022819204850401727,-0.03810410520583391
1733698198364915500,5.20991552734375,-0.016046879437565803,0.013481138869095593,-0.1799598229177296
1733698198374869200,5.219869140625,0.04106441631615162,-0.05100947174727916,-0.26892244709283114
1733698198384824600,5.229824462890625,0.10128887565433979,-0.07884327162299305,-0.2719404797397554
1733698198394778400,5.2397783203125,0.1108650977730751,-0.03070802187146619,-0.16312866123467684
1733698198404733400,5.2497333984375,0.08143149801790714,0.00628737317379564,-0.059614364615827795
1733698198414687500,5.2596875,0.0383767846673727,0.032056806131917984,0.021490824057161805
1733698198424642300,5.269642333984375,0.020003508108854293,0.052434097722917794,0.047382951813191174
1733698198434596400,5.279596435546875,0.03737608319222927,0.05420012101475149,0.0329328400477767
1733698198444551400,5.289551513671875,0.049608957299590105,0.07435746797844767,0.008604308346658944
1733698198454505500,5.29950537109375,0.028099136281013487,0.08293477872032672,-0.0020578093126416203
1733698198464460300,5.309460205078125,-0.017869418689608573,0.09998051473582163,-0.005224018258601427
1733698198474414300,5.319414306640625,-0.026785131072998045,0.08780461324639618,0.005144377151131629
1733698198484368400,5.329368408203125,-0.014276362633705138,0.07695402381028979,-0.0017436287969350814
1733698198494323500,5.339323486328125,0.0012122983992099762,0.03781792694190517,-0.005260989268124103
1733698198504277500,5.349277587890625,0.016830138769745824,-0.005583663617540151,-0.013847469697147606
1733698198514232300,5.359232421875,0.03066226476728916,-0.03889887231271714,-0.02509688572511077
1733698198524186400,5.369186279296875,-0.000398059406876564,-0.0402680235077627,-0.000009206219762563705
1733698198534141200,5.37914111328125,-0.030707272952795028,-0.009770466049201785,0.04623085916861892
1733698198544095500,5.389095458984375,-0.035519641670584676,0.012440050584636628,0.08642594530433416
1733698198554050600,5.399050537109375,-0.01679156032502651,0.03040695656565949,0.11317439762875436
1733698198564004400,5.40900439453125,0.0375227981865406,0.013447419262584298,0.10563011972904204
1733698198573959400,5.41895947265625,0.06506663867235184,-0.00345483489530161,0.11097674145400524
1733698198583913200,5.428913330078125,0.06257365281283855,-0.021782591811660677,0.0970595675215125
1733698198593868500,5.43886865234375,0.042702246651053426,-0.042645182701572776,0.0875165170200169
1733698198603822600,5.448822509765625,0.03558277003467083,-0.02816962596764788,0.07549436305388808
1733698198613777400,5.45877734375,0.05595218884646892,-0.03540262769479304,0.02863748094141483
1733698198623731500,5.4687314453125,0.08000877173840999,-0.03466923538632691,-0.02186930198073387
1733698198633686300,5.478686279296875,0.08237024017274379,-0.02171180986408144,-0.08184767760336399
1733698198643640600,5.488640625,0.08615560393035411,-0.04517552316309884,-0.11491656512096524
1733698198653595400,5.498595458984375,0.047644963750243186,-0.07849162690741941,-0.11715279974043369
1733698198663549400,5.508549560546875,0.014868483307957649,-0.060676696617715055,-0.07386793089583515
1733698198673504300,5.518504150390625,0.002406476619839668,-0.030399302982166407,0.002937953148037195
1733698198683458300,5.528458251953125,0.017177929294109343,0.012292951997835188,0.06980389632731676
1733698198693413400,5.538413330078125,0.07755027267038822,0.013535481138527393,0.10835384560450911
1733698198703367400,5.548367431640625,0.10639408983886241,-0.007125011308025568,0.11674641089662909
1733698198713322500,5.558322509765625,0.07646773813068866,-0.005941043954156339,0.10997852419689297
1733698198723276300,5.5682763671875,0.0512912112981081,-0.009792002027574926,0.07572919472306966
1733698198733231400,5.5782314453125,-0.01134089370369911,0.034091946955025196,0.07123802078366279
1733698198743185400,5.588185302734375,-0.04954933606684207,0.1016281723449938,0.06024257951676845
1733698198753139500,5.598139404296875,-0.028645664247870444,0.09124507255647331,0.021502806755900383
1733698198763094500,5.608094482421875,0.016065584138035775,0.04996029148790985,-0.032693039942532774
1733698198773048300,5.61804833984375,0.04414601571857929,0.016056761510763316,-0.08087006474286318
1733698198783003400,5.62800341796875,0.05494856476187706,0.014951229687966406,-0.09473580074906349
1733698198792957200,5.637957275390625,0.07129705749452114,-0.0013504464945755898,-0.11660042655467986
1733698198802912500,5.64791259765625,0.061416299471259116,0.027415921523515133,-0.1362882928431034
1733698198812866600,5.657866455078125,0.0234627086520195,0.034674002892989664,-0.14510069098249076
1733698198822821400,5.6678212890625,-0.0012035305708646773,0.007852649729140102,-0.1509147840887308
1733698198832775400,5.677775390625,-0.00794423700273037,0.0067057629826478655,-0.08609788239374756
1733698198842730500,5.68773046875,0.035974984222650525,0.01855427741492167,-0.019887334383279085
1733698198852684500,5.6976845703125,0.058902270823717115,0.016753438538033513,0.04839826633557677
1733698198862639400,5.707639404296875,0.07281155371069908,0.018618154697678982,0.09977101843729615
1733698198872593400,5.717593505859375,0.06561082855165004,0.036341095854993906,0.10013020713850855
1733698198882548200,5.72754833984375,0.04579086031615734,0.034075543809495866,0.06097425479218364
1733698198892502300,5.737502197265625,0.04160860619544983,0.04152912948476151,0.001084288105368614
1733698198902457600,5.74745751953125,0.04091653227806091,0.031326738291699435,-0.05617050777226686
1733698198912411400,5.757411376953125,0.05451777212917804,-0.015851375131774693,-0.1288845924578607
1733698198922366500,5.767366455078125,0.079646952688694,-0.060712535116076466,-0.16082243011891842
1733698198932320300,5.7773203125,0.09392156175673007,-0.12362943014232441,-0.16777458734437822
1733698198942275600,5.787275634765625,0.08459317691922187,-0.11179867056244984,-0.12476882770210504
1733698198952229400,5.7972294921875,0.06457388671934604,-0.10615355908125639,-0.06400090913698077
1733698198962184400,5.807184326171875,0.015694997259974478,-0.06006978023312986,0.016990151637047528
1733698198972138500,5.817138427734375,0.009810030874609946,-0.010901844699308275,0.07387918294221163
1733698198982093300,5.82709326171875,0.03379588661789894,0.0296687967505306,0.1143356964930892
1733698198992047400,5.83704736328125,0.034651626664400095,0.06188906808216124,0.11418050593137741
1733698199002002400,5.84700244140625,0.046669396716356275,0.07259811188941821,0.09536211595386267
1733698199011956500,5.85695654296875,0.06771393831074238,0.09291812033522874,0.038468700734525914
1733698199021911300,5.866911376953125,0.04523614904284477,0.10677342627895996,-0.037141397653520106
1733698199031865300,5.876865234375,-0.0002034136176109314,0.09419564772406593,-0.09446239063516258
1733698199041820400,5.8868203125,-0.03144786218702793,0.09488151109637692,-0.14477525842040775
1733698199051774500,5.8967744140625,-0.01593289766907692,0.09299134996822103,-0.17221870727166533
1733698199061728500,5.906728515625,0.018582535395026207,0.07977925556516274,-0.18965499524101614
1733698199071683300,5.916683349609375,0.04622106842696667,0.037526378383114935,-0.1898456955075264
1733698199081637400,5.926637451171875,0.08406652269661426,-0.005631758809275925,-0.15374971525371073
1733698199091592200,5.93659228515625,0.09175181650221348,0.004831329146586358,-0.09247866947203874
1733698199101546500,5.94654638671875,0.08045067028701305,-0.022763419542554765,-0.0225182674087584
1733698199111501600,5.95650146484375,0.0567331100910902,-0.06625055122729391,0.04042348806411028
1733698199121455400,5.966455322265625,0.027726795837283134,-0.08713011151831597,0.08995923399701714
1733698199131410400,5.976410400390625,-0.006644844841957092,-0.05704798472654074,0.16002791874036193
1733698199141364200,5.9863642578125,0.006353168419003487,-0.029006259454879908,0.22488749053329227
1733698199151319600,5.996319580078125,-0.0007405892342329024,-0.0035536921598948537,0.2796459395505488
1733698199161273600,6.006273681640625,0.009376900154352188,0.05662057136101648,0.3148768274076283
1733698199171227400,6.016227294921875,-0.00024725275933742524,0.12560425561293959,0.36300752884820103
1733698199181181400,6.026181396484375,-0.014840426257252692,0.14743052216954528,0.37059754558578134
1733698199191136500,6.036136474609375,-0.03973755162656307,0.1516972031706944,0.34307445562705396
1733698199201090600,6.046090576171875,-0.06336041927635669,0.08807181281521916,0.300347074534744
1733698199211045400,6.05604541015625,-0.03223404412865639,0.02127124475603923,0.2111393895573914
1733698199220999400,6.06599951171875,-0.009631751698255538,-0.02321246021799743,0.12119345343336463
1733698199230954800,6.075954833984375,0.01751227581501007,-0.03871072932947427,0.04019640130996704
1733698199240908500,6.085908447265625,0.0433177482008934,-0.05718178544035181,-0.060791153310239314
1733698199250863600,6.095863525390625,0.05319850622415542,-0.07013508277675136,-0.14882643350735306
1733698199260817400,6.1058173828125,0.06976677918732166,-0.06087859413167462,-0.20589067524895072
1733698199270772500,6.1157724609375,0.05095335764586925,-0.06543724381672218,-0.22881635441482065
1733698199280726500,6.1257265625,0.058710547643899914,-0.08214943702891468,-0.24139804195985196
1733698199290681600,6.135681640625,0.0653472091794014,-0.07499359219120814,-0.2520594289667904
1733698199300635600,6.1456357421875,0.09825696061253547,-0.04112473166864365,-0.21571955695450304
1733698199310590500,6.155590576171875,0.12099836925268173,-0.03841200211122632,-0.195735191937536
1733698199320544500,6.16554443359375,0.1432727449029684,-0.03749463153798133,-0.16162804741337894
1733698199330499600,6.17549951171875,0.13541384809613227,-0.025101598432846366,-0.09900704832747578
1733698199340453600,6.18545361328125,0.10348784700334071,-0.023618556800857185,-0.06587474018484353
1733698199350408400,6.195408447265625,0.06816928086280823,-0.012571111352089792,-0.04443856892436743
1733698199360362500,6.205362548828125,0.047844870236516,-0.013529763783793896,-0.01412745568230748
1733698199370317600,6.215317626953125,0.0143652099609375,-0.005918539861403406,0.013442980549484491
1733698199380271400,6.225271240234375,0.00407645565867424,-0.011753054701164363,0.033982056839764116
1733698199390225700,6.2352255859375,-0.008303133442997932,-0.007987144562695175,0.049007922666519876
1733698199400180500,6.245180419921875,-0.001934182932972908,-0.02360366975897923,0.06354527432397007
1733698199410134500,6.255134521484375,0.004143675675988197,-0.023838702357560394,0.10140271129235624
1733698199420089600,6.265089599609375,0.001648351728916168,0.008419042307091876,0.13904519033581017
1733698199430043400,6.27504345703125,-0.004366378515958786,0.026905131590319795,0.1827459465049207
1733698199439998700,6.284998779296875,-0.01720773991048336,0.05477862415560521,0.20848171465545892
1733698199449952500,6.294952392578125,-0.009808277308940887,0.029763270100951193,0.19460136560201644
1733698199459907600,6.304907470703125,-0.010786182430386542,-0.005672730140481144,0.1630162869013846
1733698199469861600,6.314861572265625,-0.006386486166715622,-0.03615245968140662,0.11152736107409
1733698199479816400,6.32481640625,-0.0001432078629732132,-0.0405480186260771,0.07014423419758677
1733698199489770800,6.334770751953125,-0.005018704944849014,-0.006915396278491243,0.04943769238591194
1733698199499725600,6.3447255859375,-0.008655600142478943,-0.00047872342765331263,0.03920563670694828
1733698199509679600,6.3546796875,-0.013306640818715096,0.019737934241537004,0.029693419735133647
1733698199519634400,6.364634521484375,-0.004184592208266258,0.015569772578263655,0.036976854741573334
1733698199529588500,6.37458837890625,0.002840191861987114,0.008038810817850753,0.0352180283755064
1733698199539543600,6.38454345703125,0.017841946160793303,0.016673432104382664,0.0646492900431156
1733698199549497600,6.39449755859375,0.019454057532548905,0.054232205786602566,0.06699409960359334
1733698199559452400,6.404452392578125,-0.02512450438439846,0.07351563772629015,0.07942790311053395
1733698199569406500,6.414406494140625,-0.04773673368692398,0.06350307915005833,0.05977174713462591
1733698199579361500,6.424361572265625,-0.027490648993849752,0.03183892559753731,0.05088248436674475
1733698199589315600,6.434315673828125,0.04479074336290359,0.044443573893047865,0.03858165958970785
1733698199599270700,6.444270751953125,0.06846738702654838,0.020284927999274803,0.04743921204507351
1733698199609224400,6.454224365234375,0.05550678316652775,-0.012603059126622974,0.0509860908716917
1733698199619179500,6.464179443359375,0.039487960779666896,-0.015523339620651676,0.06435206066220998
1733698199629133600,6.474133544921875,0.012108955466747283,-0.00827564264787361,0.0492835247375071
1733698199639088600,6.484088623046875,0.027839024040102956,-0.002975974470330402,0.017486118460446596
1733698199649042700,6.494042724609375,0.041675241690874096,-0.03957822374585084,-0.006906272257119417
1733698199658997500,6.50399755859375,0.09321662835776805,-0.09698193570803851,-0.02341214750856161
1733698199668951600,6.51395166015625,0.09371814813911915,-0.11156473394241183,-0.006392915907502174
1733698199678906400,6.52390625,0.09038578884601592,-0.11732455784445628,0.018232406783103942
1733698199688860700,6.533860595703125,0.04860124156177044,-0.0861632209812291,0.05510901602059602
1733698199698815500,6.5438154296875,0.022137597528100014,-0.03556474118763581,0.09966054380014538
1733698199708769500,6.55376953125,0.017092004576325415,0.007276996132498607,0.09944821622371673
1733698199718724600,6.563724609375,0.04909340899288654,0.03094942941190675,0.10141410946920514
1733698199728678400,6.573678466796875,0.06498480560779571,0.04263118157568387,0.06870981748029589
1733698199738633700,6.5836337890625,0.08883855940401554,0.04669389183679595,0.025057722758501766
1733698199748587500,6.59358740234375,0.0758645115405321,0.04528829935519024,-0.040323242560029025
1733698199758542600,6.60354248046875,0.06175123051404953,0.03847315771393478,-0.10827245093137025
1733698199768496600,6.61349658203125,0.03162497231960296,0.046195550393220035,-0.18398498678058384
1733698199778451500,6.623451416015625,0.03453238419890404,0.042232354983827096,-0.23163126570507883
1733698199788405800,6.63340576171875,0.036789223214983936,0.05152304729260504,-0.25852438719719645
1733698199798360600,6.643360595703125,0.011118775385618208,0.049420238927612076,-0.2517715519361198
1733698199808314600,6.653314697265625,0.01641512822806835,0.04273358250423334,-0.2110173706129193
1733698199818268400,6.663268310546875,0.026682839742302893,0.02021033752625808,-0.1620496338263154
1733698199828223500,6.673223388671875,0.048749710121750826,0.021158459430793298,-0.09948971727788447
1733698199838177500,6.683177490234375,0.07427461200058459,-0.015110064378334209,-0.022617343869060277
1733698199848132600,6.693132568359375,0.08877601556181908,-0.05438809960121289,0.03691825642213225
1733698199858086700,6.703086669921875,0.0674076488405466,-0.09916794711076654,0.08102262495607138
1733698199868041500,6.71304150390625,0.06994681192934513,-0.1071230982331559,0.13152853109538554
1733698199877995500,6.72299560546875,0.061221069160103794,-0.08936854722802527,0.16280454384684562
1733698199887950600,6.73295068359375,0.037545594540238376,-0.053450252495519816,0.16980492412820458
1733698199897904600,6.742904541015625,0.008123100700974464,-0.06256580743310042,0.14519582192003727
1733698199907859500,6.752859375,-0.026177228307723996,-0.08548856398952193,0.09013824382573365
1733698199917813500,6.7628134765625,-0.03439911320805549,-0.12452261612238362,0.03861410055458545
1733698199927768600,6.7727685546875,-0.026642507731914518,-0.14678974004797637,0.015302052419632672
1733698199937722400,6.782722412109375,-0.019431261178851127,-0.1270010528667364,0.0015533669218420981
1733698199947677700,6.792677734375,-0.022490064227581024,-0.10125508298259228,0.0388297891318798
1733698199957631500,6.802631591796875,-0.005963876840472221,-0.07717101842868142,0.08241597901061176
1733698199967586600,6.812586669921875,0.011699790143966673,-0.03902763152522966,0.12488865468949079
1733698199977540600,6.82254052734375,-0.0051221653193235395,-0.012976331152115016,0.16100217059999702
1733698199987495700,6.83249560546875,0.025562895801663398,-0.012129792758799158,0.13671543221399188
1733698199997449700,6.84244970703125,0.025387539234757422,0.031236740186996757,0.0969016004808247
1733698200007404500,6.852404541015625,0.008327683362364769,0.04488237173568923,0.04284033994749188
1733698200017358600,6.862358642578125,0.01387070444226265,0.08475750063546002,-0.0035667525708675384
1733698200027313400,6.8723134765625,0.008812252008914946,0.12459931635409593,-0.06425824489891528
1733698200037267500,6.882267333984375,0.014815876337885855,0.12766520673073828,-0.11629369869306683
1733698200047222500,6.892222412109375,0.02564472886621952,0.13868841278739272,-0.13371128196194768
1733698200057176600,6.902176513671875,0.018314239847660063,0.12133262444203718,-0.15496040621772408
1733698200067131400,6.91213134765625,0.021941782695055007,0.12777738926778548,-0.1589294559791684
1733698200077085400,6.92208544921875,0.03097381493449211,0.11489449941962956,-0.14365575287118554
1733698200087040500,6.93204052734375,0.039411972934007646,0.11249607824208215,-0.10203399493321776
1733698200096994600,6.94199462890625,0.05632219120264053,0.09652199004609137,-0.05220701096877455
1733698200106949600,6.95194970703125,0.06703647744059563,0.08827566482424735,-0.0062381637372076505
1733698200116903400,6.9619033203125,0.07021160034537315,0.07540251548539381,0.04179112315550446
1733698200126858500,6.9718583984375,0.05256663806140423,0.05739301247166004,0.06926219066604972
1733698200136812500,6.9818125,0.07325345225930213,0.03770868299732683,0.11225815956667065
1733698200146767600,6.991767578125,0.07431728209853172,0.04136590174706652,0.14373729367479682
1733698200156721700,7.0017216796875,0.0644271717250347,0.06975549060832709,0.15585589375272393
1733698200166676500,7.011676513671875,0.06188683959245681,0.07342373079229146,0.15560981003716587
1733698200176630800,7.021630859375,0.03826689455211162,0.0697356853627367,0.12861162073537707
1733698200186585600,7.031585693359375,0.014408464580774306,0.02707000557911815,0.0815223911717534
1733698200196539600,7.04153955078125,0.013435820156335829,-0.02919000710750697,0.01583162925168872
1733698200206494500,7.051494384765625,0.030234979265928268,-0.05755333129963837,-0.009527268410474061
1733698200216448800,7.06144873046875,0.029345336949825284,-0.06342072092911694,-0.037177199619263405
1733698200226403800,7.07140380859375,0.03287994081676006,-0.05247397764215711,-0.019892887341231107
1733698200236357600,7.081357666015625,0.03645020051896572,-0.02176996294223936,-0.0013829787909984588
1733698200246311700,7.091311767578125,0.042014848908782,0.007302071208250709,-0.014935411064326762
1733698200256266500,7.1012666015625,0.053229485884308814,0.012491625508246942,0.0003216331698000431
1733698200266220500,7.111220458984375,0.04059329167306423,0.0077860416331794104,0.006899404124915599
1733698200276175600,7.121175537109375,0.06517886687517166,0.016406810207583476,0.02364917113482952
1733698200286129700,7.131129638671875,0.07110942596793174,0.06164820853099227,0.03714665835052729
1733698200296084700,7.141084716796875,0.05583879159986972,0.08566184733035043,0.013177753742039203
1733698200306038500,7.15103857421875,0.025858663877844808,0.055908664798573586,-0.05005743171945214
1733698200315993900,7.160993896484375,0.023552140501141548,0.009461482298420741,-0.06181216692104935
1733698200325947600,7.17094775390625,0.04648877945244312,0.011221022192185046,-0.07117036237493157
1733698200335902700,7.18090283203125,0.06924597018361091,-0.006190992135723354,-0.06148468853235244
1733698200345856800,7.190856689453125,0.04711947857141494,-0.0036844686579133846,-0.030260113707184788
1733698200355811600,7.2008115234375,0.07739537436962127,-0.018660413803672418,-0.011609189251065254
1733698200365765600,7.210765625,0.09711246675252914,-0.010437633854197338,0.01871171473264694
1733698200375720700,7.220720703125,0.10888824474215507,0.0013017644976614975,0.008866320283710956
1733698200385674800,7.2306748046875,0.12001578795611857,-0.02544620376956882,-0.006831599585711955
1733698200395629600,7.240629638671875,0.11683014365732669,-0.04733239980288781,-0.06014116496890783
1733698200405583600,7.25058349609375,0.11954700140058994,-0.07579406751967034,-0.08542217508926987
1733698200415538400,7.260538330078125,0.09240122032165526,-0.0668682082016021,-0.11052534442469478
1733698200425492700,7.27049267578125,0.07864157503843307,-0.01983916840959573,-0.11895984916239977
1733698200435447800,7.28044775390625,0.05700257468223571,0.032482744492986236,-0.1418180160500109
1733698200445401600,7.290401611328125,0.03468962058722973,0.06494651942402124,-0.13495002997666597
1733698200455356700,7.300356689453125,0.042273207584023476,0.10197952479962259,-0.13741393587216735
1733698200465310500,7.310310546875,0.06688041009604931,0.10426122426232322,-0.1341241005465388
1733698200475265800,7.320265869140625,0.0817073923498392,0.11794954874184914,-0.13104600827544927
1733698200485219800,7.3302197265625,0.09792670574486255,0.11652640233724378,-0.12537658433690665
1733698200495174700,7.340174560546875,0.08299217146337032,0.087502168834256,-0.14096636765673756
1733698200505128700,7.350128662109375,0.09165069421529769,0.048879295884747986,-0.15399667575210332
1733698200515083500,7.36008349609375,0.07993336841464042,0.0365323418274871,-0.15023673869669438
1733698200525037800,7.370037841796875,0.0744967303186655,0.015690274277440037,-0.1361167356684804
1733698200534992600,7.37999267578125,0.09092997872531414,-0.0034652284251525996,-0.1121970770291984
1733698200544946700,7.38994677734375,0.073542790594697,-0.023518080684624146,-0.10332564217895268
1733698200554901500,7.399901611328125,0.08624620482325554,-0.034822252257261425,-0.08588453190401196
1733698200564855600,7.40985546875,0.08944412408173084,-0.029938188276439903,-0.04557517173886299
1733698200574810600,7.419810546875,0.062277300214767455,-0.03744544265099103,-0.025338001004606484
1733698200584764700,7.4297646484375,0.0519230794608593,-0.03576551989016589,0.005913315697014331
1733698200594719700,7.4397197265625,0.04164543107450008,-0.050526583601161836,-0.00554565142840147
1733698200604673500,7.449673583984375,0.033361586853861806,-0.04698552716055419,0.008929887039214372
1733698200614628600,7.459628662109375,0.030975568500161168,-0.013192373639147261,0.04688230881467461
1733698200624582700,7.469582763671875,0.04551145885288715,0.018588814438763073,0.04513926453962922
1733698200634537700,7.479537841796875,0.03474924181997776,0.03484140676559182,0.04964958157092333
1733698200644491800,7.48949169921875,0.03953472253084182,0.0411320792914601,0.029411095662415027
1733698200654446600,7.499446533203125,0.022947160345315933,0.030882090663583946,0.01728942684456706
1733698200664400600,7.509400634765625,0.03784779235720634,0.021485211733705364,-0.012061316932737827
1733698200674355700,7.519355712890625,0.04636661437749862,0.015136420379008631,-0.028789602763205763
1733698200684309800,7.529309814453125,0.03363455857634544,0.025879144976870154,-0.03832943839430809
1733698200694264600,7.5392646484375,0.022547931894659996,0.03258005597117589,-0.024810762260109184
1733698200704218600,7.549218505859375,0.034056583380699154,0.019181859844911376,-0.029075141706317663
1733698200714173400,7.55917333984375,0.025196985098719597,0.00487289698694658,-0.005297375755757093
1733698200724127700,7.569127685546875,0.033794717574119566,0.005725052841118304,-0.0153204648591578
1733698200734082800,7.579082763671875,0.049258828687667844,0.00398771393354109,-0.024828444047272205
1733698200744036600,7.58903662109375,0.06310556773245335,-0.016554112007073126,-0.010644582002609967
1733698200753991700,7.59899169921875,0.059790744096040724,-0.015951128587155836,0.01072466150149703
1733698200763945500,7.608945556640625,0.0496224013030529,0.004479946723794273,0.025112813946604726
1733698200773900800,7.61890087890625,0.046640170621871944,-0.010572714351286412,0.008863397674262523
1733698200783854800,7.628854736328125,0.04512508988380432,-0.0038775409759007743,0.013407032453268766
1733698200793809700,7.6388095703125,0.0453916318655014,0.00944947733761801,-0.00021904957816004753
1733698200803763700,7.648763671875,0.042806291547417635,0.0021049396722250093,-0.019266133745014666
1733698200813718500,7.658718505859375,0.05396773703098297,0.00708652876142878,-0.007137158403545617
1733698200823672800,7.6686728515625,0.03443418452143669,0.02486200610686792,-0.016798282326757907
1733698200833627600,7.678627685546875,0.008114917394518853,0.031677638655179176,-0.014770283630490303
1733698200843581700,7.688581787109375,0.000709025052189827,0.049414453074219634,-0.036894437155127524
1733698200853536500,7.69853662109375,-0.01182195521891117,0.04778893879819661,-0.05708543066009879
1733698200863490600,7.708490478515625,-0.022611644780635834,0.06281000058567152,-0.06988996717557311
1733698200873445600,7.718445556640625,-0.02132511210143566,0.055888937184796664,-0.0704455552317202
1733698200883399700,7.728399658203125,-0.03275076147913933,0.04714005100198555,-0.05858545995950699
1733698200893354800,7.738354736328125,-0.03212941471040249,0.04629210153629537,-0.04363134419471025
1733698200903308500,7.74830859375,-0.0035240824729204177,0.03512258691070601,-0.007345540457218885
1733698200913263600,7.758263671875,0.03558919977545738,0.020146814153238664,0.026804128034412858
1733698200923217700,7.7682177734375,0.033193829071521755,-0.01249616468604654,0.04686477315798401
1733698200933171700,7.778171630859375,0.05427168841361999,-0.03421774702547118,0.059922553782165044
1733698200943126800,7.788126708984375,0.050420858204364774,-0.06554433918669819,0.06924465500935911
1733698200953080600,7.79808056640625,0.06507482197880744,-0.07002396881878376,0.08580489079654216
1733698200963035600,7.80803564453125,0.06220481950044632,-0.0602982552267611,0.0994439784400165
1733698200972989400,7.817989501953125,0.07517009953558444,-0.05366592280650511,0.09872311681956052
1733698200982944800,7.82794482421875,0.06305705241560935,-0.030234645905788053,0.0849403829216957
1733698200992898800,7.83789892578125,0.054526539957523344,-0.009913596280361526,0.06699351508170366
1733698201002853600,7.847853515625,0.03197276284396648,-0.0076725153807725285,0.04239887979030609
1733698201012807700,7.8578076171875,0.025708441752195357,0.0016224501026794313,0.0027263562239706516
1733698201022762800,7.8677626953125,0.06030979953408241,0.03283162186273839,-0.008195143023878335
1733698201032716800,7.877716796875,0.04274959292411804,0.039336587876547126,-0.05392331336736679
1733698201042671600,7.887671630859375,0.013518822264671325,0.029524116166390012,-0.07252221537530422
1733698201052625700,7.897625732421875,0.00876724382340908,0.02782033760594204,-0.0938892669223249
1733698201062580500,7.90758056640625,0.032576573956012725,0.04171297531879972,-0.06611454029008745
1733698201072534500,7.917534423828125,0.0488163456171751,0.04907343478393741,-0.03957417775839567
1733698201082489900,7.92748974609375,0.01492635097503662,0.0602095494634239,-0.005735474912077188
1733698201092443600,7.937443603515625,0.007024199548363685,0.03723737112457165,0.009697656541317701
1733698201102398700,7.947398681640625,0.02034603793621063,0.02394262167304987,-0.009513239885121583
1733698201112352500,7.9573525390625,0.03358604325950146,0.03391457196096889,-0.02301993332058191
1733698201122307800,7.967307861328125,0.044752164918184276,0.023302405807061586,-0.057600832836329934
1733698201132261600,7.97726171875,0.05258125110864639,-0.019526476598076988,-0.09609642157778144
1733698201142216700,7.987216796875,0.06319383053779602,-0.0669136958777206,-0.09981368853524326
1733698201152170800,7.997170654296875,0.054983051553368564,-0.10219152358248829,-0.10866013507470487
1733698201162125600,8.00712548828125,0.05189209980070591,-0.10754254748793318,-0.07349398301690817
1733698201172079600,8.01707958984375,0.05060439807772636,-0.08415266661010683,-0.0033807284794747827
1733698201182035000,8.027034912109375,0.023626374781131745,-0.055902869812026613,0.041281127806752915
1733698201191989000,8.036989013671874,0.003947860842943191,-0.024092346041777634,0.08838716237470508
1733698201201943800,8.04694384765625,0.003305471286177635,-0.00011382422157330438,0.10608253967165947
1733698201211897900,8.05689794921875,0.005855155768990516,0.022418846171873154,0.13231149816662072
1733698201221853000,8.06685302734375,0.03275251504480839,0.03190057210730156,0.11183014341294764
1733698201231807000,8.076806884765626,0.054522448304295534,0.03234090660319198,0.09058174980953335
1733698201241762000,8.086761962890625,0.05495324093699455,0.03850607360284775,0.08237199373841285
1733698201251715800,8.0967158203125,0.026343232524394987,0.05776685075273271,0.07038330365046859
1733698201261671000,8.1066708984375,0.021875147199630737,0.06714813482125755,0.043544542694091797
1733698201271624700,8.116624755859375,0.02024023947417736,0.04513162922244519,0.016961217803508042
1733698201281580000,8.126580078125,0.010753449204564093,0.05810431624590419,-0.0005538344904780387
1733698201291533800,8.136533935546876,0.020891396859288213,0.046378350481064985,-0.029033494521677493
1733698201301489000,8.146489013671875,0.04226268619000911,0.04034846833283082,-0.03935673561543226
1733698201311443000,8.15644287109375,0.07038754143416881,0.0350682948736241,-0.0331245632275939
1733698201321398000,8.16639794921875,0.07837035688161849,0.017436682978284077,-0.010277794516831636
1733698201331352000,8.17635205078125,0.06033376493155956,-0.0126392241352587,-0.010530600234121083
1733698201341307000,8.186306884765624,0.028297873723506926,-0.042243607030203564,0.009307195919007062
1733698201351261000,8.196260986328125,0.03960428063571453,-0.02448495752197923,0.016016630429774522
1733698201361215700,8.2062158203125,0.03197802354097366,-0.020334395447478164,0.014850216998904943
1733698201371169800,8.216169677734374,0.024947394251823424,-0.00046521549210883675,0.014421177931874989
1733698201381124900,8.226124755859376,0.008258125257492066,0.022103110736608506,0.011946312250941992
1733698201391079000,8.236078857421875,-0.0021381810724735257,0.02059119691987289,-0.008277999001741409
1733698201401034000,8.246033935546874,0.02912029602229595,0.0057200649971026,-0.0101040453851223
1733698201410987800,8.25598779296875,0.0508031355202198,-0.018769993391679597,-0.008922142124176025
1733698201420943000,8.265943115234375,0.03858955063521862,-0.017053780041344,0.019559563733637333
1733698201430897000,8.27589697265625,0.04441489578783512,-0.025162375009641982,0.012690408616513013
1733698201440852000,8.28585205078125,0.03955401175320148,-0.012891292350320145,0.016578648226708174
1733698201450806000,8.295805908203125,0.03101999216377735,0.0004560549381189048,0.023649755656719205
1733698201460760800,8.3057607421875,0.006543138033151626,0.012026179403986316,0.031060324174165724
1733698201470715000,8.31571484375,0.015522563302516936,0.009382574126601683,0.004032324256002902
1733698201480670000,8.325669921875,0.02466916183233261,0.007320038406492676,0.003723404437303543
1733698201490624000,8.3356240234375,0.020185878938436506,-0.0002917061057058163,-0.002174859821051359
1733698201500578800,8.345578857421875,0.03095511023402214,-0.011850770321441814,0.009703063368797301
1733698201510532900,8.355532958984375,0.03334229763150215,-0.005880842766095884,0.014239537754654884
1733698201520488000,8.365488037109374,0.026886837881803512,0.008252981008205096,0.02230330948382616
1733698201530442000,8.37544189453125,0.028803485158085822,0.01972159731137799,0.04544906114116311
1733698201540397000,8.38539697265625,0.03448328436017036,0.02250408133649034,0.028898031573742627
1733698201550350800,8.395350830078126,0.029798925936222076,0.027242834545508958,0.027254648280888794
1733698201560306000,8.405305908203125,0.0401718513906002,0.02896398436586605,0.031899989868700504
1733698201570259700,8.415259765625,0.03990823201835155,0.026825344352377576,0.04559256126508116
1733698201580215000,8.425215087890624,0.023109657430648804,0.03956810421063565,0.046626580487936733
1733698201590168800,8.4351689453125,0.023716391152143478,0.03277702614826849,0.03232683697864413
1733698201600124000,8.4451240234375,0.038703532403707504,0.01755627935351804,0.018696224902570245
1733698201610078000,8.455077880859376,0.02654138544499874,0.006832743513316381,0.0050511459097266195
1733698201620033000,8.465032958984375,0.04192717062532902,-0.004891212957527023,-0.006129588796198368
1733698201629987000,8.474987060546875,0.03467851467132568,-0.005367034325329587,-0.008824526968598366
1733698201639942000,8.48494189453125,0.02552314831316471,0.002127417649864219,-0.002028290957212448
1733698201649896000,8.49489599609375,0.022587094861268996,0.008425008540286216,-0.01167640926837921
1733698201659850800,8.504850830078125,0.008829787665605545,0.011982849435624665,-0.023346827187389133
1733698201669804800,8.5148046875,-0.0034089316606521606,-0.001569320259511005,-0.014552987617999315
1733698201679760000,8.524759765625,-0.01514203955233097,0.006010012970562093,-0.0006892974384129047
1733698201689714000,8.5347138671875,0.020984335839748382,0.009682561720174272,0.012883300840109586
1733698201699669000,8.5446689453125,0.02797521764039993,0.016902519019367172,0.06617854543700814
1733698201709622800,8.554622802734375,0.0322942498832941,0.03821277604496572,0.09309928558841347
1733698201719578000,8.564578125,0.04134323325753212,0.015444958888506517,0.09191928202360868
1733698201729532000,8.574531982421876,0.02296761861145496,-0.02388336119990563,0.07229834349155426
1733698201739487000,8.584487060546875,0.0352875864803791,-0.05274883536105044,0.060546530899405475
1733698201749441000,8.59444091796875,0.06302607275545596,-0.0659478876194451,0.03216623958945274
1733698201759395800,8.604395751953126,0.05175590620040893,-0.018723364071245304,0.017871464516222475
1733698201769350000,8.614349853515625,0.03511690608859062,0.010063864071783609,0.023228753765672443
1733698201779305000,8.624304931640625,0.035006431451439855,0.01948237487815786,0.04282470398694276
1733698201789259000,8.634259033203126,0.020355390286445618,0.017708805317396763,0.03761456812322139
1733698201799213800,8.6442138671875,0.026765257328748703,0.00694057866880903,0.01156973402351141
1733698201809168000,8.65416796875,0.06368892057836055,-0.008472352530062198,0.007314853058010339
1733698201819123000,8.664123046875,0.050824762830138204,0.02838042830727063,-0.007327420278638601
1733698201829077000,8.674076904296875,0.022862404671311377,0.03736694318783702,-0.03921893457993865
1733698201839031800,8.68403173828125,-0.007673603367805481,0.025220822632033377,-0.04801891162917018
1733698201848985900,8.69398583984375,-0.008516483932733535,0.024114414026401937,-0.020262889697402715
1733698201858941000,8.70394091796875,0.011610942816734313,0.04535951512760948,0.0018719313517212867
1733698201868894700,8.713894775390624,0.048774844563007354,0.043003270857664755,0.035763387298583985
1733698201878850000,8.72385009765625,0.062008420145511625,0.018680175666778813,0.030696313167363404
1733698201888803800,8.733803955078125,0.044805940932035444,0.025868477452383375,0.024241584070026873
1733698201898759000,8.743759033203125,0.05362170007228851,0.022275113152514677,-0.018508885636925695
1733698201908713000,8.753712890625,0.07149754850268364,0.029445162328798322,-0.06647796677500009
1733698201918668000,8.76366796875,0.07511866160929202,-0.004105197695968672,-0.12593801761195064
1733698201928622000,8.7736220703125,0.10592471876144409,-0.04895072171972133,-0.15370850646048784
1733698201938577000,8.783576904296876,0.12025778001844882,-0.08368913161843083,-0.15649872170090676
1733698201948531000,8.793531005859375,0.08776654625833034,-0.09396193029973655,-0.1274519293062389
1733698201958485800,8.80348583984375,0.057276130926609034,-0.08903441076967865,-0.087294398701936
1733698201968439800,8.813439697265625,0.015548866787552833,-0.05224915134375915,-0.036383857284486294
1733698201978395000,8.823394775390625,0.025123335340619085,-0.02759577845231397,-0.0036731355547904966
1733698201988349000,8.833348876953124,0.021513912671804428,0.00020588641919894142,0.029985534549504516
1733698201998304000,8.843303955078126,0.05134381826817989,0.0025807805906864815,0.0500308359734714
1733698202008257800,8.8532578125,0.04535714507400989,0.01120743548318278,0.060916387125104665
1733698202018213000,8.863213134765624,0.056201195171475406,0.0158931045148056,0.05429463089779019
1733698202028167000,8.8731669921875,0.03939034562408924,0.02894017423201585,0.05210515802949667
1733698202038122000,8.8831220703125,0.025527239966392515,0.043148752876115026,0.027513006956130265
1733698202048076000,8.893075927734374,0.00013268646895885466,0.0455214231244754,0.007966302704066038
1733698202058030800,8.90303076171875,0.008749123644828796,0.0391676245178096,-0.03033668607473373
1733698202067985000,8.91298486328125,0.007201894202828407,0.04384870870586019,-0.043552872131019826
1733698202077940000,8.92293994140625,0.003847907599806785,0.034976586585736366,-0.03882482069581747
1733698202087894000,8.93289404296875,0.002140519160032272,0.026021868782653473,-0.025068390282988545
1733698202097848800,8.942848876953125,0.03458031499385834,0.025510329930786974,-0.008132160790264607
1733698202107803000,8.952802978515624,0.05682721811532974,0.01101572600309737,0.0374573317348957
1733698202117758000,8.962758056640626,0.05177519542276859,0.0030101781340315936,0.0644439767293632
1733698202127712000,8.9727119140625,0.05629997937083244,-0.026663765149074606,0.0613088935740292
1733698202137666800,8.982666748046874,0.05505085609257221,-0.03762400038855849,0.05811506596878171
1733698202147620900,8.992620849609375,0.04724748886525631,-0.018579041963419876,0.06308920111954212
1733698202157576000,9.002575927734375,0.01321837801337242,0.010155207033490295,0.058253159265220164
1733698202167529700,9.01252978515625,0.022900398594141006,0.02960325951693812,0.053796764378249644
1733698202177484500,9.022484619140625,0.003684241470694542,0.0288461666724761,0.03579714343771338
1733698202187438600,9.0324384765625,0.01945171944499016,0.03248997795137111,0.03276552065685391
1733698202197393400,9.042393310546874,0.03237783651351928,0.010812289552600123,0.01432984638661146
1733698202207347500,9.052347412109375,0.02988894230723381,-0.022610039628727825,-0.012496347349137068
1733698202217302500,9.062302490234375,0.041785716328024865,-0.0265992668118095,-0.024563655631244182
1733698202227256600,9.072256591796876,0.020694412982463835,-0.03066962837312603,-0.03290755947604775
1733698202237211400,9.08221142578125,0.02433539983332157,-0.007848583192087243,-0.0345740313835442
1733698202247165400,9.09216552734375,0.03502104449868202,0.01610168064801255,-0.03105024117156863
1733698202257120300,9.102120361328126,0.0337888723552227,0.011429056044341995,-0.025129765081405638
1733698202267074300,9.11207421875,0.03532324231564998,0.011358854052075184,-0.017326397854089737
1733698202277029600,9.122029541015625,0.048505379971861835,0.010403249810694251,0.0005427285745739937
1733698202286983400,9.1319833984375,0.037787586602568625,-0.000338273777347058,0.008733341553807257
1733698202296938500,9.1419384765625,0.021017653587460515,-0.0021854245975497177,0.01192658463716507
1733698202306892300,9.151892333984375,0.038843233135342596,-0.01153366491299821,0.02373524198308587
1733698202316847600,9.16184765625,0.031841829940676684,0.012257369227800517,0.04003843426927924
1733698202326801700,9.1718017578125,0.031390579041838645,0.02407351576043293,0.044913200698792934
1733698202336756500,9.181756591796875,0.0315536606490612,0.026134432628902138,0.04791618190705776
1733698202346710500,9.19171044921875,0.0451607457190752,0.006854921095794998,0.03644552434384823
1733698202356665300,9.201665283203125,0.050610827818512914,-0.0018018206909997387,0.027761867150664327
1733698202366619400,9.211619384765624,0.0551385343760252,-0.00250722901399713,-0.006175619895011186
1733698202376574500,9.221574462890626,0.04754968668222427,-0.008581941251223907,-0.004779635491967201
1733698202386528500,9.231528564453125,0.03426525769531727,-0.012692525225074495,-0.010909662679582833
1733698202396483300,9.2414833984375,0.0329348858743906,-0.0014036562528461217,-0.022956658826023338
1733698202406437400,9.251437255859376,0.03801145848631859,-0.0013581777098821475,-0.013435966286808251
1733698202416392400,9.261392333984375,0.040972061857581135,0.0046267327854642645,-0.025710195317864417
1733698202426346500,9.271346435546874,0.02850947064757347,0.013792264344613068,-0.020973083793371913
1733698202436301600,9.281301513671876,0.04597206210196018,0.021297107566369232,-0.01669657551795244
1733698202446255400,9.29125537109375,0.040246670192480086,-0.0013032075360766612,-0.015832359904050824
1733698202456210400,9.30121044921875,0.03482113801240921,-0.008710313446313376,-0.01795811988636851
1733698202466164200,9.311164306640626,0.039454058510065074,-0.015018684884009417,-0.03579509761109948
1733698202476119600,9.32111962890625,0.06724515175521373,-0.017230175504577346,-0.012994506129622458
1733698202486073600,9.331073486328124,0.07446984231173992,-0.04098686670106835,-0.00716667675897479
1733698202496028400,9.3410283203125,0.08842647147178649,-0.055479753595707004,-0.005136632236093282
1733698202505982500,9.350982421875,0.08420446986258029,-0.09483186326837166,-0.019757424393296242
1733698202515937500,9.3609375,0.05440554392635822,-0.1371834515845403,-0.033231092341989274
1733698202525891600,9.3708916015625,0.017692893078923223,-0.14830644648754968,-0.02914513820260763
1733698202535846400,9.380846435546875,0.008506547060608863,-0.1487113831597846,-0.020556904207915068
1733698202545800400,9.390800537109374,-0.005138531932234764,-0.13233915335852653,0.014862199697643517
1733698202555755300,9.40075537109375,-0.042135844939947126,-0.09860865099388175,0.053237523060292
1733698202565709300,9.410709228515625,-0.06498422108590603,-0.08032827688320539,0.11459990038722753
1733698202575664600,9.42066455078125,-0.051012394356727594,-0.06435447181500493,0.16737945054695008
1733698202585618400,9.430618408203125,-0.04819207623898983,-0.027460514150490053,0.2116600524306297
1733698202595573500,9.440573486328125,-0.02995674684643745,0.0350620706288144,0.262048177409172
1733698202605527300,9.45052734375,-0.04225801001489162,0.11520181180313228,0.28683015196621414
1733698202615482600,9.460482666015626,-0.10587269631326197,0.18958470648378134,0.28681451600566504
1733698202625436700,9.470436767578125,-0.15201660785079002,0.1786566496309824,0.25040917754173275
1733698202635391500,9.4803916015625,-0.13951543819606305,0.15355360815972088,0.2140590763963759
1733698202645345500,9.490345458984375,-0.09162205264270305,0.13515293213762342,0.20183380107358098
1733698202655300400,9.50030029296875,-0.04693535417616367,0.12166249571722,0.21320026760995386
1733698202665254400,9.51025439453125,-0.0621533815741539,0.11315812234738841,0.22423984027951954
1733698202675209500,9.52020947265625,-0.09846212779581547,0.08193753871074877,0.23250264171212912
1733698202685163500,9.53016357421875,-0.09453706330657005,0.06205535542662255,0.19317045601606367
1733698202695118300,9.540118408203124,-0.058768999832868575,0.010963206939637893,0.12791764712184667
1733698202705072400,9.550072265625,-0.013522913917899131,-0.0479528469559038,0.051109863381832835
1733698202715027500,9.56002734375,0.014295651856064795,-0.12938892525080592,0.018162556417286396
1733698202724981500,9.5699814453125,-0.0026297639816999434,-0.170261855849158,0.020135902316868303
1733698202734936600,9.5799365234375,-0.03193476892113686,-0.17473987804604693,0.00789206842407584
1733698202744890400,9.589890380859375,-0.09899579628109931,-0.14250910358671098,-0.011614596078544854
1733698202754845400,9.599845458984374,-0.14030103561580182,-0.10893677832530811,-0.0673394059099257
1733698202764799200,9.60979931640625,-0.08353051612377166,-0.046835081272618845,-0.11427402943372726
1733698202774754600,9.619754638671875,-0.004285129973292351,-0.000576655960350763,-0.12695011726394295
1733698202784708600,9.62970849609375,0.09844108500778674,0.0341057608512463,-0.09118117700740694
1733698202794663400,9.639663330078125,0.1128910506427288,0.043870139652956275,-0.009097060299664735
1733698202804617500,9.649617431640625,0.12899579774737358,0.016215436370926907,0.07261968440040946
1733698202814572500,9.659572509765624,0.131356097137928,-0.0068826699025346895,0.16789909050688145
1733698202824526600,9.669526611328125,0.13547405385077,-0.018105330354312898,0.19916502025574445
1733698202834481400,9.6794814453125,0.1622474944859743,-0.06911936639556661,0.18804215321689843
1733698202844435500,9.689435546875,0.16438976721167564,-0.07463561363297049,0.13465206994339823
1733698202854390300,9.699390380859375,0.1455383517473936,-0.05090607073830906,0.07515709392353892
1733698202864344300,9.70934423828125,0.11087503464519977,-0.03821902768923901,0.013171177870780228
1733698202874299600,9.719299560546874,0.12024492053687572,-0.04608653249421622,-0.0359444429539144
1733698202884253400,9.72925341796875,0.11836217553019523,-0.0045957348590018226,-0.06187032684907317
1733698202894208500,9.73920849609375,0.0691594609439373,-0.02830729457240086,-0.09581935820206999
1733698202904162300,9.749162353515626,0.05327566311359405,-0.01439586082752794,-0.1290979429475963
1733698202914117600,9.75911767578125,-0.01420914261639118,0.047256740750791504,-0.16459917217865586
1733698202924071400,9.769071533203125,-0.08117313934266566,0.16606529920846222,-0.17993804947733877
1733698202934026500,9.779026611328124,-0.1029705451309681,0.31086569207012654,-0.1945753543779254
1733698202943980500,9.78898046875,-0.06209142225384712,0.43119851008616383,-0.20580051274746655
1733698202953935400,9.798935302734375,-0.01893792470395565,0.4527085868330672,-0.22812676471546292
1733698202963889400,9.808889404296876,0.01859890200793743,0.4209257936032489,-0.23719430665969848
1733698202973844500,9.818844482421875,0.026530279529094696,0.31407332900501783,-0.26350173721835013
1733698202983798500,9.828798583984375,0.051365445578098294,0.1781607010738924,-0.2814782695442438
1733698202993753300,9.83875341796875,0.0982166286021471,0.04087421837314032,-0.2773420465223491
1733698203003707400,9.848707275390625,0.12253683086633682,-0.026137661199027204,-0.20742489907890557
1733698203013662500,9.858662353515625,0.1571761825710535,-0.059134207282913846,-0.16057649253383277
1733698203023616500,9.868616455078126,0.1678109738320112,-0.06500727316793053,-0.11332432749345898
1733698203033571600,9.878571533203125,0.17115034738779067,-0.061994665614794935,-0.05833820720016956
1733698203043526400,9.8885263671875,0.16676409512758253,-0.05741324697551317,-0.0026982991732656956
1733698203053480400,9.89848046875,0.19016192184984682,-0.08403511377819814,0.03621390754505992
1733698203063435500,9.908435546875,0.2266705745577812,-0.1102764476975426,0.0813847362667322
1733698203073389600,9.9183896484375,0.2505202367007732,-0.14230949849453753,0.1125663487330079
1733698203083344400,9.928344482421876,0.2688333075046539,-0.17313682676358147,0.08030892372876405
1733698203093298400,9.93829833984375,0.24777415286302565,-0.16941294740224255,0.030004385380446908
1733698203103253200,9.948253173828125,0.232866506588459,-0.13252106753038242,-0.014954261895269154
1733698203113207300,9.958207275390626,0.24095161336660384,-0.10759656096380203,-0.0620116350159049
1733698203123162600,9.96816259765625,0.259082897862792,-0.08546363047766499,-0.09817892694026231
1733698203133116400,9.978116455078125,0.31620120787918565,-0.04745898989120032,-0.10676964515298604
1733698203143071500,9.988071533203126,0.30853754138350487,0.009746929909987375,-0.11840484562814235
1733698203153025300,9.998025390625,0.258349907413125,0.052080914070806464,-0.17531375067755578
1733698203162980600,10.007980712890625,0.173771928063035,0.10268983762660064,-0.27022636929824945
1733698203172934700,10.0179345703125,0.057343350943923,0.1060821378128603,-0.41937969667240976
1733698203182889500,10.027889404296875,-0.03787351132035255,0.059042309482069684,-0.5798899921022356
1733698203192843500,10.037843505859374,-0.12236381238698958,0.02361678268559044,-0.6980524072766303
1733698203202798300,10.04779833984375,-0.21200959652066229,-0.02142879167161882,-0.7345425014145672
1733698203212752400,10.05775244140625,-0.24258067587316035,-0.029386118768074083,-0.6604729104667901
1733698203222707500,10.06770751953125,-0.23637656053602693,0.0222708068701555,-0.5005436297953129
1733698203232661500,10.07766162109375,-0.18255729206502436,0.07823182519376277,-0.27374679850935935
1733698203242616300,10.0876162109375,-0.10085048423707485,0.12436968144983984,-0.05915098488777876
1733698203252570400,10.0975703125,-0.023822189614176748,0.14497260762341319,0.11680208660662174
1733698203262525400,10.107525390625,0.02278700134754181,0.13180829788483678,0.24875176572352647
1733698203272479500,10.1174794921875,0.02050385884642601,0.11934974352912976,0.29896248830854893
1733698203282434600,10.1274345703125,0.04203472265303135,0.099642040029075,0.30109730838015675
1733698203292388400,10.137388427734376,0.057059857827425,0.08489492721161805,0.2744999549642205
1733698203302343400,10.147343505859375,0.07543897960484028,0.03714373574107885,0.22388605840578674
1733698203312297500,10.15729736328125,0.09605389761030673,0.005260585126036312,0.2031342161476612
1733698203322252500,10.16725244140625,0.12232581846415996,-0.03805679318209877,0.20248802719861267
1733698203332206600,10.17720654296875,0.10453998640477656,-0.07778215433065779,0.22826325057670474
1733698203342161400,10.187161376953124,0.08309621635973453,-0.0939320374849718,0.2786575130350888
1733698203352115500,10.197115478515625,0.09808160404562949,-0.09396132751153781,0.30807401552498337
1733698203362070300,10.2070703125,0.09509528171122074,-0.09775979734589345,0.34474341175258155
1733698203372024600,10.217024658203124,0.06601765578687191,-0.10217754072290845,0.36277284330949183
1733698203381979400,10.2269794921875,0.04910977560579777,-0.09647126450585201,0.3770633805990219
1733698203391933400,10.236933349609375,0.052556116667389866,-0.11395867987424134,0.4083712497934699
1733698203401888300,10.24688818359375,0.07002104620933532,-0.10771488098069093,0.4428825912043452
1733698203411842300,10.25684228515625,0.06916939781606198,-0.09520844149580225,0.44684448057264087
1733698203421797600,10.266797607421875,0.051882747450470924,-0.09829678116627037,0.3952225760154426
1733698203431751400,10.27675146484375,0.0460889664798975,-0.11078870806861668,0.2972295270361006
1733698203441706500,10.28670654296875,0.07243512161374091,-0.09789996386840939,0.1864656976804137
1733698203451660300,10.296660400390625,0.07905717010200024,-0.066391900493321,0.09007204672172665
1733698203461615400,10.306615478515624,0.036925416815280915,-0.05959375108606182,-0.036880554760247465
1733698203471569400,10.3165693359375,0.012446224597096442,-0.06450277597820386,-0.13980331522673367
1733698203481524500,10.3265244140625,0.017786416581273078,-0.0659264703720808,-0.25850392893105745
1733698203491478500,10.336478515625,0.018839140504598617,-0.06168373193552251,-0.33650852124020453
1733698203501433300,10.346433349609375,0.0004261164575815201,-0.043410810478939674,-0.398372710609436
1733698203511387400,10.356387451171875,0.009995324313640594,0.0018383167764870448,-0.4315646399848163
1733698203521342500,10.366342529296874,0.003913374051451683,0.06321453539910726,-0.4180478635467589
1733698203531296500,10.376296630859375,0.012948913422226906,0.10669766676216386,-0.3617046295560896
1733698203541251300,10.386251220703125,0.027346856608986853,0.1388415575224906,-0.2869119850307703
1733698203551205400,10.396205322265626,0.02483165891766548,0.14230021007638424,-0.2236136712051928
1733698203561160400,10.406160400390625,0.013068155887722968,0.17094072322510181,-0.1656290997482836
1733698203571114200,10.4161142578125,0.028828619599342343,0.1739062219671905,-0.1243378889389336
1733698203581069600,10.426069580078124,0.03804243814647198,0.134492915592622,-0.08719488385021686
1733698203591023400,10.4360234375,0.02536708096861839,0.10189490612293593,-0.045897389430552715
1733698203600978400,10.445978515625,0.035141456007957456,0.07771085179327056,0.004303834673762321
1733698203610932200,10.45593212890625,0.025868016228079795,0.054427029672381465,0.03370017115846276
1733698203620887600,10.465887451171875,0.01077975268959999,0.027556836964702233,0.08452639529332517
1733698203630841600,10.475841552734375,-0.004599602749943733,-0.005338863110193051,0.09326455915272236
1733698203640796400,10.48579638671875,-0.002967617633938789,-0.014695346097601578,0.1428062964349985
1733698203650750500,10.49575048828125,0.006115852531790733,-0.004073026159149594,0.21613544427901504
1733698203660705300,10.505705322265625,0.00825403360426426,-0.0015999505765037611,0.25394831145331265
1733698203670659300,10.515659423828126,0.044319618719816205,0.004282906050165183,0.27594766955450173
1733698203680614400,10.525614501953125,0.0532125347495079,0.0008910259890137239,0.28161680123209953
1733698203690568400,10.535568359375,0.05077566299140453,0.0024471739564090964,0.2506801034376025
1733698203700523300,10.545523193359376,0.013956629160046577,0.041093441481236365,0.18566665625721215
1733698203710477300,10.555477294921875,-0.015175941821932791,0.042628427929594176,0.06259191912189126
1733698203720432600,10.5654326171875,-0.053553895533084865,0.03679789514520671,-0.060602060478925704
1733698203730386400,10.575386474609376,-0.03665712126791477,0.017297728882031516,-0.14938479804247617
1733698203740341500,10.585341552734375,-0.0038823943912982936,-0.00023243878269568085,-0.1810737755089998
1733698203750295300,10.59529541015625,0.035220950984954834,-0.020826861989405004,-0.1770860210470855
1733698203760250400,10.60525048828125,0.059285717183351516,-0.042733646436315026,-0.14533639943450688
1733698203770204400,10.615204345703125,0.06040683016777038,-0.08406235797815025,-0.11218319463431835
1733698203780159500,10.625159423828125,0.07470540463328361,-0.09424272000249474,-0.08825418364480138
1733698203790113500,10.635113525390626,0.05545008454322815,-0.09603026100639253,-0.08664528714343905
1733698203800068400,10.645068359375,0.03326747882962227,-0.07559592829879838,-0.07902107587531208
1733698203810022400,10.6550224609375,0.031765842095017434,-0.05478766141200903,-0.09712605688646435
1733698203819977500,10.6649775390625,0.047155134406685825,-0.04476910691983066,-0.11710925285965204
1733698203829931500,10.674931640625,0.07658464250862598,-0.021186402317066675,-0.07705357519462704
1733698203839886300,10.68488623046875,0.08832710275053977,-0.025575093129533343,-0.032347295244783164
1733698203849840400,10.69484033203125,0.08616144914925097,-0.004539949551154859,0.03186462629437446
1733698203859795500,10.70479541015625,0.08462415657937526,0.007562215415202081,0.09683598789870738
1733698203869749200,10.714749267578124,0.04970306532382965,0.026910017827991396,0.11564108000323176
1733698203879704600,10.72470458984375,0.051016486009955404,0.04429716942599043,0.1183909632332623
1733698203889658400,10.734658447265625,0.04047171112000942,0.05810771834596525,0.1094338959261775
1733698203899613400,10.744613525390625,0.024860300490260123,0.046488902750029225,0.06585881196334957
1733698203909567200,10.754567138671876,0.012736731976270675,0.04868731241002679,0.07367913032546639
1733698203919522600,10.7645224609375,0.0125134446144104,0.04217179303616285,0.08053177269920707
1733698203929476600,10.7744765625,0.004546411257982254,0.03767805268033408,0.077235507632792
1733698203939431400,10.784431396484376,-0.008937924215197563,0.036811124519538135,0.08554755503460765
1733698203949385500,10.794385498046875,-0.007585925084352493,0.03502225920823403,0.07794394816309214
1733698203959340300,10.80434033203125,0.00393792397081852,0.032593132365169,0.0629763883948326
1733698203969294300,10.81429443359375,0.009112696260213852,0.041430176322045736,0.06053776307106018
1733698203979249400,10.82424951171875,0.011971592822670936,0.034453482876950874,0.04231763124763965
1733698203989203500,10.834203369140624,0.02818915265202522,0.016961427866062147,0.026236557279527187
1733698203999158300,10.844158203125,0.022826748836040495,0.007466477122879587,0.02002995772436261
1733698204009112300,10.8541123046875,0.03321487185955047,0.01172485608656425,0.002041442699730396
1733698204019067600,10.864067626953124,0.04862696052491665,0.035033260092861014,-0.009404518813639878
1733698204029021400,10.874021484375,0.0594604892283678,0.021084503712016155,-0.04794321604445576
1733698204038976500,10.8839765625,0.07195639818608761,0.010400973371928557,-0.0723344377182424
1733698204048930300,10.893930419921874,0.06391220794022083,-0.032562641328782775,-0.10813801089674234
1733698204058885400,10.903885498046876,0.05187397962212562,-0.04421787537839263,-0.12482786441296338
1733698204068839400,10.91383935546875,0.06748422120809555,-0.06490613718128298,-0.13088336505964399
1733698204078794500,10.92379443359375,0.07389233468472957,-0.06321763610506896,-0.12919322001561523
1733698204088748500,10.93374853515625,0.07200140637159347,-0.07686160541963763,-0.12018369186893105
1733698204098703400,10.943703369140625,0.07456278129220008,-0.04137961517858785,-0.12001403439044951
1733698204108657400,10.953657470703124,0.03775602242052555,-0.022369689250923693,-0.08621975520774722
1733698204118612500,10.963612548828126,0.02007598882317543,0.009028200881113297,-0.04552431833446026
1733698204128566500,10.97356640625,0.027675357910990715,0.043384580059139984,0.013080576977878807
1733698204138521300,10.983521240234374,0.03946984060108662,0.049769353759381914,0.05106485519632697
1733698204148476400,10.993476318359376,0.06813654763698578,0.036387496846565046,0.057176762205362316
1733698204158430500,11.003430419921875,0.06810732154250144,0.003302598909079097,0.07623056837394833
1733698204168385500,11.013385498046874,0.0407166257917881,-0.025319300870713775,0.08944397795125841
1733698204178340000,11.023340087890626,0.015358897173404693,0.005237599259382114,0.11744739877283572
1733698204188295200,11.033295166015625,-0.0089057755112648,0.025771739079640244,0.12702975837141275
1733698204198249200,11.043249267578124,-0.006312251886725425,0.055415378556028,0.1365333536453545
1733698204208204300,11.053204345703126,-0.004437690186500549,0.0629467376086628,0.12509162991568445
1733698204218158300,11.063158447265625,0.031227497434616086,0.07539572041842621,0.09727204122841357
1733698204228113200,11.073113037109374,0.048341713842749594,0.06732145926128141,0.07454641467928887
1733698204238067200,11.083067138671876,0.033467969837784765,0.05764494597269222,0.02359787933900952
1733698204248022000,11.09302197265625,0.02800444373488426,0.018224428972625172,-0.04293547088503837
1733698204257976000,11.10297607421875,0.054153614991903305,-0.020035812076414004,-0.0937812765032053
1733698204267931100,11.11293115234375,0.0613689531981945,-0.05237557703529019,-0.1376283092752099
1733698204277885200,11.12288525390625,0.047346857586503026,-0.05452864514964167,-0.15171236420720816
1733698204287840000,11.132840087890624,0.03194529031515121,-0.06231869623765815,-0.1398670281127095
1733698204297794000,11.1427939453125,0.015604980888962745,-0.056782890349836086,-0.08149915642663837
1733698204307749400,11.152749267578125,0.046676410979032516,-0.026619862075266426,-0.05165522230491042
1733698204317703200,11.162703125,0.056038698086142535,-0.020777620586776173,-0.000037409400939941404
1733698204327658200,11.172658203125,0.05013794960975647,-0.017423108827369287,0.017146949633955955
1733698204337612000,11.182612060546875,0.049931028860807414,-0.02644219025368802,0.021469635138660667
1733698204347567000,11.192567138671874,0.02287935580611229,-0.00745831664931029,0.029818215158581733
1733698204357521200,11.202521240234375,0.029965514674782753,0.017207219320675357,0.045886429645121095
1733698204367476200,11.212476318359375,0.01789221504330635,0.03821614161240868,0.02705810279548168
1733698204377430300,11.22243017578125,0.02375847672820091,0.03820998586625792,0.030896219653636214
1733698204387385000,11.232385009765625,0.03279869227409363,0.029723883372056295,0.014837211386859415
1733698204397339100,11.242339111328125,0.028138299247622487,0.0261477875841083,0.0037339258313179016
1733698204407294200,11.252294189453124,0.07702887914478779,-0.038413627812732005,0.0068410980664193625
1733698204417248300,11.262248291015625,0.17932137888371943,-0.04512060550493188,0.030125527542084453
1733698204427203000,11.272203125,0.2423252398073673,0.04377703627571463,0.11680179434567689
1733698204437157000,11.2821572265625,0.2234030971944332,0.04329457282128278,0.13523001596182585
1733698204447112200,11.2921123046875,0.1744523115426302,-0.01881132548248861,0.09965338340699673
1733698204457066000,11.30206591796875,0.12994798390567303,-0.03646657626503147,0.005195230555534363
1733698204467021300,11.312021240234374,0.09417641330063342,-0.059680963578633964,-0.1070366255261004
1733698204476975000,11.32197509765625,0.04735562541484833,-0.06666907346688676,-0.22470760392174124
1733698204486930200,11.33193017578125,-0.022134090396761893,-0.04630774206342175,-0.3225513075582683
1733698204496884200,11.34188427734375,-0.1334042618393898,-0.043824295783811244,-0.38192645659074187
1733698204506839300,11.35183935546875,-0.169702486667037,-0.07322697067775298,-0.4130639376543462
1733698204516793300,11.36179345703125,-0.15341419968903064,-0.07432099929242394,-0.33864524100795385
1733698204526748200,11.371748046875,-0.09082067313194274,-0.0731497452896554,-0.1722455952785909
1733698204536702200,11.3817021484375,-0.05014379482865333,-0.03332429618393071,0.0569106586150825
1733698204546657000,11.391656982421875,-0.009731120419502257,-0.00435624984758906,0.2913610733941197
1733698204556611000,11.401611083984376,-0.021385902377963065,0.043091182036558165,0.49371758316755293
1733698204566566100,11.411566162109375,-0.024801263779401776,0.10245694218617864,0.5792416111961006
1733698204576520200,11.421520263671875,-0.03729015847444534,0.11585934413010254,0.5528402187436818
1733698204586475000,11.43147509765625,-0.018159926068782806,0.11219177979957312,0.43923736656978724
1733698204596429000,11.441428955078125,0.018973580539226532,0.10504157925136387,0.3032660307213664
1733698204606384400,11.45138427734375,0.034387422770261765,0.08307120978264138,0.18787220347747205
1733698204616338200,11.461338134765626,0.02954641247987747,0.09135159253771416,0.11923472058102488
1733698204626293200,11.471293212890625,0.019191607204079628,0.09852441590968519,0.08479103757888078
1733698204636247000,11.4812470703125,0.025818331867456433,0.07908687112051993,0.053786096853762864
1733698204646202000,11.4912021484375,0.054315527555346486,0.07799725838606246,0.03461187917590141
1733698204656156200,11.50115625,0.07915653882324696,0.06631271147700027,0.012010755789279936
1733698204666111200,11.511111328125,0.11705869171619415,0.039966455878457055,-0.027395810317248106
1733698204676065300,11.521065185546876,0.12727964147925377,-0.0031641996519640087,-0.07765665565431118
1733698204686020000,11.53102001953125,0.11223930873572825,-0.019458185718394815,-0.12395195836126803
1733698204695974100,11.54097412109375,0.07243278352618217,-0.041892793431691826,-0.20719547423720358
1733698204705929200,11.55092919921875,0.05773731869757175,-0.07505847412096336,-0.2894435493350029
1733698204715883300,11.56088330078125,0.04424655348360538,-0.07741977815851568,-0.34507352048978207
1733698204725838000,11.570838134765625,0.04057107984125614,-0.06859847519346512,-0.3467392617449164
1733698204735792000,11.580792236328126,0.027995675906538963,-0.04367087248750031,-0.275644156563282
1733698204745747200,11.590747314453125,0.028924481189250943,-0.002779511183314025,-0.17971987668201325
1733698204755701000,11.600700927734374,0.03218377524614334,0.012206616288097575,-0.057685588510334486
1733698204765656300,11.61065625,0.04265490037798881,0.024587584496103227,0.04194485241249203
1733698204775610000,11.620610107421875,0.03123860335052013,0.032384768577804784,0.10694529398083687
1733698204785565200,11.630565185546875,0.041570027750730515,0.02438726701787673,0.13514409124404192
1733698204795519200,11.640519287109376,0.02645955238044262,0.026372440352570265,0.1429777074791491
1733698204805474300,11.650474365234375,0.01533200916647911,0.03978683412838727,0.12269392112419009
1733698204815428400,11.660428466796875,0.01387888774871826,0.019023301432467995,0.11264540531858801
1733698204825383200,11.670383056640626,0.013555062621831893,0.006457204182213172,0.08483750706911086
1733698204835337200,11.680337158203125,0.01987199068367481,-0.03425559481782838,0.08350465103015303
1733698204845292000,11.6902919921875,0.03618775019049644,-0.06815903346342965,0.06308247911781072
1733698204855246000,11.70024609375,0.043131285718083376,-0.06054749901378527,0.0370076882712543
1733698204865201200,11.710201171875,0.026785131072998045,-0.01704569034972228,0.034145430707931516
1733698204875155200,11.7201552734375,0.03426759578287601,0.021788427897403016,0.013086129935830831
1733698204885110000,11.730110107421876,0.030155484288930893,0.06379312987150625,0.0061871642023324964
1733698204895065000,11.740065185546875,0.0185480486035347,0.0955614744508639,0.02824146736115217
1733698204905019400,11.750019287109374,0.019424831438064574,0.11877099379310384,0.03769581666588783
1733698204914974200,11.75997412109375,0.03579904313385487,0.14087563889967278,0.04811331191435456
1733698204924928300,11.76992822265625,0.05842880809307098,0.1112621342666447,0.04053118622228503
1733698204934883000,11.779883056640625,0.0771112967312336,0.07881017307098954,0.032043343862146134
1733698204944837000,11.789837158203126,0.08686521350443363,0.058269745073840015,0.03861994577348232
1733698204954792200,11.799792236328125,0.0648112026065588,0.04554591824491508,0.03668751640617847
1733698204964746200,11.809746337890624,0.050988428959250445,-0.02321864336361177,0.007634440401196479
1733698204974701000,11.819701171875,0.035813656181097026,-0.08919404004449025,-0.05515212450996041
1733698204984655000,11.829655029296875,0.045431963875889776,-0.13207244698004797,-0.1062137648358941
1733698204994610200,11.839610107421874,0.09627543140649795,-0.17882533899508415,-0.1354882285065949
1733698205004564200,11.849564208984376,0.16577274600267408,-0.12327182147684507,-0.10315028561204671
1733698205014519300,11.859519287109375,0.1657026033759117,-0.047312562591256574,-0.07213774610236287
1733698205024473000,11.86947314453125,0.1320055009573698,0.006025288171507418,-0.06238719033002853
1733698205034428200,11.87942822265625,0.057581251353025435,-0.007483515022648498,-0.10104381485208869
1733698205044382200,11.88938232421875,-0.0049514849275350565,-0.05138346529197879,-0.1903244189351797
1733698205054337300,11.899337158203124,0.016914309921860694,-0.11765947062093764,-0.2521335171163082
1733698205064291300,11.909291259765626,0.03951894043982029,-0.14824632293130272,-0.27620427466407416
1733698205074246100,11.91924609375,0.07061375140547752,-0.1471754879625514,-0.2175014719352126
1733698205084200200,11.9292001953125,0.04801087445318698,-0.099735444800416,-0.11434738693088292
1733698205094155000,11.939155029296876,-0.0016518588602542877,-0.05533946377560496,-0.001771831978112459
1733698205104109000,11.949109130859375,-0.029102760365605353,0.009416501512378453,0.07953428609445691
1733698205114064100,11.959064208984374,-0.03545475974082946,0.060041677516652264,0.13190788580179214
1733698205124018200,11.96901806640625,-0.029470424634218215,0.10079371254853904,0.1312527828939259
1733698205133973200,11.97897314453125,-0.01206336275935173,0.11297212565545924,0.1366115334481001
1733698205143927000,11.988927001953124,0.006036357554793357,0.11398137576323933,0.1419435421258211
1733698205153882400,11.99888232421875,0.012117723295092583,0.10356485776230692,0.14093144247382877
1733698205163836200,12.008836181640625,0.039616555595397944,0.07931609503282233,0.15354732454940676
1733698205173791200,12.018791259765624,0.01852700581550598,0.08570162221831269,0.15237053585499524
1733698205183745000,12.0287451171875,-0.011436755293607711,0.09555723666716366,0.16192571518570184
1733698205193700000,12.0387001953125,0.0100385789334774,0.11271844315533526,0.1534733825303614
1733698205203654100,12.048654052734374,-0.03018646394908428,0.1117624028058257,0.19868556617572902
