time,seconds_elapsed,z,y,x
1733699980802639400,0.022639404296875,0.008486088794469833,0.022643793484568596,-0.009774375039339065
1733699980812594400,0.032594482421875,0.013666706302762031,0.012044365797936916,-0.012552607581019401
1733699980822548500,0.042548583984375,0.0008528174370527267,0.0021881576940417286,0.004130231672525406
1733699980832503300,0.05250341796875,-0.02333236027061939,0.00441474770233035,0.023820436048507688
1733699980842457300,0.062457275390625,-0.018972996017336843,-0.0006473579928278923,0.015332593688368796
1733699980852412200,0.072412109375,-0.018234160348773003,0.004905307698249817,0.005641220757365227
1733699980862366200,0.0823662109375,-0.006508651241660118,-0.0006469196014106273,-0.007118307572603225
1733699980872321300,0.0923212890625,-0.011830138525366782,0.02449000587314367,-0.016098901885747908
1733699980882275300,0.102275390625,-0.011364859101176262,0.016549422132223844,-0.027018355306982992
1733699980892230400,0.11223046875,0.00876373669207096,0.010681260751187801,-0.01721300060749054
1733699980902184200,0.12218408203125,-0.013300795599818229,0.002044073048233986,-0.009354688322544097
1733699980912139500,0.132139404296875,-0.01777589518725872,-0.007263853523135185,0.00026829554736614226
1733699980922093300,0.14209326171875,-0.0127443307608366,-0.0011046002410352229,-0.01153612401485443
1733699980932048400,0.15204833984375,-0.004989478850364684,0.059836190672963856,-0.001025251394510269
1733699980942002200,0.162002197265625,0.008355740413069725,-0.017076076354831455,-0.058713470253348346
1733699980951957200,0.171957275390625,-0.0004366378515958786,-0.006503682805597781,0.04590542660653591
1733699980961911300,0.181911376953125,0.010826514440774917,-0.0032685002766549586,-0.0010088847815990446
1733699980971866400,0.191866455078125,0.036626726129651066,0.018946400271356106,-0.02728255920112133
1733699980981820400,0.2018203125,0.03659516194760799,-0.001344838737696409,-0.004151858982443809
1733699980991775200,0.211775146484375,0.03508417286276817,0.011769932770729064,0.011748305460810661
1733699981001729300,0.221729248046875,0.02935994999706745,0.0027387773141264913,-0.008165186277031899
1733699981011684400,0.231684326171875,0.012391279539465904,-0.011150924089550972,-0.01857318304479122
1733699981021638400,0.241638427734375,-0.029532968476414678,-0.008540303199738263,-0.005679799202084541
1733699981031593200,0.25159326171875,-0.06134323423504829,-0.008300064703077077,-0.00788929194509983
1733699981041547300,0.26154736328125,-0.04314063806831837,-0.012088058809190987,-0.017924363747239113
1733699981051502300,0.27150244140625,-0.05224398197829723,-0.0028738018706440925,-0.012818565040826797
1733699981061456100,0.2814560546875,-0.07020692417025566,-0.015075111795961856,-0.031495792981982226
1733699981071411500,0.291411376953125,-0.044508419290184974,0.0030475510023534294,-0.032302433189749714
1733699981081365200,0.301365234375,-0.04304360743463039,-0.004044160824269056,-0.02027472626566887
1733699981091320300,0.3113203125,-0.03920739027261734,-0.008521160107851028,-0.03115677028596401
1733699981101274400,0.3212744140625,-0.0269832839936018,-0.007815934447944164,-0.025310382345318794
1733699981111229400,0.3312294921875,-0.023172201272845267,0.006736176387220621,-0.01650982077419758
1733699981121183500,0.34118359375,-0.024330723658204077,0.010955255386978387,-0.010884966629743576
1733699981131138300,0.35113818359375,-0.029222002831101417,0.009007190059125423,-0.01783902355134487
1733699981141092400,0.36109228515625,-0.025550036320090293,0.011973346388339995,-0.02523380997776985
1733699981151047200,0.371047119140625,-0.02204875020086765,0.01020545993298292,-0.01938099229633808
1733699981161001200,0.381001220703125,-0.03953179992139339,0.002913987750560045,-0.011240940460562706
1733699981170956300,0.390956298828125,-0.02666471956372261,-0.003929886794835329,-0.011249123767018317
1733699981180910300,0.400910400390625,-0.021581132689118383,0.0099710666552186,-0.009635258829593658
1733699981190865200,0.410865234375,-0.01855973904132843,-0.00782367936298251,-0.009426584514975547
1733699981200819200,0.420819091796875,-0.0009983633875846863,0.0012190204009413718,0.00004442366361618042
1733699981210774500,0.4307744140625,-0.0011848258703947066,0.0030785306625068184,0.01516775851547718
1733699981220728300,0.440728271484375,0.005499181938171387,-0.013638649252057074,0.008632803788781165
1733699981230683400,0.450683349609375,0.020817747101187705,-0.0006382979035377502,-0.008521160107851028
1733699981240637200,0.46063720703125,0.030325580158829687,0.014828881949931382,-0.0046510406762361525
1733699981250592300,0.47059228515625,0.03577800034582615,0.002600976278632879,-0.02333236027061939
1733699981260546300,0.48054638671875,0.05951251167654991,-0.013716829054802655,-0.02418108605444431
1733699981270501400,0.49050146484375,0.12914017465412617,-0.0005146715238690376,-0.02898702503144741
1733699981280455400,0.500455322265625,0.18864391850233078,-0.0040280864723026754,-0.03139583973884583
1733699981290410200,0.51041015625,0.2458592591524124,0.0035591537863016126,-0.013583704194426536
1733699981300364300,0.5203642578125,0.3168342450857162,-0.05472907679229974,0.001869301003217697
1733699981310319000,0.530319091796875,0.3561100244194269,0.00808715260475874,-0.018839725026488303
1733699981320273400,0.5402734375,0.3781991066306829,0.05130991599857807,-0.057848377856612204
1733699981330228200,0.550228271484375,0.35542379572093485,0.012200287012010811,-0.12807868290245533
1733699981340183300,0.560183349609375,0.3960422218352556,-0.3240427151598036,-0.3034720746874809
1733699981350137300,0.570137451171875,0.39519466509521006,-0.6016453123144805,-0.3967699515879154
1733699981360092400,0.580092529296875,-0.08158347370922565,0.09669014968723058,0.32665421283245083
1733699981370046500,0.59004638671875,-0.23441782768368719,0.1815130437090993,0.4719230999886989
1733699981380001300,0.600001220703125,-0.18623685736060142,0.16220263243094085,0.321375980168581
1733699981389955300,0.609955322265625,-0.18658523240685462,0.17613719588965177,0.15963701972663402
1733699981399910100,0.61991015625,-0.20630407835543155,0.14188450541496275,-0.0076578212767839425
1733699981409864200,0.6298642578125,-0.26043665055930615,0.1186205342054367,-0.08253799795508385
1733699981419819300,0.6398193359375,-0.25998189252912995,0.0986021207883954,-0.07554302450120448
1733699981429773300,0.649773193359375,-0.24910218659639358,0.09194193224683403,-0.04658054938912391
1733699981439728400,0.659728271484375,-0.23646599238514898,0.07241919339224696,-0.0487029483705759
1733699981449682200,0.66968212890625,-0.2049596780091524,0.03417538745477795,-0.04422960234880447
1733699981459637500,0.679637451171875,-0.1656985117226839,-0.01303980657607317,0.0024187515795230864
1733699981469591300,0.68959130859375,-0.1432072784513235,-0.01879252488389611,0.044700142470002174
1733699981479546400,0.69954638671875,-0.062197805237770076,-0.023477467829734085,0.037061610415577886
1733699981489500200,0.709500244140625,0.007225859600305556,-0.018426175789535044,-0.009203881675004959
1733699981499455200,0.719455322265625,0.09745558110177516,-0.004032324256002902,-0.059006900241971014
1733699981509409300,0.7294091796875,0.1494733531087637,0.0062605216994881625,-0.035707857719063756
1733699981519364400,0.7393642578125,0.1791612198859453,0.014532675482332705,-0.011807342171669006
1733699981529318400,0.749318359375,0.19561083490550518,0.011833645656704903,-0.02664718390703201
1733699981539273200,0.759273193359375,0.1665185959339142,0.017502338942885397,-0.013002104914188383
1733699981549227300,0.769227294921875,0.12778583743572233,0.004968874453753233,-0.017217092260718346
1733699981559182300,0.779182373046875,0.0807926155924797,0.023663199660182,-0.03172492556273937
1733699981569136400,0.789136474609375,0.02874386392533779,0.01193900572732091,-0.028812837508320806
1733699981579091200,0.79909130859375,-0.004072364005446433,0.011931406942754984,-0.016332710641622544
1733699981589045200,0.809045166015625,-0.05571838009059429,0.005641951409727335,0.008524082717299462
1733699981599000300,0.819000244140625,-0.06641337710618972,-0.013939385764300823,0.01425707341134548
1733699981608954000,0.8289541015625,-0.07021218486726284,-0.015345014778524636,0.019282208096981047
1733699981618909400,0.838909423828125,-0.06709726771712303,-0.025859686791151762,0.032094343397021295
1733699981628863200,0.84886328125,-0.07994213624298573,-0.02052431711256504,0.020971476358175277
1733699981638818300,0.858818359375,-0.05677402662336826,-0.021739976512640712,0.017674188378453255
1733699981648772400,0.8687724609375,-0.02309796699285507,0.008601093476265668,-0.00386427421271801
1733699981658727400,0.8787275390625,-0.0017775310665369033,0.010025719451904296,-0.010653495961427688
1733699981668681500,0.888681396484375,0.025303368082642552,0.019891864427924157,-0.02751636795699596
1733699981678636300,0.89863623046875,0.03534779223501682,0.021418489473313092,-0.053773675763607025
1733699981688590300,0.90859033203125,0.03682429452836513,0.013947569070756435,-0.0365296954959631
1733699981698545200,0.918545166015625,0.042046997612714763,0.014510025259107351,-0.024375147321820258
1733699981708499200,0.928499267578125,0.032307693886756896,0.0037631519258022306,-0.01691197183430195
1733699981718454300,0.938454345703125,0.025561726757884023,-0.0010495090529322624,-0.014122633376717566
1733699981728408300,0.948408203125,0.05549743081629276,0.003370353215932846,-0.031547815430164335
1733699981738363400,0.95836328125,0.03526245203912258,0.010909954940527676,-0.019259996265172958
1733699981748317200,0.968317138671875,0.038547465059161186,0.006112783791869879,-0.006079027652740478
1733699981758272500,0.9782724609375,0.037241058635711664,0.007498246800899505,0.007753682866692543
1733699981768226300,0.988226318359375,0.03331950127780437,0.007749445082992315,0.015199907219409942
1733699981778181400,0.998181396484375,0.02050385884642601,-0.0031795068189501762,-0.007528057417273521
1733699981788135200,1.00813525390625,0.019816461104154585,0.0030555881783366204,-0.012155132696032524
1733699981798090200,1.01809033203125,0.015224457138776779,0.01575081910043955,0.008349895194172858
1733699981808044300,1.028044189453125,0.015357143607735633,0.007113777527958155,-0.0063958385169506065
1733699981817999600,1.03799951171875,0.006176058286428451,0.01574117448925972,-0.007207154899835586
1733699981827954700,1.04795458984375,0.01651449694931507,0.013661883997172117,-0.0033346973806619644
1733699981837908700,1.05790869140625,0.022370237240195275,0.025258213766664265,-0.0022831425011157988
1733699981847863600,1.067863525390625,0.03502279806435108,0.02696311798840761,0.000029226094484329223
1733699981857817600,1.077817626953125,0.013836802172660827,0.008160363971441984,0.0006312836408615112
1733699981867773000,1.08777294921875,0.025106384205818174,0.01577668419405818,0.010178864187002182
1733699981877726700,1.097726806640625,0.0114198041588068,0.010810878480225801,0.005799041667580604
1733699981887681800,1.107681884765625,0.03218319072425365,0.03442775478065014,-0.003935585883259773
1733699981897635600,1.117635498046875,0.06025660804212093,0.04645619235709309,-0.017373159605264664
1733699981907590700,1.127590576171875,0.09588672434985637,0.021502952886372804,-0.027671850779652594
1733699981917544700,1.137544677734375,0.14051087897419928,-0.02341989242359996,-0.05368190582692623
1733699981927499800,1.147499755859375,0.162326404941082,-0.024374562799930572,-0.10197451983094215
1733699981937453800,1.157453857421875,0.26681027724444867,-0.013320669344067573,-0.05856324812769889
1733699981947408600,1.16740869140625,0.23154665616154668,-0.00818316032513976,0.0023357494711875914
1733699981957362700,1.17736279296875,0.11494915221631526,0.009434329430013894,-0.017665420550107953
1733699981967317800,1.18731787109375,0.06853694513142108,0.0452174443423748,0.020502689802646634
1733699981977271800,1.197271728515625,-0.011119359907507896,0.019620354010164737,0.1192132394015789
1733699981987226600,1.2072265625,-0.11882570138871669,-0.025299130298942325,0.13313070559501647
1733699981997180700,1.2171806640625,-0.18577683863341807,-0.07917670482844114,0.0557353312253952
1733699982007135700,1.2271357421875,-0.1696066250771284,-0.07997121620699763,0.015385785180330276
1733699982017089500,1.237089599609375,-0.17579671188890933,-0.07555500719994306,-0.033086277043819425
1733699982027044900,1.247044921875,-0.10469079305231571,-0.06495631016567349,-0.062083238947391504
1733699982036998700,1.25699853515625,-0.049876083803176874,-0.04072480909824371,-0.06126257021427154
1733699982046953700,1.26695361328125,0.0009463409394025802,0.01450286486595869,-0.01808569178879261
1733699982056907800,1.27690771484375,0.001233341187238693,-0.0281518893815577,-0.04044599215686321
1733699982066862800,1.28686279296875,0.01584580390751362,-0.015973668070882557,-0.013745616757869719
1733699982076817000,1.29681689453125,0.004467500802874565,0.006463204664736986,-0.024303251129388807
1733699982086771700,1.306771728515625,0.027170330998301503,0.04065101320967078,0.005458265405893325
1733699982096725800,1.316725830078125,0.03455401150882244,0.08136661608815193,0.019137831190228462
1733699982106680600,1.3266806640625,0.04946282682716846,0.040003509086370466,-0.08625029647648334
1733699982116634600,1.336634521484375,0.05741933878958225,0.05881795354112982,-0.04824409868717194
1733699982126589700,1.346589599609375,0.042214755395054815,0.04274944679364562,-0.03904138605594635
1733699982136543700,1.356543701171875,0.010929974815249443,0.044327655895799394,-0.04740121812224388
1733699982146498600,1.36649853515625,-0.04527297392189503,0.03811725694835186,-0.05119067353308201
1733699982156452600,1.37645263671875,-0.08997954613268375,0.02001212980672717,-0.03944353711605072
1733699982166408000,1.386407958984375,-0.10531097077727317,-0.011308891130238771,0.021775778478384016
1733699982176361700,1.39636181640625,-0.0624801293104887,-0.03540156824886798,0.04707037873268127
1733699982186316800,1.40631689453125,-0.020389292556047437,-0.05460355071648955,0.03196574858129024
1733699982196270600,1.4162705078125,0.010828268006443978,-0.031940760270506144,0.027682372173666953
1733699982206225700,1.4262255859375,0.021000117930769918,-0.03171864195242524,-0.026669395738840102
1733699982216179700,1.4361796875,0.015126257461309432,-0.011999065351486206,-0.01645604476034641
1733699982226134800,1.446134765625,-0.045675124981999396,0.0020110475614666936,-0.006320435193181037
1733699982236088800,1.4560888671875,-0.06689268505573272,-0.00013005612045526504,-0.02239478715956211
1733699982246043600,1.466043701171875,-0.07871814740598201,-0.00094721772223711,-0.01020633671581745
1733699982255997700,1.475997802734375,-0.05688508578240871,0.00826733147725463,-0.016571195572614668
1733699982265952800,1.485952880859375,-0.02783843951821327,0.011907733806222677,-0.036709143716096876
1733699982275906800,1.49590673828125,0.002978139027953148,0.013475275383889674,-0.006477671581506729
1733699982285861600,1.505861572265625,0.017109540233016012,0.01148819321990013,0.016871639823913574
1733699982295815700,1.515815673828125,0.018229484173655507,0.010275310298800468,0.024966098952293396
1733699982305770800,1.525770751953125,0.04622340651452541,0.007229366731643676,-0.00956628524661064
1733699982315724500,1.535724609375,0.03728372873365879,-0.0026907003886997697,-0.02127893487215042
1733699982325679900,1.545679931640625,0.026492285606265067,0.020999825669825077,-0.0006757073044776916
1733699982335634700,1.555634765625,0.046209377989172934,0.0021586393386125564,0.008161094623804092
1733699982345588700,1.565588623046875,0.0660837067604065,0.008752923037111759,-0.00341068522632122
1733699982355543600,1.57554345703125,0.10165361731350421,0.017116846756637095,-0.01026478890478611
1733699982365497900,1.585497802734375,0.11867547926306724,0.029940964755415914,-0.025723054799437522
1733699982375452700,1.59545263671875,0.09343290145695209,0.02323459898456931,-0.04466624020040035
1733699982385406700,1.60540673828125,0.1043120228677988,-0.0007758066780865192,-0.05305705192685127
1733699982395361500,1.615361572265625,0.09428104271888732,0.005742635305225849,-0.0031938276052474973
1733699982405315600,1.625315673828125,0.08744505921900272,-0.0010727437980473042,-0.027272622328996656
1733699982415271000,1.63527099609375,0.05432487990558147,-0.017260785271972418,-0.032846038547158236
1733699982425224700,1.645224609375,0.033765491479635236,-0.012769465202093124,-0.055547699698805804
1733699982435179800,1.6551796875,-0.006315759018063545,-0.03433817680105567,-0.07420271580815314
1733699982445133600,1.665133544921875,-0.018197335469722745,-0.04785670680478215,-0.08016250099539757
1733699982455088600,1.675088623046875,-0.02047638631761074,-0.06572919423431157,-0.05256079284250736
1733699982465043000,1.68504296875,-0.05006722246110439,-0.024814269391447305,-0.03626607612371444
1733699982474997800,1.694997802734375,-0.0179641112357378,0.003914396964758635,-0.004490297156572342
1733699982484951800,1.704951904296875,0.00008241758644580841,0.02391103694140911,0.045479310148954386
1733699982494906600,1.71490673828125,0.06472352432310581,-0.011555120976269245,0.0872755478709936
1733699982504860700,1.724860595703125,0.07162205166518688,-0.01577156962752342,0.11544950295388698
1733699982514815700,1.734815673828125,0.09576163666546345,0.004647679675370455,0.12043196754157542
1733699982524769800,1.744769775390625,0.06694061585068703,0.0018919512264430522,0.10755495031177997
1733699982534724600,1.754724609375,0.009218494722247124,0.008898761248588561,0.06161679047942161
1733699982544678700,1.7646787109375,-0.05168108739852905,0.012638386168330906,0.021740707165002822
1733699982554633700,1.7746337890625,-0.10420271727442741,0.0077111588992178435,-0.038872459229826926
1733699982564587800,1.784587890625,-0.11502280197441578,0.0015539514437317846,-0.06708674632310867
1733699982574542800,1.79454296875,-0.1519996567159891,-0.019500527022778987,-0.07913315794765949
1733699982584496600,1.80449658203125,-0.1566618033081293,-0.019960107358545063,-0.06352876158058643
1733699982594451700,1.81445166015625,-0.15375439142882824,-0.00574541178420186,-0.026359599137306212
1733699982604405800,1.82440576171875,-0.10005787255465984,-0.0002620119370520115,0.029635844328999517
1733699982614360800,1.83436083984375,-0.05577975488901138,0.0013904314450919628,0.02397474982738495
1733699982624315000,1.84431494140625,0.0022638532787561416,0.03698445352613926,-0.017059855872392653
1733699982634269700,1.854269775390625,0.06826923410594463,0.03329436683654785,-0.04929214643537998
1733699982644223700,1.8642236328125,0.13132044130265713,0.015845511646568774,-0.009760346513986587
1733699982654178600,1.874178466796875,0.12976385951042174,0.012664689653366803,0.0037789340168237684
1733699982664132900,1.8841328125,0.13906535634100436,-0.014667553908377885,-0.024810031607747078
1733699982674087700,1.894087646484375,0.0777472565472126,-0.00001125204637646675,-0.01774491552710533
1733699982684041700,1.904041748046875,0.021536709025502202,0.017796937975287436,-0.04679974509775638
1733699982693996500,1.91399658203125,-0.034140754532814024,-0.018262655790895223,-0.059760933479666704
1733699982703950600,1.92395068359375,-0.1025298156261444,-0.02305003619790077,0.007841945672035217
1733699982713906000,1.933906005859375,-0.14928864419162272,-0.020741174733638762,0.014676175606250763
1733699982723859700,1.943859619140625,-0.14404606736302375,-0.014834727168828249,0.01748188067674637
1733699982733814800,1.953814697265625,-0.1430062029212713,-0.014924889670312403,-0.013231237494945525
1733699982743768600,1.9637685546875,-0.09354688322544097,-0.015641951898485423,-0.027412323060631752
1733699982753723600,1.9737236328125,-0.016197101563215254,-0.05972936929762363,-0.07087970886528491
1733699982763678000,1.983677978515625,0.07032558211386203,-0.1662384638182819,-0.10570552305281161
1733699982773632800,1.9936328125,0.11894611289799213,-0.293447524279356,-0.17283786208331584
1733699982783586800,2.0035869140625,0.11681728417575359,-0.1553439987078309,-0.02088672068417072
1733699982793541600,2.013541748046875,0.025428455767035483,-0.007995674929022789,0.13308335932195187
1733699982803495700,2.02349560546875,0.07203998481631278,-0.05865428741201758,0.026471827340126035
1733699982813450800,2.03345068359375,0.05896656823158264,-0.020463380705565214,-0.03722995271980762
1733699982823404800,2.04340478515625,0.01115793835222721,0.057079293180257076,-0.03418634724020958
1733699982833359600,2.053359619140625,0.0009264671951532363,0.03636281449645758,-0.03309855200350285
1733699982843314700,2.063314697265625,-0.027072715842723846,0.08142156114578247,0.00827449187040329
1733699982853268700,2.073268798828125,-0.05850830307006836,0.1143147998355329,0.012926701590418815
1733699982863223800,2.083223876953125,-0.06535246987640857,0.10859320731833577,0.00011982698738574981
1733699982873177900,2.093177734375,-0.08289104917645454,0.10152166149690747,-0.022677695754170415
1733699982883132700,2.103132568359375,-0.057853054031729696,0.04715718023329973,-0.051180152139067646
1733699982893086700,2.113086669921875,-0.02062368583381176,0.04524593978449702,-0.018208441385626793
1733699982903041500,2.12304150390625,0.012521043398976325,0.06173150290027261,0.012245149067044258
1733699982912995600,2.13299560546875,0.033680151283740994,0.018775135357677934,0.008388473638892174
1733699982922950700,2.14295068359375,0.09170154761970042,-0.02956497104987502,-0.04927344173491001
1733699982932904700,2.15290478515625,0.10036065489351749,-0.05623524357154965,-0.08891922342479229
1733699982942859800,2.16285986328125,0.06317571035921574,-0.025679800179600715,-0.028047113832831382
1733699982952813600,2.1728134765625,0.023106150299310683,0.015553396832197903,0.029385084438323973
1733699982962769000,2.182768798828125,0.031984453281760215,0.11965630699396133,0.08930150074064731
1733699982972722700,2.19272265625,0.037649054914712904,0.24547405922710894,0.07449088509976863
1733699982982677800,2.202677734375,0.14581424607932567,0.03405366077125072,-0.050447746211290355
1733699982992631600,2.212631591796875,0.2335112342327833,0.07400397836565971,0.03339490460157394
1733699983002586600,2.222586669921875,0.20676643517017362,0.03517491988614201,-0.044050738650560375
1733699983012540700,2.232540771484375,0.17394377749860285,-0.0016138649374246596,-0.043237668702006335
1733699983022495700,2.242495849609375,0.07406418412029743,0.005159282459318637,0.0018517653465270996
1733699983032449800,2.25244970703125,-0.03386427567899227,0.0028211949005723,0.005869768816232681
1733699983042404600,2.262404541015625,-0.144562200191617,0.0033069325909018516,-0.028511808735132215
1733699983052358700,2.272358642578125,-0.20801965010166168,0.011709727016091347,-0.08745441156923771
1733699983062313700,2.282313720703125,-0.23513854317367075,-0.007032967376708984,-0.08345569732189179
1733699983072267800,2.292267822265625,-0.2319166585177183,-0.004141922110319138,-0.016987959679961202
1733699983082222600,2.30222265625,-0.2085457198023796,-0.0278251416452229,0.022307108876109122
1733699983092176600,2.3121767578125,-0.11139993530213832,-0.018186375684291125,0.024567455023527144
1733699983102131700,2.322131591796875,-0.04566518810987472,0.0048734512552618976,0.013436404678225516
1733699983112085500,2.33208544921875,0.004090484184026718,0.006555266862362623,-0.011762333986163139
1733699983122040800,2.342040771484375,0.02860007154047489,-0.0014792787723243235,-0.0016530279040336607
1733699983131994600,2.35199462890625,0.039143092864751816,0.006711334206908941,-0.009936872124671935
1733699983141949700,2.36194970703125,0.04552198024690151,0.008214286115765572,-0.018238836523890495
1733699983151903700,2.37190380859375,0.045405075868964195,0.005686959595233201,-0.020158406409621236
1733699983161858800,2.38185888671875,0.04279869276285171,-0.0022638532787561416,-0.014783727633953093
1733699983171812900,2.391812744140625,0.04683598545491695,0.000684621263295412,-0.003617605975270271
1733699983181767700,2.401767578125,0.039673254218697544,0.011648644478619097,-0.005063713130354881
1733699983191721700,2.4117216796875,0.031357845816016194,0.003784486974775791,-0.004925765964388847
1733699983201676500,2.421676513671875,0.0012713351100683212,-0.0045909810520708555,-0.031252047353982924
1733699983211630600,2.431630615234375,-0.026112346377968786,0.008674450973421335,-0.05639584096074104
1733699983221585700,2.441585693359375,-0.0321025267034769,0.0030208091259002682,-0.042649639680981635
1733699983231539700,2.451539794921875,-0.040377018573880194,0.0030953356668353077,-0.0021931261301040648
1733699983241494500,2.46149462890625,-0.011781038686633109,-0.026099925287812947,0.00511339749097824
1733699983251448600,2.471448486328125,0.06166296770870685,-0.013189298049360513,-0.019714169773459432
1733699983261403600,2.481403564453125,0.08107669323086739,0.0020171850413084028,-0.047211833029985426
1733699983271357700,2.491357666015625,0.10193652590811252,0.016549422132223844,-0.053850248131155964
1733699983281312800,2.501312744140625,0.11607084972262381,0.029637597894668577,-0.06920914530456065
1733699983291266600,2.5112666015625,0.10561842929124832,0.004042845650017261,-0.08946049069464206
1733699983301221600,2.5212216796875,0.1110305174678564,0.015308628290891647,-0.02391103694140911
1733699983311175700,2.53117578125,0.05303484009504318,0.06347805430665612,0.021503975799679755
1733699983321130800,2.541130859375,0.06875555631816387,0.05723243791535496,0.06535773057341575
1733699983331084800,2.551084716796875,0.027476035946607587,0.038704116925597186,0.07787585136294364
1733699983341039600,2.56103955078125,0.03163841632306576,0.03417962523847818,0.0543804094851017
1733699983350993700,2.57099365234375,0.05775017817914486,0.0044803602844476695,0.009542904371023177
1733699983360948500,2.580948486328125,0.06078384678661823,0.0025094986028969288,-0.006191840377449989
1733699983370903800,2.59090380859375,0.07770575549304484,0.008202157286554575,-0.0414484471976757
1733699983380857600,2.600857666015625,0.04791092121005058,0.016924246793985367,-0.047450902482867235
1733699983390812700,2.610812744140625,0.012104863813519478,0.02013984783962369,-0.007464344531297683
1733699983400766700,2.6207666015625,-0.011075520765781402,0.011920008765906095,0.037546763584017755
1733699983410721800,2.6307216796875,-0.04565349767208099,-0.014239976146072149,0.028549218136072158
1733699983420675800,2.64067578125,-0.06070435180962085,-0.007140957795828581,-0.004425999748706817
1733699983430630700,2.650630615234375,-0.0645452451467514,-0.03912263459861278,-0.005379354950785636
1733699983440584700,2.660584716796875,-0.040809564772248265,-0.018729250389337537,0.021067922469973563
1733699983450539500,2.67053955078125,-0.002025368347764015,-0.026098902374505996,0.016883330261707304
1733699983460493600,2.68049365234375,-0.00999590883553028,-0.02722586057782173,0.01063245317339897
1733699983470448600,2.69044873046875,-0.011698036578297615,-0.0024557225890457627,-0.012039981883764267
1733699983480402700,2.700402587890625,-0.01104337206184864,-0.0053543666400015354,-0.05550736768841743
1733699983490357800,2.710357666015625,-0.046561260166764255,0.01378477972447872,-0.0450169533342123
1733699983500311600,2.7203115234375,-0.09399345794916153,0.009307488179951905,-0.02414192308783531
1733699983510267000,2.730266845703125,-0.13181962299644948,0.008951514349132775,-0.023832711008191107
1733699983520220700,2.740220703125,-0.1264683250963688,0.012794745773822069,-0.03158580935299396
1733699983530175700,2.75017578125,-0.08865385048687457,0.011357114186137914,-0.03509294069111347
1733699983540129500,2.760129638671875,-0.055629532763361925,0.010297814391553401,-0.04130231672525406
1733699983550084600,2.770084716796875,-0.025989596781134605,0.0005804302364587784,-0.04190905044674873
1733699983560038700,2.78003857421875,0.03768237266242504,0.0021576164253056048,-0.006916647520661354
1733699983569993700,2.78999365234375,0.07531389192044735,-0.01744213318824768,0.003747369834780693
1733699983579947800,2.79994775390625,0.10443711055219172,0.004655570720881223,0.0035205753415822982
1733699983589902600,2.809902587890625,0.10941782157421111,0.004621668451279402,0.01097322943508625
1733699983599856600,2.819856689453125,0.08637421511709689,0.013183306699991225,0.008975333616137504
1733699983609811700,2.829811767578125,0.06391454602777957,0.004924012398719787,-0.018675474375486372
1733699983619765800,2.839765869140625,0.024644027391076087,0.007311930448561907,-0.02633797182738781
1733699983629720600,2.849720458984375,-0.005655833804607391,0.0032462884448468685,-0.041374797439575194
1733699983639674600,2.859674560546875,-0.06087269411385059,-0.009905161812156438,-0.043049452653527255
1733699983649629700,2.869629638671875,-0.0628372721850872,-0.0205881761290133,-0.00973930372595787
1733699983659583500,2.87958349609375,-0.08375204991996288,-0.017748130397498608,0.0028431144714355467
1733699983669538800,2.889538818359375,-0.0691419252872467,-0.027176760739088056,0.024919921723008154
1733699983679492600,2.89949267578125,-0.04733458262681961,-0.032708968164026735,0.05638239695727825
1733699983689447700,2.90944775390625,-0.03181318836808204,-0.018334844244271516,0.04613514370918274
1733699983699401700,2.919401611328125,0.01063596030473709,-0.009749825119972228,0.011949965512752533
1733699983709356800,2.929356689453125,0.011430325552821159,-0.012040712536126374,-0.022345687320828436
1733699983719310800,2.939310791015625,0.03967208517491817,0.016768033318966626,-0.03702478553652763
1733699983729265700,2.949265625,0.054659226426482195,-0.00006327449455857277,-0.05262392120659351
1733699983739219700,2.9592197265625,0.047771220478415484,0.019327946934849023,-0.06172726511657237
1733699983749174500,2.969174560546875,0.04515022432506084,0.03623728842064738,-0.05635317086279392
1733699983759128600,2.979128662109375,0.04286591278016567,0.035048078636080025,-0.05460018971562385
1733699983769083600,2.989083740234375,0.01713584371805191,0.033539719899743796,-0.043185061731934545
1733699983779037700,2.99903759765625,-0.02833937477767467,0.016304361329972743,-0.007292495095729827
1733699983788992800,3.00899267578125,-0.053417117410898204,-0.00006093640699982643,0.005230301868915557
1733699983798946600,3.018946533203125,-0.04347556911110878,-0.01905789782181382,-0.003231821528077125
1733699983808902000,3.02890185546875,-0.0573474425971508,-0.020943127046525477,0.00006488192975521087
1733699983818855700,3.038855712890625,-0.05929273144602775,-0.009248013077676295,0.0009346505016088485
1733699983828810800,3.048810791015625,-0.03293897752761841,-0.011914748068898915,-0.009520692539215087
1733699983838764500,3.0587646484375,-0.03238894242942333,-0.005364741903543472,-0.0031663550764322278
1733699983848719600,3.0687197265625,-0.05853285298943519,0.020155483800172805,0.016916063487529755
1733699983858673700,3.078673583984375,-0.029797172370553016,0.0015105506934225557,0.007020692417025565
1733699983868628700,3.088628662109375,-0.046808512926101685,0.004498480463027954,0.010428455033898353
1733699983878582800,3.098582763671875,-0.038977088648080825,0.00040448914766311644,-0.01034019222855568
1733699983888537600,3.10853759765625,-0.03362286813855171,-0.00009673837274312972,-0.03219371211826801
1733699983898492700,3.11849267578125,-0.018185645031929015,0.006034019467234611,-0.01765431463420391
1733699983908446700,3.12844677734375,-0.019214403557777402,0.01982026049643755,-0.03976327058970928
1733699983918401800,3.13840185546875,-0.024553426498174664,0.03211874718591571,-0.037056934240460394
1733699983928355600,3.14835546875,-0.026091888111829758,0.019582798478752373,-0.044538814428448675
1733699983938310700,3.158310546875,-0.0530336710512638,0.01710281823128462,-0.04006780649423599
1733699983948264700,3.1682646484375,-0.05624444979131221,-0.0015168343037366865,-0.035929391515254976
1733699983958219800,3.1782197265625,-0.013489596170186996,0.006802373491227627,-0.02632277425825596
1733699983968173800,3.188173828125,-0.003121346890926361,-0.011537146928161383,-0.01100245552957058
1733699983978128600,3.198128662109375,0.022163316491246223,-0.02443111529275775,-0.002065115836262703
1733699983988082700,3.208082763671875,0.0774205088108778,-0.00787161015793681,-0.005960369709134101
1733699983998037500,3.21803759765625,0.09178805685937404,0.0018884440951049326,-0.003084522011876106
1733699984007991800,3.22799169921875,0.1117845507055521,0.016930384273827075,-0.030163667595386502
1733699984017946600,3.237946533203125,0.09183715669810771,0.027416122452914714,-0.048804070657491684
1733699984027900700,3.247900634765625,0.060707274419069285,0.02447378539070487,-0.028917466926574705
1733699984037855700,3.257855712890625,0.04838321489691734,0.015977321332693098,-0.018019640815258024
1733699984047809500,3.2678095703125,0.024758593681454655,0.011868716970086096,-0.012898060017824172
1733699984057764900,3.277764892578125,0.012643792995810508,0.005995879413932562,0.009715922850370406
1733699984067718700,3.28771875,0.014670330387353896,-0.005867284598201513,0.006653612670302391
1733699984077673700,3.297673828125,0.025246669459342955,0.008252572299540042,-0.0022486557096242903
1733699984087627800,3.307627685546875,0.009564531680941582,0.006451075835525989,-0.010387538501620292
1733699984097582600,3.31758251953125,0.011740122154355048,0.007126052487641573,-0.02568213826715946
1733699984107537000,3.327536865234375,0.012592939591407774,0.007883592856675385,-0.024513094487786293
1733699984117491700,3.33749169921875,0.004138999500870704,-0.005520078595727682,-0.015277648630738258
1733699984127445800,3.34744580078125,0.007473696881532668,0.011849720008671284,-0.008934417083859444
1733699984137400600,3.357400634765625,0.00874152486026287,0.006609042876213789,-0.006457213315367698
1733699984147354600,3.367354736328125,0.007937807261943817,0.02466565470099449,-0.014592004454135894
1733699984157309700,3.377309814453125,0.005906593695282936,0.016752835749834775,-0.02602934426963329
1733699984167263700,3.387263671875,0.006670563805103302,0.01824190526381135,-0.02191898634135723
1733699984177218600,3.397218505859375,0.01115618478655815,0.004023994819074869,-0.03877893572747707
1733699984187172600,3.407172607421875,-0.0040080665975809095,0.004477876066416502,-0.03274842339158058
1733699984197127700,3.417127685546875,-0.005547697255015373,0.007973316966742276,-0.022254501906037328
1733699984207081700,3.427081787109375,0.003321837899088859,-0.005676145940274,-0.025910686326026916
1733699984217036800,3.437036865234375,-0.020237901386618615,0.00021086627170443533,-0.023999299746751784
1733699984226990600,3.446990478515625,-0.025239655196666717,0.0006762918263673782,-0.0153629888266325
1733699984236945700,3.456945556640625,-0.03275368408858776,-0.007671703671663999,-0.026591654327511784
1733699984246899700,3.466899658203125,-0.024861469534039497,-0.02769274743720889,-0.025500351959466934
1733699984256854800,3.476854736328125,-0.03818681505322456,-0.015179448953270912,-0.0014560440272092818
1733699984266808800,3.486808837890625,-0.03266717484891415,-0.018447656968981027,0.006965747359395026
1733699984276763600,3.496763671875,-0.02640110019147396,-0.015802987679094074,-0.0072153382062911985
1733699984286717700,3.5067177734375,-0.03172843269407749,-0.0037418168768286702,-0.008928571864962577
1733699984296672500,3.516672607421875,-0.004048983129858971,0.003193681474775076,-0.01639466996192932
1733699984306626800,3.526626708984375,-0.009841595056653022,-0.003950929582864046,-0.012138766083121299
1733699984316581600,3.53658154296875,0.007244564300775528,0.005522708944231272,-0.028406010273098945
1733699984326535700,3.54653564453125,0.029649872854351996,-0.00150470547452569,-0.0261900877892971
1733699984336490800,3.55649072265625,0.013904022189974784,0.014011720348149537,-0.014859130957722663
1733699984346444500,3.566444580078125,0.01701952386200428,0.018668313982337714,-0.0017576573222875594
1733699984356399900,3.57639990234375,0.03021218291223049,0.017293518497794865,-0.025697920358180998
1733699984366353700,3.586353759765625,0.04382803581058979,0.01153700079768896,-0.05907587382495403
1733699984376308700,3.596308837890625,0.04461655583977699,0.02424465280994773,-0.04657645773589611
1733699984386262500,3.606262451171875,0.030074235746264454,0.008008826671540736,-0.025753449937701223
1733699984396217600,3.616217529296875,0.03261456787884235,-0.0021172844149172304,-0.016640169155597687
1733699984406172700,3.626172607421875,0.028885318222641943,-0.010111936430633068,0.007556114467978477
1733699984416126700,3.636126708984375,0.012312369084358215,-0.011073913330584764,0.029618893194198605
1733699984426081500,3.64608154296875,0.0019219079732894896,-0.006375234120339155,0.02028115600645542
1733699984436035600,3.65603564453125,-0.007760697129368782,0.0006184241592884064,0.0029331308424472807
1733699984445990700,3.66599072265625,-0.01227554420530796,0.010207651890069246,-0.019864976420998572
1733699984455944700,3.67594482421875,-0.021224574336409566,0.011489362263679503,-0.019831658673286436
1733699984465899800,3.685899658203125,-0.026765841850638388,0.00829772661551833,-0.024298574954271315
1733699984475853600,3.695853515625,-0.026944121026992795,0.0067253627322614185,-0.01810264292359352
1733699984485808600,3.70580859375,-0.03699497492015361,0.013577420584112406,-0.017734394133090973
1733699984495762700,3.7157626953125,-0.025758710634708405,0.012774872029572724,-0.016409867531061172
1733699984505717800,3.7257177734375,-0.02368190436065197,0.023739187505841253,-0.03542378008067608
1733699984515671800,3.735671875,-0.013022563180327415,0.01601034681946039,-0.0326385332763195
1733699984525626600,3.745626708984375,0.007236965516209602,0.00818579067364335,-0.016648352462053297
1733699984535580700,3.75558056640625,0.010375263541936873,0.005570347478240728,-0.013563830450177191
1733699984545535500,3.765535400390625,0.013484919995069502,0.0073988780796527855,-0.021754151168465612
1733699984555489800,3.77548974609375,0.0061836570709943766,0.007402385210990905,-0.0264560452491045
1733699984565444600,3.785444580078125,-0.0004319616764783859,0.014176993912458418,-0.029872575694322584
1733699984575398700,3.795398681640625,-0.000030979660153388974,-0.0014877543397247791,-0.011954641687870025
1733699984585353700,3.805353759765625,0.0013368015617132186,0.008535773155093192,-0.006252046132087707
1733699984595307500,3.8153076171875,-0.01401274326145649,0.00014627660289406777,-0.005884966385364532
1733699984605262800,3.825262939453125,0.012178513571619986,-0.005751841524988413,-0.008564999249577522
1733699984615216600,3.835216552734375,-0.0011497545570135115,-0.001756196017563343,-0.01409457632601261
1733699984625171700,3.845171630859375,0.011689268749952316,0.006667202804237604,-0.02100654767155647
1733699984635125800,3.855125732421875,0.008440496087074279,0.0068450435891747475,-0.006308160233497619
1733699984645080600,3.86508056640625,0.019665654456615448,0.008019348065555095,-0.016523849299550055
1733699984655035000,3.875034912109375,0.02094341930747032,0.0011687515184283257,-0.016326865422725677
1733699984664989700,3.88498974609375,0.021899112597107886,0.006082973175495863,-0.009998831444978713
1733699984674943700,3.89494384765625,0.021944120782613753,0.006590338175743818,0.0017027122646570204
1733699984684898600,3.904898681640625,0.029476854375004767,0.000701134006679058,-0.003480243331193924
1733699984694852600,3.9148525390625,0.0047702831417322155,-0.0020730068817734716,-0.003514145600795746
1733699984704807700,3.9248076171875,0.01474339562356472,0.003321545638144016,-0.009133739048242568
1733699984714761700,3.93476171875,0.0037660745352506636,0.014045038095861672,-0.03690671211481094
1733699984724716500,3.944716552734375,0.009161211577057838,0.007580810517817735,-0.025548282754421232
1733699984734670600,3.954670654296875,-0.0010953940212726592,0.01720686312764883,-0.03280570653676986
1733699984744625700,3.964625732421875,0.006714987468719482,0.015247545753419398,-0.01317395434975624
1733699984754579700,3.974579833984375,0.0017769465446472166,0.009248889860510826,-0.01211480068564415
1733699984764534800,3.98453466796875,-0.017052841609716415,0.001992488991469145,-0.022671266013383862
1733699984774488600,3.994488525390625,-0.013060557103157042,0.015012275692820548,-0.0023076924204826353
1733699984784443600,4.004443603515625,-0.012803951993584632,0.00150470547452569,0.007431611305475235
1733699984794397700,4.014397705078125,-0.00022387188374996183,-0.00033989947885274885,-0.008418284255266188
1733699984804352800,4.024352783203125,0.007648468926548958,-0.007251432432979345,-0.006518588113784789
1733699984814306800,4.034306884765625,0.00518704724907875,-0.0021915186949074267,-0.011077274331450462
1733699984824262000,4.044261962890625,0.01986146928966045,-0.0004556348130106926,-0.01660860497355461
1733699984834216000,4.0542158203125,0.01933481506705284,0.004152589634805918,0.010347791013121605
1733699984844170800,4.064170654296875,0.032279052314162254,0.0011878946103155612,-0.015405074402689933
1733699984854124800,4.074124755859375,0.04264320994019508,0.007905950818955898,-0.013776011896133422
1733699984864080000,4.084079833984375,0.02613923438489437,0.010429770208150148,-0.008758475995063781
1733699984874034000,4.094033935546875,0.01563128437399864,0.00523848517537117,-0.01161503446996212
1733699984883988700,4.10398876953125,0.004644026413559914,0.003442541669309139,-0.01836801586151123
1733699984893943800,4.11394384765625,-0.0052700493574142455,-0.008036006939411163,-0.020636545315384863
1733699984903897900,4.12389794921875,0.0021668226450681687,-0.00013517068699002264,-0.018883564168214798
1733699984913853000,4.13385302734375,-0.004240121787786483,0.0034941257260739803,-0.019012158983945846
1733699984923807000,4.143806884765625,-0.006200023683905601,-0.003959551280736923,-0.023516484665870665
1733699984933761800,4.15376171875,-0.017951251754164694,-0.0021973639138042926,-0.015028642305731773
1733699984943715800,4.1637158203125,0.00028057050704956055,0.00525982022434473,-0.007820318362116814
1733699984953670700,4.173670654296875,-0.009674421796202658,0.003653992462903261,-0.009512509232759475
1733699984963625000,4.183625,-0.00985387001633644,0.0023021394625306127,-0.006632569882273674
1733699984973579800,4.193579833984375,-0.0037421091377735135,-0.007855243545025587,0.002103109759092331
1733699984983533800,4.203533935546875,-0.00017068039178848266,0.006487023931741714,0.002454991936683655
1733699984993489000,4.213489013671875,0.009534136542677879,0.005375409428030252,0.009228431594371795
1733699985003442700,4.223442626953125,0.005398059651255607,0.012268968334048986,0.007970540487766265
1733699985013398000,4.23339794921875,0.021765257084369657,0.0044544951908290385,-0.014815876337885855
1733699985023351800,4.243351806640625,0.023317747223377226,0.00988748002499342,-0.002745499315857887
1733699985033307000,4.253306884765625,0.0031160861939191816,-0.006699643769115209,-0.016782207974791526
1733699985043261000,4.263260986328125,0.014079963278770445,0.0011515081226825714,-0.028567922836542126
1733699985053215700,4.2732158203125,0.026968670946359633,0.0004852992989122867,0.0016366612911224365
1733699985063170000,4.283170166015625,0.03526011395156383,0.009270955561846494,0.0043517654687166216
1733699985073124900,4.293124755859375,0.02103402020037174,0.003938070101290941,0.003125438544154167
1733699985083079000,4.303078857421875,0.019702479335665702,0.008073416340351105,-0.005957447099685669
1733699985093033700,4.31303369140625,0.03446984035670757,0.00901142784282565,-0.015083002841472624
1733699985102987800,4.32298779296875,0.04014320981800556,-0.0026696576006710526,-0.02688333075046539
1733699985112942800,4.33294287109375,0.028999884513020515,0.005892419039458036,-0.029008652341365813
1733699985122897000,4.34289697265625,0.01386369017958641,-0.0008371814765036105,-0.0019184008419513702
1733699985132851700,4.352851806640625,0.006817863321304321,-0.0030740006178617474,-0.006636661535501479
1733699985142805800,4.3628056640625,-0.007254501172900199,-0.00961684639006853,0.007820318362116814
1733699985152760800,4.3727607421875,-0.006812602624297142,-0.002601853061467409,0.01507891118824482
1733699985162715000,4.38271484375,-0.034489714100956914,-0.018581512481719253,0.03739595693647861
1733699985172670000,4.392669921875,-0.021522680500149726,-0.007344517543911934,0.018015549162030218
1733699985182623700,4.402623779296875,-0.004765606966614723,-0.008609422913193701,-0.014203297397494315
1733699985192578800,4.412578857421875,0.0050075990289449685,0.009177285929024219,-0.028442250630259513
1733699985202532900,4.422532958984375,0.02034253080487251,0.022699615325033663,-0.04009294093549251
1733699985212488000,4.432488037109375,0.027247487887740132,0.01632102020382881,-0.03574409807622433
1733699985222442000,4.44244189453125,0.01919803694486618,0.013800123424082994,-0.030564065089821815
1733699985232396800,4.452396728515625,0.019127309796214104,0.01932064041122794,-0.023507716837525366
1733699985242350800,4.462350830078125,0.0029606033712625502,0.011635931127518415,-0.021295301485061643
1733699985252305700,4.4723056640625,0.023618191474676132,0.0037393326587975024,-0.01070785649716854
1733699985262260000,4.482260009765625,0.01787643295228481,0.002548223178088665,-0.005583937612175941
1733699985272214800,4.49221484375,0.02124853973388672,-0.0042144028246402735,0.004603109881281852
1733699985282168800,4.5021689453125,0.015789689806103704,0.0032766835831105705,-0.007843699237704277
1733699985292124000,4.5121240234375,0.015603227323293684,-0.0038499534264206884,-0.005729483562707901
1733699985302077700,4.52207763671875,-0.006696282768249511,-0.00844677969738841,-0.006321019715070724
1733699985312033000,4.532032958984375,-0.002175590473413467,-0.007066431254893541,-0.0016354922473430632
1733699985321986800,4.54198681640625,0.013845570001006125,0.004945639708638191,-0.005495674806833267
1733699985331942000,4.55194189453125,0.003067570877075195,-0.0019958499923348424,-0.003848492121696472
1733699985341896000,4.56189599609375,0.0026847090393304824,0.003992576767504215,0.005664601632952689
1733699985351850800,4.571850830078125,0.01793313157558441,0.016747867313772438,-0.013621698117256163
1733699985361805800,4.581805908203125,0.03194412127137184,0.014866291350871324,-0.016790975803136824
1733699985371759900,4.591759765625,0.030475217762589452,0.011458236473053694,-0.021048633247613906
1733699985381715000,4.60171484375,0.024590251377224922,0.013551263229548931,-0.025854572224617
1733699985391668700,4.611668701171875,0.005915946045517921,0.004314356067776679,-0.01845335605740547
1733699985401624000,4.6216240234375,0.017980477848649024,0.007087035651504993,-0.016515665993094442
1733699985411577900,4.631577880859375,0.006529109507799148,-0.0015709025785326956,0.018746786046028138
1733699985421533000,4.641532958984375,-0.008022562935948371,-0.00942950712442398,0.012428104418516158
1733699985431486700,4.65148681640625,-0.022000819405913353,-0.0018485504761338234,-0.0006762918263673782
1733699985441441800,4.66144189453125,-0.010139116698503493,0.014882950224727392,-0.01381225225329399
1733699985451395800,4.671395751953125,-0.0007762450695037841,0.010851795012503862,-0.014611293676495551
1733699985461351000,4.681350830078125,0.005651742151379585,0.008370645721256733,-0.029998832422494886
1733699985471305000,4.691304931640625,0.01209726502895355,-0.004866290862113237,-0.012144026780128478
1733699985481259800,4.701259765625,0.0163519998639822,0.0026698037311434744,-0.01683598398864269
1733699985491213800,4.7112138671875,0.005065466696023941,0.0023864567451179026,-0.01538344709277153
1733699985501168600,4.721168701171875,0.02092120747566223,0.020927198825031516,-0.010854571491479873
1733699985511123000,4.731123046875,-0.0016238018095493317,0.007072714865207672,0.007619827353954315
1733699985521077800,4.741077880859375,0.01724164218008518,-0.0013519991308450698,-0.00734510206580162
1733699985531031800,4.75103173828125,-0.0018114333361387252,-0.002939560583233833,-0.015007014995813368
1733699985540987000,4.76098681640625,0.015129764592647551,0.005721884778141975,-0.0037497079223394393
1733699985550940700,4.770940673828125,0.007599953609704971,0.000635083033144474,-0.0001911386579275131
1733699985560896000,4.78089599609375,0.01618891825675964,-0.004758300442993641,0.0015285247415304183
1733699985570849800,4.790849853515625,0.017562544697523115,0.007929039433598517,0.004254150313138962
1733699985580804900,4.800804931640625,0.02598725869357586,0.013569967930018901,0.00874853912293911
1733699985590759000,4.810759033203125,0.037306525087356567,0.00024155367091298102,-0.0004313771545886993
1733699985600713700,4.820713623046875,0.0374532400816679,0.005919745437800884,-0.008821019837260245
1733699985610668000,4.83066796875,0.02907587235867977,0.002108078195154667,-0.019338906720280647
1733699985620622800,4.840622802734375,0.03796002056002617,-0.007606237220019102,-0.017706921604275703
1733699985630577000,4.850576904296875,0.025304537126421927,-0.015852818170189856,-0.02487608258128166
1733699985640531700,4.86053173828125,0.009255904123187065,0.004955576580762863,-0.0035609073519706725
1733699985650485800,4.87048583984375,-0.002833177599310875,-0.008503916712105274,-0.01808569178879261
1733699985660440800,4.88044091796875,-0.02686813318133354,0.0038194121576845645,-0.020037410378456116
1733699985670395000,4.890394775390625,-0.022366145586967468,-0.00929638226404786,-0.013183891221880913
1733699985680350000,4.900349853515625,-0.0280026901692152,-0.004020049296319484,-0.001187163957953453
1733699985690303700,4.9103037109375,-0.044908232262730594,-0.004758738834410905,-0.014963760375976562
1733699985700258800,4.9202587890625,-0.028049451920390128,-0.0021982406966388223,0.0030967969715595244
1733699985710212900,4.930212890625,-0.01277706398665905,-0.017199410473555325,-0.006368365988135337
1733699985720168000,4.94016796875,0.013232991060614586,-0.003331190249323845,-0.014788988330960273
1733699985730121700,4.950121826171875,0.008307809618115424,-0.0022620997130870816,-0.011931845334172249
1733699985740076800,4.960076904296875,0.002822656205296516,0.009496288750320672,-0.021591654083132742
1733699985750030800,4.97003076171875,0.0019447043269872665,0.015679799690842627,-0.005659925457835197
1733699985759986000,4.97998583984375,-0.006549567773938178,0.008949614652991295,-0.002552607092261314
1733699985769940000,4.98993994140625,-0.0009627075523138045,0.002591916189342737,0.016906711137294767
1733699985779894800,4.999894775390625,-0.002273205628991127,-0.005699672946333885,0.0077747256547212595
1733699985789848800,5.009848876953125,0.011558920368552206,0.003103957364708185,-0.0010644143611192702
1733699985799803600,5.0198037109375,0.023100889602303505,0.002344225038588047,-0.007104279047250747
1733699985809758000,5.029758056640625,0.009661562314629554,-0.00041311084553599355,0.0037555531412363052
1733699985819712800,5.039712646484375,0.0266781635671854,0.018154665371775625,-0.003737432962656021
1733699985829666300,5.049666259765625,0.033902854123711586,0.012832885827124118,-0.00829495013654232
1733699985839621400,5.059621337890625,0.03849544261097908,0.024558541064709425,-0.003821604114770889
1733699985849575200,5.0695751953125,0.03526303656101227,0.014987141251564026,-0.006143909582495689
1733699985859530200,5.0795302734375,0.04106266275048256,0.0017997428983449935,-0.001841243952512741
1733699985869484300,5.089484375,0.049479777961969375,0.007679594717174768,-0.022594109123945234
1733699985879439400,5.099439453125,0.045315644019842144,0.02981982259377837,-0.05216624056696891
1733699985889394200,5.109394287109375,0.03243219704926014,0.012578326544165611,-0.03944236807227135
1733699985899348200,5.11934814453125,-0.0011643676042556762,-0.001730623184889555,-0.022417583513259887
1733699985909303300,5.12930322265625,-0.022433365604281424,0.00046352585852146145,-0.006220481950044631
1733699985919257300,5.13925732421875,-0.012473697125911712,-0.00849018044769764,0.019684359157085416
1733699985929212400,5.14921240234375,-0.022419337078928948,-0.012059271106123924,0.02224398051202297
1733699985939166200,5.159166259765625,-0.022335750448703763,-0.011799597256630658,0.03152794168591499
1733699985949121300,5.169121337890625,-0.001014145478606224,-0.025952771902084348,-0.00044131402671337126
1733699985959075300,5.179075439453125,0.009598433950543403,0.0001692190870642662,-0.004549918389320374
1733699985969030400,5.189030517578125,0.012333996394276618,0.021168460234999655,-0.029113281759619712
1733699985978984400,5.198984375,0.01699848107397556,0.02347586039453745,-0.031654198414087294
1733699985988939300,5.208939208984375,0.01237140579521656,0.0218330616235733,-0.020862755286693572
1733699985998893300,5.218893310546875,0.013425883284211158,0.009998393053561448,-0.007535656201839446
1733699986008848100,5.22884814453125,0.008020224848389625,-0.0077088208116590975,0.002053425398468971
1733699986018802400,5.238802490234375,0.05348784455955028,0.009594926819205284,-0.014555764096975326
1733699986028757200,5.24875732421875,0.09037059127688407,0.019112258357554673,-0.036436171993613244
1733699986038711300,5.258711181640625,0.10302841279804706,0.007252893737703561,-0.0074853873193264
1733699986048666000,5.268666015625,0.10390987180769443,0.00286649534702301,0.03836684779524803
1733699986058620200,5.2786201171875,0.08720715880990028,0.01304082948938012,0.025536592316627502
1733699986068575500,5.288575439453125,0.053506549260020256,0.001878799483925104,-0.023006197056174276
1733699986078529300,5.298529296875,0.009601941081881523,0.00009703063368797301,-0.02281272031068802
1733699986088484400,5.308484375,-0.0303729264318943,-0.0003542202651500702,-0.006689853027462959
1733699986098438100,5.318438232421875,-0.06820026052296162,-0.013524375222623347,0.017635609933733937
1733699986108393200,5.328393310546875,-0.09783610485196113,-0.033991847581416365,0.024265841728448867
1733699986118347500,5.338347412109375,-0.09225450532734393,-0.024358196187019347,0.03122399030327797
1733699986128302300,5.34830224609375,-0.09470657465457916,-0.019795418316125867,0.01175882685482502
1733699986138256400,5.35825634765625,-0.07417056710422039,-0.009284984087198972,-0.02524257780611515
1733699986148211200,5.368211181640625,-0.027520459610223768,0.003809767546504736,-0.02435936523079872
1733699986158165200,5.378165283203125,-0.005643558844923973,0.0005709317557513713,-0.024887188497185707
1733699986168120300,5.388120361328125,0.006337970849871635,0.007202917116135359,-0.041405777099728584
1733699986178074400,5.398074462890625,0.016941197928786275,0.002468582070618868,-0.01872515873610973
1733699986188029200,5.408029296875,0.02307575516104698,0.008131137876957654,0.012945990812778472
1733699986197983200,5.417983154296875,0.03148585610985756,0.006153408063203096,0.004516600641608238
1733699986207938300,5.427938232421875,0.01770750612616539,-0.0013204349488019943,-0.007855974197387695
1733699986217892400,5.437892333984375,0.016608020451664925,0.0193332076318562,-0.024620646515488624
1733699986227847400,5.447847412109375,0.019001053068041802,0.028545857135206458,-0.03488075924515724
1733699986237801200,5.45780126953125,0.02077390795946121,0.015538199263066052,-0.0505243185788393
1733699986247756300,5.46775634765625,0.014052490749955177,0.013564999493956564,-0.05023498024344444
1733699986257710300,5.47771044921875,-0.010741758766770363,0.01788432399779558,-0.0017214169651269913
1733699986267665400,5.48766552734375,-0.008246434819698334,-0.007419774737209082,0.018680150550603864
1733699986277619500,5.497619384765625,-0.013666706302762031,-0.009594196166843176,0.002824409770965576
1733699986287574300,5.50757421875,0.014968436551094054,0.0014952069938182829,0.013073416584730147
1733699986297528300,5.5175283203125,0.032549101427197455,-0.0028662030860781666,-0.0036123452782630917
1733699986307483100,5.527483154296875,0.01280278294980526,0.01418064717426896,0.005817161846160888
1733699986317437400,5.5374375,0.04131809881627559,0.002622457458078861,-0.00698912823498249
1733699986327392300,5.547392333984375,0.038410686936974525,0.001830868688970804,0.006077274087071418
1733699986337346300,5.55734619140625,0.029612463453412053,-0.0009469254612922668,0.006084288349747657
1733699986347301000,5.567301025390625,0.033145898276567456,0.01344824124649167,-0.010029226583242417
1733699986357255200,5.577255126953125,0.03807107971906662,0.004434329185634851,-0.013368600139021873
1733699986367210500,5.58721044921875,0.021390578553080557,-0.0027601123631000517,-0.012832009044289588
1733699986377164300,5.597164306640625,0.01749649372398853,-0.00764423114284873,-0.017194880428910254
1733699986387119400,5.607119384765625,0.006876315510272979,0.00651946489661932,-0.01903495533764362
1733699986397073200,5.6170732421875,-0.0014081132322549819,0.01036065049469471,-0.023175708404183388
1733699986407028200,5.6270283203125,0.0010293430477380753,0.007074176169931888,-0.02030862853527069
1733699986416982500,5.636982421875,-0.027752514800429343,-0.006122136142104864,-0.017836100941896436
1733699986426937300,5.646937255859375,-0.025869185271859167,0.004382598998397588,-0.012352116572856902
1733699986436891400,5.656891357421875,-0.025874445968866348,0.005239508088678122,-0.013659692040085792
1733699986446846200,5.66684619140625,-0.010142039307951926,-0.0004858838208019733,-0.005694412249326705
1733699986456801500,5.676801513671875,0.004884264910221099,-0.008136398573964834,-0.013536357921361923
1733699986466755300,5.68675537109375,0.02044014596045017,0.011265636510401963,-0.02998421937525272
1733699986476710400,5.69671044921875,0.016367781955003737,0.00010959785431623458,-0.014148352339863775
1733699986486664200,5.706664306640625,0.009209142372012138,0.007222060208022594,0.00338847339451313
1733699986496619300,5.716619384765625,0.01691664800941944,-0.00034179917499423026,-0.013301380121707916
1733699986506573300,5.7265732421875,0.028626375025510787,-0.0005459434449672699,-0.005487491500377655
1733699986516528400,5.7365283203125,0.005276479098200798,0.010466741217672824,0.0022737901508808134
1733699986526482400,5.746482421875,0.0093763156324625,-0.006645137102901935,0.003710544955730438
1733699986536437200,5.756437255859375,0.010120411998033523,0.002093465147912502,-0.0010626607954502105
1733699986546391300,5.766391357421875,0.01012450365126133,-0.0012076222240924835,0.0013327099084854126
1733699986556346400,5.776346435546875,0.011083119550347327,0.007603314610570669,0.006285948401689529
1733699986566300400,5.786300537109375,0.026549568751454353,-0.0013864859223365782,-0.01020809028148651
1733699986576255200,5.796255126953125,0.02259644721150398,-0.005767331355065107,-0.013022563180327415
1733699986586209300,5.806209228515625,0.014088731107115745,0.019567016387730837,-0.009886018720269202
1733699986596164400,5.816164306640625,0.012140519648790359,0.0065092357635498045,-0.015488076511025428
1733699986606118100,5.8261181640625,-0.0012163900524377821,0.011620441297441721,-0.0050993689656257625
1733699986616073500,5.836073486328125,0.005824760630726814,0.0032737609736621376,-0.02818447647690773
1733699986626027300,5.84602734375,-0.0049479777961969375,0.006868862856179475,-0.017761282140016554
1733699986635982300,5.855982421875,-0.009647533789277076,-0.005346329464018345,-0.00618307254910469
1733699986645936000,5.86593603515625,0.003496609944105148,-0.005182224943488836,-0.020270634612441062
1733699986655891500,5.875891357421875,-0.016797990065813062,0.010891250240057706,-0.0372527490735054
1733699986665845500,5.885845458984375,-0.012604630029201506,-0.007980477359890938,-0.048315994879603384
1733699986675800300,5.89580029296875,-0.01403320152759552,0.00037321722656488416,-0.03267185102403164
1733699986685754400,5.90575439453125,-0.016568272963166236,-0.007789484832435846,-0.010808394262194633
1733699986695709200,5.915709228515625,-0.012228782454133034,-0.0006884206555783748,-0.008214870637655258
1733699986705663200,5.925663330078125,-0.01705167256593704,0.00024199206233024596,0.009603694647550582
1733699986715618300,5.935618408203125,-0.0002858312040567398,-0.007055325338989496,0.016686346384882925
1733699986725572400,5.945572265625,-0.006212883165478706,-0.0007571019776165485,0.00626022943854332
1733699986735527200,5.955527099609375,0.017380758389830588,0.005055383693426847,-0.004634674063324928
1733699986745481200,5.965481201171875,0.03640694589912891,0.0059016252592206,-0.021312837141752243
1733699986755436500,5.9754365234375,0.0467249262958765,0.025967092688381672,-0.029775545060634612
1733699986765390300,5.985390380859375,0.029855040037631987,0.02764671633839607,-0.03261398335695267
1733699986775345400,5.995345458984375,0.01849427258968353,0.004978519064933061,-0.023306056785583496
1733699986785299200,6.00529931640625,0.016018822386860847,0.017170768900960684,-0.01364274090528488
1733699986795254300,6.015254150390625,0.012136427995562553,0.007819879970699549,-0.0104699560880661
1733699986805208300,6.025208251953125,0.008310732227563858,0.008360270457714796,-0.020702011767029762
1733699986815163400,6.035163330078125,0.007080313649773597,-0.009276654650270938,-0.01414250712096691
1733699986825117700,6.04511767578125,0.021350246542692183,-0.007659136451035738,-0.00751285984814167
1733699986835072800,6.05507275390625,-0.0104699560880661,-0.0021510405540466305,0.0039022681355476378
1733699986845026800,6.06502685546875,-0.0061883332461118695,-0.014658347688615321,0.01159632976949215
1733699986854981600,6.074981689453125,-0.007123568269610405,-0.010246814856678247,-0.003022562691569328
1733699986864935700,6.084935791015625,-0.025278233641386032,-0.00816810888648033,-0.0025146131694316863
1733699986874890500,6.094890380859375,-0.0057090252965688705,0.012930354852229356,-0.003325345030426979
1733699986884844800,6.1048447265625,-0.007561375164985657,-0.001085164888203144,-0.007172668108344078
1733699986894799600,6.114799560546875,0.0024421324551105496,0.007936784348636865,0.00682137045264244
1733699986904753700,6.124753662109375,0.01576981606185436,0.01351487674191594,-0.015364157870411873
1733699986914708700,6.134708740234375,0.023445172995328903,-0.005984042845666409,-0.005939326921105385
1733699986924662500,6.14466259765625,0.04316986416280269,0.014672960735857487,-0.006900280907750129
1733699986934617900,6.154617919921875,0.032225276300311086,0.01693973662406206,-0.0018739771783351897
1733699986944571600,6.164571533203125,0.027089666977524757,0.008074439253658056,-0.019602526092529295
1733699986954526700,6.174526611328125,0.017033552387356758,0.003264993145316839,-0.008127776876091957
1733699986964481500,6.1844814453125,0.006037526598572731,0.010182809709757566,0.008855506628751755
1733699986974435600,6.194435546875,0.003503624206781387,0.012577303630858658,0.0009276362389326095
1733699986984390700,6.204390625,0.021121698483824728,-0.002945259671658277,-0.009321955096721648
1733699986994344700,6.2143447265625,0.002357376781105995,0.005114128143340349,-0.018519407030940054
1733699987004299500,6.224299560546875,0.018702362382411956,0.0012868249401450157,-0.01865735419690609
1733699987014253600,6.234253662109375,0.009995324313640594,0.0037261809162795543,-0.03259118700325489
1733699987024209000,6.244208984375,0.015509119299054144,0.001927607061713934,-0.012117138773202895
1733699987034162700,6.25416259765625,-0.0016121113717555999,-0.0006305529884994029,-0.0017079729616641998
1733699987044117800,6.26411767578125,-0.018380290821194648,0.0007769757218658923,-0.003682487905025482
1733699987054071600,6.274071533203125,0.0026356092005968093,0.009779781866818667,-0.014076456147432326
1733699987064026600,6.284026611328125,-0.008160510101914405,-0.0022699907585978507,-0.0033370354682207104
1733699987073980700,6.293980712890625,-0.009482114094495772,-0.003889700914919376,0.008334113103151321
1733699987083935700,6.303935791015625,0.015080080232024192,0.006458528489619493,-0.002738485053181648
1733699987093889800,6.313889892578125,0.001367196699976921,-0.0012567220628261564,-0.005991933891177177
1733699987103844600,6.3238447265625,0.004451134189963341,-0.007298632575571537,-0.008446341305971146
1733699987113798700,6.333798583984375,0.0009796586871147156,0.006027297465503215,-0.004763268879055977
1733699987123753700,6.343753662109375,0.017384850043058394,0.007840192106366157,-0.009038461980223655
1733699987133707800,6.353707763671875,0.030177111598849296,-0.0066433835372328755,-0.023507716837525366
1733699987143662600,6.36366259765625,0.03435176693499088,0.012497224131971596,-0.014287468549609184
1733699987153616600,6.37361669921875,0.012307108387351036,0.0025350714355707165,-0.017649638459086417
1733699987163571700,6.38357177734375,0.03080255002081394,0.01367635091394186,-0.003218377524614334
1733699987173525500,6.393525390625,0.015433131453394889,-0.0032223230473697184,-0.007517536023259163
1733699987183480800,6.403480712890625,0.014338906475901603,0.0009836042098701,-0.009813538005948067
1733699987193434600,6.4134345703125,0.022621581652760504,-0.002384118657559156,-0.01633797133862972
1733699987203389700,6.4233896484375,0.008221884900331497,-0.0009264671951532363,-0.004127893584966659
1733699987213343700,6.43334375,0.01123158811032772,0.011414105070382355,-0.010882044020295143
1733699987223298800,6.443298828125,0.0009118541479110718,0.0017525427557528019,-0.0218330616235733
1733699987233252900,6.4532529296875,0.010205752193927765,-0.011281418601423501,-0.012704583272337913
1733699987243207700,6.463207763671875,-0.00673076955974102,0.0015283786110579967,-0.006613280659914017
1733699987253161700,6.47316162109375,-0.015415011274814604,-0.001357698219269514,-0.0010913023680448532
1733699987263116500,6.483116455078125,-0.0054985974162817,0.0015609657064080238,-0.025905425629019735
1733699987273070600,6.493070556640625,-0.002895136919617653,-0.003956774801760912,-0.00682663114964962
1733699987283025700,6.503025634765625,-0.006250292566418647,0.00034881343767046927,0.0013379706054925918
1733699987292979700,6.512979736328125,0.0036140988439321516,0.008637772224843502,-0.01605272465646267
1733699987302934500,6.5229345703125,0.0010153145223855973,-0.0028824235685169695,-0.012815057909488677
1733699987312888600,6.532888671875,0.004078793746232986,0.0017662790201604366,-0.0033148236364126202
1733699987322844000,6.542843994140625,0.008414192602038384,-0.000682137045264244,-0.006925999870896339
1733699987332797700,6.552797607421875,0.01592412984073162,0.011010054314136505,-0.016512158861756325
1733699987342752800,6.562752685546875,0.01116144548356533,0.01002528106048703,-0.0025987843215465544
1733699987352706600,6.57270654296875,-0.009433598777651786,0.007283288875967264,-0.01931786393225193
1733699987362661600,6.58266162109375,-0.0139817636013031,0.0034650457620620727,-0.020747604474425314
1733699987372615700,6.59261572265625,0.007576572734117507,-0.0024228432327508924,-0.007031798332929611
1733699987382570800,6.60257080078125,-0.00001578209102153778,0.006211421860754489,-0.006560673689842224
1733699987392524800,6.61252490234375,0.006063830083608627,0.011385609628260135,0.00040039749443531033
1733699987402479600,6.622479736328125,0.017303016978502273,0.01960091865733266,-0.02965980972647667
1733699987412433700,6.63243359375,0.017347440642118454,0.014338175823539495,-0.04039104709923267
1733699987422388700,6.642388671875,0.02869768669605255,0.023133915089070797,-0.05383972673714161
1733699987432342800,6.6523427734375,0.038705285969376564,0.002661620424687862,-0.03195990336239338
1733699987442297600,6.662297607421875,0.008076923471689224,-0.010123188477009534,-0.019582652348279952
1733699987452251600,6.672251708984375,-0.00417056368291378,-0.008541179982572793,0.008036591461300849
1733699987462206700,6.682206787109375,-0.015094693279266356,-0.008601385737210511,0.015921207231283187
1733699987472160500,6.692160400390625,-0.009638765960931777,-0.019676906502991913,0.022651976791024205
1733699987482115800,6.70211572265625,-0.027533319091796873,-0.017033552387356758,0.03485796289145946
1733699987492069600,6.712069580078125,-0.009929857861995696,-0.002212415352463722,0.017406477352976797
1733699987502024700,6.722024658203125,0.0025339023917913435,-0.00027896307185292245,-0.01001636710166931
1733699987511978800,6.731978759765625,0.015009937605261802,0.01503901756927371,-0.030670448073744774
1733699987521933800,6.741933837890625,0.023674305576086043,0.02387216623574495,-0.02891980501413345
1733699987531887900,6.751887939453125,0.021171382844448087,0.030068828918784856,-0.023914544072747228
1733699987541842700,6.7618427734375,0.015151391902565954,0.028289544286578892,-0.013420038065314293
1733699987551797500,6.771797607421875,0.02207622272968292,0.01654211560860276,-0.015407412490248679
1733699987561751600,6.78175146484375,0.03550795123279094,0.0011395254239439964,-0.016107669714093206
1733699987571707000,6.791706787109375,0.014054244315624236,0.005259381832927465,-0.0263905787974596
1733699987581660700,6.80166064453125,0.024862054055929183,-0.0002903612487018108,-0.010581015247106551
1733699987591614700,6.81161474609375,0.006554243949055671,-0.0021484102055430413,-0.004749824875593185
1733699987601569500,6.821569580078125,0.0022813889354467392,-0.007166238367557525,0.011521510967612265
1733699987611524600,6.831524658203125,-0.003438742277026176,-0.004460924931615591,0.002389525485038757
1733699987621479000,6.84147900390625,-0.015428455278277397,-0.004770429272204637,-0.00601882189810276
1733699987631433700,6.851433837890625,0.0017915595918893813,0.0007255377955734729,-0.013905775755643843
1733699987641387800,6.8613876953125,-0.003960720324516296,0.004295505236834287,-0.008727496334910392
1733699987651342600,6.871342529296875,0.0050648821741342545,0.003775865276902914,0.000436053329706192
1733699987661296600,6.881296630859375,0.011481763479113578,0.0031067338436841963,-0.0037777649730443954
1733699987671251700,6.891251708984375,0.009262918385863303,-0.001751665972918272,-0.02695873407423496
1733699987681205800,6.901205810546875,0.007727379381656646,0.014833558125048874,-0.011094225466251372
1733699987691160600,6.91116064453125,0.0026999066084623337,0.014796002593636512,-0.012041735449433325
1733699987701114600,6.921114501953125,0.001073182189464569,0.0057046413823962205,-0.027720950618386267
1733699987711069700,6.931069580078125,0.010056699112057685,0.009415770860016345,-0.018250526961684225
1733699987721023700,6.941023681640625,0.01218494331240654,0.011367051058262585,0.010561726024746894
1733699987730978800,6.950978759765625,0.012089666244387625,-0.004601502446085214,0.01123158811032772
1733699987740932600,6.9609326171875,0.024868483796715735,0.004306172761321067,0.0017360300123691558
1733699987750887700,6.9708876953125,0.018531097468733788,0.02600610952451825,-0.01279752225279808
1733699987760841700,6.980841796875,-0.005853402203321457,0.013346534437686203,-0.01801905629336834
1733699987770796800,6.990796875,0.005173603245615959,0.009637889178097247,-0.01906593499779701
1733699987780750800,7.000750732421875,-0.015296353331208228,-0.004936871880292892,-0.014483867904543877
1733699987790705700,7.01070556640625,0.002876432219147682,-0.009390198027342558,-0.015702596044540405
1733699987800659700,7.02065966796875,-0.006449030008912086,0.003115209411084652,-0.006131634622812271
1733699987810614500,7.030614501953125,-0.004897708913683891,0.017321137157082556,-0.002873509609699249
1733699987820568600,7.040568603515625,0.0019061258822679519,0.0163465930365026,-0.014281623330712317
1733699987830523400,7.0505234375,0.01511281345784664,-0.0022914719380438325,-0.011062661284208297
1733699987840477400,7.0604775390625,0.02290799737870693,0.001251169104874134,-0.006969254490733146
1733699987850432500,7.0704326171875,0.02471358549594879,0.0004598725967109203,-0.005016366857290268
1733699987860386300,7.08038623046875,0.020714871248602867,0.004084054443240165,-0.005562310302257538
1733699987870341600,7.090341552734375,0.017061609438061714,0.013295388772338629,-0.0044049569606781
1733699987880295400,7.10029541015625,0.00907879399061203,0.01256225219219923,-0.0038134208083152768
1733699987890250500,7.11025048828125,0.011940613162517547,-0.0033449265137314795,-0.0022679449319839475
1733699987900204500,7.12020458984375,0.02000876880586147,-0.0014709493353962898,-0.000012274959683418274
1733699987910159400,7.130159423828125,0.0054787236720323556,-0.0044843058072030545,-0.024380408018827435
1733699987920113400,7.140113525390625,0.018648001846671102,0.00038461540341377254,-0.00310439575612545
1733699987930068500,7.150068359375,0.01483750364780426,0.0087140523314476,-0.004192190992832184
1733699987940022500,7.1600224609375,0.010464695391058921,0.0063863400362432,-0.0031616789013147353
1733699987949977300,7.169977294921875,0.011014730489253997,0.0060632455617189406,-0.0024304420173168182
1733699987959931400,7.179931396484375,0.015316811597347258,0.005425970571488142,-0.004985971719026565
1733699987969886500,7.189886474609375,-0.009423077383637428,0.012239596109092235,-0.015790274327993393
1733699987979840500,7.199840576171875,-0.003893500307202339,0.0014268179327249525,-0.004991232416033745
1733699987989795300,7.20979541015625,0.006755319479107857,-0.0030951895363628863,-0.008676642930507659
1733699987999749400,7.219749267578125,0.0001876315265893936,-0.0011748889982700348,-0.014497896429896354
1733699988009704400,7.229704345703125,0.013779519027471541,0.002101940715312958,-0.010326748225092887
1733699988019658200,7.239658203125,0.0041284781068563455,0.009046645286679268,-0.004539981517195701
1733699988029613600,7.249613525390625,0.009962591087818145,0.005697627119719982,-0.01333645143508911
1733699988039567400,7.2595673828125,0.01620294678211212,0.0020132395185530187,-0.016948212191462517
1733699988049522400,7.2695224609375,0.009756839382648468,0.01069090536236763,-0.002402384966611862
1733699988059476500,7.2794765625,0.016517419558763503,0.00414396793693304,-0.0108534024477005
1733699988069431600,7.289431640625,0.03095627927780151,0.010586129813641309,0.011106500425934791
1733699988079385600,7.299385498046875,0.018960136535763738,-0.000954670376330614,0.017546178084611893
1733699988089340400,7.30934033203125,-0.001527355697751045,-0.003933393926173448,0.000986088427901268
1733699988099294500,7.31929443359375,0.014058335968852042,-0.005456073448807001,-0.0019563947647809983
1733699988109249300,7.329249267578125,0.004525368469953537,0.005003945767134428,-0.001772270369529724
1733699988119203300,7.339203369140625,-0.014246552017331122,0.003179945210367441,-0.017111878320574758
1733699988129158400,7.349158447265625,0.007940145349502563,-0.0016511282078921794,-0.019069442129135132
1733699988139112400,7.359112548828125,0.0067740241795778275,0.013564122711122036,-0.0056242696225643155
1733699988149067500,7.369067626953125,0.0063064066678285595,0.005582330176979303,-0.010142039307951926
1733699988159021300,7.379021240234375,-0.005643558844923973,-0.0019978958189487456,-0.003219546568393707
1733699988168976600,7.3889765625,0.008293781092762947,-0.003545271391421556,-0.020420272216200828
1733699988178930400,7.398930419921875,0.022743162205815314,0.010577069724351167,-0.0292968216329813
1733699988188885500,7.408885498046875,0.007827332624793052,-0.0011611527338624,-0.0334141938239336
1733699988198839600,7.418839599609375,0.01572539239823818,0.0065425535112619395,-0.026094226199388504
1733699988208794400,7.42879443359375,0.006467734709382057,0.009824059399962424,-0.013612345767021179
1733699988218749400,7.43874951171875,0.0071615621924400324,-0.0044109483100473875,-0.004496726897358894
1733699988228703500,7.448703369140625,-0.0030897827088832855,-0.0082097560711205,0.008819266271591186
1733699988238658300,7.458658203125,-0.004258241966366767,0.0018884440951049326,0.015351298388838768
1733699988248612400,7.4686123046875,-0.0012058686584234238,-0.013995499865710734,0.01949438954293728
1733699988258567400,7.4785673828125,0.008300795355439186,-0.007197364158183336,0.00459317300915718
1733699988268521500,7.488521484375,0.018963059145212173,-0.004176847293227911,-0.009057166680693627
1733699988278476500,7.4984765625,0.027965280768275258,0.0010432254426181317,-0.025279402685165403
1733699988288430300,7.508430419921875,0.03552548688948154,0.014610855285078286,-0.0204693720549345
1733699988298385400,7.518385498046875,0.024461072039604185,0.022225860333442687,-0.021964579048752784
1733699988308339500,7.52833935546875,0.00409866749048233,0.01904986064583063,0.0036404023289680477
1733699988318294500,7.53829443359375,0.0058732759475708,0.008388619769364595,-0.015204583394527434
1733699988328248600,7.54824853515625,0.006629062750935554,0.009015957887470722,-0.007219429859519004
1733699988338203400,7.558203369140625,0.021739538121223447,0.007396832253038883,-0.003732756787538528
1733699988348157400,7.568157470703125,0.01721767678260803,0.0054994741991162294,-0.012242226457595824
1733699988358112300,7.5781123046875,0.0096726682305336,0.007514321152865887,-0.01109130285680294
1733699988368066300,7.58806640625,0.009035539370775222,0.0026255261979997156,-0.006330956587195396
1733699988378021400,7.598021484375,0.0027437457501888274,0.000779606070369482,0.007111877831816673
1733699988387975400,7.607975341796875,-0.0016185411125421523,-0.010656564701348542,-0.007595277434587478
1733699988397930500,7.617930419921875,-0.005382862082123756,-0.001136748944967985,-0.004794833061099052
1733699988407884300,7.62788427734375,0.009154781836271286,0.00539031473621726,-0.020645897665619847
1733699988417839600,7.637839599609375,0.0019277531921863555,0.0032620705358684062,-0.006774608701467514
1733699988427793400,7.64779345703125,0.008242343166470528,0.007123276008665561,0.006419803914427757
1733699988437748500,7.65774853515625,0.017831424766778944,0.005556611213833093,-0.009444120171666145
1733699988447702500,7.66770263671875,0.03364332640469074,-0.000050561143457889556,-0.018043021690845488
1733699988457657300,7.6776572265625,0.0110842885941267,0.0034559856727719306,-0.008453940090537071
1733699988467611400,7.687611328125,0.00817336958348751,0.011274696599692106,-0.005824760630726814
1733699988477566500,7.69756640625,0.00953881271779537,0.01376329854503274,-0.019555764341354368
1733699988487520500,7.7075205078125,0.005584522134065628,-0.004825082068890333,-0.0032844284981489178
1733699988497475300,7.717475341796875,-0.017111878320574758,-0.008266893085837364,0.013710545444488525
1733699988507429400,7.727429443359375,-0.017710428735613824,0.0027453531853854655,-0.0024257658421993253
1733699988517384400,7.737384521484375,-0.009223170897364616,0.013970803815871477,-0.014025018221139907
1733699988527338500,7.74733837890625,0.006216390296816826,0.012135843473672867,-0.012954174119234085
1733699988537293300,7.757293212890625,0.005189385336637497,0.008613222305476665,-0.037488895916938776
1733699988547247400,7.767247314453125,0.021503975799679755,0.010971768130362033,-0.02028115600645542
1733699988557202400,7.777202392578125,0.01857318304479122,0.008062894946336746,-0.02217909858226776
1733699988567156200,7.78715625,0.02204407402575016,0.0017265315316617488,-0.00431610963344574
1733699988577111600,7.797111572265625,0.018863690423965452,-0.00470496282055974,-0.006149754801392555
1733699988587065300,7.8070654296875,0.0039987142473459246,0.003396364440023899,0.0009837503403425216
1733699988597020400,7.8170205078125,0.006079612174630164,-0.004108165971189737,0.004104512709379196
1733699988606974500,7.826974365234375,0.006842997762560844,0.005265957704186439,0.006050970602035522
1733699988616929500,7.836929443359375,-0.006588146218657494,0.0024095453597605225,-0.0043897593915462494
1733699988626883600,7.846883544921875,0.0023182138144969937,0.002885930699855089,-0.011480009913444519
1733699988636838400,7.85683837890625,0.014096914413571356,-0.00667129445746541,-0.007168576455116271
1733699988646792400,7.86679248046875,0.002944236758351326,-0.0013519991308450698,-0.013090367719531058
1733699988656747300,7.876747314453125,0.014611293676495551,0.002252455101907253,-0.0024567455023527143
1733699988666701300,7.886701416015625,0.023129531174898146,-0.0003305471286177635,-0.009203881675004959
1733699988676656400,7.896656494140625,0.02073474499285221,0.011127835474908351,-0.019243629652261732
1733699988686610400,7.9066103515625,0.027699323308467864,0.0003112579062581062,-0.017117723539471625
1733699988696565500,7.9165654296875,0.027253917628526685,0.005501666156202554,-0.009048398852348326
1733699988706519300,7.926519287109375,0.0209486800044775,0.003833148422092199,-0.005786182186007499
1733699988716474600,7.936474609375,0.005998948153853416,0.0034498481929302214,-0.006953472399711609
1733699988726428400,7.946428466796875,0.009351765713095664,0.007287672790139913,-0.008109656697511673
1733699988736383500,7.956383544921875,-0.000037409400939941404,0.002153817033022642,-0.019757424393296242
1733699988746337500,7.966337646484375,0.0036094226688146588,-0.0014599895499646663,-0.024047230541706082
1733699988756292400,7.976292236328125,0.007495324191451072,0.007813304099440574,-0.014178162956237791
1733699988766246400,7.986246337890625,0.006902034473419189,-0.010431085382401943,-0.011024667361378668
1733699988776201500,7.996201416015625,0.010694412493705749,0.016278934627771375,-0.015136194333434104
1733699988786155500,8.006155517578126,-0.004687281033396721,0.006979629754275083,-0.011064999371767043
1733699988796110300,8.0161103515625,0.006758826610445976,-0.006713087772578,0.003060556614398956
1733699988806064400,8.026064453125,0.02252805815041065,-0.013868220224231481,-0.0009112696260213852
1733699988816019500,8.03601953125,0.023372107759118077,0.00005173018723726272,-0.0007744915038347244
1733699988825973000,8.045972900390625,0.02219429615139961,0.02131722105592489,-0.007298340314626693
1733699988835928300,8.05592822265625,0.007205401334166526,-0.008496025666594504,-0.005351882421970367
1733699988845882000,8.065882080078126,0.01828092209994793,0.0009757131643593311,-0.013082768934965133
1733699988855837200,8.075837158203125,0.0008329436928033829,0.006821078191697597,0.006278349617123604
1733699988865791000,8.085791015625,0.009252396991848945,-0.003641571372747421,0.00433306076824665
1733699988875746000,8.09574609375,0.007733809122443198,-0.003368307389318943,-0.011000117442011832
1733699988885700000,8.1057001953125,0.0024321955829858777,0.002830547250807285,-0.006636077013611793
1733699988895655200,8.1156552734375,0.014019173002243042,0.011751520331203937,-0.02222702937722206
1733699988905609200,8.125609130859376,0.006816694277524947,0.0022846038058400154,-0.025479893693327902
1733699988915564000,8.13556396484375,0.027855975174903867,0.004109627275913953,-0.008364508241415023
1733699988925518000,8.14551806640625,0.014935118803381919,0.016372019738703964,-0.006771686092019081
1733699988935473200,8.15547314453125,0.012353285616636275,0.0001239186406135559,0.0034919337689876553
1733699988945427200,8.16542724609375,0.005821253499388695,0.018409955307096243,-0.01175005902647972
1733699988955382000,8.175382080078125,0.009426584514975547,0.010099223079532385,-0.03031155163347721
1733699988965337000,8.185337158203126,0.023225977286696432,0.004319909025728702,-0.05184650709331035
1733699988975291100,8.195291015625,0.017494155636429785,0.012441256161034106,-0.02284662258028984
1733699988985246200,8.20524609375,-0.002021276694536209,-0.00008124854266643523,0.0015407997012138366
1733699988995200300,8.2152001953125,-0.01594166549742222,0.0013487842604517936,0.0008598316997289657
1733699989005155000,8.225155029296875,-0.001235094752907753,-0.004555909738689661,0.003067570877075195
1733699989015109000,8.235109130859374,-0.006666472151875495,-0.012475012300163507,0.023913959550857542
1733699989025064000,8.24506396484375,-0.00020750527083873748,-0.0024307342782616615,0.01691489444375038
1733699989035018200,8.255018310546875,0.010327332746982575,-0.007496639365702867,0.0025356559574604034
1733699989044973000,8.26497314453125,0.031549568995833395,-0.005565525172650814,-0.007902151426672934
1733699989054927000,8.274927001953126,0.028663784426450727,0.020195669680088756,-0.03615384792089462
1733699989064882000,8.2848818359375,0.035734161204099654,0.02032294932156801,-0.014877835658192633
1733699989074836000,8.2948359375,0.010362404060363768,0.014733458751440047,-0.012694646400213241
1733699989084791300,8.304791259765626,-0.006312836408615112,0.013403963713347912,-0.011259645161032675
1733699989094745000,8.3147451171875,0.017741992917656896,0.006369096640497445,-0.0016787468671798705
1733699989104700200,8.3247001953125,0.00490472317636013,0.011929214985668658,-0.034109774872660634
1733699989114654000,8.334654052734376,0.019226093995571136,0.012582272066920995,-0.018423545441031454
1733699989124609000,8.344609130859375,0.015266542714834212,0.0051068216197192665,-0.007712766334414482
1733699989134563300,8.354563232421874,0.010004092141985893,0.0011843874789774418,-0.0022106617867946625
1733699989144518100,8.36451806640625,0.010566986721754074,-0.009093553168326616,0.010445406168699264
1733699989154472200,8.37447216796875,-0.0019786065965890884,0.001072451537102461,-0.004348842859268188
1733699989164427000,8.384427001953124,-0.004521276816725731,0.001969254246354103,-0.020960370442271233
1733699989174381000,8.394381103515625,0.006963993793725967,0.001505143865942955,-0.02279693821966648
1733699989184336100,8.404336181640625,0.00007774141132831573,0.011368512362986803,-0.003502455163002014
1733699989194290200,8.414290283203124,-0.001678162345290184,0.004551233563572168,-0.0019879589468240737
1733699989204245000,8.424244873046876,0.012754852154850959,0.0011366028144955635,-0.012127660167217254
1733699989214199000,8.434198974609375,0.023940263035893437,0.0032094635657966136,-0.015313304466009139
1733699989224154000,8.444154052734374,0.002212415352463722,0.007402385210990905,-0.01025426751077175
1733699989234108200,8.454108154296875,0.001367196699976921,-0.003915273747593164,-0.016813187634944916
1733699989244063200,8.464063232421875,0.004848609074950218,0.008285597786307334,-0.007817980274558068
1733699989254017000,8.47401708984375,-0.0008504793494939803,0.006971592578291892,-0.012613982379436492
1733699989263972000,8.48397216796875,0.0012806874603033065,-0.00568681346476078,0.006099485918879509
1733699989273926100,8.493926025390625,-0.0012958850294351577,0.0035267128214240074,0.004250643181800842
1733699989283881200,8.503881103515624,0.004966097974777222,-0.0013650047428905962,-0.011514496704936027
1733699989293835300,8.513835205078125,0.018330021938681603,0.0019664777673780915,-0.01344458798468113
1733699989303790000,8.5237900390625,0.024670915398001668,0.008532266023755073,-0.022712767067551612
1733699989313744100,8.533744140625,0.026278350594639777,0.007380173379182815,-0.026074936977028847
1733699989323699000,8.543698974609375,0.020458850660920142,0.005392798954248428,-0.0331090733975172
1733699989333653200,8.5536533203125,0.016692191603779792,0.014188099828362465,-0.0017296002715826034
1733699989343608000,8.563608154296874,0.005384031125903129,0.008901683858036994,0.007027706679701804
1733699989353562000,8.57356201171875,-0.006576455780863762,0.001508066475391388,-0.00641921939253807
1733699989363517000,8.583516845703125,-0.031195348730683324,-0.0031648937717080115,-0.019347674548625945
1733699989373471000,8.593470947265626,-0.03588555237352848,-0.001439385153353214,-0.00561842440366745
1733699989383426300,8.60342626953125,-0.014292729246616363,0.008818974010646343,-0.0016974515676498412
1733699989393380000,8.613380126953125,-0.017684125250577925,0.0027853929348289966,-0.009024433454871177
1733699989403335200,8.623335205078124,0.006152092888951301,0.001031096613407135,0.006375964772701263
1733699989413289000,8.6332890625,0.017708090648055074,0.000611556027084589,-0.0012409399718046187
1733699989423244000,8.643244140625,0.019269933137297628,0.010042378325760364,-0.02409925298988819
1733699989433198300,8.6531982421875,0.018600071051716804,0.007579641474038362,-0.028373861569166183
1733699989443153200,8.663153076171875,0.02798223190307617,-0.0062130292959511274,-0.010658756658434868
1733699989453107200,8.673107177734375,0.031388825476169585,-0.000452566073089838,-0.0029366379737854
1733699989463062000,8.68306201171875,0.01953355250954628,0.007964987529814243,-0.014038462224602699
1733699989473016000,8.69301611328125,0.01713409015238285,-0.0006347907721996307,-0.011036942321062088
1733699989482971100,8.70297119140625,0.003147650375962257,-0.006246639304608106,-0.00899988353550434
1733699989492925200,8.71292529296875,0.016049802047014235,-0.007274228786677122,-0.01809387509524822
1733699989502880000,8.7228798828125,-0.0002028290957212448,-0.007928016520291566,-0.019402619606256485
1733699989512834000,8.732833984375,-0.007348609197139739,0.003648731765896082,-0.009067688074707984
1733699989522789000,8.7427890625,-0.001880406919121742,-0.012639262951165436,-0.0013864859223365782
1733699989532743000,8.752742919921875,0.004372808256745338,0.011923808158189058,-0.02030044522881508
1733699989542698200,8.7626982421875,0.009845102187991141,0.0020126549966633317,-0.013075754672288893
1733699989552652000,8.772652099609376,-0.0018190321207046509,-0.0012662205435335636,-0.007111877831816673
1733699989562607000,8.782607177734375,0.006008885025978088,0.009895224940031767,-0.016354922473430632
1733699989572561200,8.79256103515625,0.020608488264679908,0.012871464271843432,-0.00504676199555397
1733699989582516200,8.80251611328125,0.014125555986166,0.017677257118374107,0.000748188018798828
1733699989592470300,8.81247021484375,0.025670447829365728,-0.006711480337381362,-0.007458499312400817
1733699989602425000,8.822425048828125,0.004957914668321609,-0.00013926234021782873,-0.01889525460600853
1733699989612379100,8.832379150390626,0.007299509358406066,-0.0004949439100921154,-0.011483517044782638
1733699989622334000,8.842333984375,0.012610475248098373,-0.0020322364799678326,-0.006185410636663437
1733699989632288000,8.8522880859375,0.005700841990113258,-0.0022816811963915825,-0.010280570995807647
1733699989642243000,8.8622431640625,0.006271335354447364,-0.0055991351813077924,-0.021688684716820717
1733699989652197000,8.872197021484375,0.01946691701412201,0.011753858418762683,-0.016312836897373197
1733699989662152000,8.88215185546875,-0.01076104798913002,0.005275748445838689,-0.014717676660418509
1733699989672106000,8.89210595703125,-0.009867314019799232,-0.012200725403428076,-0.015348375779390334
1733699989682061300,8.902061279296875,0.013584873238205909,-0.0033189152896404266,-0.0069254153490066524
1733699989692015000,8.91201513671875,0.006268412744998932,0.002314852813631296,-0.008009703454375267
1733699989701970200,8.92197021484375,0.019422493350505828,0.009954261650890112,-0.00431610963344574
1733699989711924000,8.931924072265625,0.026104163071513174,0.00421498734652996,-0.029518939951062202
1733699989721879000,8.941879150390625,0.02559679807126522,0.009816899006813764,-0.03793780872821808
1733699989731833000,8.9518330078125,0.019805939710140226,0.016852204471081496,-0.028722236615419387
1733699989741788200,8.9617880859375,0.02215162605345249,0.000549596706777811,-0.027680618607997892
1733699989751742200,8.9717421875,0.0029641105026006697,-0.015806640940904615,-0.011634908214211464
1733699989761697000,8.981697021484376,-0.0034971944659948346,-0.015467764375358819,0.016861118429899215
1733699989771651000,8.991651123046875,-0.007294833183288574,-0.006266220787912607,0.025137363865971565
1733699989781606100,9.001606201171874,-0.0030997195810079574,-0.002709112828224897,0.021025836893916128
1733699989791560200,9.011560302734376,-0.012821487650275229,-0.013819704907387494,0.017469021195173264
1733699989801515000,9.021514892578125,0.00902384893298149,0.005780629228055477,0.0015641805768013
1733699989811469000,9.031468994140624,0.00755903707742691,0.004449234493821859,-0.02616436882615089
1733699989821424000,9.041424072265626,0.012194295662641524,0.007295563835650682,-0.034138416445255275
1733699989831379700,9.051379638671875,0.029088731840252874,0.01240253158584237,-0.026065000104904174
1733699989841333500,9.06133349609375,0.022106617867946623,0.0038337329439818856,-0.014310849425196647
1733699989851288600,9.07128857421875,0.025492753174901007,0.0023538696497678755,-0.02254851641654968
1733699989861242600,9.08124267578125,0.022455577436089516,0.011880845799297093,-0.028956629893183705
1733699989871197700,9.09119775390625,0.030178865164518353,0.016937690797448158,-0.012073299631476402
1733699989881151700,9.10115185546875,0.021312252619862554,0.010938450382649898,-0.019558102428913114
1733699989891106600,9.1111064453125,0.029265257450938224,-0.011546937669813632,-0.009893032982945442
1733699989901060600,9.121060546875,0.002741407662630081,0.00315144976824522,-0.011983867782354354
1733699989911015400,9.131015380859376,-0.017165654334425927,-0.010305559306591749,0.0015174188256263732
1733699989920969500,9.140969482421875,-0.016512158861756325,-0.006396861430257558,-0.00575870965719223
1733699989930924500,9.150924560546875,-0.010071896681189536,-0.007854805153608322,-0.013222469666600227
1733699989940878600,9.160878662109376,-0.0021229835033416745,-0.01209448854997754,-0.013063479712605476
1733699989950833700,9.170833740234375,-0.009630582654476165,0.009655424834787846,-0.00158814597427845
1733699989960787500,9.180787353515624,0.014262918630242347,-0.0029772622451186177,-0.010177110621333122
1733699989970742800,9.19074267578125,0.01692015514075756,0.013113164073228835,-0.017667758637666703
1733699989980696600,9.200696533203125,0.027346856608986853,-0.002045680483430624,-0.010650573351979255
1733699989990651600,9.210651611328124,0.028263971453905103,0.011697452056407927,-0.004459902018308639
1733699990000605700,9.220605712890626,0.01203764379620552,0.010000877271592616,-0.024509002834558487
1733699990010560500,9.230560546875,0.019077040913701056,0.015550181961804627,-0.011102408772706985
1733699990020514600,9.2405146484375,0.029543489870429037,-0.001975099465250969,0.002279050847887993
1733699990030469600,9.2504697265625,0.01960018800497055,-0.000483545733243227,0.016911387312412263
1733699990040423700,9.260423583984375,0.013618190985918044,0.004376607649028301,-0.0068646250724792475
1733699990050378500,9.27037841796875,0.004516600641608238,0.007275251699984073,-0.0030868600994348526
1733699990060332500,9.28033251953125,-0.0011029928058385848,0.01133461009338498,-0.03769406310021877
1733699990070287600,9.29028759765625,0.0021978023052215577,0.010143939004093407,-0.02791384284198284
1733699990080241700,9.30024169921875,0.002625087806582451,-0.005123626624047756,-0.008441665130853652
1733699990090196700,9.31019677734375,0.0011947627425193785,0.0033469723403453827,-0.00625146161019802
1733699990100150500,9.320150634765625,0.013467384338378905,-0.010203414106369019,-0.017597031489014623
1733699990110105600,9.330105712890624,0.0036404023289680477,0.0029278701454401013,-0.000751110628247261
1733699990120059400,9.340059326171875,0.004485620981454849,-0.00023468553870916364,-0.009483283138275145
1733699990130014700,9.3500146484375,-0.0027981062859296795,0.009389028983563185,-0.014506664258241653
1733699990139968500,9.359968505859374,0.010866261929273605,0.006269727919250726,0.003802314892411232
1733699990149923600,9.369923583984376,0.0018517653465270996,0.005557926388084888,-0.005351297900080681
1733699990159877600,9.379877685546875,-0.0027688801914453505,0.004805646716058254,-0.0026402853757143017
1733699990169832700,9.389832763671874,0.01068389109969139,0.01571560165658593,-0.004002221378684044
1733699990179786800,9.399786865234375,0.015986089161038396,0.007149579493701458,-0.013780688071250914
1733699990189741600,9.409741455078125,-0.005087678527832031,0.025065321543067693,-0.012524550530314444
1733699990199695600,9.419695556640624,0.007383095988631248,-0.00044452889710664746,-0.005864508119225502
1733699990209650400,9.429650390625,0.02524433137178421,0.0028781857848167417,-0.021960487395524978
1733699990219604500,9.4396044921875,0.025793781948089598,0.010347937143594025,-0.008843816190958023
1733699990229559600,9.4495595703125,0.02330488774180412,-0.0013958382725715636,-0.000987257471680641
1733699990239513600,9.459513671875,0.021935352954268454,0.0028767244800925254,-0.02029460000991821
1733699990249468700,9.46946875,0.03295943579375744,-0.005630407102406024,-0.014506079736351965
1733699990259422500,9.47942236328125,0.009587912556529044,-0.001187163957953453,-0.005834697502851486
1733699990269377800,9.489377685546875,0.018218962779641152,0.010845511402189732,-0.008117255482077599
1733699990279331600,9.49933154296875,-0.007080898171663284,0.014123510159552096,-0.012733809366822241
1733699990289286700,9.50928662109375,-0.00820084211230278,0.008609569043666124,-0.00651508098244667
1733699990299240700,9.51924072265625,-0.00653729281425476,0.007973024705797433,0.0014683189868927
1733699990309195500,9.529195556640625,0.01207680676281452,0.003227437613904476,-0.01012450365126133
1733699990319149600,9.539149658203126,0.015344284126162528,0.00891629690527916,0.003774257841706276
1733699990329104600,9.549104736328125,0.025225042149424552,0.004173486292362213,-0.003983516678214073
1733699990339058700,9.55905859375,0.02906359739899635,0.010578531029075383,-0.01567103186249733
1733699990349013500,9.569013427734374,0.023065233767032622,0.00913198548257351,-0.005754033482074737
1733699990358967600,9.578967529296875,0.022568974682688713,-0.007739946602284908,0.003523497951030731
1733699990368922600,9.588922607421875,0.006391746863722801,0.0007617781527340412,0.005779752445220947
1733699990378876700,9.598876708984376,-0.001734276446700096,0.014471154553443192,-0.00277414088845253
1733699990388831500,9.60883154296875,0.0011252046376466751,-0.00792582456320524,-0.025793781948089598
1733699990398785500,9.61878564453125,-0.011627893951535224,-0.0030526655688881874,-0.02056874077618122
1733699990408740600,9.62874072265625,-0.025780337944626808,-0.001831745471805334,-0.017803952237963674
1733699990418694400,9.6386943359375,-0.0123784200578928,0.0076652739308774465,-0.01983399676084518
1733699990428649700,9.648649658203125,-0.0058890580385923385,0.003323591464757919,-0.0024584990680217743
1733699990438603500,9.658603515625,0.013130115208029746,0.01322802262455225,-0.013694763353466987
1733699990448558600,9.66855859375,0.009931611427664756,0.013965396988391875,-0.008401917642354964
1733699990458512600,9.6785126953125,-0.004081716355681419,-0.00335296368971467,-0.013612345767021179
1733699990468467700,9.6884677734375,0.02962181580364704,0.009768383689969778,-0.025669278785586357
1733699990478421800,9.698421875,0.02581190212666988,0.008888093724101782,-0.0367646732956171
1733699990488376600,9.70837646484375,0.02557107910811901,0.00874050194695592,-0.02035480576455593
1733699990498330600,9.71833056640625,0.007427519652247428,0.0008864274457097053,-0.016139818418025968
1733699990508285400,9.728285400390625,-0.009776128605008125,-0.006047463470697402,-0.012473112604022025
1733699990518239500,9.738239501953124,-0.01831833150088787,-0.004912760352343321,0.011116437298059462
1733699990528194600,9.748194580078126,-0.014157704690098761,-0.009192921889573335,0.03378478070199489
1733699990538148600,9.758148681640625,-0.02216214744746685,-0.007937953392416238,0.03092763770520687
1733699990548103700,9.768103759765625,0.02282090361714363,-0.00999590883553028,0.018871873730421065
1733699990558057500,9.778057373046876,0.034359950241446495,-0.0013397241711616515,-0.00004968436062335968
1733699990568012800,9.7880126953125,0.036981530916690826,0.017508330292254685,-0.022200725892186163
1733699990577966600,9.797966552734374,0.04338438369631767,0.022614713520556686,-0.03034779199063778
1733699990587921700,9.807921630859376,0.03585457271337509,0.024184593185782432,-0.013956629160046577
1733699990597875700,9.817875732421875,0.027834347864985464,0.012558891191333531,-0.029298575198650357
1733699990607830500,9.82783056640625,0.026236849540472028,0.006439969919621944,-0.0075087681949138636
1733699990617784600,9.83778466796875,0.018948446097970008,0.006346592547744512,-0.004417816442251205
1733699990627739600,9.84773974609375,0.024350012880563734,-0.0009404957205057144,-0.011534370449185372
1733699990637693700,9.857693603515624,0.019716507861018178,-0.00313990546092391,-0.0028010288953781125
1733699990647648500,9.8676484375,0.018827450066804884,0.003967880717664957,-0.015602642801403999
1733699990657602600,9.8776025390625,0.005675707548856735,0.00966653075069189,-0.003425298273563385
1733699990667557400,9.887557373046874,-0.006718494600057602,-0.006691168201714753,-0.0001239186406135559
1733699990677511700,9.89751171875,0.0032476036190986633,-0.01432984638661146,0.0005593874484300613
1733699990687466500,9.907466552734375,-0.001685176607966423,0.0005403904870152473,-0.007691139024496078
1733699990697420500,9.917420654296874,0.00656476534307003,0.0009989479094743728,-0.0022813889354467392
1733699990707375600,9.927375732421876,-0.0032739071041345594,-0.005655541543662547,0.0009235445857048034
1733699990717329400,9.937329345703125,-0.0007581248909235,-0.003703238432109356,-0.004486205503344535
1733699990727284700,9.94728466796875,0.0005979658931493759,0.0012777648508548736,-0.010337854140996932
1733699990737238500,9.957238525390625,0.009600772038102149,-0.004065934264659881,-0.024255904856324194
1733699990747193600,9.967193603515625,0.00926174934208393,0.0007664543278515339,-0.0211795661509037
1733699990757147600,9.977147705078124,0.03135843033790588,0.014150690427422523,-0.014667407777905463
1733699990767102500,9.9871025390625,0.03152969525158405,0.013469722425937651,-0.021661212188005447
1733699990777056800,9.997056884765625,0.020475217273831368,0.01153875436335802,0.0047369653940200806
1733699990787011600,10.007011474609374,0.01787175677716732,0.006174012459814548,0.010898995155096054
1733699990796965600,10.016965576171875,0.017289572975039483,0.009952069693803786,0.00871931302845478
1733699990806920400,10.02692041015625,0.012698738053441046,0.00281856455206871,-0.010525485667586326
1733699990816874500,10.03687451171875,0.02035948193967342,0.0036256431512534616,-0.00423895274400711
1733699990826829600,10.04682958984375,0.035302784049510955,-0.004983341370522976,-0.020296353575587272
1733699990836783600,10.05678369140625,0.019527122768759727,-0.005333908373862504,-0.01768354072868824
1733699990846738700,10.06673876953125,0.021615034958720206,-0.015506342820078133,-0.001423310801386833
1733699990856692700,10.076692626953125,0.03302022607028484,-0.006189356159418821,-0.011450199297070503
1733699990866647800,10.086647705078125,0.019210896426439285,0.012497224131971596,-0.0036152678877115246
1733699990876601600,10.0966015625,0.018619944795966147,0.009305442353338002,-0.0007195464462041854
1733699990886556700,10.106556640625,0.009983633875846862,0.013828472735732794,0.003233575093746185
1733699990896510700,10.1165107421875,-0.003615852409601211,0.017342179945111273,-0.016022914040088654
1733699990906465800,10.1264658203125,0.00940203459560871,0.010237024115025996,-0.0022270283997058867
1733699990916419800,10.136419921875,0.005218026909232139,0.0023749124377965927,0.0037906244546175
1733699990926374700,10.146374755859375,-0.01462181507050991,0.0077729720890522,-0.007356792503595352
1733699990936328700,10.15632861328125,-0.01544482189118862,0.02553834588229656,0.0003115501672029495
1733699990946283500,10.166283447265625,-0.04220832565426826,-0.00525178304836154,-0.00480886158645153
1733699990956237800,10.17623779296875,-0.03883154269754886,0.0005200783513486385,-0.0002694645911455154
1733699990966192600,10.186192626953124,-0.02876782932281494,0.002741846054047346,-0.01151040505170822
1733699990976146700,10.196146728515625,-0.02574877376258373,-0.0025756957069039345,-0.029912323182821273
1733699990986101500,10.2061015625,-0.016947627669572828,0.0022473405353724955,-0.05491115536093712
1733699990996055600,10.2160556640625,-0.021903788772225378,-0.0039295945338904854,-0.04930675948262214
1733699991006011000,10.226010986328125,-0.0328086291462183,0.009146744660288095,-0.02417991701066494
1733699991015964700,10.235964599609375,-0.034920506733655925,0.0048459787264466285,0.005649988585710525
1733699991025919700,10.245919677734374,-0.01974573395550251,0.007868103026598692,0.005880874732136726
1733699991035873500,10.25587353515625,-0.0015168343037366865,0.0018983809672296046,-0.00865443109869957
1733699991045828600,10.26582861328125,0.03233750450313091,0.00811214091554284,-0.01837444560229778
1733699991055783000,10.275782958984376,0.051019993141293525,0.0031396131999790666,-0.021120529440045357
1733699991065737700,10.28573779296875,0.06593640724420548,0.005355827944725751,-0.04910685299634933
1733699991075691800,10.29569189453125,0.08247194698154926,0.013701046963781117,-0.03218786689937114
1733699991085646600,10.305646484375,0.08150514777600765,0.009522299974411725,-0.023625790259242056
1733699991095600600,10.3156005859375,0.06388473541140556,0.009555617722123861,-0.021528525719046593
1733699991105555700,10.3255556640625,0.06811842745840549,0.013326952954381703,0.0007850128978490829
1733699991115509800,10.335509765625,0.05084872822761535,0.014452595983445643,0.01967909846007824
1733699991125464600,10.345464599609375,0.03696107265055179,-0.0001014145478606224,0.03234627233147621
1733699991135418600,10.355418701171875,0.03091360917985439,-0.0117661333784461,0.007486556363105774
1733699991145373700,10.365373779296876,0.04520107772946357,-0.0018815759629011153,-0.02322831537425518
1733699991155327700,10.37532763671875,0.025604981377720833,0.021069529905170203,-0.01603694256544113
1733699991165282800,10.38528271484375,0.003456277933716774,0.018037322602421045,-0.03398585623204708
1733699991175236600,10.395236572265626,-0.006679916155338287,0.013104250114411116,-0.040028643527626986
1733699991185191700,10.405191650390625,-0.0004927519530057906,0.005507803636044264,-0.03209901957213879
1733699991195146500,10.415146484375,-0.02396247486770153,0.007912672820687293,0.0015291092634201048
1733699991205100800,10.425100830078126,-0.03604629589319229,-0.0020939035393297673,0.02115209362208843
1733699991215055600,10.4350556640625,-0.02489361823797226,-0.01368979491740465,0.013601239851117133
1733699991225009700,10.445009765625,-0.03756722185015678,-0.0060791737832129,-0.012220599147677421
1733699991234964700,10.45496484375,-0.006257891350984573,-0.010856617318093776,-0.023378537499904633
1733699991244918500,10.46491845703125,-0.01481178468465805,-0.0034011867456138134,-0.027611645025014876
1733699991254873900,10.474873779296875,-0.0022147534400224684,0.005318856935203075,-0.0031926585614681243
1733699991264827600,10.48482763671875,0.002627425894141197,-0.014239683885127304,0.0025520225703716277
1733699991274781700,10.49478173828125,-0.014008067086338996,-0.011348930879682301,-0.00909223799407482
1733699991284736500,10.504736572265625,-0.038406595283746715,-0.004750555527955293,-0.018028408643603323
1733699991294691600,10.514691650390626,-0.03983341321647167,-0.002655921336263418,-0.017159224593639374
1733699991304646000,10.52464599609375,-0.028294366592168805,-0.00007481880187988281,-0.0052495910912752144
1733699991314600700,10.5346005859375,-0.018645663759112356,0.0037764497987926005,-0.03310205913484096
1733699991324554800,10.5445546875,-0.010652326917648315,-0.0009853577755391597,-0.05151917483508586
1733699991334509600,10.554509521484375,0.0010667524486780166,0.017239450222998855,-0.0184913499802351
1733699991344463600,10.564463623046874,0.005928805527091026,0.01680748854652047,0.0004617722928524017
1733699991354418700,10.574418701171876,0.031306407889723775,-0.008043897984921932,0.01593289766907692
1733699991364372700,10.584372802734375,0.035171266624331475,-0.021740122643113136,0.0058253451526165
1733699991374327600,10.59432763671875,0.03885317000746727,0.013447072202712297,0.008233575338125229
1733699991384281600,10.604281494140626,0.06329787543416023,0.01359919402450323,-0.01779459988772869
1733699991394236700,10.614236572265625,0.047290743485093115,0.014601795195788143,-0.030898996132612228
1733699991404190700,10.624190673828124,0.023419454032182693,0.010608341645449399,-0.0070674541682004925
1733699991414145800,10.634145751953126,0.003614683365821838,-0.0143989661000669,-0.0002893383353948593
1733699991424099600,10.644099609375,-0.006956395009160041,-0.006363835943490267,0.0023579613029956815
1733699991434054700,10.6540546875,-0.019421908828616143,-0.015941373236477374,-0.023290274694561956
1733699991444008700,10.6640087890625,-0.033306641796231266,0.008532704415172338,-0.01045475851893425
1733699991453963800,10.6739638671875,-0.01942716952562332,0.010654518874734639,-0.008102057912945746
1733699991463917800,10.683917724609374,0.011453121906518935,0.008124123614281416,-0.014824059644341468
1733699991473872600,10.69387255859375,0.020164251628518103,0.02601575413569808,-0.02857961327433586
1733699991483826700,10.70382666015625,0.0377408248513937,0.033123540314286944,-0.03092939127087593
1733699991493781500,10.713781494140624,0.03545651330649852,0.03134352502971888,-0.045295770275592805
1733699991503735800,10.72373583984375,0.010489245310425757,0.026694530180096626,-0.04310907388627529
1733699991513690600,10.733690673828125,-0.006283610314130782,0.03900441504642367,-0.018839725026488303
1733699991523644700,10.743644775390624,-0.012283727511763572,-0.001258183367550373,-0.017545593562722204
1733699991533599500,10.753599609375,-0.04897825818061828,-0.014788111548125742,0.000668108519911766
1733699991543553500,10.763553466796875,-0.06302724179923534,-0.02517491939738393,0.003971826240420341
1733699991553508900,10.7735087890625,-0.05197159477770328,-0.013831103084236383,0.00530862780213356
1733699991563462700,10.783462646484375,-0.05954232229292392,-0.006713672294467688,-0.002117138284444809
1733699991573417700,10.793417724609375,-0.021374211940169332,0.004937164141237736,0.004542319604754447
1733699991583371500,10.80337158203125,0.006622633010149002,-0.002978869680315256,-0.016028759258985517
1733699991593326600,10.81332666015625,0.040406829190254206,-0.008013210585713386,-0.0007417582780122757
1733699991603281000,10.823281005859375,0.06691431236565112,0.012124006905406713,-0.01731178480684757
1733699991613235700,10.833235595703124,0.09388006070256233,0.014602671978622674,-0.024589082333445547
1733699991623189800,10.843189697265625,0.09326631271839142,0.022559330071508885,-0.011182488271594047
1733699991633144600,10.85314453125,0.09890694895386695,0.024119126734137533,0.0061550154983997345
1733699991643098600,10.8630986328125,0.06914777050614357,0.026987521777302025,0.01073357546031475
1733699991653053700,10.8730537109375,0.051986207824945445,0.028151597120612857,0.01645779832601547
1733699991663007700,10.8830078125,0.013331190738081932,0.002861526910960674,-0.0019996493846178055
1733699991672962600,10.892962646484374,-0.007505845585465431,-0.02210194169282913,-0.010080664509534836
1733699991682916600,10.90291650390625,-0.029377485653758046,-0.021896482248604295,-0.0005360065728425979
1733699991692871700,10.91287158203125,-0.06669920831024646,0.00006502806022763252,0.0038163434177637097
1733699991702825700,10.92282568359375,-0.061329790231585496,0.006459405272454023,-0.02214168918132782
1733699991712780800,10.93278076171875,-0.057741994872689245,-0.015708587393909693,-0.0339455242216587
1733699991722734600,10.942734619140625,-0.06650047086775303,0.001856879913061857,-0.01970774003267288
1733699991732689700,10.952689697265624,-0.044136663368344306,0.0014849778607487678,-0.016488193464279172
1733699991742643700,10.962643798828125,-0.025582185024023055,0.005984335106611251,-0.0007622165441513061
1733699991752598800,10.972598876953125,0.01219663375020027,0.025137509996443985,-0.03238017460107803
1733699991762552800,10.982552734375,0.06755904000997542,0.041183366520702834,-0.03895896846950054
1733699991772507600,10.992507568359375,0.05904898581802845,0.036909488593786954,-0.03307283304035664
1733699991782461700,11.002461669921875,0.06497253064811229,0.026178105090558526,-0.029084640187025067
1733699991792416500,11.01241650390625,0.04114098868370056,0.009243483033031224,0.005944587618112564
1733699991802370800,11.022370849609375,0.04621639225184917,-0.008110241219401359,0.032008418679237365
1733699991812325600,11.03232568359375,0.03486147002279758,-0.01762757275775075,0.036058570852875706
1733699991822279700,11.04227978515625,0.016593991926312446,-0.01036693410500884,0.01068739823102951
1733699991832234500,11.052234375,0.02094517287313938,-0.00546045736297965,-0.018020225337147713
1733699991842188300,11.062188232421875,0.005548866298794746,0.0004174947597086429,-0.02400163783431053
1733699991852143600,11.0721435546875,-0.02200783366858959,-0.0021605390347540377,-0.0013204349488019943
1733699991862097400,11.082097412109375,-0.026347324177622793,0.009027794455736876,-0.006909048736095428
1733699991872052500,11.092052490234375,-0.015399229183793066,0.007025660853087902,-0.015337854385375976
1733699991882006500,11.102006591796876,-0.01954348938167095,0.01800049772337079,-0.016144494593143464
1733699991891961300,11.11196142578125,-0.010040917021036147,0.013406447931379078,-0.01768470977246761
1733699991901915400,11.121915283203125,0.008024316501617432,0.012033552142977714,-0.010540098714828491
1733699991911870500,11.131870361328126,0.05042494985759258,0.013290858727693557,-0.008508300626277924
1733699991921824500,11.141824462890625,0.07359539756476878,0.025137363865971565,-0.03093114483654499
1733699991931779300,11.151779296875,0.07440905203521252,0.010519055926799773,-0.03257891204357147
1733699991941733400,11.1617333984375,0.0989092870414257,0.007465367444604635,-0.01628302628099918
1733699991951688400,11.1716884765625,0.12279343597590922,0.01655015278458595,-0.0011778116077184677
1733699991961642500,11.181642578125,0.09027765229642391,0.024010113401710987,-0.012346271353960037
1733699991971597300,11.191597412109376,0.042075639185309405,0.026808073557168244,-0.043426469272375104
1733699991981551400,11.20155126953125,-0.03583352992534637,0.009991817182302474,-0.02134732393324375
1733699991991506400,11.21150634765625,-0.057384267476201054,-0.0012019231356680392,0.016744214051961897
1733699992001460200,11.221460205078126,-0.07535013227760791,-0.024953823992609977,0.02326397120952606
1733699992011415600,11.23141552734375,-0.08084229995310306,-0.01065802600607276,0.037381928411126135
1733699992021369300,11.241369384765624,-0.0635211627960205,0.0011634908214211463,-0.00012801029384136198
1733699992031324400,11.251324462890626,-0.05435585956573486,-0.0034643151096999643,-0.026790391770005223
1733699992041278500,11.261278564453125,-0.03690028237402439,-0.020391338382661342,-0.004025017732381821
1733699992051233500,11.271233642578125,-0.040189971569180485,-0.04081555612161755,0.018991700717806814
1733699992061187600,11.2811875,-0.027204233267903326,-0.01752571981847286,0.01196750116944313
1733699992071142400,11.291142333984375,-0.030357144340872763,-0.0013357786484062672,-0.0006336217284202575
1733699992081096400,11.301096435546874,-0.019359949508309365,-0.006304214710742235,-0.00614215601682663
1733699992091051300,11.31105126953125,-0.023729250633716583,0.0044034956559538836,-0.008629296657443046
1733699992101005300,11.32100537109375,-0.033959552747011186,0.017526888862252236,-0.006999649628996849
1733699992110960400,11.33096044921875,-0.0037672435790300366,0.013382774794846772,-0.02329670443534851
1733699992120914400,11.34091455078125,0.020219196686148643,0.015359920086711644,-0.018732172998785972
1733699992130869500,11.350869384765625,0.05520867700278759,0.014760054497420787,-0.034706571722030635
1733699992140823300,11.3608232421875,0.06693418610990047,0.03128799545019865,-0.022099603605270385
1733699992150778600,11.370778564453126,0.06561784281432628,0.0181274851039052,-0.05182487978339195
1733699992160732400,11.380732421875,0.05530336954891681,0.01485182443410158,-0.03945639659762382
1733699992170687500,11.3906875,0.0476835421949625,0.02790785149261355,-0.038136546170711515
1733699992180641500,11.4006416015625,0.04984744223058223,0.021674656191468238,-0.019388591080904006
1733699992190596400,11.410596435546875,0.022356208714842795,0.02282704109698534,-0.010673954227566718
1733699992200550400,11.42055029296875,0.012442132943868636,0.010436053818464278,-0.00684708941578865
1733699992210505500,11.43050537109375,0.020929390782117842,0.009823328747600316,-0.011715572234988212
1733699992220459500,11.44045947265625,0.013597148197889328,0.006917085912078618,-0.010079495465755463
1733699992230414300,11.450414306640624,0.00953881271779537,-0.002868979565054178,0.0030243162572383877
1733699992240368400,11.460368408203125,0.0015367080479860304,0.010829729311168193,-0.008917465949058533
1733699992250323500,11.470323486328125,0.018911036697030065,-0.004568330828845501,-0.016110007801651952
1733699992260277500,11.480277587890624,0.015817162334918974,0.004364040428400039,-0.0030459435671567913
1733699992270232300,11.490232421875,0.008819850793480872,-0.01345364807397127,0.008221884900331497
1733699992280186400,11.500186279296875,0.018931494963169097,-0.02055631968602538,0.02749766325652599
1733699992290141400,11.510141357421874,0.045646483409404755,-0.015394114617258309,0.019350597158074377
1733699992300095200,11.52009521484375,0.05913023436069488,-0.01425166658386588,-0.0026905542582273483
1733699992310050600,11.530050537109375,0.08239829722344875,-0.011688245836645364,-0.028716975918412206
1733699992320004400,11.54000439453125,0.10192483547031879,0.0034038170941174026,-0.027351532784104345
1733699992329959400,11.54995947265625,0.0999462288737297,0.0319850378036499,-0.03759995507597923
1733699992339913500,11.55991357421875,0.10537351461946963,0.013541618618369103,-0.04082943851649761
1733699992349868500,11.56986865234375,0.06778408093750476,0.036502369097620245,-0.015806640940904615
1733699992359822600,11.579822509765625,0.04287175799906254,0.034615532437711954,-0.015928806015849114
1733699992369777400,11.58977734375,0.0013385551273822783,0.024209873757511376,-0.008360416588187217
1733699992379731500,11.5997314453125,-0.0422848980218172,0.020398060384392736,0.013607669591903685
1733699992389686300,11.609686279296875,-0.10565525417029857,-0.0012679741092026233,0.019596096351742743
1733699992399640300,11.619640380859375,-0.12666063279807566,-0.009928542687743902,0.037409400939941405
1733699992409595400,11.629595458984374,-0.1264852762311697,-0.013391981014609335,0.02833995929956436
1733699992419549400,11.639549560546875,-0.1516337460130453,-0.020127280618995425,0.013191490006446838
1733699992429504500,11.64950439453125,-0.15278993031084537,-0.01870367755666375,-0.011059154152870178
1733699992439458300,11.659458251953126,-0.13730945258438587,0.00463394341096282,-0.02527648007571697
1733699992449413600,11.66941357421875,-0.10643617541491984,-0.007888853553682565,-0.05313946951329708
1733699992459367400,11.679367431640625,-0.07322714877426624,0.0006109715051949024,-0.05596095667481422
1733699992469322500,11.689322509765624,-0.030377018085122106,0.02721431627050042,-0.04635784654915333
1733699992479276500,11.699276611328125,0.033223639687895774,0.039614655899256467,-0.05210545029044151
1733699992489231400,11.7092314453125,0.06956395009160041,0.05166515917703509,-0.06713701520562172
1733699992499185400,11.719185302734376,0.10101765749752521,0.039488253040611744,-0.036389994764328
1733699992509140500,11.729140380859375,0.10307108289599418,0.042336774339526886,-0.043045945522189134
1733699992519094500,11.739094482421875,0.09502630812823772,0.03012070523649454,-0.006333294674754142
1733699992529049300,11.74904931640625,0.08026596136987209,0.016252923403680324,0.01117839661836624
1733699992539003400,11.75900341796875,0.0516442625194788,0.004426145879179239,0.014073533537983893
1733699992548957400,11.76895751953125,0.036080782684683795,-0.0014645195946097374,0.00547463201880455
1733699992558912500,11.77891259765625,0.011838321831822395,-0.013437719852477312,0.00538227756023407
1733699992568867300,11.788867431640625,-0.018007365855574605,-0.0014224340185523033,0.013682488393783568
1733699992578821400,11.7988212890625,-0.0420323845654726,-0.01621098395809531,0.011703297275304794
1733699992588776400,11.8087763671875,-0.03585281914770603,-0.006147124452888965,-0.0002139350116252899
1733699992598730200,11.818730224609375,-0.039028526574373244,-0.014855477695912122,0.006430325308442115
