time,seconds_elapsed,z,y,x
1733705217828050400,0.025050537109375,0.04627981287688017,-0.015088555799424648,-0.1964203977227211
1733705217838017500,0.035017578125,0.197063956323266,-0.02796118911504745,-0.2074783828318119
1733705217847983400,0.0449833984375,0.23228841443955897,-0.010791881518810987,-0.13412088567614555
1733705217857950500,0.054950439453125,0.3736974112972617,0.08934417083859443,-0.2815565954774618
1733705217867917600,0.06491748046875,0.15865151582062242,-0.04140913810059428,0.06032675066888332
1733705217877884400,0.074884521484375,-0.0904632379963994,-0.18267098157256842,0.1600695659250021
1733705217887851500,0.0848515625,-0.1499196355715394,-0.08266264724805951,0.1606231081545353
1733705217897817300,0.0948173828125,-0.09079816903918982,-0.02732245282009244,0.20550328336656093
1733705217907784400,0.104784423828125,-0.06205693546235561,0.0050208969019353384,0.2000222216069698
1733705217917751600,0.11475146484375,-0.023228023113310337,0.05769815573096275,0.08769055841267108
1733705217927718400,0.124718505859375,-0.05885609359443188,0.30106413676291705,-0.06547814208269119
1733705217937684500,0.1346845703125,0.01709434266388416,0.16433511441498994,-0.03612228373885155
1733705217947651300,0.1446513671875,0.1036842463582754,-0.20237433769106863,-0.003118424281477928
1733705217957618400,0.154618408203125,-0.018197919991612434,-0.07910437024459242,-0.06343056190311909
1733705217967585300,0.164585205078125,-0.03814852886945009,0.0027229952231049535,-0.0700917733579874
1733705217977551400,0.17455126953125,-0.027868250134587286,0.07530877735391259,-0.04921674311161041
1733705217987517700,0.184517578125,0.028427053061127663,0.09344137702435254,-0.044372225689887995
1733705217997484800,0.19448486328125,0.06480535738766192,0.05027706581950187,-0.041186581391096114
1733705218007451600,0.20445166015625,0.06725450410544873,-0.0007553484119474887,-0.02072247003316879
1733705218017417700,0.214417724609375,0.039733459973335265,-0.022745792554318904,-0.010381693282723425
1733705218027384800,0.224384765625,-0.004662438853085041,-0.039796442206948994,-0.0211012402176857
1733705218037351700,0.2343515625,-0.017931670270860196,-0.03322086320891976,-0.04709785126149654
1733705218047318800,0.24431884765625,-0.027470190727710724,-0.01771495878025889,-0.037757775986194606
1733705218057286000,0.254285888671875,-0.028474399334192275,0.010064736288040875,-0.015494506251811981
1733705218067251700,0.264251708984375,-0.007994505885243416,0.003310439722239971,0.034487960535287854
1733705218077218800,0.27421875,0.0030687399208545684,-0.02305705046057701,0.07027531323134899
1733705218087185700,0.284185546875,0.027820319339632988,-0.037365123406797644,0.06868366012573242
1733705218097152800,0.29415283203125,0.022240473380684852,-0.021940759781748056,0.05283084195554256
1733705218107118600,0.30411865234375,0.015937573844194412,-0.010135025045275688,0.024695465317368506
1733705218117085700,0.314085693359375,0.037944822990894314,-0.008279460306465626,-0.0066916065931320184
1733705218127052800,0.324052734375,0.03233984259068966,-0.006896919906884432,-0.02800795086622238
1733705218137019600,0.33401953125,0.018218378257751463,0.0021428572475910186,-0.04180325198471546
1733705218146985700,0.34398583984375,0.0065998366564512245,-0.007567804905772209,-0.04652501980960369
1733705218156952600,0.35395263671875,-0.005674246244132519,-0.005855740290880203,-0.03938742301464081
1733705218166919700,0.363919677734375,-0.019854455026984213,0.017090104880183934,-0.02058744547665119
1733705218176886800,0.37388671875,-0.0112476624622941,0.02392068155258894,0.010913023680448532
1733705218186853600,0.383853515625,-0.025758126112818715,0.04418210994526744,0.03643032677471637
1733705218196819700,0.39381982421875,-0.0089057755112648,0.04593772144094109,0.03572247076630592
1733705218206786600,0.40378662109375,0.02433189270198345,0.052026685965806244,0.019420155262947082
1733705218216753700,0.413753662109375,0.02293722347319126,0.030220512349158523,-0.009521861582994461
1733705218226720500,0.423720458984375,0.017282850973308086,0.0044859132423996926,-0.03623158933222294
1733705218236686600,0.4336865234375,0.02540887428373098,-0.027707506614923477,-0.050932314857840534
1733705218246653700,0.44365380859375,0.03598959726989269,-0.03053513125628233,-0.05516717594861984
1733705218256620500,0.45362060546875,0.03345160322487354,-0.028982056595385074,-0.03906710501909256
1733705218266587600,0.463587646484375,0.02854161935150623,-0.02991846066266298,0.0015256021320819854
1733705218276553700,0.4735537109375,0.009307634310424327,0.0009457564175128936,0.033924481433629985
1733705218286520800,0.483520751953125,-0.008424713996052742,0.049190585757046934,0.07063362514972686
1733705218296488000,0.493488037109375,0.0017085574835538863,0.051793607862293714,0.0794984841287136
1733705218306454800,0.503454833984375,-0.005467617756128311,0.012389672104269266,0.0569248332709074
1733705218316421600,0.513421630859375,-0.011175474008917809,0.0016964286543428896,0.006237433084845543
1733705218326387700,0.5233876953125,-0.003657353463768959,-0.004933803140372037,-0.056765843316912645
1733705218336354800,0.533354736328125,0.028390812703967094,-0.009650310268253087,-0.08303893321454525
1733705218346321700,0.54332177734375,0.03684884444773197,-0.027527327742427585,-0.052661915129423136
1733705218356288800,0.553288818359375,0.039244215151667594,-0.014818360555917023,-0.0279459915459156
1733705218366254800,0.5632548828125,0.04055938940346241,0.0028042437657713887,0.011706804406642913
1733705218376221700,0.5732216796875,0.04848433718383312,0.012245149067044258,0.024165303963422775
1733705218386188800,0.583188720703125,0.020616087049245835,-0.003394172482937574,0.018311901760101317
1733705218396155600,0.59315576171875,0.0032166239589452744,-0.011979191607236862,-0.0044148938328027725
1733705218406121700,0.603121826171875,-0.0074216744333505625,-0.003001958294957876,-0.04618775067925453
1733705218416088600,0.613088623046875,0.0011146832436323166,0.02543371646404266,-0.05902794302999973
1733705218426055700,0.6230556640625,0.02537234166562557,0.02569105222597718,-0.05631225433051586
1733705218436022800,0.633022705078125,0.03987257618308067,-0.011743337024748324,-0.04794540800154209
1733705218445988600,0.642988525390625,0.03184066089689731,-0.015044716657698154,-0.024842764833569526
1733705218455955700,0.652955810546875,0.027445348547399044,0.009210311415791511,0.00727320587337017
1733705218465922600,0.662922607421875,0.0050476387783885,-0.0030582185268402096,0.04044190050363541
1733705218475889700,0.6728896484375,-0.007484218275547027,-0.016517857950180768,0.05005845463275909
1733705218485856800,0.682856689453125,-0.02423778467774391,-0.004651479067653418,0.04745733222365379
1733705218495822600,0.692822509765625,-0.03269990807473659,0.005484130499511957,0.03326923239529132
1733705218505789700,0.702789794921875,-0.0156330379396677,0.016435001972317696,0.018690671944618223
1733705218515756500,0.712756591796875,-0.0035813656181097027,0.008720628202706575,0.00483282698392868
1733705218525723600,0.7227236328125,-0.0027829087167978283,-0.013967004423588513,0.012063947281241416
1733705218535689500,0.732689453125,0.009972527959942816,-0.005101268661767244,0.0015910685837268828
1733705218545656600,0.742656494140625,0.01768470977246761,-0.011438801120221614,-0.02182955449223518
1733705218555623700,0.752623779296875,0.008168693408370018,-0.0013050912491977215,-0.039782559812068935
1733705218565590500,0.762590576171875,0.010608487775921821,0.013598901763558387,-0.027229952231049535
1733705218575556900,0.772556884765625,0.027805121770501134,0.028574060316383838,-0.03598784370422363
1733705218585523700,0.782523681640625,0.0301987389087677,0.019851970808953047,-0.02449789691865444
1733705218595490800,0.79249072265625,0.01133095683157444,0.010745412028580903,-0.013656769430637358
1733705218605457700,0.802457763671875,0.012018939095735549,-0.008338789278268813,-0.001052139401435852
1733705218615424500,0.812424560546875,0.015131518158316612,-0.012900982627272605,0.025496260306239128
1733705218625390800,0.822390869140625,0.011643676042556762,-0.02324336681291461,0.019825228932499883
1733705218635357700,0.832357666015625,0.016666472640633583,-0.028926527015864848,0.004220832565426826
1733705218645324800,0.84232470703125,0.012689970225095748,-0.022315292182564735,0.006231587865948677
1733705218655292000,0.8522919921875,0.016289163760840893,-0.0034336277104914186,-0.012934884896874428
1733705218665257700,0.8622578125,0.029787820020318028,0.004804039280861616,-0.003936754927039147
1733705218675224800,0.872224853515625,0.019680267503857613,0.018277707229554654,-0.0017564882785081862
1733705218685191700,0.882191650390625,0.015247545753419398,0.03182750915437937,0.001284194591641426
1733705218695158800,0.89215869140625,0.021575287470221517,0.013960720813274383,0.01276478902697563
1733705218705124600,0.90212451171875,0.016380349175631997,0.02845452558994293,0.0026057985842227933
1733705218715091700,0.912091796875,0.003794423846900463,0.022794454001635312,-0.0194324302226305
1733705218725058800,0.922058837890625,0.012481295910477638,0.0021978023052215577,-0.0480494528979063
1733705218735025700,0.932025634765625,0.009508417579531669,-0.012181582311540842,-0.05195405912101268
1733705218744992800,0.94199267578125,0.03127425918579101,-0.01634396268799901,-0.04304536100029945
1733705218754958600,0.95195849609375,0.020381693771481513,-0.014770283630490303,-0.01984510267674923
1733705218764925700,0.96192578125,0.010904840373992919,-0.01764262419641018,-0.004029109385609626
1733705218774892800,0.971892822265625,0.021470365791022777,-0.015897680225223303,0.002190203520655632
1733705218784859600,0.981859619140625,0.013330021694302557,-0.012475596822053193,-0.011845336094498634
1733705218794825700,0.99182568359375,0.013480828341841698,0.0005824760630726814,-0.004936871880292892
1733705218804792600,1.00179248046875,-0.0008586626559495925,0.018849808029085396,-0.004523614904284477
1733705218814759700,1.011759765625,0.006707973206043243,0.026546646142005918,0.008704115459322929
1733705218824726500,1.0217265625,-0.009599602994322776,-0.006445230616629123,0.0056838908553123475
1733705218834692600,1.031692626953125,0.002472235332429409,-0.010476678089797496,0.006165536892414092
1733705218844659700,1.04165966796875,-0.0024555764585733413,-0.00022986323311924932,-0.006361936247348785
1733705218854626600,1.05162646484375,0.018979133497178554,0.027758067758381366,0.0019967267751693726
1733705218864593700,1.06159375,0.016480010157823563,0.003193681474775076,0.008742693904042243
1733705218874559700,1.071559814453125,0.009258242210745811,-0.01287292557656765,0.008941431346535682
1733705218884526800,1.08152685546875,0.008709960678219796,-0.017348463555425405,0.013392565536499023
1733705218894493700,1.09149365234375,0.0033627544313669204,0.0027834932386875152,0.008844985234737396
1733705218904460500,1.10146044921875,-0.016615911497175694,0.0034988019011914727,-0.006060322952270507
1733705218914427600,1.111427734375,0.006680500677227973,-0.02182940836176276,-0.0001654196947813034
1733705218924393700,1.121393798828125,0.010489245310425757,-0.01953545220568776,-0.012464929297566414
1733705218934360800,1.13136083984375,0.0022197218760848045,-0.010728168632835149,-0.015059621965885162
1733705218944327700,1.14132763671875,0.01180500408411026,0.036826486485451455,-0.01089607254564762
1733705218954294800,1.151294677734375,-0.0021913725644350053,0.04712839253023267,-0.004044891476631164
1733705218964260600,1.161260498046875,0.001980944684147835,0.030968992628902195,-0.006257306829094886
1733705218974227700,1.171227783203125,0.026451369073987006,0.02332680731266737,-0.019411387434601784
1733705218984195300,1.1811953125,0.021146248403191566,0.0031061493217945098,-0.041132805377244945
1733705218994162400,1.191162353515625,0.02231763027012348,-0.025308044257760048,-0.06583353139162063
1733705219004128300,1.201128173828125,0.030656419548392294,-0.036621173171699044,-0.07474749020934104
1733705219014095400,1.211095458984375,0.03893324950635433,-0.04598857484534383,-0.045181788507103915
1733705219024062500,1.2210625,0.06707943979948759,-0.03411050552502274,-0.02114391031563282
1733705219034029300,1.231029296875,0.05975771860927343,-0.010789835692197084,-0.013696516919136047
1733705219043996400,1.240996337890625,0.03137245886325836,-0.004102905274182558,-0.0020376433074474334
1733705219053962200,1.250962158203125,0.023018472015857695,-0.01130348430275917,-0.012159808871150016
1733705219063929300,1.260929443359375,0.01911474257558584,-0.0022150457009673117,-0.006281856748461723
1733705219073896400,1.270896484375,0.027292496073246,0.04071779483556747,-0.027990999731421468
1733705219083863300,1.28086328125,0.034256197606027126,0.04234641895070672,0.018455694144964216
1733705219093829400,1.290829345703125,0.040351591871678825,0.025851357354223725,0.020976737055182455
1733705219103796200,1.300796142578125,0.02765197703540325,-0.00030117490366101264,-0.005485153412818908
1733705219113763300,1.310763427734375,0.016992635855078698,-0.024263795901834962,-0.0264864403873682
1733705219123730400,1.32073046875,0.024019758012890816,-0.013909429017454384,-0.02876607575714588
1733705219133696300,1.3306962890625,0.013852584263682365,0.005102145444601774,-0.03856032454073429
1733705219143663400,1.340663330078125,0.031980069367587564,0.0028841771341860294,-0.02308101585805416
1733705219153630200,1.350630126953125,0.040356560307741166,0.000754033237695694,-0.0075075991511344906
1733705219163597300,1.360597412109375,0.027165947084128856,0.018707769209891558,0.017692308557033538
1733705219173563100,1.370563232421875,0.012590601503849028,0.02798500838205218,0.008923311167955398
1733705219183530200,1.3805302734375,-0.0036488778963685033,0.0041547815918922424,0.0005985504150390625
1733705219193497300,1.390497314453125,-0.006820785930752754,-0.0013968611858785152,-0.0019628245055675507
1733705219203464200,1.400464111328125,-0.020217443120479583,-0.007106909395754337,-0.04657528869211673
1733705219213431300,1.410431396484375,0.010665770921111106,0.0134686995126307,-0.031900866651535034
1733705219223397400,1.4203974609375,0.021831600318849086,0.024847002617269753,-0.009262918385863303
1733705219233364200,1.4303642578125,0.034493221232295035,0.0002519289344549179,0.025280571728944778
1733705219243331300,1.440331298828125,0.010143792873620987,-0.012914426630735396,0.04268354195058346
1733705219253298200,1.450298095703125,-0.00870060832798481,-0.016962532977759837,0.03082826898396015
1733705219263264500,1.460264404296875,-0.014514847564697266,-0.004287614191323518,0.02035305219888687
1733705219273231400,1.4702314453125,-0.009856792625784873,0.0007452654093503951,-0.0009451718956232071
1733705219283198500,1.480198486328125,0.007256839260458945,-0.007611790177971124,-0.022873510587215422
1733705219293165300,1.490165283203125,0.02278904717415571,-0.010276917733997106,-0.03466565518975258
1733705219303131400,1.50013134765625,0.01916004302203655,-0.008418868777155876,-0.03020341508388519
1733705219313098500,1.510098388671875,0.021928338691592216,0.0077747256547212595,-0.028116671937704084
1733705219323065300,1.5200654296875,0.0198550395488739,0.014556348618865012,-0.014375731354951857
1733705219333032400,1.530032470703125,0.016226327657699584,0.025637422342598436,-0.023711714977025983
1733705219342999300,1.539999267578125,0.0032873511075973507,0.02183554584160447,-0.003494856378436088
1733705219352965400,1.54996533203125,0.0012707505881786347,0.026232904017716645,0.0008452186524868011
1733705219362932200,1.55993212890625,-0.0096726682305336,0.027238866189867258,-0.022661329141259193
1733705219372899300,1.5698994140625,-0.0030129180803894996,0.009876666370034218,-0.05248655856251716
1733705219382866400,1.579866455078125,0.014712415963411331,0.0032965573273599147,-0.0750415047198534
1733705219392832300,1.589832275390625,0.022052841854095458,-0.008465922789275646,-0.08824000898897648
1733705219402799400,1.59979931640625,0.04673720125555992,-0.0013144435994327068,-0.08918050470948219
1733705219412766200,1.60976611328125,0.04358253661692142,-0.0018399287782609461,-0.09035773179531097
1733705219422733300,1.6197333984375,0.02264262444078922,-0.00023468553870916364,-0.05476444036662578
1733705219432699100,1.62969921875,0.0009784896433353424,0.017210077998042105,-0.004104512709379196
1733705219442666200,1.639666259765625,-0.013694763353466987,0.0072961483575403685,0.05981061784029006
1733705219452633300,1.64963330078125,0.003338204512000084,0.0018088029876351355,0.10293839642703533
1733705219462600200,1.65960009765625,0.00015139116942882537,0.007335457454621792,0.1130956333041191
1733705219472567300,1.6695673828125,0.013491349735856055,-0.019289953012019394,0.09611994858384132
1733705219482533000,1.679533203125,-0.0007563713252544403,-0.04129559472352266,0.05184592257142066
1733705219492500200,1.689500244140625,0.007665127800405025,-0.018340835593640803,0.0013408932149410247
1733705219502467300,1.69946728515625,0.012454407903552055,0.00882233501151204,-0.030430209577083586
1733705219512434200,1.70943408203125,0.04466653246134519,0.012109247727692127,-0.03621697628498077
1733705219522400300,1.719400146484375,0.03497428274750709,0.027897183968126772,-0.007650807014107704
1733705219532367000,1.7293671875,0.027093174108862875,0.024277532166242597,0.030459435671567916
1733705219542334200,1.739334228515625,0.021312837141752243,0.018883125776797533,0.037729134413599964
1733705219552301300,1.74930126953125,0.004160042288899422,-0.0084831661850214,0.020270634612441062
1733705219562267400,1.759267333984375,0.008658522751927375,-0.03422185694500804,-0.021866963893175124
1733705219572234500,1.769234375,0.02855506335496902,-0.0385718688480556,-0.06259060394763946
1733705219582201300,1.779201416015625,0.0341568288847804,-0.017432634707540272,-0.07105681899785996
1733705219592168400,1.78916845703125,0.04597936862558126,-0.0051554830670356745,-0.05921966620981693
1733705219602135300,1.79913525390625,0.06778174284994602,0.000957154594361782,-0.012536240968108176
1733705219612101400,1.809101318359375,0.06870411839187145,0.0018980887062847614,-0.007648468926548958
1733705219622068500,1.819068359375,0.029781390279531476,0.007705313680320978,0.008785364001989364
1733705219632035300,1.829035400390625,0.016498130336403845,0.002557283267378807,-0.00497661936879158
1733705219642002400,1.83900244140625,0.004399696263670921,0.006435586005449295,-0.0037111294776201245
1733705219651968300,1.84896826171875,0.00023439327776432036,0.007663374234735966,-0.025116905599832533
1733705219661935400,1.858935302734375,0.006714987468719482,-0.007914426386356354,-0.0048597149908542634
1733705219671902500,1.86890234375,-0.008159341058135032,0.005384615647792816,0.015052607703208922
1733705219681869300,1.878869384765625,0.003258709535002708,-0.0008351356498897076,0.03209317435324192
1733705219691835400,1.88883544921875,-0.019154782325029374,0.00037263270467519755,0.036057401809096334
1733705219701802200,1.89880224609375,-0.013348434133827686,0.00865881501287222,0.031142157238721845
1733705219711769300,1.908769287109375,-0.02775748323649168,0.002470189505815506,0.008819266271591186
1733705219721736400,1.918736328125,-0.021770225520431993,0.01511354411020875,-0.023106150299310683
1733705219731703300,1.928703369140625,-0.012324644044041632,0.02297989357113838,-0.050453591430187225
1733705219741669400,1.93866943359375,-0.004220248043537139,0.009052782766520976,-0.05391162292957306
1733705219751636200,1.94863623046875,0.02176174995303154,0.015539660567790268,-0.05980594166517257
1733705219761603300,1.958603271484375,0.04530220001637936,-0.0010977321088314056,-0.03621171558797359
1733705219771570200,1.968570068359375,0.04414513893574476,-0.006703589291870594,-0.01822071634531021
1733705219781536300,1.978536376953125,0.05299450808465481,-0.029092092841118574,-0.003623451194167137
1733705219791503400,1.98850341796875,0.040272096894681454,-0.020339462064951658,0.015130933636426924
1733705219801470200,1.99847021484375,0.032409108434617515,-0.011518880619108676,0.03290565977990627
1733705219811437300,2.008437255859375,-0.004725859478116035,0.0031024960599839685,0.02552314831316471
1733705219821403400,2.0184033203125,-0.021852935367822644,0.016004793861508368,0.02279693821966648
1733705219831370200,2.028370361328125,-0.026606559635698794,0.019216449384391307,0.03185235133469105
1733705219841337000,2.038337158203125,-0.017740823873877525,0.017230390133708716,0.017056348741054533
1733705219851304200,2.04830419921875,0.000908054755628109,0.029343437253683803,-0.006552490383386612
1733705219861271300,2.058271240234375,0.011565057848393916,0.017853490468114613,0.0019166472762823105
1733705219871237400,2.0682373046875,0.011831307569146155,0.020934213087707758,0.014448212069272994
1733705219881204500,2.07820458984375,0.02994680997431278,-0.005567717129737138,0.03730827865302563
1733705219891171300,2.08817138671875,0.020863924330472947,-0.01699278198555112,0.030263036316633223
1733705219901138400,2.098138427734375,0.0141734867811203,-0.02504004097133875,-0.009702478846907616
1733705219911104300,2.108104248046875,0.022500585621595383,-0.017456453974545,-0.04023614879846572
1733705219921071400,2.1180712890625,0.01811316431760788,-0.01474704888537526,-0.06800853734314441
1733705219931038500,2.12803857421875,0.02432487843930721,0.0023882103107869626,-0.050832946136593816
1733705219941005300,2.13800537109375,0.022917934250831603,0.004218786738812924,-0.017044658303260803
1733705219950971400,2.147971435546875,0.02047200240343809,-0.0007505261063575744,-0.001017068088054657
1733705219960938200,2.157938232421875,0.03248509628027677,-0.003108195148408413,0.016589315751194954
1733705219970905300,2.1679052734375,0.031763504007458684,-0.004459025235474109,-0.008465046006441115
1733705219980871700,2.17787158203125,0.022399755595624446,-0.021150486186891793,-0.052371407750248906
1733705219990838800,2.1878388671875,0.0332636794373393,0.0021313129402697087,-0.06494798072874546
1733705220000804600,2.1978046875,0.03837327753603458,0.020695289765298365,-0.051232174587249754
1733705220010771700,2.207771728515625,0.030019290688633918,0.04964695122241974,0.01712181519269943
1733705220020738800,2.21773876953125,0.02670300574749708,0.06888882730901241,0.04531505949795246
1733705220030705700,2.22770556640625,0.003707622346282005,0.04624474156349897,0.022670681491494177
1733705220040671700,2.237671630859375,-0.020986673927307128,0.0031144787587225435,0.032408231651782984
1733705220050638600,2.247638671875,0.02648994751870632,-0.025089579201489687,0.0019464578926563262
1733705220060605700,2.257605712890625,0.04965747261643409,-0.024268325946480034,-0.0653513008326292
1733705220070572500,2.267572509765625,0.048834465795755386,-0.08295651562809944,-0.08463350892961025
1733705220080538600,2.27753857421875,0.0107575408577919,-0.14615312264487146,-0.05701835677325725
1733705220090505700,2.287505615234375,-0.025450083076953886,-0.13825827774181962,-0.026369536009430882
1733705220100472600,2.29747265625,-0.04782499649226665,-0.03878960325196385,0.01914309188723564
1733705220110439700,2.307439697265625,-0.02564648243188858,0.07426233704090118,0.045347792723774906
1733705220120406500,2.317406494140625,0.004113280537724495,0.15792378606796265,0.06787234374284744
1733705220130372900,2.327372802734375,0.002482464465498924,0.20794190869033335,0.07026537635922432
1733705220140340000,2.337340087890625,0.005933481702208519,0.20136092286482452,0.031764673051238056
1733705220150306800,2.347306884765625,0.008775427129864692,0.19813406977280973,0.005319149196147919
1733705220160273700,2.357273681640625,-0.0308522343814373,0.16353329651281237,0.05005962367653846
1733705220170239700,2.36723974609375,-0.05518237351775169,0.14969444851353764,0.1315653559744358
1733705220180206800,2.377206787109375,-0.09313011911809443,0.1342751994550228,0.21808979321718214
1733705220190173700,2.387173583984375,-0.1582651468515396,0.12201952899396419,0.2902536966741085
1733705220200140800,2.397140869140625,-0.17648527867496014,0.13293605980575085,0.33023557845056056
1733705220210107000,2.40710693359375,-0.22171499797701835,0.14712313672080635,0.39274201124608515
1733705220220073700,2.41707373046875,-0.21548808628618715,0.16113529546037314,0.4289642482280731
1733705220230040800,2.427040771484375,-0.20407412734627722,0.15221607594564557,0.399008670425415
1733705220240007700,2.437007568359375,-0.1939104607284069,0.13507467926964162,0.35892040566504
1733705220249974800,2.446974853515625,-0.1259668053150177,0.12025778001844882,0.3175935390204191
1733705220259940600,2.456940673828125,-0.03802022631466388,0.12659545860737562,0.21934709980189798
1733705220269907700,2.46690771484375,0.048417409427464,0.12310104062035679,0.10943243462145327
1733705220279874800,2.476874755859375,0.0903998173713684,0.11961641337499022,-0.03841653215587139
1733705220289841700,2.486841552734375,0.08163432711362838,0.026681378437578677,-0.2167535761773586
1733705220299807700,2.496807861328125,0.03680120591372251,-0.0876231922648847,-0.47077685256302354
1733705220309774600,2.506774658203125,-0.019368132814764974,-0.24980741225630043,-0.7272779172390699
1733705220319741700,2.51674169921875,-0.0213517078474164,-0.4298439536720514,-0.8823200103908777
1733705220329708800,2.526708740234375,0.042401217877864834,-0.5621994371108711,-0.8980448182672262
1733705220339674600,2.536674560546875,0.024663316613435744,-0.5844339191421866,-0.741181354907155
1733705220349641700,2.546641845703125,-0.03575315816551447,-0.5426452802047134,-0.5017494984537363
1733705220359608600,2.556608642578125,-0.04897416652739048,-0.4407905873611569,-0.26678689636886116
1733705220369575700,2.56657568359375,-0.026305238601565358,-0.30679332806468007,-0.060171267846226686
1733705220379542800,2.576542724609375,-0.07185059972405433,-0.1928688427209854,0.06512216825187206
1733705220389508600,2.586508544921875,-0.1807435206413269,-0.050705374234169716,0.22254326549470424
1733705220399475700,2.596475830078125,-0.19790625236630438,0.11289090451225638,0.4299573509186506
1733705220409442600,2.606442626953125,-0.21259587197601795,0.16288959178179502,0.46373453283607957
1733705220419409700,2.61640966796875,-0.17352876695692537,0.08229454458802939,0.33288638522028924
1733705220429375700,2.626375732421875,-0.09909662630707025,-0.22805632982775567,0.10831249068081378
1733705220439342800,2.6363427734375,-0.10110416673719883,-0.566791148815304,-0.17312486233115196
1733705220449310000,2.64631005859375,-0.14508710084855556,-0.6870169262602925,-0.3905623291194439
1733705220459276800,2.65627685546875,-0.08439093234539032,-0.540955281291157,-0.5303016391992569
1733705220469243000,2.666242919921875,0.04560381331145763,-0.25649156619533897,-0.5932102230548858
1733705220479209700,2.676209716796875,0.27798165960013865,-0.07190656769499182,-0.6769885764598846
1733705220489176800,2.6861767578125,0.6032762745171785,0.052903322669863695,-0.7791641718208789
1733705220499144000,2.69614404296875,0.9713894559413194,0.14853782582432032,-0.8005833919465541
1733705220509109800,2.70610986328125,1.2435054383784532,0.24470249033272265,-0.8010597772866487
1733705220519076900,2.716076904296875,1.3385256090268491,0.3822263163201511,-0.6154284846037625
1733705220529043700,2.726043701171875,1.1925655247360467,0.47512511090040205,-0.3705418698757887
1733705220539010800,2.7360107421875,0.9496922956570982,0.4764985912106931,-0.25117256312966346
1733705220548977700,2.745977783203125,0.8119599414855241,0.49841158620268106,-0.20234920324981212
1733705220558943700,2.75594384765625,0.7816691403791308,0.59343555624336,-0.13717559707164764
1733705220568910800,2.765910888671875,0.7100009114846587,0.6598825433582067,-0.06934884603619575
1733705220578877700,2.775877685546875,0.5317793105363845,0.511270044862479,-0.03845277251303196
1733705220588844800,2.7858447265625,0.2819698524534702,0.26532646842747926,-0.02101531549990177
1733705220598810600,2.795810546875,0.09470832822024822,0.07246449383869767,-0.01107084459066391
1733705220608777700,2.80577783203125,-0.11736936510056256,-0.07233969841524958,-0.1463350550830364
1733705220618744800,2.815744873046875,-0.27103929311633107,-0.15850392404347657,-0.2776964129179716
1733705220628711700,2.825711669921875,-0.25532968280911444,-0.17713775123432277,-0.3085539079964161
1733705220638678800,2.8356787109375,-0.10438362679928541,-0.12339841613173484,-0.1416904441475868
1733705220648644600,2.84564453125,-0.0018514730855822563,-0.08611088800579308,0.1874041475743055
1733705220658611700,2.85561181640625,-0.06015197862386703,-0.12012304772287606,0.5463970339536667
1733705220668578600,2.86557861328125,-0.248523217664659,-0.16668328497633336,0.7889671884328127
1733705220678545700,2.875545654296875,-0.44266193419098854,-0.21456498009189962,0.9416390453219413
1733705220688511700,2.88551171875,-0.5759364321708679,-0.2704609087064862,0.9727449622035026
1733705220698478600,2.895478515625,-0.6513152060210704,-0.3284545402526855,0.940904885828495
1733705220708445700,2.90544580078125,-0.5972855096697807,-0.30094518655836583,1.0905600252449512
1733705220718412500,2.91541259765625,-0.5333984361708164,-0.27377821656093,1.3816910892754792
1733705220728379000,2.92537890625,-0.5289908488616347,-0.2162384662620723,1.743539949607849
1733705220738345700,2.935345703125,-0.603267798949778,-0.22516893782317637,1.94792387355566
1733705220748312800,2.945312744140625,-0.8466428400710224,-0.3055241849116981,1.9840069943279026
1733705220758279700,2.95527978515625,-1.0989321322709322,-0.32339316520988937,1.8357915323257445
1733705220768246500,2.96524658203125,-1.2227715701684354,-0.24456074377447365,1.4068757994145153
1733705220778212900,2.975212890625,-1.164291616410017,-0.07841127341389656,0.914462869104743
1733705220788179700,2.9851796875,-0.9344497183397412,0.1497987856708467,0.4767173485279083
1733705220798146800,2.995146728515625,-0.5987991291031242,0.3265668268099427,0.14953414338529109
1733705220808114000,3.005114013671875,-0.3053343614280224,0.40704730771332975,-0.06750467947423458
1733705220818079700,3.015079833984375,-0.11129968979805707,0.3840452023103833,-0.23791794475913047
1733705220828046800,3.025046875,0.039647242994606494,0.3153757168404758,-0.4133528375983238
1733705220838013700,3.035013671875,0.13289368196874857,0.20328940670937298,-0.6008756431162356
1733705220847980800,3.044980712890625,0.1660752360805869,0.1778454611122608,-0.7357283501982689
1733705220857946600,3.054946533203125,0.19293401691168546,0.22762758302167058,-0.7432499778747558
1733705220867913700,3.064913818359375,0.23658728067725895,0.312094795473665,-0.6684972269684076
1733705220877880800,3.074880859375,0.24228520005792378,0.38650852368399496,-0.5910971764236689
1733705220887847700,3.08484765625,0.23407617463916539,0.39009500386863943,-0.5268541290938854
1733705220897814800,3.094814697265625,0.22283348061293362,0.31076120878234503,-0.477667196598649
1733705220907780600,3.104780517578125,0.2879296376407146,0.17145605233609676,-0.40398353622853755
1733705220917747700,3.114747802734375,0.3146569010466337,0.032337796764075756,-0.3078945673048496
1733705220927714800,3.12471484375,0.4093395103037357,-0.041921033145487306,-0.23165654627680776
1733705220937681700,3.134681640625,0.5375549713283777,-0.08688537950962781,-0.23031156140863895
1733705220947647700,3.144647705078125,0.6674263828665018,-0.1156251517817378,-0.3069114014863968
1733705220957614600,3.154614501953125,0.7006213809818029,-0.1059362630687654,-0.32190964865386484
1733705220967581700,3.164581787109375,0.7320137135893106,-0.058823214238137,-0.3202344089180231
1733705220977548800,3.174548828125,0.7142328499659896,-0.06554404692575336,-0.32452012341320513
1733705220987515000,3.184514892578125,0.6002580957397818,-0.13049100474119185,-0.3474082470476627
1733705220997481700,3.194481689453125,0.4616898752659559,-0.24295287018641828,-0.40456221289932726
1733705221007448800,3.20444873046875,0.37182840255498883,-0.3425939786337316,-0.4857850366026163
1733705221017416000,3.214416015625,0.30428163750469683,-0.38265696282237766,-0.5944049857974052
1733705221027382000,3.224382080078125,0.2846843721091747,-0.3273660143636167,-0.6594225246310234
1733705221037348900,3.234348876953125,0.3140715023741126,-0.197202926402539,-0.70014207303226
1733705221047315700,3.244315673828125,0.35469957309961314,-0.0949795463770628,-0.6758674634754658
1733705221057282800,3.25428271484375,0.3985325773462653,-0.06884513429775833,-0.5852987192779779
1733705221067250000,3.26425,0.45907647789716716,-0.041877340134233235,-0.4293248982340097
1733705221077216000,3.274216064453125,0.5182368151351809,-0.03779606216996908,-0.3483826450377703
1733705221087183000,3.28418310546875,0.5935752569749951,-0.008297580485045909,-0.29515374367535113
1733705221097150000,3.29414990234375,0.5375178541883826,0.04921148241460323,-0.24018939682245252
1733705221107117000,3.304116943359375,0.4181555617049336,0.08633695184662937,-0.20021394478678703
1733705221117083000,3.314082763671875,0.3414905474364757,0.0753803812853992,-0.20176000518500803
1733705221127050000,3.324050048828125,0.2684866860240698,0.05382175268903374,-0.20186054295003414
1733705221137017000,3.33401708984375,0.13616875811666249,0.038972120212018485,-0.15721885266900062
1733705221146984000,3.34398388671875,0.029027649302780626,0.0376645447447896,-0.07705985880494118
1733705221156950000,3.353949951171875,-0.05736877764612436,0.053694765308499336,0.02485387074947357
1733705221166916900,3.363916748046875,-0.10869915191084145,0.07493409882262349,0.1625695660471916
1733705221176884000,3.373884033203125,-0.15156184982061385,0.08645268718078732,0.27308862686157226
1733705221186851000,3.38385107421875,-0.18687077134996652,0.11693988764211535,0.4037397906005382
1733705221196818000,3.39381787109375,-0.21153379570245742,0.11083426424339413,0.4890870007574558
1733705221206784000,3.403783935546875,-0.2415507483035326,0.10949570911601185,0.5301303742855787
1733705221216750800,3.413750732421875,-0.29214082559496163,0.15521189676076172,0.5446709408134222
1733705221226718000,3.423718017578125,-0.3599488719299435,0.1459333424143493,0.5202706590503454
1733705221236685000,3.43368505859375,-0.3591629822492599,0.09352861691638827,0.4661906938165426
1733705221246651000,3.44365087890625,-0.38518998843133445,0.06796367528811097,0.4438911837249994
1733705221256618000,3.453617919921875,-0.3985764164879918,0.014902239447087049,0.3988555256903171
1733705221266584800,3.463584716796875,-0.35268092675358054,-0.03460851817503571,0.34009237107634543
1733705221276552000,3.473552001953125,-0.27728520176857707,-0.024499358223378658,0.2996516396164894
1733705221286517800,3.483517822265625,-0.23919191021770236,0.018228461260348557,0.26844284688234327
1733705221296484900,3.49348486328125,-0.22614684294462203,0.061905690423399204,0.2605336811929941
1733705221306452000,3.503451904296875,-0.2024699070200324,0.09208426332697271,0.24916473043859003
1733705221316418800,3.513418701171875,-0.20605770237892865,0.06710106710940598,0.22467443230450151
1733705221326386000,3.523385986328125,-0.2147045346930623,0.05937865616381168,0.21400223164260387
1733705221336351700,3.533351806640625,-0.2541337510228157,0.10031783866509794,0.1759679768025875
1733705221346318800,3.54331884765625,-0.2503554015278816,0.09107143302261829,0.1238707098186016
1733705221356286000,3.553285888671875,-0.22299860804677007,0.07398059749007224,0.07708616228997707
1733705221366252800,3.563252685546875,-0.23774346497505902,0.05836757942512631,0.09650164137780666
1733705221376219100,3.57321923828125,-0.2292784189686179,0.07380918644592166,0.13818681994080542
1733705221386186000,3.58318603515625,-0.2048468652844429,0.06916530616283416,0.20345511866509913
1733705221396153000,3.593153076171875,-0.16647972522825003,0.07192877952679991,0.27535423370599743
1733705221406120000,3.603119873046875,-0.10448358004242181,0.05902209781110286,0.29320144056379793
1733705221416086000,3.6130859375,-0.05276596002578735,0.02839402757436037,0.23180092318356035
1733705221426053000,3.62305322265625,-0.02639204010218382,0.031245033091306683,0.16616846732199192
1733705221436020000,3.63302001953125,0.008407762861251831,0.04899857031628489,0.09775076465606689
1733705221445987000,3.642987060546875,0.0688213150307536,0.050592123118042946,0.021392332118749618
1733705221455953000,3.652952880859375,0.12112491824179887,0.042744478357583285,-0.0983691888153553
1733705221465920000,3.662919921875,0.1370490480825305,0.0020065175168216226,-0.21649580202400684
1733705221475886800,3.672886962890625,0.16265344493836165,-0.052626113163679836,-0.29794191308915613
1733705221485854000,3.68285400390625,0.19872692109942436,-0.08644976457133889,-0.3639613224416971
1733705221495821000,3.692821044921875,0.28005583552569147,-0.11825506189391016,-0.4007254112154245
1733705221505787000,3.702786865234375,0.30882044997811314,-0.08498480658531188,-0.38993630617558955
1733705221515754000,3.71275390625,0.33200697203725577,-0.06846402602568269,-0.3756833244174719
1733705221525720800,3.722720947265625,0.349787543399632,-0.06241933903396129,-0.3549672841250896
1733705221535688000,3.73268798828125,0.37098669103384013,-0.08475640465691685,-0.3540244503170252
1733705221545654000,3.742654052734375,0.36510201690942046,-0.10128040008693932,-0.3574146772772073
1733705221555620900,3.752620849609375,0.3304047975376248,-0.12224135505110025,-0.3582628185391426
1733705221565588000,3.762587890625,0.2701820917651057,-0.11552212979868054,-0.30990999878048897
1733705221575554800,3.772554931640625,0.26631752529144287,-0.07744666616544127,-0.26814298715293405
1733705221585521000,3.78252099609375,0.20356442425847052,-0.046258477827906604,-0.21551029811799524
1733705221595487700,3.79248779296875,0.16589432655572892,-0.020056261209398508,-0.16079963376522063
1733705221605454800,3.802454833984375,0.15563216799944637,0.015601619888097046,-0.07761457007825374
1733705221615422000,3.812421875,0.12519611320346594,0.043271863232553005,-0.017720365607738493
1733705221625388800,3.822388916015625,0.10533522843569516,0.025961393599957226,0.02832125459909439
1733705221635355000,3.83235498046875,0.06693389384895562,0.0034926644213497636,0.04642915821969509
1733705221645321700,3.84232177734375,0.052065995062887664,-0.007557429642230272,0.08031038503348827
1733705221655288800,3.852288818359375,0.042027416129410265,0.0073890873380005355,0.08694237039387226
1733705221665256000,3.862255859375,0.051939738334715366,0.030022505559027194,0.06908464214205741
1733705221675222000,3.872221923828125,0.015464987896382808,0.02237067563161254,0.05121873058378696
1733705221685189000,3.882189208984375,-0.05095072729736566,0.03268076498284936,0.04598492158353328
1733705221695156000,3.892156005859375,-0.07631400887370109,0.05522270552814006,0.09184124835133552
1733705221705123000,3.902123046875,-0.08051438317298888,0.03982873704135418,0.1260153206318617
1733705221715089000,3.9120888671875,-0.11088351021260022,0.035604689605534076,0.15633096391856668
1733705221725056000,3.922055908203125,-0.12396511010378598,0.05314283051416278,0.15289689781665802
1733705221735023000,3.932023193359375,-0.13028028459995986,0.07107040913179516,0.12807283768355845
1733705221744990000,3.941989990234375,-0.11413286739736794,0.07045534597337245,0.1135012914955616
1733705221754956000,3.9519560546875,-0.10014905796945095,0.04881488431245088,0.09845978970825671
1733705221764923000,3.9619228515625,-0.10239332976490259,0.06028334991857409,0.0987567268282175
1733705221774890000,3.971889892578125,-0.13547113124132157,0.06508548950329422,0.09209609989523887
1733705221784857000,3.981857177734375,-0.1442024269685149,0.040123189943283795,0.10122399372458457
1733705221794824000,3.991823974609375,-0.14929916558563708,0.028345073866099118,0.11453589524030684
1733705221804790000,4.0017900390625,-0.1563201502636075,0.037630350214242936,0.140972066745162
1733705221814756900,4.0117568359375,-0.09015548722147941,0.04361775406077504,0.13263795364201067
1733705221824724000,4.021723876953125,-0.039569501583278176,0.0580880318313837,0.1226373686313629
1733705221834691000,4.031691162109375,-0.022768588908016682,0.05198869204297661,0.13085808448791503
1733705221844657000,4.041656982421875,0.002632394330203533,0.02084375832527876,0.13324351831972597
1733705221854624000,4.0516240234375,0.007299509358406066,0.009317132791131734,0.10306056150197983
1733705221864590800,4.0615908203125,0.012571020020544528,-0.006952157225459814,0.07151157702803611
1733705221874558000,4.071557861328125,-0.019853578244149683,-0.004009381771832704,0.007847206369042396
1733705221884523800,4.081523681640625,-0.023488719876110554,-0.02108881912752986,-0.06056055942475795
1733705221894491000,4.091490966796875,0.005050561387836933,-0.024630875648558138,-0.05941080486774444
1733705221904458000,4.1014580078125,0.06238017606735229,-0.0033332360759377477,-0.04860591773688793
1733705221914424800,4.1114248046875,0.13989216255396603,0.015223288094997406,-0.04271101447939873
1733705221924391000,4.121390869140625,0.15670739601552486,0.031329496504366394,-0.08528232822716236
1733705221934357800,4.131357666015625,0.1342144091784954,0.0068508888080716125,-0.12297931393682957
1733705221944324900,4.141324951171875,0.10918868899345398,0.004684504554420709,-0.16809622051417827
1733705221954292000,4.1512919921875,0.10582973395437001,-0.013032353921979664,-0.1921504653185606
1733705221964258800,4.1612587890625,0.13801818537563085,-0.01954889620915055,-0.21817571793496607
1733705221974225200,4.17122509765625,0.1383086927548051,-0.02443316111937165,-0.18383856404721735
1733705221984191700,4.181191650390625,0.13940408677607774,-0.05652896582111716,-0.12775602681934833
1733705221994158800,4.191158935546875,0.12825111685991286,-0.07698927778676151,-0.06287526610791683
1733705222004126000,4.2011259765625,0.10989274560958147,-0.07494885800033807,-0.04198620733618736
1733705222014091800,4.211091796875,0.09384586617201567,-0.0453612367272377,-0.05627309136390686
1733705222024059000,4.221058837890625,0.08477876261919737,0.009235591987520456,-0.024567455023527144
1733705222034025700,4.231025634765625,0.08703443259149789,0.0562220918290317,0.010657587614655495
1733705222043992800,4.240992919921875,0.07955372144728899,0.08350771977007389,0.03019698534309864
1733705222053958700,4.250958740234375,0.08876374060213565,0.051024815446883434,0.06165829153358936
1733705222063925800,4.26092578125,0.03610153321176767,0.031043957561254498,0.08571662799119949
1733705222073892900,4.270892822265625,-0.01858545800447464,0.014483429513126611,0.08127367710769176
1733705222083859700,4.280859619140625,-0.024461072039604185,-0.019931027394533157,0.04535071533322334
1733705222093826800,4.290826904296875,-0.04803834698200225,-0.02347410682886839,0.011208791756629944
1733705222103792600,4.300792724609375,-0.038697687184810634,-0.00852934341430664,0.0037672435790300366
1733705222113759700,4.310759765625,0.0095288758456707,0.013445026376098394,0.0009942717343568801
1733705222123726800,4.320726806640625,0.025687983486056325,0.035198154631257056,0.019324293673038482
1733705222133693700,4.330693603515625,0.0572232316955924,0.04987403797656297,0.0247305366307497
1733705222143659800,4.34065966796875,0.06329203021526336,0.05778320366591215,-0.005102876096963882
1733705222153626600,4.350626708984375,0.003613514322042465,0.043827597419172526,0.0021510405540466305
1733705222163593700,4.36059375,-0.0060769818261265755,0.004161211332678795,-0.018813421541452408
1733705222173560600,4.370560546875,-0.003971533979475498,-0.005251636917889118,-0.030479893937706944
1733705222183526700,4.380526611328125,0.020648528014123438,0.00955634837448597,-0.03736439275443554
1733705222193493800,4.39049365234375,0.0163715813472867,0.014640958162397145,-0.0025426702201366423
1733705222203460600,4.400460693359375,0.0036810266003012653,0.011677724442631005,0.02719020474255085
1733705222213427700,4.410427734375,-0.023409809421002865,0.020499767193198203,0.08149579542577266
1733705222223393800,4.420393798828125,-0.03720043436437845,0.019445874226093292,0.0786444976478815
1733705222233360600,4.430360595703125,-0.05702741686254739,-0.017925386660546064,0.06371230145394802
1733705222243327700,4.44032763671875,-0.06223346107304096,-0.058469724625349044,0.03049450698494911
1733705222253294600,4.450294677734375,-0.022956220434606073,-0.04644420965835452,-0.03257014421522617
1733705222263261000,4.460260986328125,0.017567220872640607,-0.030576632310450075,-0.027292496073246
1733705222273227800,4.470227783203125,0.06733195325583219,0.0006913432650268078,-0.001412204885482788
1733705222283195000,4.48019482421875,0.06071779581308365,0.025956132902950048,-0.019693711507320404
1733705222293161700,4.49016162109375,0.03150806794166565,0.012700053227692841,-0.02967325372993946
1733705222303128800,4.50012890625,0.003658814768493175,0.0014218494966626166,-0.03932020299732685
1733705222313094700,4.5100947265625,0.013604162460565566,-0.010377017107605933,-0.06212240191400051
1733705222323061800,4.520061767578125,0.03346154009699821,0.00600377045944333,-0.0465723660826683
1733705222333028900,4.53002880859375,0.04384527920633554,0.013747808714956044,-0.00407645565867424
1733705222342995700,4.53999560546875,0.07778495820909738,0.02150368353873491,0.040351299610733984
1733705222352961800,4.5499619140625,0.07568652462512254,-0.008166939842700957,0.06898702698647975
1733705222362928600,4.5599287109375,0.048049160636961456,-0.024313772523403165,0.07925824563205242
1733705222372895700,4.569895751953125,0.0055772156104445456,-0.029441052409261464,0.03869301100969314
1733705222382862800,4.57986279296875,0.017164777551591397,-0.030732991915941237,0.0021972177833318707
1733705222392828700,4.58982861328125,0.027561668403446673,-0.00226195358261466,-0.02097439896762371
1733705222402795800,4.599795654296875,0.015388415528833865,0.015298691418766974,-0.06522212149500846
1733705222412762600,4.6097626953125,0.020847849978506566,0.0006371288597583771,-0.06837561708986759
1733705222422729700,4.619729736328125,-0.0038312487259507177,-0.00573649782538414,-0.03501695284545421
1733705222432695600,4.629695556640625,-0.023789164127409456,0.010558949545770883,-0.006772855135798454
1733705222442662700,4.63966259765625,-0.04698708436340093,0.006618249095976352,0.021923662516474724
1733705222452629800,4.649629638671875,-0.05384206482470035,0.010524462754279375,0.0270049113035202
1733705222462596600,4.6595966796875,-0.09174392545670271,0.0031526188120245932,0.07235621115863322
1733705222472563700,4.669563720703125,-0.061414545905590055,-0.00001052139401435852,0.0883650966733694
1733705222482529500,4.679529541015625,-0.03927957872599363,0.02438523032441735,0.09667056820392608
1733705222492496600,4.68949658203125,0.004524491687119007,0.04724047460258007,0.10649755021333694
1733705222502463700,4.699463623046875,0.042669221164286134,0.08911343082264066,0.12833528801202773
1733705222512430600,4.7094306640625,0.027784955765306946,0.08779679526612162,0.11076982070505619
1733705222522397000,4.71939697265625,-0.007711305029690265,0.06217515501454472,0.09024608811438083
1733705222532363800,4.72936376953125,-0.03863981951773166,0.05099792743995785,0.055521980735659594
1733705222542330600,4.73933056640625,-0.06563859334141016,0.0312998320184648,0.015787936240434647
1733705222552297700,4.749297607421875,-0.04330605776309967,0.018151596631854772,-0.039297991165518756
1733705222562263800,4.759263916015625,0.012753098589181899,0.014583967278152704,-0.04696984096765518
1733705222572231000,4.76923095703125,0.04763356557339429,0.06529577125310898,-0.03991524628102779
1733705222582197800,4.77919775390625,0.08811755165308713,0.05902618946433067,-0.008620528829097748
1733705222592164900,4.789164794921875,0.08639905729740857,0.021390578553080557,0.03409223921597004
1733705222602130700,4.799130615234375,0.10756459492295979,0.025342531049251556,0.04444295283854007
1733705222612097800,4.809097900390625,0.1194596153780818,-0.002152209597826004,0.006374211207032203
1733705222622065000,4.81906494140625,0.11152648429125547,0.005730798736959695,-0.0603887099891901
1733705222632031700,4.82903173828125,0.11133709919899701,-0.018669483026117085,-0.12312427536547184
1733705222641998800,4.838998779296875,0.08367313946485519,-0.04040726758167147,-0.17386837417483328
1733705222651964700,4.848964599609375,0.0940033948212862,-0.1034196040727198,-0.23447394178509712
1733705222661931800,4.858931884765625,0.13065583991408347,-0.12852554988712073,-0.23262451452612876
1733705222671899000,4.86889892578125,0.1392187933370471,-0.08885273405984044,-0.16489070247113705
1733705222681865700,4.87886572265625,0.12866963453292846,-0.024711685799807308,-0.0839209767460823
1733705222691831800,4.888831787109375,0.1626288950189948,0.008757160820811986,-0.04759761747717857
1733705222701798700,4.898798583984375,0.15528028582185505,0.013292758423835038,-0.017745500048995017
1733705222711765800,4.908765869140625,0.08433452598303556,-0.002086889276653528,0.00949789618551731
1733705222721732600,4.918732666015625,0.010644143611192702,-0.024398235936462877,0.013147650864720344
1733705222731698700,4.92869873046875,0.006324526846408844,-0.02959711975380778,0.0025368250012397764
1733705222741665800,4.938665771484375,-0.0018660861328244208,-0.0134349433735013,-0.004595511096715927
1733705222751632600,4.948632568359375,-0.0773699476674199,-0.030542730040848252,-0.013158172258734703
1733705222761599700,4.958599853515625,-0.09731441906541585,-0.04037658018246293,0.008636895442008971
1733705222771565600,4.968565673828125,-0.09573737900704145,-0.03073942165672779,0.04922317285239696
1733705222781532700,4.97853271484375,-0.10179945552498101,0.0007810673750936985,0.09987900885641575
1733705222791499500,4.98849951171875,-0.08041063053756951,0.04425356774628162,0.18750293177366256
1733705222801466600,4.998466552734375,-0.08983429244309664,0.07884542704746127,0.22709026127457618
1733705222811433700,5.008433837890625,-0.11938655014187097,0.1255868660867214,0.21947569461762903
1733705222821399800,5.01839990234375,-0.08609218330532312,0.15159356013312936,0.15774901402294636
1733705222831366700,5.02836669921875,-0.010972352652251719,0.1587220968388021,0.05750818611681461
1733705222841333500,5.03833349609375,0.005652034412324428,0.13932839119136334,-0.01902034229040146
1733705222851300600,5.048300537109375,0.0067936056628823275,0.11319295619875192,-0.053016719916462896
1733705222861266700,5.0582666015625,-0.0008279752567410468,0.03429740639925003,-0.02246200717687607
1733705222871233800,5.06823388671875,-0.026296763034164904,-0.02281374322399497,0.005212181690335273
1733705222881201000,5.078200927734375,-0.014201543831825255,-0.03245806214287877,0.011368950754404068
1733705222891167700,5.088167724609375,0.0140972066745162,-0.019102467615902424,0.008764905735850334
1733705222901133800,5.0981337890625,0.0664712447732687,0.01577230027988553,0.0011544307321310042
1733705222911100700,5.1081005859375,0.12552724485397337,0.028178923518955706,-0.010347206491231917
1733705222921067800,5.11806787109375,0.14078881913274527,-0.014064473448693752,-0.012999182304739952
1733705222931035000,5.128034912109375,0.11965426116734743,-0.026713234880566594,-0.0072153382062911985
1733705222941000700,5.138000732421875,0.09267039265185593,-0.07230740358084439,-0.05569967539012432
1733705222950967800,5.1479677734375,0.07922083623111248,-0.09409355732277035,-0.12551555441617965
1733705222960934700,5.1579345703125,0.08017039204090833,-0.0773841223232448,-0.16176467940509318
1733705222970901800,5.16790185546875,0.07990735719054937,-0.04819251463040709,-0.15650865857303142
1733705222980867600,5.17786767578125,0.07019201886206865,-0.016624094803631306,-0.15292904652059078
1733705222990835000,5.1878349609375,0.08302432016730309,0.0018799685277044772,-0.10085516041219234
1733705223000802000,5.197802001953125,0.053795887595415114,-0.006019406419992447,-0.049015083059668535
1733705223010769200,5.20776904296875,0.03315554288774729,-0.011669687266647815,-0.02358078207373619
1733705223020735000,5.21773486328125,0.017580080354213712,-0.001656681165844202,0.016730770048499106
1733705223030702000,5.2277021484375,0.025576339805126188,0.017265169186145065,0.013749708411097525
1733705223040669000,5.2376689453125,0.03236380798816681,0.030678485249727962,0.033173955327272416
1733705223050636000,5.247635986328125,0.01572714596390724,0.049978813525289295,0.05204992071092129
1733705223060603100,5.25760302734375,0.04973930568099021,0.05339037553444505,0.05388590396642685
1733705223070569000,5.26756884765625,0.045992228107154365,0.025869185271859167,0.029696634605526923
1733705223080536000,5.2775361328125,0.016705635607242583,0.041767742279916996,0.019150106149911878
1733705223090503000,5.2875029296875,0.038003567440807816,0.020418080259114502,-0.0018733926564455032
1733705223100470000,5.297469970703125,0.04498509689122438,0.026303923427313566,-0.008639818051457405
1733705223110435800,5.307435791015625,0.04802870237082243,0.025626754818111656,-0.00313011471927166
1733705223120403000,5.31740283203125,0.03360416343808174,0.04747735209837556,0.022708675414323806
1733705223130370000,5.3273701171875,0.016821370941400526,0.034586890865117306,0.03259352509081363
1733705223140337000,5.3373369140625,0.01321574766486883,0.015381255135685204,0.0064876084536314
1733705223150303200,5.34730322265625,0.0009083470165729522,0.010762509293854236,-0.002261515191197395
1733705223160270000,5.35727001953125,-0.006133972710371017,-0.011178542748838663,0.0047451487004756925
1733705223170237200,5.3672373046875,0.012220014625787734,0.00007408814951777457,0.01308686058819294
1733705223180204000,5.3772041015625,0.023361001843214033,-0.004051905739307403,0.010699673190712928
1733705223190170000,5.387170166015625,0.04484422711580992,-0.007493570625782013,-0.0003045359045267105
1733705223200137200,5.39713720703125,0.09185206200629473,0.009438128822296858,-0.009979542222619056
1733705223210104000,5.40710400390625,0.10938187347799538,-0.0007549100205302238,-0.02154255424439907
1733705223220071200,5.4170712890625,0.08242723105698824,-0.012183628138154745,-0.046424482044577595
1733705223230037000,5.427037109375,0.053581368061900135,-0.011856880401819944,-0.050205169627070424
1733705223240004000,5.437004150390625,0.027611937285959717,-0.009799071089178324,-0.07279401805400848
1733705223249971200,5.44697119140625,0.031079321135580536,-0.006485562627017497,-0.08311433653831482
1733705223259938000,5.45693798828125,0.018418577004969117,-0.003724135089665651,-0.06239069746136665
1733705223269905200,5.4669052734375,0.03720511053949594,-0.020251345390081405,-0.034300913530588145
1733705223279871000,5.47687109375,0.01994037974476814,-0.025479455301910637,-0.029393267744779586
1733705223289838000,5.486838134765625,0.03901332900524139,-0.05620645586848259,-0.04724398173391819
1733705223299805200,5.49680517578125,0.022144027268886566,-0.04114654164165258,-0.06870937908887863
1733705223309772000,5.50677197265625,0.026075813759863373,-0.020791882007569075,-0.05907178217172623
1733705223319738000,5.516738037109375,0.038275954641401766,0.028454963981360194,-0.03215396462976932
1733705223329705000,5.526705078125,0.03755933080464601,0.09488704578801989,0.08281506133079529
1733705223339672000,5.536672119140625,0.02587473822981119,0.08348506954684853,0.12264905906915664
1733705223349639200,5.54663916015625,-0.005712240166962147,0.0604845715790987,0.12786357884705066
1733705223359605000,5.55660498046875,-0.030810148805379866,0.026574118670821188,0.10201485184133052
1733705223369572000,5.566572021484375,-0.05639788678735494,-0.0006372749902307987,0.05892097552418708
1733705223379539000,5.5765390625,-0.04462093975394964,0.014517185652256012,0.018264555487036704
1733705223389506000,5.586506103515625,-0.003772504276037216,0.041429157975316044,0.005353635987639427
1733705223399471900,5.596471923828125,0.021727847683429717,0.05145093190446496,0.008978256225585938
1733705223409439000,5.60643896484375,0.02519113987982273,0.045795974882692096,0.052830257433652876
1733705223419406000,5.616406005859375,0.03850450270026922,0.015766308930516244,0.05310498272180557
1733705223429373000,5.626373046875,0.03623188159316778,-0.0037261809162795543,0.039086394241452216
1733705223439339300,5.63633935546875,0.02875467758029699,0.0006704466074705124,-0.025508535265922543
1733705223449306000,5.64630615234375,0.017331366290152073,0.005280424620956182,-0.06397708986997604
1733705223459273200,5.656273193359375,-0.0016895605221390723,0.0012212123580276966,-0.08877718460559844
1733705223469240000,5.666239990234375,0.02665770530104637,0.003474398112297058,-0.04265840750932693
1733705223479207000,5.67620703125,0.06028378830999136,0.017333558247238395,0.00789104551076889
1733705223489173200,5.68617333984375,0.06558627863228321,0.019462386969476938,0.04793488660752773
1733705223499140000,5.69614013671875,0.06001958441585302,-0.022485826443880794,0.04756371520757675
1733705223509107200,5.706107177734375,0.013935878632962704,-0.02585091896280646,-0.004413140267133712
1733705223519074000,5.716073974609375,-0.009941840560734272,-0.01684898960068822,-0.0475005868434906
1733705223529040100,5.7260400390625,0.0016889760002493858,0.013547171576321125,-0.06882394537925719
1733705223539007000,5.736007080078125,0.039083471632003784,0.03725260294303298,-0.04367547559738159
1733705223548974000,5.74597412109375,0.05845803418755531,0.010174188011884688,-0.015247838014364242
1733705223558941200,5.755941162109375,0.027527473872900006,0.0033440497308969497,0.01936053403019905
1733705223568907000,5.765906982421875,-0.011661211699247359,-0.04026508263200521,0.02307575516104698
1733705223578874000,5.7758740234375,0.016770517536997796,-0.034035832853615285,0.003587795358896255
1733705223588841000,5.785841064453125,0.012403554499149321,-0.00581906154230237,-0.017858897295594214
1733705223598808000,5.79580810546875,0.007910042472183704,0.02700315773785114,-0.025648820519447325
1733705223608774000,5.80577392578125,0.04611088605076075,0.04940963533520698,-0.018977672192454338
1733705223618741000,5.815740966796875,0.030299568934738633,0.05358092967048287,0.0036181904971599576
1733705223628708000,5.8257080078125,0.02650134569555521,0.03634352527409792,0.04152618860900402
1733705223638675000,5.835675048828125,0.006698620855808257,0.012491963434964417,0.05804653077721596
1733705223648641000,5.84564111328125,0.005624561883509158,0.006732961516827345,0.04414192406535148
1733705223658607900,5.85560791015625,0.01138882449865341,0.002713642872869968,0.025205168405175206
1733705223668575000,5.865574951171875,0.02590776371657848,-0.0093763156324625,-0.01982932058572769
1733705223678542000,5.8755419921875,0.05079290638715028,-0.0015776245802640915,-0.06176818164885044
1733705223688508200,5.885508056640625,0.02790039883852005,0.014340806172043084,-0.034924598386883735
1733705223698475000,5.89547509765625,0.01873626465201378,0.011180442444980144,-0.019055998125672338
1733705223708441900,5.90544189453125,0.0018444588229060172,0.01889817721545696,-0.019093992048501967
1733705223718409000,5.915408935546875,0.0149707746386528,0.003155541421473026,-0.008629296657443046
1733705223728376000,5.9253759765625,0.006646013885736465,0.013700024050474166,-0.023025486278533933
1733705223738342100,5.935342041015625,0.030891689608991146,0.009753186120837927,-0.027547932139039038
1733705223748309200,5.945309326171875,0.02348492048382759,0.03738850428238511,0.00431260250210762
1733705223758276000,5.955276123046875,0.02712298472523689,0.019937895526736974,0.03344751157164574
1733705223768243200,5.9652431640625,0.015895488268136977,-0.008513707453757523,0.06898994959592819
1733705223778209000,5.975208984375,0.00895107595771551,-0.02326572477519512,0.10836334408521651
1733705223788176100,5.985176025390625,0.0011605682119727133,-0.03211085614040494,0.06413491078019141
1733705223798143200,5.995143310546875,0.02952800004035234,-0.018330460330098865,-0.015227379748225212
1733705223808110000,6.005110107421875,0.01715893233269453,0.006706365770846605,-0.08609422913193703
1733705223818076200,6.015076171875,0.020629531052708625,0.011318828002363442,-0.11252747802734374
1733705223828043000,6.02504296875,0.0407929058983922,0.030098785665631293,-0.09890987156331539
1733705223838010000,6.035010009765625,0.04973725985437631,0.030603081925958394,-0.052885202491283416
1733705223847977200,6.044977294921875,0.059038172163069245,0.03697027887031436,0.009801263046264648
1733705223857943000,6.054943115234375,0.03148264123946428,0.01002966497465968,0.01686053390800953
1733705223867910100,6.06491015625,-0.006432078874111175,0.0022105156563222406,0.008625789526104927
1733705223877877000,6.074876953125,-0.021067337948083877,-0.022541063762456178,-0.021229250511527062
1733705223887844000,6.084843994140625,0.0076382397934794425,-0.008548778767138719,-0.07308803256452083
1733705223897810000,6.094809814453125,0.019244506435096263,0.0021884499549865723,-0.0692816260188818
1733705223907777000,6.104777099609375,0.04029226289987564,-0.008815028487890958,-0.057391281738877295
1733705223917744000,6.114744140625,0.05510375532358885,-0.019294483056664466,-0.009799509480595587
1733705223927711000,6.1247109375,0.06614128216654062,0.012788316033035516,0.061083706516027444
1733705223937677000,6.134677001953125,0.07277209848314524,0.031070991698652503,0.09122866941094399
1733705223947644000,6.144643798828125,0.08126841641068458,0.039938481026142836,0.07042027465999126
1733705223957611000,6.154611083984375,0.01781944206804037,0.030405367396771906,0.03828559925258159
1733705223967578000,6.164578125,0.0028697102174162865,0.030589784052968024,0.005441314271092414
1733705223977544200,6.174544189453125,0.011687807445228099,0.030354660122841593,-0.010068974071741104
1733705223987511600,6.184511474609375,0.028276830935478208,0.0031149171501398086,-0.030002924075722692
1733705223997478700,6.194478759765625,0.04105915561914444,-0.0037719197541475295,-0.04948971483409405
1733705224007445500,6.204445556640625,0.05132599035054445,-0.015490706859529017,-0.052284898510575294
1733705224017411600,6.21441162109375,0.0557508210554719,-0.012638970690220594,-0.017444471275806426
1733705224027378700,6.224378662109375,0.07917787387222051,-0.0033509178631007668,-0.040999534386396405
1733705224037345500,6.234345458984375,0.11055851604193448,-0.024943302598595618,-0.08220540499985217
1733705224047312600,6.244312744140625,0.11817483626455068,-0.02785977456718683,-0.07738309940993786
1733705224057279500,6.254279541015625,0.1255678691253066,-0.004672229594737291,-0.03433949197530746
1733705224067245800,6.264245849609375,0.13599077120125294,0.05669321647211909,-0.08161971406638621
1733705224077212700,6.274212646484375,0.1868976593568921,0.07185498363822698,-0.1287076284557581
1733705224087179800,6.2841796875,0.2643532394811511,0.09858078573942183,-0.1450368319660425
1733705224097146600,6.294146728515625,0.26839696191400286,0.10271788554415107,-0.17766484384834766
1733705224107112700,6.30411279296875,0.25312369719743727,0.0944692587673664,-0.1931739631474018
1733705224117079800,6.314079833984375,0.2572811091378331,0.06484992718175053,-0.16269816086292266
1733705224127046700,6.324046630859375,0.2055389392018318,-0.003414923010021448,-0.14044424347877502
1733705224137013800,6.334013671875,0.14658727627843618,-0.08722557124942541,-0.14362871873378752
1733705224146979800,6.343979736328125,0.12752543293386698,-0.14608765619322656,-0.1450590437978506
1733705224156946700,6.35394677734375,0.10545300959646701,-0.18403247918412088,-0.13337269765734672
1733705224166913800,6.363913818359375,0.08311667462587356,-0.2263742219597101,-0.07379004335403443
1733705224176880600,6.373880615234375,0.06292816533893346,-0.24890023428350685,0.019532383465766905
1733705224186846700,6.3838466796875,-0.02128507235199213,-0.17217457586899398,0.11964110942482947
1733705224196813600,6.3938134765625,-0.09339256944656371,-0.007961480398476124,0.14286474862396717
1733705224206780700,6.40378076171875,-0.144019471617043,0.1607081560894847,0.1392325296014547
1733705224216747800,6.413747802734375,-0.2143055985033512,0.3128913526788354,0.06788520322442054
1733705224226713600,6.423713623046875,-0.24846885712891817,0.35510523129105565,-0.01663257037103176
1733705224236680700,6.4336806640625,-0.2012494253143668,0.2757123994939029,-0.008371522504091263
1733705224246647600,6.4436474609375,-0.10964461606740951,0.11810820076912641,0.07573474768102169
1733705224256614700,6.45361474609375,-0.05226531702727079,-0.06407572793886065,0.1316916127026081
1733705224266580500,6.46358056640625,-0.07814473143219948,-0.23734248295873403,0.21618425185680387
1733705224276547600,6.473547607421875,-0.15495879878252744,-0.3011766572266817,0.31036826394200323
1733705224286514700,6.4835146484375,-0.22344722859710453,-0.19355521754994987,0.3931459158718586
1733705224296481500,6.4934814453125,-0.25033289743512865,-0.04058510836660862,0.4299094201236963
1733705224306448000,6.50344775390625,-0.29805969424992795,0.09386895478665828,0.3915104236245155
1733705224316414700,6.513414794921875,-0.28960020120143887,0.21274974736347793,0.3022580227226019
1733705224326381600,6.523381591796875,-0.22301848179101944,0.2972267505571246,0.15452420675754547
1733705224336348700,6.5333486328125,-0.12287000834345817,0.2951994825132191,0.013231822016835213
1733705224346315500,6.5433154296875,-0.06517331391721963,0.213815476898849,-0.09654957217276096
1733705224356281900,6.55328173828125,-0.008899638031423091,0.10223770081177354,-0.1153437044918537
1733705224366248700,6.563248779296875,0.06825900497287511,0.007351239545643329,-0.06834814456105232
1733705224376215800,6.5732158203125,0.1379457046613097,-0.06051321315169334,0.004140168544650077
1733705224386183000,6.583182861328125,0.1631608099386096,-0.08065598360076547,0.05683247881233692
1733705224396148700,6.593148681640625,0.20493308226317167,-0.08203150973767041,0.07565525270402432
1733705224406115800,6.60311572265625,0.219518656976521,-0.04763415009528398,0.052224108234047883
1733705224416082700,6.613082763671875,0.2161950655117631,0.00342398309931159,0.017978724282979964
1733705224426049800,6.6230498046875,0.19463935952484607,0.03668240183964371,-0.07829086190462112
1733705224436015600,6.633015625,0.14692396088689566,0.04863251348286867,-0.15501754323244094
1733705224445982700,6.642982666015625,0.1250581660374999,0.02768909417539835,-0.21374621105492114
1733705224455949800,6.65294970703125,0.09226005828529596,-0.013596417545527218,-0.2673293326824903
1733705224465916700,6.662916748046875,0.08043021202087401,-0.055843029383569956,-0.27997429472208024
1733705224475882800,6.6728828125,0.06075988138914108,-0.05404182518050074,-0.23967092590630054
1733705224485849600,6.682849609375,0.004580605788528919,-0.024045623106509446,-0.15029168375432492
1733705224495816700,6.692816650390625,-0.030544775867462157,-0.030255437532067296,-0.07744915038347244
1733705224505783800,6.70278369140625,-0.030907471700012682,-0.047124154746532435,-0.0073895257294178006
1733705224515749600,6.71274951171875,0.008116378699243068,-0.05736000981777906,0.02870236287117004
1733705224525716700,6.722716796875,0.06574205371588468,-0.10077493478283285,0.06370528719127178
1733705224535683600,6.73268359375,0.12692395990937946,-0.13664704315289855,0.0864046102553606
1733705224545650700,6.742650634765625,0.14490093062669038,-0.13857567312791944,0.10822188978791236
1733705224555616500,6.752616455078125,0.09829875392764806,-0.07127031561806797,0.07523790407478809
1733705224565583600,6.76258349609375,0.0583715249478817,0.02216960010156035,0.029577976661920545
1733705224575550700,6.77255078125,0.017647884893417357,0.11198884110599755,-0.034659225448966026
1733705224585517600,6.782517578125,-0.006473287667334079,0.1878084905914962,-0.09163140499293804
1733705224595484000,6.79248388671875,0.00090104049295187,0.20172756422013044,-0.12152619251906871
1733705224605450800,6.80245068359375,-0.005078618438541889,0.16811565586701036,-0.07556640537679195
1733705224615417600,6.81241748046875,-0.008730418944358826,0.07869608170464634,-0.017682956206798554
1733705224625384700,6.822384765625,-0.0076429159685969346,0.020431524262577293,0.0402852486371994
1733705224635350800,6.832350830078125,-0.007545008552074432,-0.0027935762412846085,0.082200144302845
1733705224645318000,6.84231787109375,0.010998948398232459,-0.013143413081020116,0.10924947926998138
1733705224655284700,6.85228466796875,-0.008892039246857166,-0.02021189016252756,0.12302490664422511
1733705224665251800,6.862251953125,0.01588584365695715,-0.01814516689106822,0.12667173871397971
1733705224675217700,6.8722177734375,0.03564151448458433,0.004574614439159632,0.11414192748665809
1733705224685184800,6.882184814453125,0.018335574896633625,0.017594693401455877,0.08493862935602664
1733705224695151900,6.89215185546875,0.012116554251313208,0.02793327819481492,0.019746318477392194
1733705224705118700,6.90211865234375,0.01170914249420166,0.02215630222856998,-0.034224925684928895
1733705224715084800,6.912084716796875,-0.0006698620855808258,-0.010730214459449052,-0.045133857712149617
1733705224725051600,6.9220517578125,0.02000789202302694,-0.016178689123690127,-0.0009223755419254302
1733705224735018800,6.932018798828125,0.015205460177361964,-0.05810322940051555,-0.014231938970088958
1733705224744985600,6.941985595703125,0.0241445534363389,-0.051527358141541475,0.004396773654222488
1733705224754952700,6.95195263671875,0.02353314353972673,-0.027809505684673785,0.027100772893428802
1733705224764918800,6.961918701171875,0.030584231095016002,-0.00812821526750922,0.0517009611427784
1733705224774885600,6.9718857421875,0.023968027825653552,0.01331686995178461,0.06815408329367638
1733705224784852700,6.981852783203125,0.031874563166499136,0.010909224288165568,0.012255085939168929
1733705224794819600,6.991819580078125,0.006072013390064239,-0.0017417291007936,-0.03601239362359047
1733705224804785700,7.00178564453125,-0.005893441952764988,-0.016088672752678394,-0.0661924278318882
1733705224814752500,7.01175244140625,0.00784574506431818,-0.005639905583113431,-0.0739870272308588
1733705224824719600,7.0217197265625,0.0009855039060115813,0.005327186372131109,-0.07970482035577296
1733705224834686700,7.031686767578125,0.023549217891693112,0.021080343560129403,-0.06683131025731563
1733705224844652500,7.041652587890625,0.027720658357441422,0.03992459863126278,-0.013424714240431785
1733705224854619600,7.05161962890625,0.031050679562985895,0.06779898624569178,0.010640636479854583
1733705224864586500,7.06158642578125,0.027095804457366465,0.06309300051182508,0.025658172869682312
1733705224874553600,7.0715537109375,0.010718670152127742,0.05617153068557381,0.044536476340889926
1733705224884519700,7.081519775390625,0.0020727146208286283,0.04884527945071458,0.06291442907452582
1733705224894486800,7.09148681640625,0.015841712254285812,0.04472074686661363,0.08346855680346489
1733705224904453600,7.10145361328125,0.024029694885015485,0.03649024026840925,0.05407821166813373
1733705224914420500,7.11142041015625,0.038271862988173956,0.013311755385249853,0.024895956325531005
1733705224924386800,7.12138671875,0.046212008337676524,-0.0098556235820055,-0.011661796221137046
1733705224934353700,7.131353759765625,0.06455138262659312,-0.020946634177863598,-0.03395663013756275
1733705224944320800,7.14132080078125,0.08107990810126066,-0.008016425456106662,-0.053929158586263654
1733705224954287900,7.151287841796875,0.08214841411560773,0.014451134678721427,-0.02846972315907478
1733705224964253700,7.161253662109375,0.08239157522171735,0.0009879881240427494,-0.007446808874607086
1733705224974220800,7.171220703125,0.06954992156624794,-0.008425736909359693,0.007563713252544403
1733705224984187600,7.181187744140625,0.041111178067326545,-0.014678367563337087,0.01438391466140747
1733705224994153700,7.19115380859375,0.030203122822940347,-0.021613865914940834,-0.02006722099483013
1733705225004119800,7.201119873046875,0.0413856110945344,-0.006930237654596567,-0.07504851898252964
1733705225014086700,7.211086669921875,0.04541735082864761,0.026637977687269446,-0.0860819541722536
1733705225024053800,7.2210537109375,0.05552227299660444,0.03469371224045753,-0.0684054277062416
1733705225034020900,7.231020751953125,0.06652648209184407,0.030540099692344665,-0.04152443504333496
1733705225043986700,7.240986572265625,0.04087298539727926,0.0166341778062284,-0.022138766571879385
1733705225053953800,7.250953857421875,0.012839607828855513,-0.026840076130628585,-0.01907294926047325
1733705225063920600,7.260920654296875,-0.0018929741397500036,-0.02769800813421607,-0.009136661657691001
1733705225073887700,7.2708876953125,-0.00027004911303520204,-0.016032266390323638,-0.002142272725701332
1733705225083853800,7.280853759765625,0.010840542966127395,0.009295651611685753,0.01374386319220066
1733705225093821000,7.290821044921875,0.014183715914189815,0.02309431373104453,0.0396884517878294
1733705225103787800,7.300787841796875,-0.01703735177963972,0.01571019482910633,0.05307809471487999
1733705225113754600,7.310754638671875,-0.03342266939133406,-0.004898439566045999,0.06311842721402645
1733705225123721000,7.320720947265625,-0.021551029811799526,0.0007199848376214504,0.039621816292405125
1733705225133687800,7.330687744140625,0.0029439444974064823,0.005731383258849382,0.04927285721302032
1733705225143655000,7.340655029296875,0.040898119838535786,0.032115386185050006,0.09031506169736385
1733705225153622000,7.3506220703125,0.042164194251596926,0.03944266033321619,0.062297173959016794
1733705225163587800,7.360587890625,0.014872574961185454,0.01649564611837268,0.03918108678758144
1733705225173555000,7.370554931640625,0.011977730302512646,-0.0009330430664122104,-0.015223872616887091
1733705225183521800,7.380521728515625,-0.0025441315248608586,-0.013760229805111884,-0.07805354601740837
1733705225193489000,7.390489013671875,0.021607143913209437,-0.0007559329338371753,-0.09797112940847873
1733705225203454700,7.400454833984375,0.04691401912719011,0.03046776510849595,-0.08417173663675785
1733705225213421800,7.410421875,0.01255699149519205,0.03243336609303951,-0.06779577137529849
1733705225223389000,7.420388916015625,-0.003492226029932499,0.021579671384394167,-0.026857611787319182
1733705225233355800,7.430355712890625,0.02427256373018026,0.013532704659551382,-0.014423662149906157
1733705225243321900,7.44032177734375,0.034525077675282956,0.01000467666387558,-0.035381694504618644
1733705225253288700,7.450288818359375,0.04153232608884573,-0.020296353575587272,-0.03000175503194332
1733705225263255800,7.460255859375,0.04452186329364776,-0.05708659970387816,-0.021807342660427092
1733705225273223000,7.470222900390625,0.05705459713041782,-0.044092678096145387,0.026454876205325124
1733705225283188700,7.480188720703125,0.08914221852570772,-0.04003521939888596,0.04603051429092884
1733705225293155800,7.49015576171875,0.06373422102481126,-0.006939882265776395,0.015856325301527977
1733705225303122700,7.500122802734375,0.03180529732257128,0.0034719138942658897,-0.014326046994328498
1733705225313089800,7.51008984375,0.03297287979722023,0.0023375030368566513,-0.04365384828746319
1733705225323056600,7.520056640625,0.012573065847158432,0.03771656719297171,-0.024510171878337858
1733705225333022700,7.530022705078125,0.004952946232259273,0.03974646558538079,0.020684476110339165
1733705225342989800,7.53998974609375,0.0020037410378456115,0.023520868580043316,0.06349719739854336
1733705225352956700,7.549956787109375,0.005241992306709289,0.0026218729361891747,0.05661328310370445
1733705225362923800,7.559923828125,0.030443361319601535,-0.0307813611023128,0.03660392977595329
1733705225372889900,7.569889892578125,0.020180325980484484,-0.04349924224764108,-0.026336802783608435
1733705225382857000,7.57985693359375,0.02945844193547964,-0.02082023131921887,-0.05833820720016956
1733705225392823800,7.58982373046875,0.06076864921748638,0.018490765458345413,-0.05679097775816917
1733705225402791000,7.599791015625,0.03638882572054863,0.031725656215101476,-0.030083003574609756
1733705225412757000,7.609757080078125,0.0330699104309082,0.032226153083145616,-0.0028811083942651746
1733705225422723800,7.619723876953125,0.015360066217184066,0.030682284642010924,0.01047697035074234
1733705225432691000,7.62969091796875,0.025757249329984185,0.013511661871522664,0.008670213189721106
1733705225442657800,7.63965771484375,0.03353957376927137,0.013242489541321992,0.015494506251811981
1733705225452624000,7.649623779296875,0.019622107575833797,0.02029080061763525,0.0063601826816797255
1733705225462591000,7.659591064453125,0.014109481634199618,-0.0010224749155342578,-0.0032867665857076642
1733705225472557800,7.669557861328125,0.012193126618862151,-0.01156184297800064,0.006034603989124298
1733705225482525000,7.67952490234375,0.010206044454872608,-0.012420797894895075,0.029670331120491025
1733705225492490800,7.68949072265625,0.028680443300306797,-0.0017325228810310363,0.016212299132347105
1733705225502457900,7.699457763671875,0.036923078727722165,0.0008422960430383682,-0.023837971705198288
1733705225512424700,7.7094248046875,0.026709143227338788,0.0022564006246626376,-0.06920505365133285
1733705225522391800,7.719391845703125,0.025846681179106233,0.005521247639507055,-0.09841010534763335
1733705225532358000,7.72935791015625,0.03658434829264879,0.00843698895573616,-0.06223813724815845
1733705225542324700,7.73932470703125,0.03967266969680786,-0.007384557293355465,-0.031060324174165724
1733705225552291800,7.749291748046875,0.02995557780265808,-0.024552403584867714,0.0040665187865495675
1733705225562258700,7.7592587890625,0.01588058295994997,-0.04690948908254504,0.03771393684446812
1733705225572224800,7.769224853515625,0.0001949380502104759,-0.033370500812679525,0.026209961533546447
1733705225582191600,7.779191650390625,0.006796528272330761,-0.008410247079282998,0.012353870138525963
1733705225592158700,7.78915869140625,-0.007762742955982685,-0.004375146344304084,-0.008116086438298226
1733705225602125800,7.799125732421875,0.0008978256225585938,0.02157002677321434,-0.015333178210258484
1733705225612092000,7.809091796875,0.004655424590408802,0.04702595506906509,0.009734627550840378
1733705225622058800,7.819058837890625,0.016802373979985713,0.06739128222763538,0.02941840218603611
1733705225632025600,7.829025634765625,0.005975859539210796,0.0680044456899166,0.05692424874901771
1733705225641992700,7.83899267578125,0.020608780525624752,0.061792147046327586,0.07645370960533618
1733705225651958800,7.848958740234375,0.054986558684706685,0.02900236873105168,0.06424538541734218
1733705225661926000,7.85892578125,0.03299479936808347,-0.009481967964023352,0.022654314878582955
1733705225671893000,7.86889306640625,0.04589402842968702,-0.003876987563818693,-0.003122515934705734
1733705225681859800,7.87885986328125,0.03949351373761892,0.008255494908988475,-0.018988193586468697
1733705225691826000,7.888825927734375,0.05269464835524559,0.008289397178590297,-0.023059388548135756
1733705225701792800,7.898792724609375,0.045724517081677914,0.01911284287944436,-0.03488777350783348
1733705225711760000,7.908759765625,0.027278759808838367,0.020638591141998768,-0.07541559872925281
1733705225721727000,7.91872705078125,0.02095247939676046,0.002083966667205095,-0.08572598034143447
1733705225731692800,7.92869287109375,0.033276831179857254,-0.01975654761046171,-0.08144552654325962
1733705225741660000,7.938659912109375,0.05063040930181741,-0.011656389393657445,-0.06038987903296947
1733705225751626800,7.948626708984375,0.055412967403233045,-0.005245207177102565,-0.013342296653985977
1733705225761593900,7.95859375,0.060817456795275206,-0.00397971728593111,0.04912029699981212
1733705225771559700,7.9685595703125,0.03979746512025595,0.0006548106469213963,0.06061433543860912
1733705225781526800,7.97852685546875,0.016091595362126825,0.001329202777147293,0.03473521329462528
1733705225791494000,7.988493896484375,-0.0011611527338624,-0.01250102352425456,0.011442600512504578
1733705225801460700,7.998460693359375,-0.022053134115040302,-0.025655104129761457,-0.02904021652340889
1733705225811426800,8.0084267578125,-0.0067430445194244385,0.008546879070997238,-0.05577800132334232
1733705225821393700,8.0183935546875,0.010323825615644454,0.004658931721746922,-0.06348901409208774
1733705225831360800,8.02836083984375,0.022161270664632318,0.012073007370531559,-0.02045358996391296
1733705225841327900,8.038327880859375,0.010962415780127048,0.03236468477100134,0.021026421415805817
1733705225851293700,8.048293701171875,0.02571574827581644,0.032749738565832374,0.061407531642913814
1733705225861260800,8.0582607421875,0.013588672630488872,0.011739537632465363,0.08656243116557598
1733705225871227600,8.0682275390625,0.014784604416787623,0.011208499495685099,0.10102642532587051
1733705225881194800,8.07819482421875,-0.0052001989915966985,0.024753332984447478,0.09923954190909862
1733705225891160800,8.088160888671876,-0.014017711697518824,0.005950286706537008,0.06352233183979988
1733705225901128000,8.0981279296875,-0.03815291278362274,0.03326879400387406,0.04932078800797462
1733705225911094800,8.1080947265625,-0.04317512485980987,0.049511196013540024,0.02189326737821102
1733705225921061600,8.1180615234375,-0.032468145145475864,0.028824089554697275,0.0019043723165988922
1733705225931028000,8.128028076171875,-0.03191343387216329,0.03906359788775444,0.02785188352167606
1733705225940994800,8.137994873046875,-0.03068798373043537,0.014087562063336372,0.04265256229043007
1733705225950962000,8.1479619140625,0.00495353075414896,0.017101795317977665,0.05411971272230148
1733705225960929000,8.157928955078125,0.015044132135808467,-0.0075232351116836065,0.056067924180626866
1733705225970894800,8.167894775390625,0.002240472403168678,0.011296762301027774,0.06381868443787098
1733705225980862000,8.177862060546875,-0.0004874912559986114,0.013829349518567322,0.06013444296717643
1733705225990829600,8.18782958984375,0.03518792549818754,0.006109568921476603,0.036734278157353396
1733705226000796700,8.197796630859376,0.04987842189073562,-0.007468290054053067,-0.006107084703445434
1733705226010762500,8.207762451171876,0.0461173157915473,-0.0015180033475160597,-0.05272328992784023
1733705226020729600,8.2177294921875,0.03321808672994375,0.007023176635056734,-0.0996720881074667
1733705226030696400,8.227696533203124,0.022693477845191955,0.00756254420876503,-0.1061678798675537
1733705226040663600,8.23766357421875,0.043594519315659996,0.001346592303365469,-0.07534370253682136
1733705226050629400,8.24762939453125,0.016844459556043148,-0.011355799011886119,-0.056657122245430944
1733705226060596500,8.257596435546875,-0.016091303101181984,-0.07034910911992191,-0.05671908156573772
1733705226070563600,8.2675634765625,0.010080664509534836,-0.10268427553549409,-0.07168810263872147
1733705226080530400,8.277530517578125,0.02465601008981466,-0.08400850889906286,-0.059570963865518564
1733705226090496500,8.28749658203125,0.06742927615046501,-0.05854600473195314,-0.020931144347786902
1733705226100463400,8.29746337890625,0.08224193761795759,-0.009938479559868573,0.020425532913208005
1733705226110430500,8.307430419921875,0.06015080958008766,0.029975597677379846,0.034029110851883884
1733705226120397300,8.317397216796875,0.04766220714598894,0.04947027948126197,0.04300502898991108
1733705226130363400,8.32736328125,0.06173311033546924,0.09325082288831472,0.024055413848161695
1733705226140330500,8.33733056640625,0.07482377031594514,0.16199936494380235,0.004838087680935859
1733705226150297300,8.34729736328125,0.11285802515596151,0.18919336907863615,0.005735328781604767
1733705226160264400,8.357264404296876,0.12650807258486746,0.19902853439450263,0.0463981785595417
1733705226170230300,8.367230224609376,0.08937427371591329,0.1526720030196011,0.11874036119282246
1733705226180197400,8.377197265625,-0.0025192893445491788,0.11993395489156246,0.12997370286881924
1733705226190164200,8.387164306640624,-0.057903615175187585,0.07066124380901455,0.021551322072744367
1733705226200131300,8.39713134765625,-0.05267740495949983,0.006884206555783748,-0.09916004693210125
1733705226210097700,8.40709765625,0.011822247479856014,-0.06222367033138871,-0.2059790841847658
1733705226220064500,8.417064453125,0.15009703796505927,-0.15505787524282932,-0.2678501416862011
1733705226230031600,8.427031494140625,0.23675386941581963,-0.28847718852087856,-0.25226678810715675
1733705226239998500,8.43699853515625,0.30673429135382174,-0.3936097339913249,-0.1952823336035013
1733705226249964500,8.446964599609375,0.33194559723883865,-0.4170822333849966,-0.1399269416064024
1733705226259931400,8.456931396484375,0.2941127101898193,-0.33831615518406033,-0.14820669417381285
1733705226269898500,8.4668984375,0.23431582861393688,-0.17534166159778833,-0.19705343492925165
1733705226279865600,8.476865478515625,0.1431216459944844,0.02555719671323895,-0.1857756695896387
1733705226289831400,8.48683154296875,-0.004737257654964923,0.19265110831707716,-0.14617664965093136
1733705226299798500,8.496798583984376,-0.14241408224701882,0.32580870191901923,-0.040620179679989814
1733705226309765400,8.506765380859376,-0.2704489260077476,0.3932366628952324,0.06070201372206211
1733705226319732500,8.516732421875,-0.3497171085119247,0.3905611600756645,0.13293722884953021
1733705226329698300,8.5266982421875,-0.3224596837520599,0.2866879670165479,0.19222879125177858
1733705226339665400,8.53666552734375,-0.25126491758823394,0.14817308416515587,0.2261871749550104
1733705226349632500,8.546632568359374,-0.1510930632650852,0.029343437253683803,0.25763094548881055
1733705226359599400,8.556599365234375,-0.026669395738840102,-0.05629223445579409,0.27430793952345844
1733705226369565400,8.5665654296875,0.04380056328177452,-0.11982801029905676,0.27622517132163044
1733705226379532300,8.5765322265625,0.10209347003549336,-0.1549881710074842,0.23594050720632076
1733705226389499400,8.58649951171875,0.10079641596227884,-0.14177373851686714,0.1866600512087345
1733705226399466500,8.596466552734375,0.0979135540023446,-0.10796791502684354,0.09408405884206295
1733705226409432300,8.606432373046875,0.08620996446609497,-0.06036430620029568,0.0004015665382146835
1733705226419399400,8.6163994140625,0.05571224261075258,0.008705722894519567,-0.07614215943813324
1733705226429366300,8.6263662109375,0.013948153592646121,0.04309329179525375,-0.11921148583590983
1733705226439333400,8.63633349609375,-0.013352525787055492,0.035606589301675554,-0.11478080991208553
1733705226449299500,8.646299560546876,-0.09319383200407028,0.04172068826779723,-0.06882979059815407
1733705226459266300,8.656266357421876,-0.14753420173972845,0.05284691630750894,-0.025814824736118316
1733705226469233400,8.6662333984375,-0.14468816465884446,0.0462402115188539,0.02949497455358505
1733705226479200300,8.6762001953125,-0.12809563403725624,0.0589312046572566,0.06747194624841213
1733705226489166600,8.68616650390625,-0.0628135990485549,0.05416837416961789,0.08947685730755328
1733705226499133400,8.696133544921874,-0.031206746907532213,0.05368351326212287,0.13101356731057165
1733705226509100500,8.7061005859375,0.006624678836762905,0.05013415021747351,0.1435305190563202
1733705226519067600,8.716067626953125,0.01657733305245638,0.0412654918462038,0.11794365785717964
1733705226529033500,8.726033447265625,0.019478315190970895,0.01856616878211498,0.06290215411484242
1733705226539000600,8.73600048828125,0.013721066838502884,-0.011938567335903644,0.04954524441361427
1733705226548967400,8.745967529296875,0.025234979021549222,-0.005206628732383251,-0.0015098200410604476
1733705226558934500,8.7559345703125,0.020123627357184887,-0.028210779961943624,-0.052019525572657585
1733705226568900400,8.765900390625,0.023398703505098817,-0.04120382478684187,-0.06707797849476337
1733705226578867500,8.775867431640625,0.030022505559027194,-0.026512451611459254,-0.07624094363749027
1733705226588834600,8.78583447265625,0.05014642517715692,0.003156418204307556,-0.06437222666740416
1733705226598801400,8.795801513671876,0.06928600993305445,0.014501257430762051,-0.06423252593576907
1733705226608767500,8.805767578125,0.06524111845642327,0.01879252488389611,-0.0812199010938406
1733705226618734300,8.815734375,0.06408668772429227,0.0024352643229067325,-0.1059106902360916
1733705226628701400,8.825701416015624,0.12357844887375831,-0.006146832191944122,-0.1255395198136568
1733705226638668500,8.83566845703125,0.15594634851515293,0.000056990884244441985,-0.1574637673407793
1733705226648634400,8.84563427734375,0.17815291962623594,-0.0023258125990629195,-0.14912147093117237
1733705226658601500,8.8556015625,0.1838172289982438,-0.019163404022902248,-0.128881231456995
1733705226668568300,8.865568359375,0.16108604949116706,-0.03465878705754876,-0.11263327648937702
1733705226678535400,8.875535400390625,0.1462228268802166,-0.05170242244750261,-0.08972703267633915
1733705226688501200,8.885501220703125,0.13699468754678965,-0.033733342775702474,-0.06531330690979957
1733705226698468400,8.89546826171875,0.13170681027173994,-0.0264810335598886,-0.05370002600550651
1733705226708435500,8.905435546875,0.11189648664742707,-0.03227978296652436,-0.06018412732779979
1733705226718402300,8.91540234375,0.1090019342496991,-0.026586832021921872,-0.05117079978883266
1733705226728368600,8.92536865234375,0.04712298570275306,-0.038285745383054015,-0.06737199300527572
1733705226738335500,8.93533544921875,0.009940963777899742,-0.0395149949170649,-0.060245502126216884
1733705226748302300,8.94530224609375,-0.010609072297811507,-0.014709054962545633,-0.027528058394789695
1733705226758269400,8.95526953125,-0.022697277237474917,0.015996464424580335,0.004782558101415634
1733705226768235500,8.965235595703126,-0.022148411183059213,0.034381577551364895,0.0483808768093586
1733705226778202600,8.97520263671875,-0.01907382604330778,0.041468467072397465,0.08102525530457497
1733705226788169500,8.98516943359375,-0.039997956128418444,0.05369023526385426,0.10683949551880359
1733705226798136600,8.995136474609374,-0.09109685972481965,0.07454071559086442,0.13301789287030696
1733705226808102400,9.005102294921874,-0.10124006807655095,0.03909209332987666,0.13802549189925192
1733705226818069500,9.015069580078125,-0.10172288315743207,0.03401610523983836,0.15301263315081595
1733705226828036600,9.02503662109375,-0.08981997165679931,0.010591682771593332,0.1290419749766588
1733705226838003500,9.03500341796875,-0.08360358135998248,-0.01305675771087408,0.11576339120864867
1733705226847969500,9.044969482421875,-0.057654316589236254,-0.024196283623576162,0.0877507641673088
1733705226857936400,9.054936279296875,-0.024538228929042814,-0.030167613118141888,0.057091422009468075
1733705226867903500,9.064903564453125,0.024069442373514174,-0.00003068739920854568,-0.000011690437793731688
1733705226877870600,9.07487060546875,0.06528729568570851,0.06443798537999391,-0.013157587736845016
1733705226887836400,9.08483642578125,0.05135580096691846,0.09840382173731922,-0.012760697373747824
1733705226897803500,9.094803466796876,0.005516133072972297,0.0840964794434607,0.017720365607738493
1733705226907770400,9.104770263671876,-0.006019406419992447,0.0692073917388916,0.0334492651373148
1733705226917737500,9.114737548828124,-0.040379648922383785,0.06308057942166924,0.06380640947818755
1733705226927703300,9.124703369140626,-0.04573299264907837,0.029934827275574206,0.0725274760723114
1733705226937670400,9.13467041015625,-0.03199672824144363,0.004952507840842008,0.04881926822662353
1733705226947637500,9.144637451171874,-0.005028934077918529,-0.001757072800397873,0.037005496314167975
1733705226957604400,9.154604248046875,0.026576749019324778,0.0026034604966640473,0.03772153562903404
1733705226967570400,9.1645703125,0.06210457399636507,-0.007411153039336204,0.025003508353233336
1733705226977537300,9.174537353515625,0.062302726916968816,-0.016254823099821805,0.013986439776420593
1733705226987504000,9.184504150390625,0.05530424633175134,-0.010940642339736222,-0.038410686936974525
1733705226997471200,9.19447119140625,0.0946373088106513,-0.002437017888575792,-0.09375555754005908
1733705227007437600,9.2044375,0.09712152684181928,-0.02706877031996846,-0.13704291060268878
1733705227017404400,9.214404296875,0.10996785667240619,-0.034888211899250746,-0.1452864228129387
1733705227027371500,9.22437158203125,0.12295154914706945,-0.046659605974704026,-0.1252472588688135
1733705227037338400,9.23433837890625,0.11743950772732495,-0.05815934350192546,-0.11158522874116897
1733705227047304400,9.244304443359376,0.09941752882450819,-0.05557371092289686,-0.09845920518636703
1733705227057271300,9.254271240234376,0.09713497084528207,-0.04816898762434721,-0.09014496582746505
1733705227067238400,9.26423828125,0.08158493501394987,-0.010267711514234543,-0.08015256412327289
1733705227077205500,9.27420556640625,0.08499737380594015,0.009292875132709742,-0.06496668542921542
1733705227087171300,9.28417138671875,0.08490268125981092,0.024653964263200757,-0.031732524347305294
1733705227097138400,9.294138427734374,0.04635580072253942,0.019104513442516326,-0.01146948851943016
1733705227107105300,9.304105224609375,0.029775837321579453,0.009887918416410684,0.0040104046851396555
1733705227117072400,9.314072265625,0.032870296205580234,-0.005034925427287817,0.025301029995083806
1733705227127038200,9.3240380859375,0.028358956260979173,0.0008276829957962036,0.04343932875394821
1733705227137005300,9.33400537109375,0.025713410188257693,0.01696720915287733,0.05121346988677978
1733705227146972400,9.343972412109375,0.008857552455365658,0.04470408799275755,0.07623042224347591
1733705227156939300,9.353939208984375,-0.04438187030106783,0.04527706557512283,0.0653033700376749
1733705227166905300,9.3639052734375,-0.044588498789072034,0.06905629283040761,0.04442191005051136
1733705227176872200,9.3738720703125,-0.05331102668792009,0.05737199251651764,0.0402022465288639
1733705227186839300,9.38383935546875,-0.045484278585016726,0.04112973663732409,0.03793839325010776
1733705227196806400,9.393806396484376,-0.03175181356966495,0.05122998263016343,0.02030044522881508
1733705227206772200,9.403772216796876,-0.019487959802150723,0.020375556291639802,0.03056640317738056
1733705227216739300,9.4137392578125,-0.02147416518330574,-0.0064554597496986384,0.028141806378960608
1733705227226706200,9.4237060546875,0.0009247136294841766,-0.017068185309320687,0.03564882100820541
1733705227236673300,9.43367333984375,0.022485680313408373,-0.023491788616031406,0.027710429224371908
1733705227246639400,9.443639404296874,0.036437925559282304,-0.005431085138022899,0.048827451533079144
1733705227256606500,9.4536064453125,0.04752192189246416,0.020087825391441584,0.070353639164567
1733705227266573300,9.4635732421875,0.04892418990582227,0.024679537095874546,0.0669026219278574
1733705227276539400,9.473539306640625,0.03153261786103249,0.029250059881806373,0.03169862207770347
1733705227286506500,9.483506591796875,0.01691226409524679,0.012292203079164028,-0.0022281974434852597
1733705227296473300,9.493473388671875,-0.005545943689346313,-0.0052849546656012535,-0.03899462430477142
1733705227306440400,9.5034404296875,0.008584580732882022,-0.004027355819940567,-0.044154783546924585
1733705227316407600,9.513407470703125,0.01171001927703619,-0.015862608911842106,-0.06187982532978058
1733705227326373400,9.523373291015625,0.007047872684895992,-0.005827683240175247,-0.06596154168546199
1733705227336340500,9.533340576171875,0.025490122826397416,-0.0027184651784598825,-0.07081541145741939
1733705227346307300,9.543307373046876,0.020947218699753283,0.0031589024223387238,-0.03032499563694
1733705227356274400,9.5532744140625,0.04814209961742162,0.004458879105001688,-0.022051672810316083
1733705227366240300,9.563240234375,0.04325432757586241,-0.0006840367414057254,0.022771803778409958
1733705227376207400,9.573207275390626,0.041294133418798444,0.0066983285948634145,0.03507598955631256
1733705227386174500,9.583174560546874,0.07258125208616256,0.019203297641873358,0.03240355547666549
1733705227396141300,9.593141357421874,0.07229045244604348,0.0055858373083174226,0.025226795715093613
1733705227406107400,9.603107421875,0.04482259980589151,0.023793255780637262,-0.011581132200360297
1733705227416074200,9.61307421875,0.045263037049770354,0.0020997487582266328,-0.008868950632214545
1733705227426041300,9.623041259765625,0.028474691595137117,-0.003715075000375509,-0.010922960552573203
1733705227436007200,9.633007080078125,0.012604630029201506,0.015189385825395583,-0.015540098959207533
1733705227445974300,9.642974365234375,0.014768530064821242,0.016991320680826903,-0.02601063956916332
1733705227455941400,9.65294140625,0.0320437822535634,0.011845189964026212,-0.029061259311437604
1733705227465908200,9.662908203125,0.03045183688700199,0.014112988765537737,-0.026545477098226546
1733705227475874300,9.672874267578125,0.018958090709149836,0.016135872895270586,-0.007086158868670463
1733705227485841200,9.682841064453125,0.00485942272990942,0.02109597952067852,0.013467384338378905
1733705227495808300,9.692808349609376,0.02965630259513855,0.021192279502004384,0.032629765447974204
1733705227505775400,9.702775390625,0.03285480637550354,0.004385375477373599,0.054936874324083326
1733705227515741400,9.712741455078126,0.01490939984023571,-0.010130348870158195,0.049835751792788506
1733705227525708500,9.72270849609375,0.02702507730871439,-0.010917261464148759,0.0572732083171606
1733705227535675400,9.73267529296875,0.045154315978288645,-0.008792670525610446,-0.0016436755537986754
1733705227545642500,9.742642578125,0.02842763758301735,-0.020527970374375582,-0.024806524476408957
1733705227555608300,9.7526083984375,-0.00010755202770233153,-0.0072870882682502264,-0.07158347322046757
1733705227565575400,9.762575439453125,0.013593641066551207,-0.0013227730363607406,-0.08571896607875823
1733705227575542500,9.77254248046875,0.02310848838686943,0.023040683847665784,-0.06287000541090965
1733705227585509400,9.78250927734375,0.024644319652020928,0.027086013715714216,-0.03410334513187408
1733705227595475500,9.792475341796875,0.032282851706445216,0.026508359958231448,0.0013034838140010834
1733705227605442300,9.8024423828125,0.003170154468715191,0.03371536872759461,0.040378772139549254
1733705227615409400,9.812409423828125,-0.009681436058878898,0.024197598797827957,0.03707622346282005
1733705227625376500,9.82237646484375,-0.004776420621573925,0.008529927936196327,0.049070028117299075
1733705227635342300,9.83234228515625,-0.009344166928529738,0.004032470386475325,0.04085866461098194
1733705227645309400,9.842309326171875,0.026537586052715778,0.0010436638340353965,0.003932078751921654
1733705227655276300,9.8522763671875,0.03526362108290195,-0.03333805984780192,-0.030969723281264305
1733705227665243400,9.862243408203126,0.03137304338514805,-0.03434636010751128,-0.02776829689145088
1733705227675209200,9.872209228515626,0.035031858153641224,-0.024569208589196204,-0.016013561689853666
1733705227685176300,9.88217626953125,0.026270167288184165,0.016820494158565995,0.005646481454372406
1733705227695143400,9.892143310546874,0.026047756709158418,0.04353533647432923,0.02149403892755508
1733705227705110300,9.9021103515625,0.02084375832527876,0.03653977849856019,0.02294949843287468
1733705227715076400,9.912076416015625,0.003367722867429256,0.022638240526616574,0.03679214582443237
1733705227725043200,9.922043212890625,0.0026350246787071228,0.023524229580909013,0.05948270106017589
1733705227735010300,9.93201025390625,0.03799626091718673,0.023187691102921962,0.05964987432062625
1733705227744977400,9.941977294921875,0.03482143027335405,-0.006839198370277882,0.03999240317046642
1733705227754943500,9.951943603515625,0.012544132013618946,-0.0046263446263968945,0.010087678772211074
1733705227764910300,9.961910400390625,0.013472060513496397,-0.03642594286054372,-0.03461304821968078
1733705227774877200,9.971877197265625,0.00452478394806385,-0.020767039827257392,-0.07372574594616889
1733705227784844300,9.98184423828125,0.02528875503540039,0.0020222996078431603,-0.07291209147572517
1733705227794810400,9.991810302734375,0.07501140184253453,0.03049640668109059,-0.06942424935996531
1733705227804777500,10.001777587890626,0.08680851488113403,0.04635653137490153,-0.01625087757706642
1733705227814744600,10.01174462890625,0.0469233714774251,0.029647096375375985,0.028486089771986006
1733705227824711400,10.02171142578125,0.019528584073483943,0.004327361679822206,0.04986965406239032
1733705227834677500,10.031677490234374,0.00024520693272352215,-0.0054740474969148635,0.0191448454529047
1733705227844644400,10.041644287109374,0.010062836591899394,-0.01211129355430603,-0.01646130545735359
1733705227854611500,10.051611572265625,0.03998860377818346,-0.03230024123266339,-0.038629882645606996
1733705227864578300,10.061578369140625,0.041245325841009615,-0.007346563370525836,-0.06622048488259315
1733705227874544400,10.07154443359375,0.07284457919746637,0.0021336510278284547,-0.07979425220489501
1733705227884511500,10.081511474609375,0.05495353319793939,0.01039440663382411,-0.013420038065314293
1733705227894478300,10.091478271484375,0.010063421113789082,0.010318711049109697,0.04182429477274418
1733705227904445400,10.101445556640625,-0.018419161526858806,0.01916881085038185,0.039352936223149296
1733705227914411300,10.111411376953125,-0.025630992601811883,0.00868292654082179,0.03212240044772625
1733705227924378400,10.12137841796875,-0.011543430538475513,0.020119827964901922,0.006318681627511978
1733705227934345200,10.13134521484375,0.02381429856866598,0.01262362699061632,-0.029408465313911437
1733705227944312300,10.141312255859376,0.04021247566193342,-0.0006485270366072655,-0.04146890546381473
1733705227954278400,10.1512783203125,0.032164778284728524,-0.015622516545653341,-0.015002923342585562
1733705227964245200,10.161245361328126,0.013999006997048855,-0.002457330024242401,-0.006622048488259315
1733705227974212400,10.17121240234375,0.011903203761577606,-0.006503098283708095,0.019660393759608267
1733705227984179200,10.18117919921875,0.026748598454892632,0.011676555398851632,0.0233972422003746
1733705227994145300,10.191145263671874,0.05119213483780622,0.035895781506597994,0.018828034588694573
1733705228004112400,10.2011123046875,0.06647299833893776,0.04389335613176226,0.014201543831825255
1733705228014079200,10.211079345703125,0.0336734292820096,0.03763502638936043,-0.016039865174889565
1733705228024046300,10.22104638671875,-0.0018237082958221435,0.0021754443429410457,-0.02783843951821327
1733705228034012700,10.2310126953125,-0.027065701580047605,-0.011891513323783874,-0.02801496512889862
1733705228043979500,10.2409794921875,-0.03210311122536659,-0.01922492495179176,-0.02946925559043884
1733705228053946400,10.2509462890625,-0.007416413736343383,0.000334054259955883,-0.027681203129887578
1733705228063913500,10.26091357421875,0.027906536318361756,0.020999241147935388,0.004736380872130394
1733705228073879600,10.270879638671875,0.04406447491496801,0.029671792425215244,0.047643794706463814
1733705228083846400,10.280846435546875,0.04634001863151788,0.013875526747852564,0.06015256314575672
1733705228093813500,10.2908134765625,0.022265607821941376,0.003005611556768417,0.0547287845313549
1733705228103780600,10.300780517578126,0.030054946523904797,0.009293021263182162,0.05556406631171703
1733705228113746400,10.310746337890626,0.0322881124034524,0.003978402111679315,0.04365852446258068
1733705228123713500,10.320713623046874,0.002390402267873287,0.011418781245499849,0.02003331872522831
1733705228133680400,10.330680419921874,-0.004748655831813812,0.03878638838157058,0.0024427169770002365
1733705228143647500,10.3406474609375,-0.020052900208532808,0.001523702435940504,0.001830138036608696
1733705228153613300,10.35061328125,-0.03228928144723177,-0.015197861392796039,0.008245850297808647
1733705228163580400,10.360580322265625,-0.018396072912216184,-0.001796235767006874,-0.014967267507314681
1733705228173547500,10.370547607421875,0.008269815695285797,0.02217018462345004,-0.05043137959837913
1733705228183513300,10.380513427734375,0.028578151969611644,0.009058774115890265,-0.0588029021024704
1733705228193480400,10.39048046875,0.04444704449176788,0.025611411118507385,-0.042673020556569095
1733705228203447300,10.400447265625,0.0836859989464283,0.006266366918385028,-0.034629999354481696
1733705228213414400,10.410414306640625,0.09283493556380272,-0.006026566813141107,-0.02058744547665119
1733705228223380200,10.420380126953125,0.08729191448390483,-0.016950550279021263,-0.03131868284940719
1733705228233347300,10.430347412109375,0.08822714950740337,-0.04192702449485659,-0.06658698010742664
1733705228243314400,10.440314453125,0.07609510542601347,-0.029908231529593467,-0.08783961149454117
1733705228253281300,10.45028125,0.08541179982572794,-0.014071633841842412,-0.10944120244979857
1733705228263247600,10.46024755859375,0.0649792526498437,0.005720715734362602,-0.1014583870023489
1733705228273214500,10.47021435546875,0.04617050728350877,-0.017185089687258005,-0.06382686774432658
1733705228283181300,10.480181396484374,0.028464170201122758,-0.014011720348149537,-0.03196691762506962
1733705228293148400,10.4901484375,0.011914017416536807,-0.0186992936424911,0.009493220010399818
1733705228303114500,10.500114501953124,0.0035810733571648595,-0.001866816785186529,0.021268998000025748
1733705228313081600,10.51008154296875,0.014206804528832434,0.013652823907881974,0.03404489294290542
1733705228323048400,10.52004833984375,0.020618132875859736,0.012834054870903491,0.02620411631464958
1733705228333015600,10.530015625,0.022414076381921767,0.029571400790661572,-0.009493804532289504
1733705228342981400,10.5399814453125,0.011826046872138977,0.03336640915945172,-0.01433423030078411
1733705228352948500,10.549948486328125,0.014888649313151835,0.010773176818341015,-0.014362287351489067
1733705228362915600,10.55991552734375,0.013082768934965133,0.02034253080487251,-0.006095978787541389
1733705228372882400,10.56988232421875,0.013641571861505507,0.017895429913699627,0.06196691909134388
1733705228382848500,10.5798486328125,-0.00881692818403244,0.0009369885891675948,0.08901800762414931
1733705228392815400,10.5898154296875,-0.024082594116032124,-0.0025537761360406876,0.058121934100985526
1733705228402782500,10.599782470703126,-0.014293021507561206,-0.0004899754740297794,0.004459902018308639
1733705228412749600,10.60974951171875,0.0060644146054983136,0.016158961509913205,-0.022811551266908644
1733705228422715400,10.61971533203125,0.039326632738113404,0.05171981197372079,-0.0337538010418415
1733705228432682500,10.6296826171875,0.06004764146655798,0.06550853722095488,-0.02323357607126236
1733705228442649300,10.6396494140625,0.017248364181816578,0.03906885858476162,-0.004445288971066475
1733705228452616400,10.649616455078124,-0.025157529871165752,0.014089607889950275,0.016575287225842474
1733705228462582300,10.659582275390624,-0.030610242319107053,0.017217822913080452,0.008530512458086014
1733705228472549400,10.66954931640625,-0.007744038255512714,0.006025836160778999,-0.026352584874629974
1733705228482516500,10.6795166015625,0.00857464386075735,-0.008744885861128569,-0.03440495842695236
1733705228492483300,10.6894833984375,0.03580927226692438,-0.03385755367726087,-0.00865443109869957
1733705228502449400,10.699449462890625,0.05690992796272039,-0.07317161919474602,0.020667524975538254
1733705228512416300,10.709416259765625,0.054013329738378524,-0.06556362840905786,0.02383914074897766
1733705228522383400,10.71938330078125,0.06281418357044458,-0.050771571338176724,0.011386486411094665
1733705228532350500,10.7293505859375,0.06833616186231374,-0.01696530945673585,-0.016004209339618682
1733705228542316500,10.739316650390625,0.0887228240698576,0.02939385226666927,-0.05713701471686363
1733705228552283600,10.74928369140625,0.09497370115816593,0.044697658251971,-0.085389295732975
1733705228562250500,10.75925048828125,0.07226122635155915,0.043177901338785886,-0.05351999326348304
1733705228572217300,10.76921728515625,0.04490852452367544,0.055493631424009794,0.02703589096367359
1733705228582183400,10.779183349609376,0.025534254229068756,0.07894128863736986,0.07680559178292751
1733705228592150500,10.789150634765624,-0.016151801116764543,0.08763502883315086,0.09905366394817829
1733705228602117600,10.79911767578125,-0.04970423436760902,0.05534194799363613,0.08575812904536724
1733705228612084500,10.80908447265625,-0.0759820004403591,0.03431932597011327,0.07611059525609017
1733705228622050600,10.819050537109375,-0.06437222666740416,0.0361962257578969,0.047991000708937644
1733705228632017400,10.829017333984375,-0.020052315686643122,0.036411622074246405,0.03554302254617214
1733705228641984500,10.838984619140625,-0.0057239306047558785,0.01841156274229288,0.05616729290187358
1733705228651951600,10.84895166015625,-0.014250643670558928,0.00876373669207096,0.07881167090833187
1733705228661917400,10.85891748046875,-0.011635200475156307,-0.010091039773076772,0.05614274298250675
1733705228671884500,10.868884521484375,-0.007579203082621097,-0.03564429096356034,-0.003479658809304237
1733705228681851400,10.878851318359375,0.03439297572821379,-0.02913257098197937,-0.04124561810195446
1733705228691818500,10.888818603515626,0.04023848688602447,-0.02138473333418369,-0.1018809963285923
1733705228701784300,10.898784423828126,0.0632186727181077,-0.017389526218175886,-0.1364835231542587
1733705228711751400,10.90875146484375,0.09840893630385399,-0.017447247754782437,-0.12194354114830493
1733705228721718500,10.918718505859376,0.09372954631596803,-0.038503772047907114,-0.08973580050468444
1733705228731684400,10.928684326171876,0.07796440642923116,-0.04918327923342585,-0.0744143127322197
1733705228741651500,10.9386513671875,0.06032441258132457,-0.018594371963292358,-0.06967676281630993
1733705228751618300,10.948618408203124,0.05946487314254045,0.006011953765898943,-0.050754620203375816
1733705228761585400,10.95858544921875,0.07186755085885524,0.007726502598822117,-0.02996726824045181
1733705228771551500,10.968551513671875,0.03952624696344137,0.020961247225105763,0.00196457807123661
1733705228781518300,10.978518310546875,0.004341828596591949,0.0008582242645323276,0.038303134909272195
1733705228791485400,10.9884853515625,-0.002443301498889923,0.006352437766641378,0.0523106174737215
1733705228801452300,10.998452392578125,-0.02860445545464754,0.02574336693510413,0.0601402881860733
1733705228811418600,11.008418701171875,-0.013615852898359298,0.044711686777323484,0.05846037227511405
1733705228821385500,11.018385498046875,-0.03320990342348814,0.07525792394950985,0.04757482112348079
1733705228831352600,11.0283525390625,-0.06270721606463193,0.07437412685230374,0.04539455447494983
1733705228841319400,11.0383193359375,-0.06239625041931867,0.05136120779439807,0.054797758114337916
1733705228851285500,11.048285400390625,-0.052577451716363424,0.042092151928693054,0.06395546256005763
1733705228861252600,11.058252685546876,-0.02316343344449997,0.028175124126672745,0.0946785176038742
1733705228871219500,11.068219482421876,-0.0034770284608006477,0.018994477196782825,0.09918693493902683
1733705228881186600,11.0781865234375,0.002348608952760696,0.021313713924586773,0.06474047545790672
1733705228891152400,11.08815234375,-0.007269406481087207,-0.014472177466750145,0.002023614782094955
1733705228901119500,11.098119384765624,-0.012197218272089957,-0.012708236534148454,-0.03727145377397537
1733705228911086600,11.108086669921875,0.011720540671050548,0.006601736352592706,-0.05045768308341503
1733705228921053400,11.118053466796875,0.05170125340372324,0.007854512892663479,-0.039861470267176624
1733705228931019500,11.12801953125,0.07314502344876528,-0.00510536031499505,0.0022205986589193343
1733705228940986400,11.137986328125,0.04488017521202564,-0.00990267759412527,0.014364040917158125
1733705228950953500,11.147953369140625,0.03192015587389469,-0.024887626888602972,-0.01436170282959938
1733705228960920300,11.15792041015625,0.029477438896894453,-0.028422961407899856,-0.07101473342180252
1733705228970886400,11.167886474609375,0.029922552315890787,-0.02246770626530051,-0.09040800067782402
1733705228980853500,11.177853515625,0.046590194000303745,-0.005844926635921001,-0.10047171405255793
1733705228990819800,11.18781982421875,0.055607028670608995,0.007301847445964813,-0.0702051706045866
1733705229000787000,11.197786865234375,0.0429018608763814,0.0024190438404679297,-0.007758943563699722
1733705229010753000,11.2077529296875,0.03018266455680132,-0.018782441881299017,-0.01035012910068035
1733705229020720000,11.21772021484375,0.03260375422388315,-0.004168371725827455,-0.009352934756875037
1733705229030687000,11.22768701171875,0.021890929290652273,0.01799158376455307,-0.014587912800908088
1733705229040653800,11.23765380859375,0.03969283570200205,0.019656740497797726,-0.015002923342585562
1733705229050620000,11.247619873046874,0.026818741081655023,0.021812018835544584,-0.010041501542925834
1733705229060587000,11.2575869140625,0.015786474935710428,0.016678747600317,0.02094341930747032
1733705229070554000,11.26755419921875,0.006409867042303085,0.009195552238076925,0.07036299151480198
1733705229080521000,11.27752099609375,-0.0053916299104690545,-0.017235650830715894,0.09332476490736007
1733705229090487000,11.287487060546875,-0.0012228197932243347,-0.007125467965751886,0.04350128807425499
1733705229100454000,11.297453857421875,0.003249649445712566,0.017534779907763004,-0.0067430445194244385
1733705229110421000,11.3074208984375,-0.011822539740800856,0.0289613060683012,-0.05189794501960277
1733705229120388000,11.31738818359375,0.010180910013616085,0.03445698087513446,-0.06294365516901015
1733705229130354000,11.32735400390625,0.012160101132094859,0.033897593426704405,-0.0578571456849575
1733705229140321000,11.337321044921875,-0.00043459202498197556,0.01913330114558339,-0.033192660027742384
1733705229150288000,11.347287841796875,0.010516425578296185,0.01085442536100745,0.0022515783190727233
1733705229160254000,11.35725390625,0.027243103973567485,0.010916238550841808,0.038918051937222475
1733705229170220800,11.367220703125,0.030611703623831272,0.024255612595379353,0.04652969598472118
1733705229180188000,11.37718798828125,0.035218905158340925,0.008311755140870809,0.04782324292659759
1733705229190155000,11.387155029296874,0.03681786478757858,0.00793912243619561,0.04295651367306709
1733705229200120800,11.397120849609376,0.04638151968568563,-0.01480287072584033,0.0298544555157423
1733705229210088000,11.407087890625,0.04783551788628101,-0.024566724371165034,0.013010288220643996
1733705229220054800,11.4170546875,0.008474106095731258,-0.03773687932863831,-0.05745499462485313
1733705229230022000,11.42702197265625,0.007500584888458252,-0.016202362260222435,-0.09084931470453739
1733705229239988000,11.436988037109375,0.043810792414844035,-0.013576543801277876,-0.09554477904438972
1733705229249954800,11.446954833984375,0.06172872642129659,-0.0024384791933000087,-0.09317746539115905
1733705229259922000,11.456921875,0.05033697931319475,0.03746230017095804,-0.06258709681630134
1733705229269888800,11.466888671875,0.02447363926023245,0.033683366154134274,-0.018871873730421065
1733705229279855000,11.476855224609375,0.003937631709873676,0.024479776740074156,0.0143172791659832
1733705229289822000,11.486822021484375,-0.007446808874607086,-0.004711100300401449,0.01281973408460617
1733705229299789000,11.4967890625,-0.009965805958211421,0.0046529403723776334,-0.004439443752169609
1733705229309756200,11.506756103515626,-0.017370529256761073,0.003238105138391256,-0.02167933236658573
1733705229319722000,11.516721923828126,0.015074819535017013,-0.007352262458950281,-0.024036709147691727
1733705229329689000,11.526689208984376,0.02345131047517061,-0.019114158053696154,-0.0002069207489490509
1733705229339656000,11.536656005859374,0.014674714301526545,-0.026783085246384144,0.008235913425683975
1733705229349623000,11.546623046875,0.019610124877095222,-0.01583615929633379,0.016775193712115288
1733705229359588900,11.5565888671875,0.03409428504258394,0.012912234673649072,0.013484919995069502
1733705229369556000,11.566555908203124,0.025969430775940418,0.02562806999236345,0.007672434324026108
1733705229379523000,11.576523193359375,0.024239245982468127,0.05893427339717745,0.024624153646826744
1733705229389490000,11.586489990234375,0.026241817976534364,0.06903305808529257,0.04460369635820389
1733705229399456000,11.5964560546875,0.025463234819471835,0.047127661877870555,0.07659048772752285
1733705229409422800,11.6064228515625,-0.0024424247160553933,0.004979834239184856,0.059355275288224214
1733705229419390000,11.616389892578125,0.005833236198127269,-0.015165712688863277,0.033110242441296574
1733705229429357000,11.626357177734375,-0.0065574588194489474,-0.036649522483348844,-0.008798808005452156
1733705229439323000,11.636322998046875,0.00843260504156351,-0.011586831288784741,-0.02216682362258434
1733705229449290000,11.6462900390625,0.05934124676287174,0.005469371321797371,-0.020718962901830673
1733705229459256800,11.6562568359375,0.07631108626425266,0.014980273119360208,-0.032689386680722236
1733705229469223000,11.666222900390625,0.06493307542055844,0.005911854392290115,-0.045611412096023554
1733705229479189800,11.676189697265626,0.03823737619668245,-0.008551262985169887,-0.06466448761224747
1733705229489156900,11.686156982421876,0.019421032045781612,0.0014805939465761184,-0.07691723546385765
1733705229499124000,11.6961240234375,0.031876316732168196,0.014755524452775715,-0.05928513266146183
1733705229509090000,11.706090087890624,0.034328970581293104,0.007234627428650856,-0.03186404177248478
1733705229519057200,11.71605712890625,0.030306583197414874,0.010936258425563573,0.020903671818971632
1733705229529024000,11.72602392578125,0.010730360589921474,-0.015634353113919496,0.02813654568195343
1733705229538990800,11.735990966796875,0.0060576926037669175,-0.005561433519423007,0.030113983234763143
1733705229548957000,11.74595703125,0.0042807460591197015,-0.00784209180250764,0.018086860832571983
1733705229558924000,11.755924072265625,0.04876432316899299,-0.005418956308811903,-0.001726093140244484
1733705229568891100,11.76589111328125,0.041775487194955344,0.018362316773086786,-0.02551321144104004
1733705229578858000,11.77585791015625,0.009304419440031051,0.05386223082989454,-0.028546880048513412
1733705229588824000,11.785823974609375,0.005948387010395527,0.0295526960901916,-0.02961713962852955
1733705229598791000,11.795791015625,-0.021330080537497995,0.01888663290813565,0.010835282269120216
1733705229608758000,11.805758056640625,-0.02555062084197998,0.005882920558750629,0.04033610204160213
1733705229618724900,11.815724853515626,0.017387480391561985,0.0055893444396555424,0.06311316651701927
1733705229628691000,11.82569091796875,0.054852703171968456,0.009197451934218406,0.05765080945789813
1733705229638658000,11.835657958984376,0.058898763692378994,0.02295242104232311,0.0186567696750164
1733705229648625000,11.845625,0.04087912287712097,0.019322247846424577,-0.03432780153751373
1733705229658592000,11.855592041015624,-0.00929360578507185,-0.011646452521532773,-0.07689794624149798
1733705229668557800,11.865557861328124,-0.0072542089119553566,-0.019772768092900513,-0.09207505710721016
1733705229678525000,11.87552490234375,-0.011979483868181704,-0.024305443086475132,-0.07817804917991161
1733705229688491800,11.88549169921875,-0.0016007131949067116,-0.03037190351858735,-0.041566520619392394
1733705229698459000,11.895458984375,0.01799713672250509,-0.010443506472557783,-0.032686464071273805
1733705229708425000,11.905425048828125,0.01977759039849043,0.013887509446591138,0.013694763353466987
1733705229718391800,11.915391845703125,0.05426233606338501,0.03955488853603601,0.04430325210690498
1733705229728359000,11.92535888671875,0.04074205249398947,0.054031303786486386,0.07007014604806899
1733705229738325800,11.93532568359375,0.013141513384878635,0.04372384478375316,0.07559563147127628
1733705229748292000,11.9452919921875,-0.022730010463297364,0.028181115476042032,0.06323942324519156
1733705229758259000,11.955259033203125,-0.01565788011997938,0.008738602250814437,0.02337152323722839
1733705229768225800,11.965225830078126,-0.006194178465008735,0.005008475811779499,-0.0072784665703773494
1733705229778192100,11.975192138671876,0.003949322147667408,0.013956336899101734,-0.009326631271839142
1733705229788159000,11.985158935546876,0.0011135141998529433,0.0032677696242928503,-0.0009340659797191619
1733705229798126000,11.9951259765625,0.009588497078418731,0.0023491934746503827,-0.01646130545735359
1733705229808093000,12.005093017578124,0.0016176643297076225,-0.013370645965635775,-0.0393920991897583
1733705229818059000,12.01505908203125,0.014362871873378752,-0.0013978840991854668,-0.019708909076452254
