time,seconds_elapsed,z,y,x
1733705073190170600,0.016170654296875,-0.2214522553876042,0.0906333338662982,0.0454354710072279
1733705073200137700,0.0261376953125,-0.17446020258814096,0.10377046333700418,-0.030353637209534642
1733705073210104600,0.0361044921875,-0.11538637458980083,0.10522300023287534,-0.06373334424197673
1733705073220071700,0.04607177734375,-0.07437573428750038,0.07311813544183969,-0.04134031064808368
1733705073230037500,0.05603759765625,-0.05171235931962728,0.006736907039582729,0.03622632863521576
1733705073240004600,0.066004638671875,-0.07539923211634159,0.002502338209748268,0.08551730602681637
1733705073249971500,0.075971435546875,-0.1501774097248912,0.04392477418333292,0.14914309824109076
1733705073259938600,0.0859384765625,-0.10168664280027151,0.09233546160906553,0.1382972945779562
1733705073269905700,0.09590576171875,-0.07891542354375124,0.21227380041480062,-0.0027051673054695126
1733705073279871500,0.10587158203125,-0.128914841465652,0.1448977157562971,0.04938450089395046
1733705073289838600,0.115838623046875,-0.10888824474215507,-0.12677461456656455,0.2282353396564722
1733705073299805400,0.125805419921875,0.058984103888273236,-0.10685527760982513,0.27243980756402014
1733705073309772500,0.1357724609375,0.1775435555562377,-0.005879997949302196,0.21275895358324048
1733705073319739600,0.14573974609375,0.11567775875180959,0.02681026551425457,0.0860129805892706
1733705073329705500,0.15570556640625,0.03628594986796379,0.03745236329883337,-0.08028174346089363
1733705073339672600,0.165672607421875,0.009961714304983615,0.014965806202590465,-0.14353227262198925
1733705073349639400,0.175639404296875,0.053107905331254,-0.050020460709929465,-0.13974457077682018
1733705073359606500,0.1856064453125,0.1102048802986741,-0.10364742147922515,-0.09489595974683761
1733705073369572400,0.195572265625,0.14614946938306092,-0.12078794137239456,-0.055393385919928546
1733705073379539500,0.20553955078125,0.15171733264327047,-0.08134118938595056,-0.04168225595355034
1733705073389506600,0.215506591796875,0.12047376085668801,-0.022063947769999502,-0.07558335651159286
1733705073399473400,0.225473388671875,0.11314590218663215,0.024013328272104263,-0.08010521785020827
1733705073409440500,0.2354404296875,0.11451485245227813,0.06302198110222816,-0.05942600243687629
1733705073419406300,0.24540625,0.11414660366177558,0.06795417680740357,-0.05051438170671463
1733705073429373400,0.25537353515625,0.09831687410622834,0.033660569800436496,-0.0401718513906002
1733705073439340500,0.265340576171875,0.061307870660722255,0.017036767257750034,-0.027919688060879706
1733705073449307400,0.275307373046875,0.05766513024419546,0.00021539631634950637,-0.025979075387120246
1733705073459274500,0.2852744140625,0.0552756047591567,0.003064648267626762,-0.01231996786892414
1733705073469240300,0.295240234375,0.04576075743883848,0.022001111666858194,0.027870588222146032
1733705073479207400,0.30520751953125,0.0282031811773777,-0.002203647524118423,0.04754150337576866
1733705073489174500,0.315174560546875,0.014581775321066378,-0.014741349796950817,0.04623042077720165
1733705073499141400,0.325141357421875,0.015310089595615863,-0.01579553502500057,0.03899287073910236
1733705073509108500,0.3351083984375,0.03262333570718765,-0.010647066220641136,0.008430559214949607
1733705073519074600,0.345074462890625,0.028249358406662938,-0.0004471592456102371,-0.03444119878411293
1733705073529041400,0.35504150390625,0.035328503012657164,0.0015247253492474556,-0.05394552519917488
1733705073539008500,0.365008544921875,0.061947337608039374,0.032058979822695254,-0.06049801558256149
1733705073548975400,0.374975341796875,0.05531769033521414,0.03538753972351551,-0.05834288337528705
1733705073558941700,0.384941650390625,0.05296732781678438,0.02836480147987604,-0.06064414605498313
1733705073568908500,0.394908447265625,0.054606034934520715,0.026470658296346664,-0.07410685421824455
1733705073578875600,0.404875732421875,0.05934796876460313,0.0022030630022287366,-0.07150690085291862
1733705073588842500,0.414842529296875,0.07214110710322856,0.007540040116012096,-0.06407938120067119
1733705073598809600,0.4248095703125,0.09520780217498541,0.022008418190479277,-0.08222527874410152
1733705073608775700,0.434775634765625,0.11279051287770271,0.03163753954023123,0.004431260445713996
1733705073618742500,0.444742431640625,0.13299392747282981,0.02231324635595083,0.11266074901819229
1733705073628709600,0.454709716796875,0.10251578710079193,0.02778700159192085,0.19313772279024122
1733705073638676500,0.464676513671875,0.02528963181823492,0.029452012194693088,0.2701502353221178
1733705073648643600,0.4746435546875,-0.04019786261469126,0.016287117934226988,0.2965156796783209
1733705073658609400,0.484609375,-0.0987479589998722,0.006725508862733841,0.21838556129336356
1733705073668576500,0.494576416015625,-0.1450523217961192,-0.022559330071508885,0.08147884429097176
1733705073678543600,0.504543701171875,-0.13607201974391936,-0.0640241438820958,-0.03982113825678825
1733705073688510500,0.514510498046875,-0.1050876834154129,-0.07888327483981847,-0.11627309429645538
1733705073698477600,0.5244775390625,-0.04865823244601488,-0.08537818981707096,-0.1468541105210781
1733705073708443400,0.534443359375,-0.015815993291139602,-0.0473392588019371,-0.12751403475701809
1733705073718410500,0.544410400390625,0.02661328163743019,0.005196984121203422,-0.03844166659712791
1733705073728377600,0.554377685546875,0.056795361672341824,0.0685626640945673,0.05902852755188941
1733705073738344400,0.564344482421875,0.0501671757042408,0.11100713659226893,0.1233475627273321
1733705073748311600,0.5743115234375,0.04559475322216749,0.14405541971325875,0.17549977476894854
1733705073758277400,0.58427734375,-0.0011307575955986976,0.1368506029009819,0.16783786183893679
1733705073768244500,0.594244384765625,-0.008449848437309265,0.08514321201741695,0.14452595983445643
1733705073778211600,0.604211669921875,-0.02806464948952198,0.03044832975566387,0.10208791707754135
1733705073788178400,0.614178466796875,-0.02783464012593031,-0.01625233888179064,0.01696107167303562
1733705073798145500,0.6241455078125,-0.033927696304023265,-0.049915831291675566,-0.05461597180664539
1733705073808111400,0.634111328125,-0.02060322756767273,-0.0767886406481266,-0.11584873140454291
1733705073818078500,0.644078369140625,-0.04840571898967028,-0.07481237213909625,-0.11550152540206908
1733705073828045600,0.654045654296875,-0.13870353729128837,-0.03529664656966924,0.013870119920372962
1733705073838012400,0.664012451171875,-0.04632365201860666,-0.144694594399631,-0.09094283820688724
1733705073847978200,0.673978271484375,0.004219078999757766,-0.13968290371745823,-0.13723697187006473
1733705073857945000,0.683945068359375,-0.06213321556895971,0.01144903025329113,0.12200608499050139
1733705073867912200,0.693912109375,-0.02853781995922327,0.06819236947745085,0.17442016283869743
1733705073877879000,0.703879150390625,0.03661532795280218,0.10597907929718493,0.22897417532503603
1733705073887846100,0.71384619140625,0.0752682992130518,0.12872984028756618,0.2237994030356407
1733705073897812500,0.7238125,0.06179653096050024,0.17204583492279052,0.2578805363357067
1733705073907779300,0.733779296875,0.22223551471978426,-0.026454583944380283,-0.1050742394119501
1733705073917746400,0.743746337890625,0.25751316432803867,-0.09520371052175759,-0.3139426152974367
1733705073927713300,0.75371337890625,0.1554465822994709,-0.041431203801929946,-0.35612463746666906
1733705073937680100,0.76368017578125,0.07852554744333029,-0.01823649843633175,-0.3948112187355757
1733705073947646200,0.773646240234375,0.049781683517992496,-0.016533786171674728,-0.3529904310941696
1733705073957613300,0.78361328125,0.03783522513657808,-0.03957563906311989,-0.2099351283341646
1733705073967580400,0.793580322265625,0.012566343845427036,-0.061360477630794046,-0.05611293236613273
1733705073977547300,0.80354736328125,-0.008705576764047145,-0.07818360213786363,0.06224515151083469
1733705073987514400,0.813514404296875,-0.011310790826380252,-0.05075958863943815,0.11103986981809139
1733705073997480200,0.823480224609375,-0.06090279699116945,-0.032737025214731694,0.1238619419902563
1733705074007447300,0.833447265625,-0.0889314983844757,0.004418985486030578,0.11676935338079929
1733705074017414400,0.843414306640625,-0.12182605224847792,0.011693944925069808,0.10929390293359756
1733705074027381200,0.85338134765625,-0.13903057728856802,0.02517886492013931,0.10776830080151557
1733705074037348400,0.863348388671875,-0.1503293854162097,0.005452712447941303,0.13713058888614177
1733705074047314200,0.873314208984375,-0.17491262253075837,-0.002483048987388611,0.20466215636730192
1733705074057281300,0.88328125,-0.17733137411028146,-0.0122737906396389,0.2294727724969387
1733705074067248400,0.893248291015625,-0.1611132297590375,-0.0037400633111596107,0.2219213342040777
1733705074077215200,0.90321533203125,-0.11822072123289108,0.006544599337875843,0.18119418701827525
1733705074087182300,0.913182373046875,-0.0718888859078288,0.037621874646842475,0.1053138933867216
1733705074097148200,0.923148193359375,0.009664192663133144,0.07160071661621331,-0.036194179931282995
1733705074107115300,0.933115234375,0.12466302924007176,0.0704994773760438,-0.12523790651857852
1733705074117082400,0.943082275390625,0.24092969379574058,0.10638619879335165,-0.1551888081461191
1733705074127049200,0.95304931640625,0.2797062914356589,0.14696984585523604,-0.14638064779043197
1733705074137015300,0.963015380859375,0.2929939352929592,0.15152327137589452,-0.11939677927494048
1733705074146982100,0.972982177734375,0.26889380552023645,0.10105740498602389,-0.10545885481536388
1733705074156949200,0.98294921875,0.26179654073566194,0.022548808677494526,-0.14846855998039243
1733705074166916400,0.992916259765625,0.24151158533692357,-0.06283961027264595,-0.184424839502573
1733705074176883200,1.00288330078125,0.2113689605295658,-0.05524813223034143,-0.23104688994586467
1733705074186849300,1.012849365234375,0.19217764558643102,-0.05892156004607677,-0.2505734281927347
1733705074196816100,1.022816162109375,0.222855107922852,-0.08457739482820034,-0.25248247668445106
1733705074206783200,1.032783203125,0.23387451458722353,-0.10345569829940796,-0.22717501694858072
1733705074216750000,1.04275,0.23695815981626508,-0.10212123482525348,-0.21444237662553786
1733705074226717200,1.05271728515625,0.25825755295455455,-0.1008610056310892,-0.18346856169104575
1733705074236683300,1.062683349609375,0.23181787431836126,-0.07276216161102056,-0.13504150765240192
1733705074246650000,1.072650146484375,0.17008008780777453,-0.04251958356052637,-0.08890753298699855
1733705074256617200,1.0826171875,0.10504501331746578,-0.00632774171680212,-0.030437808361649513
1733705074266584000,1.092583984375,0.0574912349820137,0.031101240706443784,0.07014671841561794
1733705074276551200,1.10255126953125,-0.011481178957223892,0.027091128282248973,0.11517360862195491
1733705074286517200,1.112517333984375,-0.0515808418944478,0.03320756533592939,0.12016601008176803
1733705074296484400,1.122484375,-0.0759022132024169,0.052853930570185184,0.10397183112800121
1733705074306451200,1.132451171875,-0.09171031544804573,0.06140490129441022,0.09856325008273124
1733705074316418000,1.14241796875,-0.09814794728010892,0.04640256247371435,0.11092354996204376
1733705074326385200,1.15238525390625,-0.0894891322672367,0.03918400939702987,0.10275076490044593
1733705074336351200,1.162351318359375,-0.10847118837386369,0.04690145190656185,0.11879238364100456
1733705074346318300,1.172318359375,-0.10892010118514299,0.04343815971016884,0.12892331703305243
1733705074356285400,1.182285400390625,-0.1007981695279479,0.048698564456403255,0.11276128678321838
1733705074366252300,1.192252197265625,-0.08979337591081857,0.06285305427610874,0.1165904896825552
1733705074376218400,1.20221826171875,-0.06247399183064699,0.06343377677351236,0.13851590576469897
1733705074386185200,1.212185302734375,-0.048778351694345475,0.07550181570798158,0.13904255998730658
1733705074396152300,1.22215234375,-0.07390723999291658,0.08458791622221469,0.1523047771424055
1733705074406119400,1.232119384765625,-0.07312865683585405,0.06476005694121122,0.14288696045577526
1733705074416086300,1.242086181640625,-0.047477498228847975,0.04208879092782736,0.10101064323484897
1733705074426052400,1.25205224609375,-0.005909516304731369,0.01776449701040983,0.03386895185410976
1733705074436019200,1.262019287109375,-0.0076899699807167045,-0.016117022064328194,-0.04524725495874882
1733705074445986300,1.271986328125,0.016726386134326456,0.0012587678894400596,-0.09258476019501685
1733705074455953400,1.281953369140625,0.04614128118902445,-0.005154021762311459,-0.10604688383638858
1733705074465920300,1.291920166015625,0.09481763381361961,-0.0065951604813337325,-0.08595219031274318
1733705074475886300,1.30188623046875,0.13239537705779075,-0.007031213811039924,-0.06453589279651642
1733705074485853200,1.311853271484375,0.14450228669792411,-0.02044979057163,-0.056738370788097375
1733705074495820300,1.3218203125,0.13560089510083198,-0.03740004858970642,-0.06597673925459384
1733705074505787400,1.331787353515625,0.13192746728509663,-0.04060030593574047,-0.08353928395211696
1733705074515754200,1.341754150390625,0.12430647088736295,-0.04528583340346813,-0.08951075957715511
1733705074525720300,1.35172021484375,0.1184834638223052,-0.04674801491051912,-0.0757476071625948
1733705074535687200,1.361687255859375,0.16297200936824083,-0.06252513749599456,-0.0768365714430809
1733705074545654300,1.371654296875,0.13912556209564209,-0.015393383964896201,-0.04663315635919571
1733705074555621000,1.38162109375,0.12631079644709825,0.007835223670303822,-0.015690321084856986
1733705074565588200,1.391588134765625,0.10228577773720025,0.014151859471201896,-0.03295768222808838
1733705074575554300,1.40155419921875,0.04539630804061889,0.024665946961939335,-0.03983282869458198
1733705074585521200,1.411521240234375,0.03914923034459352,0.02732347573339939,-0.034648704054951664
1733705074595488300,1.42148828125,0.022847791624069212,0.0531038136780262,-0.02308276942372322
1733705074605455000,1.431455078125,0.037870004189014435,0.04484305807203054,-0.0028209026396274566
1733705074615422200,1.441422119140625,0.05446311933249235,0.03600011866390705,0.008874795851111412
1733705074625388000,1.451387939453125,0.0643272184818983,0.05000497087985277,0.032813889843225474
1733705074635355100,1.461355224609375,0.04868219784349203,0.03247837427854538,0.05920972933769226
1733705074645322200,1.471322265625,0.021646891401708123,0.016249708533287048,0.044271687924861906
1733705074655289000,1.4812890625,0.005059329216182231,-0.001677285562455654,0.0372615169018507
1733705074665256200,1.491256103515625,-0.004835165071487427,-0.03933803091496229,-0.006999649628996849
1733705074675222300,1.50122216796875,0.02271715098172426,-0.04719634319990873,-0.03790566002428532
1733705074685189000,1.511189208984375,0.03534107023328543,-0.04577186335474252,-0.034898294901847836
1733705074695156200,1.52115625,0.05309884524196386,-0.046910219734907145,-0.00833586666882038
1733705074705123000,1.531123046875,0.05601911660283804,-0.047211540769040584,0.014703648135066031
1733705074715090200,1.541090087890625,0.041697453522682185,-0.048692719237506385,0.040939328631758684
1733705074725056300,1.55105615234375,0.032955344140529634,-0.03131751380562782,0.06271452258825302
1733705074735023400,1.5610234375,0.015936404800415038,-0.012896306452155112,0.04418167155385017
1733705074744990500,1.570990478515625,0.025616964076459407,0.015002923342585562,0.0083481416285038
1733705074754957300,1.580957275390625,0.0019897125124931333,0.043031332474946976,-0.004614215797185898
1733705074764923400,1.59092333984375,-0.01497165142148733,0.05942746374160051,-0.008092705562710762
1733705074774890200,1.60089013671875,-0.04120177896022796,0.054209729093313216,0.015241992795467375
1733705074784857300,1.610857421875,-0.06865998698920012,0.05434709173738956,0.04775543838739395
1733705074794824400,1.620824462890625,-0.09932254401743411,0.04263678019940853,0.08694120135009288
1733705074804791300,1.630791259765625,-0.11168430520147085,0.005166296721994877,0.1026040499061346
1733705074814757400,1.64075732421875,-0.1216699849039316,0.0022384265765547752,0.09925181686878204
1733705074824724200,1.65072412109375,-0.08832505692392587,0.015542437046766281,0.11240005225539207
1733705074834691300,1.66069140625,-0.06739098996669053,0.027732348795235156,0.10241758742332457
1733705074844658200,1.670658203125,-0.04900923784077167,0.029594927796721456,0.07756371667385101
1733705074854625000,1.680625,0.015342238299548625,-0.004884264910221099,0.049966100174188614
1733705074864591000,1.690591064453125,0.053772798980772495,-0.023873043018579482,0.02159048503935337
1733705074874558000,1.700557861328125,0.07276859135180712,-0.018149404674768447,-0.014864976176619528
1733705074884525000,1.710525146484375,0.08254121282547712,-0.022715689677000044,-0.057392450782656666
1733705074894492000,1.720491943359375,0.07232669280320406,-0.0392003760099411,-0.05356324788331985
1733705074904459000,1.730458984375,0.08515402567237615,-0.03579962765574455,-0.06288871011137961
1733705074914424800,1.7404248046875,0.058739773738384245,-0.035602936039865016,-0.09824468565285205
1733705074924392000,1.750391845703125,0.06096124918013811,-0.01130085395425558,-0.07133738950490952
1733705074934359000,1.760359130859375,0.03669540745168924,0.001978022074699402,-0.0430605585694313
1733705074944326000,1.770325927734375,0.007176759761571884,0.02097089183628559,-0.01975216369628906
1733705074954293000,1.78029296875,-0.006999357368052005,0.024586159723997116,0.0012175590962171553
1733705074964258800,1.7902587890625,-0.026157354563474653,0.045294893492758274,0.049582069292664524
1733705074974226000,1.800225830078125,-0.028330899210274218,0.038755554851889605,0.06909633257985115
1733705074984193000,1.810193115234375,-0.04277151249498129,0.031712942864000795,0.09895546427071093
1733705074994159900,1.820159912109375,-0.03206657860726118,0.03422551020681858,0.09799977098107338
1733705075004127000,1.830126953125,-0.017827625374495983,0.0030436054795980453,0.07632979096472263
1733705075014092800,1.8400927734375,-0.03431231170743704,0.01665478220283985,0.056762920707464214
1733705075024060000,1.850059814453125,-0.013395780406892299,0.044587622006237504,0.050910687547922134
1733705075034027000,1.860027099609375,0.01760726062208414,0.05147855056375265,0.04250234016478061
1733705075043993900,1.869993896484375,0.04854892685264349,0.06469692857712507,0.026382980012893676
1733705075053961000,1.8799609375,0.08843114764690399,0.04927636434435844,0.009233107769489287
1733705075063927000,1.889927001953125,0.10245616586804389,0.018995207849144935,-0.04673427864611149
1733705075073894100,1.89989404296875,0.0936570656016469,0.00682400080114603,-0.10736322713196277
1733705075083861000,1.909861083984375,0.13110475272536276,-0.01511369024068117,-0.14239128589332103
1733705075093827800,1.919827880859375,0.16655863568335771,-0.020281740528345107,-0.18661562754511832
1733705075103795000,1.929794921875,0.16364771667271852,-0.0490121604502201,-0.20447510936260221
1733705075113761000,1.939760986328125,0.19505700041502713,-0.05724719709306955,-0.20209201361835002
1733705075123728100,1.94972802734375,0.18982669854611156,-0.05619388864785432,-0.1790185965448618
1733705075133695000,1.959695068359375,0.16077946776002644,-0.028700901566445825,-0.127090840908885
1733705075143662000,1.969662109375,0.1210278876081109,-0.006940612918138503,-0.0508686019718647
1733705075153629200,1.979629150390625,0.0653667906627059,0.005123918884992599,0.04832184009850025
1733705075163595000,1.989594970703125,0.01669745230078697,0.014202128353714942,0.10804244156777858
1733705075173562000,1.99956201171875,-0.0010319733962416647,0.025504151351749896,0.1608750370889902
1733705075183529000,2.009529052734375,-0.02455459554195404,0.005395429302752017,0.18389058649539947
1733705075193496000,2.01949609375,-0.07913724960088729,0.0012596446722745894,0.1763555148154497
1733705075203463200,2.029463134765625,-0.09654518825858831,-0.017760405357182023,0.13188976562321186
1733705075213429000,2.039428955078125,-0.0863654472887516,-0.00868833336830139,0.09330722925066948
1733705075223396000,2.04939599609375,-0.0878594852387905,0.016348784993588925,0.05575812757909298
1733705075233363000,2.059363037109375,-0.0745379391118884,0.015710487090051174,0.046747722649574275
1733705075243330000,2.069330078125,-0.04795417582988739,0.03167261085361242,0.056525020298361775
1733705075253297200,2.079297119140625,-0.029291268675029278,0.03640402328968048,0.07145195579528808
1733705075263263000,2.089262939453125,-0.021707973939180374,0.03126519909650087,0.06577917085587978
1733705075273230000,2.09922998046875,-0.030317104591429233,0.03794277716428041,0.04283025694489479
1733705075283197000,2.109197021484375,-0.022394494898617265,0.06155249307155609,0.02865969277322292
1733705075293164000,2.1191640625,0.00701221684962511,0.11689853271842002,-0.018626959058642385
1733705075303131100,2.129131103515625,0.037187574882805344,0.13766601093709468,-0.08058627936542034
1733705075313097000,2.139096923828125,0.07651537666469813,0.1281391809180379,-0.11748948434889316
1733705075323064000,2.14906396484375,0.12504706012159586,0.08743307652026415,-0.14956278495788575
1733705075333031000,2.159031005859375,0.16821838558912275,0.03761602942794561,-0.1689046142876148
1733705075342998000,2.168998046875,0.21142390558719634,-0.024739304459095,-0.1505138020724058
1733705075352965000,2.178965087890625,0.24714316148310897,-0.09295476255118847,-0.154618314781785
1733705075362931000,2.188930908203125,0.23345307430475948,-0.16123919422626495,-0.10448796395659446
1733705075372898000,2.19889794921875,0.20099720411896704,-0.20234218898713588,-0.07000643316209317
1733705075382865000,2.208864990234375,0.1595876276269555,-0.24098200850486753,-0.042263855233788485
1733705075392832000,2.21883203125,0.1003425347149372,-0.2048658622458577,-0.009234861335158348
1733705075402798800,2.228798828125,0.04202946195602417,-0.1537690044760704,0.03213701349496841
1733705075412765000,2.238764892578125,-0.017630056975781915,-0.06914280207008124,0.05503098234832286
1733705075422732000,2.24873193359375,-0.07950169899910688,0.0022448563173413276,0.10661620815694331
1733705075432699000,2.258698974609375,-0.13687047664523125,0.07465805836021899,0.1231564240694046
1733705075442666000,2.268666015625,-0.16982552852481603,0.12800590992718935,0.1305973877251148
1733705075452632800,2.2786328125,-0.17277619502395392,0.16211948419213293,0.12296820802092552
1733705075462599000,2.288598876953125,-0.1722200224459171,0.1818210867449641,0.10385551127195358
1733705075472566000,2.29856591796875,-0.12220014625787734,0.19239859486073255,0.06756722331643104
1733705075482532900,2.308532958984375,-0.09377221641391516,0.1571782283976674,0.05473229166269302
1733705075492500000,2.3185,-0.03921206644773483,0.10422843623757362,0.03833820622265339
1733705075502466800,2.328466796875,0.020896657556295394,0.06223463011682033,0.029170564904808998
1733705075512433200,2.33843310546875,0.06669979283213615,0.017773557099699973,0.0036123452782630917
1733705075522400000,2.34839990234375,0.10297668261080979,-0.014204758702218531,-0.004258241966366767
1733705075532367000,2.3583671875,0.1286395316556096,-0.04271247578412294,-0.0047667760103940965
1733705075542334000,2.368333984375,0.15316870049536227,-0.07592500955611467,-0.010739420679211615
1733705075552301000,2.378301025390625,0.14969167203456163,-0.06734042882323264,-0.052177931004762645
1733705075562267100,2.38826708984375,0.13124971415400505,-0.059034080509841436,-0.10057575894892215
1733705075572234000,2.39823388671875,0.12599223201721907,-0.0430652347445488,-0.14073825798928738
1733705075582201000,2.408201171875,0.11358312456011771,-0.0393657957047224,-0.1212824468910694
1733705075592168200,2.418168212890625,0.12100333768874406,-0.035392215898633,-0.13361001354455948
1733705075602135000,2.428135009765625,0.11923457445055245,-0.025396014802157876,-0.10127776973843573
1733705075612101000,2.43810107421875,0.09759323600679636,-0.020314473754167554,-0.061193012109398835
1733705075622068000,2.44806787109375,0.07617986110001802,-0.00035158991664648053,-0.014809446597099303
1733705075632035000,2.45803515625,0.06567424917668103,-0.014447919808328151,0.02731470790505409
1733705075642002200,2.468002197265625,0.036223698286712167,-0.02065495775490999,0.03210544931292534
1733705075651968000,2.477968017578125,0.018516484421491623,0.005255728571116924,0.05314589925408363
1733705075661935000,2.48793505859375,-0.006131342361867427,-0.018862813641130922,0.0419061278373003
1733705075671902000,2.49790185546875,-0.02542816350609064,-0.006146247670054435,0.04704056811630725
1733705075681869000,2.507869140625,-0.03346154009699821,0.0018155249893665312,0.0283773687005043
1733705075691836200,2.517836181640625,-0.0462719218313694,0.030994857722520825,0.030164836639165877
1733705075701802000,2.527802001953125,-0.02548836926072836,0.043186523036658764,0.034677930149435994
1733705075711769000,2.53776904296875,-0.04099135107994079,0.05300853661000728,0.06637889031469822
1733705075721736000,2.54773583984375,-0.018815759629011154,0.047964112702012056,0.08735796545743942
1733705075731703000,2.557703125,-0.025095570550858974,0.06354425141066312,0.09850479789376258
1733705075741670000,2.567669921875,-0.031551907083392144,0.05470803400427103,0.09458148697018623
1733705075751636000,2.577635986328125,0.003572597789764404,0.035871816109120845,0.05940963582396507
1733705075761603000,2.58760302734375,0.0009843348622322083,0.03385989176481962,0.029749826097488403
1733705075771570000,2.59756982421875,0.006083703827857971,0.029264380668103693,-0.017833178332448005
1733705075781537000,2.607537109375,0.03695785778015852,0.016817571549117564,-0.05370762479007244
1733705075791504000,2.61750390625,0.050234687982499596,-0.010495967312157153,-0.05731821650266647
1733705075801470000,2.627469970703125,0.06308598624914884,-0.014672083953022956,-0.07432897253632545
1733705075811436800,2.637436767578125,0.05823679265230894,-0.015546236439049243,-0.046265492090582845
1733705075821404000,2.64740380859375,0.07163432662487029,-0.019029110118746757,-0.006904957082867622
1733705075831371000,2.65737109375,0.06788637226819992,-0.030827976723015307,0.01825286504924297
1733705075841337900,2.667337890625,0.05855623386502266,-0.040241994017362594,0.05259294154644012
1733705075851304200,2.67730419921875,0.07021306165009737,-0.056254678924381726,0.05354220509529113
1733705075861271300,2.687271240234375,0.0629810645699501,-0.05337824670523405,0.008989362141489982
1733705075871238400,2.69723828125,0.02678630011677742,-0.023550094674527643,-0.025315058520436286
1733705075881205200,2.707205322265625,0.04048252477496862,-0.01968903533220291,-0.05937865616381168
1733705075891172400,2.71717236328125,0.04736147063374519,-0.011574410198628902,-0.05000350957512855
1733705075901138400,2.727138427734375,0.04201572569161653,0.002047287918627262,-0.03911795842349529
1733705075911105300,2.737105224609375,0.03407411903738975,0.012117431034147738,-0.02742050636708736
1733705075921072400,2.747072265625,0.019524200159311292,0.028399580532312393,-0.004892448216676712
1733705075931039200,2.757039306640625,0.009905600203573704,0.06005582477301359,0.01703296786546707
1733705075941006300,2.76700634765625,0.009703355629742144,0.06935556803792714,0.003799392282962799
1733705075950972400,2.776972412109375,0.009922551338374615,0.05722177039086818,-0.00864215613901615
1733705075960939500,2.786939453125,0.02084755771756172,0.046561844688653944,-0.02804068409204483
1733705075970906600,2.79690673828125,0.03626929099410772,0.036389410242438316,-0.04954699797928333
1733705075980873500,2.80687353515625,0.04971212541311979,0.002043196265399456,-0.0385118092238903
1733705075990840300,2.81684033203125,0.0823068195477128,-0.037216800977289674,-0.00807400086224079
1733705076000807200,2.82680712890625,0.08342647122740746,-0.0588049479290843,-0.00009235445857048034
1733705076010773500,2.8367734375,0.06964139924198388,-0.044755672049522396,0.007861819416284561
1733705076020740400,2.846740234375,0.03388970238119363,-0.019752455957233905,0.013137713992595671
1733705076030707500,2.85670751953125,0.04800327566862106,-0.004127601324021816,0.03567278640568256
1733705076040674600,2.866674560546875,0.04830459670275449,-0.0002986906856298446,0.02692249371707439
1733705076050640400,2.876640380859375,0.038787411294877526,0.0014957915157079696,0.02712123115956783
1733705076060607500,2.886607421875,0.04309299953430891,0.017904490002989767,0.016639584633707998
1733705076070574300,2.89657421875,0.01424012227654457,0.030586276921629903,0.01016015948653221
1733705076080541400,2.90654150390625,0.016911387312412263,0.04050619791150093,0.00812193165719509
1733705076090508500,2.916508544921875,0.011893266889452933,0.029347090515494344,0.005704349121451378
1733705076100474400,2.926474365234375,0.008758183734118938,0.0016635492980480193,0.008769581910967826
1733705076110441500,2.93644140625,0.01441226397305727,-0.006938274830579757,0.001359013393521309
1733705076120408300,2.946408203125,0.005839373677968979,0.012197218272089957,0.02239829429090023
1733705076130375400,2.95637548828125,-0.004262333619594574,0.017690847252309322,0.027613983112573622
1733705076140342500,2.966342529296875,-0.018148235630989072,0.02431494156718254,0.009237199422717094
1733705076150308400,2.976308349609375,-0.024404957938194274,0.011568272718787192,-0.004193944558501243
1733705076160275500,2.986275390625,0.027369945223629472,0.000025718963146209716,-0.01467325299680233
1733705076170242300,2.9962421875,0.021023791067302226,-0.005748480524122714,-0.013737433451414108
1733705076180209400,3.00620947265625,0.03801934953182935,0.008474982878565789,-0.025299860951304435
1733705076190176500,3.016176513671875,0.04913578682988882,-0.0031821371674537655,-0.030827684462070463
1733705076200142300,3.026142333984375,0.03759264855235815,-0.019998247411847112,-0.00291442614197731
1733705076210109400,3.036109375,0.029048692090809344,-0.014020634306967258,-0.0008352817803621292
1733705076220076300,3.046076171875,0.03353723568171262,0.0001692190870642662,-0.003219546568393707
1733705076230043400,3.05604345703125,0.03765986856967211,0.0029006898775696755,0.013258125501871108
1733705076240010200,3.06601025390625,0.031766426616907116,-0.005403320348262786,0.015700842478871345
1733705076249977300,3.075977294921875,0.03640431555062532,-0.018220131823420523,0.01822597704231739
1733705076259943400,3.085943359375,0.0347279067710042,-0.013892331752181053,0.015337854385375976
1733705076269910300,3.09591015625,0.0371197703436017,-0.016556582525372503,0.023572598767280576
1733705076279877400,3.10587744140625,0.04540945978313684,-0.012148410694301127,0.00018587796092033385
1733705076289844200,3.11584423828125,0.06542787320017815,-0.031125498364865778,-0.025952187380194662
1733705076299811300,3.125811279296875,0.08021247761696576,-0.011991466566920279,-0.03825111246109009
1733705076309777400,3.13577734375,0.08455898238867521,0.027284897288680075,-0.06471709458231925
1733705076319744300,3.145744140625,0.0949769160285592,0.030586569182574748,-0.07688742484748363
1733705076329711400,3.15571142578125,0.08968874649256467,0.025567864237725734,-0.09997370140254497
1733705076339678200,3.16567822265625,0.10410597890168428,0.02686170344054699,-0.08855155915617942
1733705076349645300,3.175645263671875,0.08393617431521415,0.042860067561268804,-0.06875964797139167
1733705076359611400,3.185611328125,0.04933130940198898,0.06089344464093446,-0.020190555113554
1733705076369578200,3.195578125,0.009260288037359714,0.03906418240964413,0.009255319601297378
1733705076379545300,3.20554541015625,-0.04244067310541868,0.03367985902279615,0.05111585473120212
1733705076389512200,3.21551220703125,-0.07309913848042487,0.037199849842488766,0.10018471380472183
1733705076399479300,3.225479248046875,-0.07555208459049463,0.010227087242901325,0.1331114163726568
1733705076409445400,3.2354453125,-0.07834493017941713,-0.02503039636015892,0.16941022572219372
1733705076419412500,3.24541259765625,-0.05958879178315401,-0.06002250702530145,0.18834113616347312
1733705076429379600,3.255379638671875,-0.06506196249723434,-0.06085106680393219,0.1603577352166176
1733705076439346400,3.265346435546875,-0.0624842209637165,-0.052224985016882414,0.13793255291879175
1733705076449313300,3.275313232421875,-0.05401771365255117,-0.04038929353356361,0.07861994772851466
1733705076459279400,3.285279296875,-0.059580316215753555,-0.023795009346306323,0.013778349983692168
1733705076469246500,3.29524658203125,-0.015820669466257094,-0.0007569558471441269,-0.027711598268151283
1733705076479213600,3.305213623046875,-0.003489303420484066,0.011032266145944594,-0.06745908676683902
1733705076489180400,3.315180419921875,0.02533493226468563,0.052658115737140174,-0.08711363530755042
1733705076499147500,3.3251474609375,0.05775543887615203,0.08093406988978386,-0.06779927850663661
1733705076509113300,3.33511328125,0.09139116649627685,0.09263970525264739,-0.07331891871094703
1733705076519080400,3.34508056640625,0.12660159608721733,0.09313625659793615,-0.08344049975275993
1733705076529047600,3.355047607421875,0.16231734485179186,0.06422580393403768,-0.09922375981807709
1733705076539014400,3.365014404296875,0.15686346336007118,0.05226327120065689,-0.10265431878864764
1733705076548981500,3.3749814453125,0.15014935267418622,0.015400982749462127,-0.09920914677083492
1733705076558947300,3.384947265625,0.17104513344764707,0.006200023683905601,-0.07863631434142589
1733705076568914400,3.39491455078125,0.181793321955204,-0.009669745621085166,-0.05739420434832573
1733705076578881300,3.40488134765625,0.1685284744516015,-0.03761339907944202,-0.05240764810740947
1733705076588848400,3.414848388671875,0.1408390880152583,-0.05611614723652601,-0.03455401150882244
1733705076598815500,3.4248154296875,0.11282353836447,-0.06394494116604328,-0.025248423025012016
1733705076608781300,3.43478125,0.07518705067038535,-0.06851181069016456,-0.02543722359538078
1733705076618748400,3.44474853515625,0.014793956767022609,-0.05289513936340808,0.003684241470694542
1733705076628715300,3.45471533203125,-0.013787702333927154,-0.03941694137006998,0.05326806432902813
1733705076638682400,3.464682373046875,-0.03506634494513273,0.018539280775189397,0.08160627006292343
1733705076648649500,3.4746494140625,-0.0728258744969964,0.02127425869703293,0.10083996284306049
1733705076658615300,3.484615234375,-0.10826426762491465,0.03415945923328399,0.09789689512848854
1733705076668582400,3.49458251953125,-0.09336100526452064,0.03317804698050022,0.06411036086082458
1733705076678549200,3.50454931640625,-0.09838350960165261,0.01337999831587076,0.043648587590456006
1733705076688516400,3.514516357421875,-0.09091536567807197,-0.01130085395425558,0.0005319149196147918
1733705076698483500,3.5244833984375,-0.05062660990953445,-0.037677696487307545,0.006305822145938873
1733705076708449300,3.53444921875,-0.010863923841714859,-0.045008185505867,0.011575286981463432
1733705076718416400,3.54441650390625,-0.002608428932726383,-0.043756431879103184,0.05027531225383281
1733705076728383200,3.55438330078125,-0.01303279231339693,-0.039678222654759884,0.10786007073819637
1733705076738350300,3.564350341796875,-0.027091128282248973,-0.04471884717047214,0.11835749935507774
1733705076748317400,3.5743173828125,-0.06575315963178872,-0.0170817754432559,0.08311784366965293
1733705076758283300,3.584283203125,-0.07022533660978078,0.013334405608475208,0.034511925932765
1733705076768250400,3.59425048828125,-0.06112842244058847,0.05581891785562038,-0.029103929409384725
1733705076778217200,3.60421728515625,-0.03402238885015249,0.1099018056988716,-0.056715574434399604
1733705076788184300,3.614184326171875,0.0019420739784836768,0.13526041110008954,-0.04010404685139656
1733705076798151400,3.6241513671875,0.016059446658194063,0.12399755106866359,-0.00864566327035427
1733705076808117500,3.634117431640625,0.045423196047544474,0.11544774938821792,0.024810031607747078
1733705076818084400,3.64408447265625,0.05664718537330627,0.10612900916188955,0.038385552495718
1733705076828051500,3.654051513671875,0.07068944699019193,0.05170066888183355,-0.006070844346284866
1733705076838018300,3.664018310546875,0.0981599299788475,0.02381517535150051,-0.06277881999611855
1733705076847985400,3.6739853515625,0.11555880854725838,0.01079933417290449,-0.08759761943221092
1733705076857951500,3.683951416015625,0.16404986773282287,-0.018812252497673033,-0.08641863878071307
1733705076867918600,3.693918701171875,0.18844985723495483,-0.029414310532808303,-0.09197335029840469
1733705076877885700,3.7038857421875,0.20746201621890067,-0.0428384402513504,-0.09830547592937945
1733705076887852500,3.7138525390625,0.2260021737769246,-0.06305559111088514,-0.10589841527640818
1733705076897819400,3.7238193359375,0.22733459142446516,-0.04533931715637445,-0.10108487751483916
1733705076907785500,3.733785400390625,0.21892478273659943,-0.04353022190779447,-0.0994102223008871
1733705076917752600,3.743752685546875,0.20503274324536322,-0.027737317231297492,-0.09361585680842399
1733705076927719700,3.7537197265625,0.17129589333832262,-0.015413842231035231,-0.05639934809207916
1733705076937686500,3.7636865234375,0.15241875891089438,0.004598725967109203,-0.060036243289709086
1733705076947653600,3.773653564453125,0.14825667079538107,0.02539455349743366,-0.06531447595357895
1733705076957619500,3.783619384765625,0.12139087570160627,0.03669745327830314,-0.08662322144210338
1733705076967586600,3.793586669921875,0.138144734364748,0.033490473930537695,-0.10983107855021954
1733705076977553700,3.8035537109375,0.14333791909366844,0.04192804740816355,-0.08928864125907421
1733705076987520500,3.8135205078125,0.13533698346763848,0.039221126537024975,-0.082121818369627
1733705076997487600,3.823487548828125,0.12428104418516159,0.028084815494716166,-0.07921265292465686
1733705077007453400,3.833453369140625,0.10830401511341332,-0.007734978166222572,-0.06987666930258274
1733705077017420500,3.843420654296875,0.06481091034561395,-0.04293284053653478,-0.037113048341870306
1733705077027387600,3.8533876953125,0.008741232599318027,-0.042055180919170376,0.006852934634685516
1733705077037354500,3.8633544921875,-0.024862930838763713,-0.03150748341977596,0.048529929891228674
1733705077047321600,3.873321533203125,-0.05748802011162042,-0.047427813868224616,0.07056348252296447
1733705077057287400,3.883287353515625,-0.08590981247574091,-0.05842880809307098,0.10122048659324645
1733705077067254500,3.893254638671875,-0.12338351082354783,-0.041678456561267375,0.1379009887367487
1733705077077221400,3.903221435546875,-0.13124299215227364,-0.042000820383429525,0.14523381584286688
1733705077087188500,3.9131884765625,-0.13783727585077285,-0.04005173214226961,0.134065940618515
1733705077097155600,3.923155517578125,-0.14933599046468735,-0.03418839306682348,0.09116554104685783
1733705077107121400,3.933121337890625,-0.16332506058961152,-0.027496786473691463,0.09049100278615951
1733705077117088500,3.943088623046875,-0.1526443843603134,0.01675678127259016,0.09009645051062107
1733705077127055400,3.953055419921875,-0.14391396541595458,0.053911330668628216,0.07914075673222541
1733705077137022500,3.9630224609375,-0.1280690382912755,0.07053776355981826,0.07659925555586815
1733705077146989600,3.972989501953125,-0.082420216794312,0.08295943823754787,0.09127776924967765
1733705077156956400,3.982956298828125,-0.058280631794035434,0.06329203021526336,0.08464169223606587
1733705077166922500,3.992922607421875,-0.0474155389085412,0.08008417506217956,0.10023147555589676
1733705077176889300,4.002889404296875,-0.05248860438913107,0.07457651755660771,0.11125205126404762
1733705077186856400,4.0128564453125,-0.03854775732010603,0.06964023019820452,0.12199147194325924
1733705077196823600,4.022823486328125,-0.011361059708893298,0.013275368897616862,0.09683131172358989
1733705077206790400,4.032790283203125,-0.025521102486550807,-0.02586947753280401,0.048157004925608635
1733705077216756500,4.042756591796875,-0.004492635244131088,-0.05270049357414245,0.005848726028203964
1733705077226723300,4.052723388671875,0.013415069629251956,-0.046561844688653944,-0.012044073536992073
1733705077236690400,4.0626904296875,0.007796352964639664,-0.03794423846900463,-0.026052725145220754
1733705077246657500,4.072657470703125,0.024645780956745147,-0.034649580837786194,-0.019192191725969313
1733705077256624400,4.082624267578125,0.023385844023525712,-0.029340660774707792,-0.0048860184758901595
1733705077266590700,4.0925908203125,0.013316285429894924,-0.04125204784274101,0.006076689565181732
1733705077276557600,4.1025576171875,0.006229834300279617,-0.03666033613830805,0.013477321210503577
1733705077286524400,4.1125244140625,-0.01424362940788269,-0.04219488165080547,0.005019873988628387
1733705077296491500,4.122491455078125,-0.005639467191696166,-0.05297463434040546,-0.005521393769979476
1733705077306458400,4.132458251953125,-0.008177461236715316,-0.042215632177889345,0.010393968242406845
1733705077316424700,4.1424248046875,-0.0035737668335437773,-0.034762685823440546,0.026140987950563428
1733705077326391600,4.1523916015625,-0.006079612174630164,-0.014673545257747172,0.04582593162953853
1733705077336358700,4.162358642578125,-0.004171732726693153,0.009335106839239597,0.03942483241558075
1733705077346325500,4.172325439453125,0.004747194527089596,0.019107728312909602,0.03190963447988033
1733705077356292600,4.182292724609375,0.02786328169852495,0.0323185075417161,0.024827567264437675
1733705077366258700,4.1922587890625,0.04798457096815109,0.04159837706238031,0.026374796706438063
1733705077376225500,4.2022255859375,0.06294014803767203,0.054262920585274696,-0.010999532920122146
1733705077386192600,4.212192626953125,0.07214724458307027,0.05901654485315084,-0.03827624690234661
1733705077396159500,4.222159423828125,0.07730623478144406,0.04867722940742969,-0.06685819826424122
1733705077406126600,4.232126708984375,0.0825423818692565,0.03949731312990189,-0.0842173293441534
1733705077416092400,4.242092529296875,0.12032763038426637,0.033247020563483234,-0.10539748001694679
1733705077426059500,4.2520595703125,0.1533876039430499,0.015941373236477374,-0.1114659862756729
1733705077436026600,4.262026611328125,0.1539715413108468,0.035162791056931014,-0.10872983931005001
1733705077445993500,4.271993408203125,0.18376783689856527,0.019195991118252275,-0.09102116414010525
1733705077455960600,4.281960693359375,0.18036241236925124,0.04017126686871052,-0.061436757737398144
1733705077465926400,4.291926513671875,0.17151275095939636,0.02065320418924093,-0.05553367117345333
1733705077475893500,4.3018935546875,0.157689977312088,-0.007548223422467708,-0.06524082619547844
1733705077485860600,4.311860595703125,0.15754238553494215,-0.029516017341613767,-0.08992577011883258
1733705077495827500,4.321827392578125,0.1692825076892972,-0.04328238462656736,-0.1246773500263691
1733705077505794600,4.331794677734375,0.17530863611102104,-0.03901829744130373,-0.12132687055468559
1733705077515760400,4.341760498046875,0.15333996540904044,-0.0366121130824089,-0.11929098081290722
1733705077525727500,4.3517275390625,0.13467472016662357,-0.019564532169699667,-0.1058019691646099
1733705077535694600,4.361694580078125,0.1023927452430129,-0.02397416530549526,-0.0768324797898531
1733705077545661400,4.371661376953125,0.07331774966716766,-0.024023849666118622,-0.051558922323584555
1733705077555628500,4.381628662109375,0.021268705739080903,-0.02611351542174816,0.007851882544159888
1733705077565594400,4.391594482421875,-0.005082710091769695,0.013402210147678851,0.05499240390360355
1733705077575561500,4.4015615234375,-0.03192453978806734,0.014631751942634582,0.10261983199715614
1733705077585528600,4.411528564453125,-0.06787848122268915,0.02025280669480562,0.10600187565088272
1733705077595495400,4.421495361328125,-0.07768471270501613,0.014452011461555957,0.09437924239635467
1733705077605462500,4.431462646484375,-0.09394348132759332,0.0220335526317358,0.07506488559544086
1733705077615428400,4.441428466796875,-0.08200754434019326,0.028387597833573818,0.07217500937283039
1733705077625395500,4.4513955078125,-0.04313654641509056,0.02972761426568031,0.1208686053931713
1733705077635362300,4.4613623046875,-0.02271948906928301,0.025792612904310223,0.14165712639987468
1733705077645329400,4.471329345703125,-0.023195289887487886,0.05723521439433098,0.1294523093432188
1733705077655296500,4.481296630859375,-0.04062777846455574,0.11610533651411532,0.11424304977357387
1733705077665263400,4.491263427734375,-0.059037879902124404,0.16316110219955443,0.09541618422865868
1733705077675229400,4.5012294921875,-0.0276475931212306,0.1666618037968874,0.031302900758385654
1733705077685196300,4.5111962890625,0.009325462228059769,0.14380436756163834,-0.010641805523633956
1733705077695163400,4.521163330078125,0.08078472454696893,0.03496113100498915,-0.022404139509797093
1733705077705130500,4.531130615234375,0.1254173547387123,-0.09700608376860619,-0.032013679376244546
1733705077715097300,4.541097412109375,0.1642518200457096,-0.23039719386547802,-0.03310381270051002
1733705077725063700,4.551063720703125,0.1636529773697257,-0.3296796981334686,-0.06689326957762241
1733705077735030500,4.561030517578125,0.14250906705409289,-0.329035555011034,-0.12342179700732231
1733705077744997400,4.570997314453125,0.06536708292365073,-0.2784495693728328,-0.13100363043844698
1733705077754964500,4.580964599609375,-0.003438450016081333,-0.19799042351841925,-0.08448504036962985
1733705077764931300,4.590931396484375,-0.07970891200900078,-0.12598229514509438,0.0041653029859066
1733705077774897700,4.600897705078125,-0.14617460382431743,-0.060279988917708395,0.07775310176610946
1733705077784864500,4.610864501953125,-0.182884332062304,-0.009351765713095664,0.13197627486288546
1733705077794831600,4.62083154296875,-0.19394465525895355,0.0789057789325714,0.11146540175378322
1733705077804798700,4.630798828125,-0.18882541254907845,0.17455723322182892,0.08030512433648108
1733705077814765600,4.640765625,-0.1387868316605687,0.25829145522415636,0.03099076606929302
1733705077824731600,4.650731689453125,-0.08481646428108215,0.32021687326133247,0.009067103552818298
1733705077834698500,4.660698486328125,-0.006308452494442463,0.36096564775705337,-0.003378536522388458
1733705077844665600,4.67066552734375,0.04808773908168077,0.29113837055414915,0.013010288220643996
1733705077854633000,4.680633056640625,0.06545271538048983,0.18785715203881262,0.04727496139407158
1733705077864600000,4.69060009765625,0.10216945788115263,0.09657266078740358,0.07763210573494433
1733705077874566000,4.70056591796875,0.12048165190219878,0.0033519407764077184,0.07001637003421783
1733705077884533000,4.710532958984375,0.15405658924579618,-0.058119303752481935,0.05189911406338214
1733705077894500000,4.7205,0.1853942690566182,-0.09508388353437185,0.010474632263183592
1733705077904467000,4.730467041015625,0.19630875404179096,-0.16423954508602617,-0.05565408268272876
1733705077914434000,4.74043408203125,0.18706892427057026,-0.16842355277240276,-0.11411796208918094
1733705077924399900,4.75039990234375,0.17891367486566304,-0.14760989732444285,-0.14282266304790972
1733705077934367000,4.760366943359375,0.16744740121662616,-0.10880962654799223,-0.16514146236181257
1733705077944334000,4.770333984375,0.14847411293834448,-0.08003361391872167,-0.17418401599526404
1733705077954301000,4.780301025390625,0.15663520756214855,-0.053042438879609105,-0.15666472591757774
1733705077964268000,4.79026806640625,0.12718290310651062,-0.03795242177546024,-0.12261691036522387
1733705077974233900,4.80023388671875,0.08449877663403749,-0.012389818234741687,-0.09951602076292038
1733705077984201000,4.810200927734375,0.06603723727017641,-0.004810030630230903,-0.07293547235131263
1733705077994167800,4.820167724609375,0.04015080860257148,0.0014849778607487678,-0.05335515809059143
1733705078004135000,4.830135009765625,0.009140753310918808,0.01731178480684757,-0.010039163455367088
1733705078014102000,4.84010205078125,-0.02696399477124214,0.03607669103145599,0.023300796088576315
1733705078024067800,4.85006787109375,-0.04775923777967691,0.026075813759863373,0.04033902465105056
1733705078034035000,4.860034912109375,-0.07702917140573262,0.022307693397998807,0.0831710351616144
1733705078044001800,4.870001708984375,-0.07247603814601898,0.04341097944229841,0.11233809293508529
1733705078053969000,4.879968994140625,-0.07742810759544372,0.050046471934020516,0.13893033178448677
1733705078063936000,4.88993603515625,-0.0854965554997325,0.07227408583313226,0.18368191218078136
1733705078073901800,4.89990185546875,-0.09615209728777407,0.06694733785241842,0.20825930407643317
1733705078083869000,4.909868896484375,-0.11221095942407845,0.049426586470007895,0.19452654680013656
1733705078093835800,4.919835693359375,-0.11099924554675816,0.035550621330738066,0.16361761379539966
1733705078103803000,4.929802978515625,-0.1023988827228546,0.0185784437417984,0.11367840162813662
1733705078113770000,4.93977001953125,-0.07941460523754358,0.010074234768748283,0.09211305103003978
1733705078123736800,4.94973681640625,-0.042059272572398186,0.03221709299385547,0.08743629139065742
1733705078133703000,4.959702880859375,-0.1136991521552205,0.07555062328577042,0.22343466137647627
1733705078143669800,4.969669677734375,-0.01321136375069618,-0.07538052741587162,0.010021043276786804
1733705078153636900,4.979636962890625,0.06286503697484731,-0.12708148855865,-0.1293044253051281
1733705078163604000,4.98960400390625,0.04538783247321844,-0.03264028684198856,-0.07611001073420047
1733705078173570800,4.99957080078125,0.08029547972530127,-0.04251987582147121,-0.12448211971521377
1733705078183537000,5.009536865234375,0.1178185701727867,-0.015327917513251304,-0.16290449708998203
1733705078193503700,5.019503662109375,0.1618108566343784,0.011248831506073474,-0.15138006351292133
1733705078203470800,5.029470947265625,0.17218875052481888,0.011382687018811703,-0.13256488840579986
1733705078213438000,5.03943798828125,0.15533230827003716,0.023802608130872246,-0.08979191460609436
1733705078223404800,5.04940478515625,0.14768617743104695,0.011506021137535571,-0.09591419687867164
1733705078233371100,5.05937109375,0.13312047646194697,0.015358312651515006,-0.11602525701522827
1733705078243338000,5.069337890625,0.09884002119749784,0.018095336399972437,-0.10573358010351658
1733705078253304800,5.079304931640625,0.0842456786558032,0.0053159343257546425,-0.11539689598381518
1733705078263272000,5.08927197265625,0.06708440823554992,-0.014979250206053256,-0.08197510337531566
1733705078273238800,5.09923876953125,0.06849398277252912,-0.018517361204326153,-0.04412731101810932
1733705078283205000,5.109205078125,0.06254062732607125,-0.03269990807473659,-0.00003857844471931457
1733705078293172000,5.119171875,0.048020811325311656,-0.042694355605542654,0.0328694194227457
1733705078303139000,5.12913916015625,0.01761602845042944,-0.022702245673537253,0.02320902615189552
1733705078313106000,5.13910595703125,-0.0019078794479370116,0.005637421365082264,0.04224807314276695
1733705078323073000,5.149072998046875,-0.026681378437578677,0.02034691471904516,0.059441200006008145
1733705078333038800,5.159038818359375,-0.03598988953083753,0.03574877425134182,0.05799275476336479
1733705078343006000,5.169005859375,-0.05972060146927833,0.07109130578935145,0.08739128320515155
1733705078352973000,5.17897314453125,-0.0578854949966073,0.09525690201371907,0.08865092787742614
1733705078362940000,5.18893994140625,-0.050209553541243075,0.1112836154460907,0.06826280436515808
1733705078372907000,5.198906982421875,-0.009625029696524142,0.09043079703152179,0.012392448583245277
1733705078382872800,5.208872802734375,0.05296908138245344,0.06259820273220539,-0.056090720534324644
1733705078392840000,5.21883984375,0.12777063986659049,0.03471475502848625,-0.11557809776961803
1733705078402807000,5.22880712890625,0.1991878166094422,0.002008417212963104,-0.15083178198039532
1733705078412774000,5.23877392578125,0.23549480926543473,-0.03051028907597065,-0.17701193289756773
1733705078422741000,5.248740966796875,0.25772154638171196,-0.03938888431936502,-0.14460545481145382
1733705078432706800,5.258706787109375,0.21951281175762413,-0.04093611376136541,-0.09667232176959514
1733705078442674000,5.268673828125,0.1729807776853442,-0.09077098877131938,-0.0639963790923357
1733705078452641000,5.27864111328125,0.1201893909573555,-0.10810147827863692,0.002500584644079208
1733705078462608000,5.28860791015625,0.06846066502481699,0.029074703314900398,0.08335808216631412
1733705078472575000,5.298574951171875,-0.0027089666977524757,0.1540019364491105,0.07714870613217353
1733705078482542000,5.3085419921875,-0.05235065722316503,0.12974836968034506,0.04905424602627754
1733705078492508000,5.3185078125,-0.042478667028248304,0.09400281029939651,0.06590835019350051
1733705078502475000,5.32847509765625,-0.024139000478386876,0.016569734267890452,0.08361293371021747
1733705078512441900,5.33844189453125,-0.00824175864458084,-0.11290800177752972,0.04066694143116474
1733705078522409000,5.348408935546875,0.008200549851357937,-0.18818886821120975,0.008123685222864151
1733705078532375800,5.358375732421875,0.050742345243692394,-0.25048019695132967,-0.038868952098488806
1733705078542342000,5.368341796875,0.05443418549895286,-0.2568932788640261,-0.06299918474853039
1733705078552309000,5.37830908203125,0.06662409724742174,-0.1944336078196764,-0.040217444097995755
1733705078562275800,5.38827587890625,0.03083732907325029,-0.11957827332168817,0.022636779221892354
1733705078572243000,5.398242919921875,-0.037569267676770685,-0.05834551372379064,0.10110708934664725
1733705078582209800,5.408209716796875,-0.0845285872504115,0.004627659800648689,0.15037702395021915
1733705078592175900,5.41817578125,-0.14611907424479723,0.07410977682769299,0.15646014325618743
1733705078602142700,5.428142822265625,-0.19043284774571656,0.16506079834103585,0.15994330919682978
1733705078612109800,5.43810986328125,-0.21710165896266698,0.2306874089837074,0.14499240830242632
1733705078622077000,5.448076904296875,-0.2434302784398198,0.2916492426857352,0.11448679540157318
1733705078632043800,5.458043701171875,-0.24544775574207303,0.2795473014816642,0.10414426508545875
1733705078642009900,5.468009765625,-0.21118454387336968,0.22982202432602641,0.13184300387203693
1733705078651976700,5.477976806640625,-0.14025281255990266,0.18068565297424793,0.13055121049582957
1733705078661943800,5.48794384765625,-0.06742489223629236,0.11249591384530067,0.11058102013468742
1733705078671911000,5.497910888671875,-0.024236323373019696,0.08365034311115742,0.09884791224300861
1733705078681877800,5.507877685546875,0.04547843336611986,0.03671791154444218,0.06461071159839629
1733705078691844000,5.517843994140625,0.10103606993705033,-0.052253334328532214,-0.025813071170449255
1733705078701811000,5.52781103515625,0.17826631687283515,-0.111062958432734,-0.11601356657743453
1733705078711778000,5.537778076171875,0.2655950562357902,-0.15589724867641924,-0.18355214832127092
1733705078721745000,5.547744873046875,0.3355941828742623,-0.1793319002777338,-0.23900807808339594
1733705078731711700,5.557711669921875,0.37021424535661934,-0.14494535429030656,-0.2755839508086443
1733705078741678000,5.567677978515625,0.39575142219513654,-0.1341267308950424,-0.28132278672158717
1733705078751645000,5.57764501953125,0.3662435881599784,-0.09961100556999444,-0.2510825467586517
1733705078761612000,5.587612060546875,0.30484540886729955,-0.08151070073395968,-0.230509129807353
1733705078771579100,5.5975791015625,0.23601678731292486,-0.059953825703263276,-0.19712825373113155
1733705078781546000,5.6075458984375,0.17528847010582685,-0.03975041110813617,-0.13933248284459113
1733705078791512000,5.617511962890625,0.12790829477161167,-0.01418780756741762,-0.12090250766277312
1733705078801479000,5.62747900390625,0.06507014580368996,0.0017971125498414038,-0.06472469336688517
1733705078811446000,5.637446044921875,0.0022816811963915825,0.025116028816998003,-0.006582885521650314
1733705078821413000,5.6474130859375,-0.01797989332675934,0.04398936385214328,0.06053191785216331
1733705078831380000,5.6573798828125,-0.0443438763782382,0.04184036912471056,0.11580956843793391
1733705078841346000,5.667345947265625,-0.07292962713241577,0.05041647429019212,0.14541910928189752
1733705078851313000,5.67731298828125,-0.10139379733353852,0.05300444495677948,0.15471183828413484
1733705078861280000,5.687280029296875,-0.11410101095438002,0.04605915586352348,0.15756138249635696
1733705078871246800,5.697246826171875,-0.12148030755072832,0.04981880065798759,0.12400631889700889
1733705078881214000,5.7072138671875,-0.12601122897863387,0.048124271699786184,0.08430208501815796
1733705078891180000,5.717179931640625,-0.10416735370010137,0.05173603245615959,0.08445756784081458
1733705078901147000,5.72714697265625,-0.09037789780050516,0.06317512583732604,0.08755728742182255
1733705078911114000,5.737114013671875,-0.07845598933845759,0.0561079639300704,0.1103945576518774
1733705078921080800,5.747080810546875,-0.0892716901242733,0.05624649561792612,0.11254968985915183
1733705078931048000,5.7570478515625,-0.07935147687345742,0.052093467591702934,0.11259762065410614
1733705078941015000,5.76701513671875,-0.04560673592090606,0.05494155049920082,0.10626666406691074
1733705078950980900,5.77698095703125,-0.019385083949565885,0.02975421001166105,0.10242167907655239
1733705078960948000,5.786947998046875,0.0017696400210261345,0.01296528003513813,0.07498655966222285
1733705078970914800,5.796914794921875,0.04058686193227768,-0.010911854636669159,0.03619885610640049
1733705078980882000,5.8068818359375,0.06504588814526796,-0.03207651547938585,-0.0247217688024044
1733705078990849000,5.81684912109375,0.07740384993702172,-0.06134381875693798,-0.08966916500926017
1733705079000814800,5.82681494140625,0.08445259940475225,-0.05635346312373876,-0.11953005026578903
1733705079010782000,5.836781982421875,0.10959873109906912,-0.05204787488430738,-0.14202537519037722
1733705079020748800,5.846748779296875,0.1409448864772916,-0.05299480034559965,-0.13198738077878952
1733705079030716000,5.8567158203125,0.16965981656908988,-0.031051556345820425,-0.11678104381859301
1733705079040683000,5.86668310546875,0.17226561515331268,0.007074760691821575,-0.0725970341771841
1733705079050648800,5.87664892578125,0.1745510957419872,-0.0143172791659832,-0.07304653151035309
1733705079060616000,5.886615966796875,0.15996961268186569,-0.028368600872159002,-0.11838204927444457
1733705079070582800,5.896582763671875,0.11537614545673132,-0.026397885321080682,-0.11440437781512737
1733705079080550000,5.9065498046875,0.09834785376638173,-0.012035305708646773,-0.10058511129915713
1733705079090516700,5.916516845703125,0.0710787385687232,-0.014132277987897394,-0.079607789722085
1733705079100482800,5.92648291015625,0.07456979555487632,0.01699117455035448,-0.046480011624097824
1733705079110450000,5.936449951171875,0.04702683185189962,0.02022270381748676,0.008249357429146766
1733705079120416800,5.946416748046875,0.012364683793485164,0.014124679203331469,0.0560796146184206
1733705079130384000,5.9563837890625,-0.01144113920778036,0.029973113459348676,0.06972703169882297
1733705079140350700,5.966350830078125,-0.030485154634714125,0.051149757000803944,0.09707271926403045
1733705079150317000,5.976317138671875,-0.027463468725979327,0.047996553666889666,0.11006897895932197
1733705079160284000,5.986283935546875,-0.01706131717711687,0.027599370065331457,0.10786591595709323
1733705079170251000,5.9962509765625,-0.0026505145087838172,0.03826104933321476,0.09489712879061699
1733705079180217900,6.0062177734375,-0.007298340314626693,0.040137364599108695,0.05435352147817611
1733705079190184700,6.016184814453125,-0.02169979063272476,0.03941869493573904,-0.005151391413807869
1733705079200151000,6.026151123046875,-0.0009618307694792747,0.02928980737030506,-0.0649549949914217
1733705079210118000,6.036117919921875,0.028983225639164445,0.020770400828123092,-0.09631751698255539
1733705079220085000,6.0460849609375,0.045940790180861946,0.02347965978682041,-0.0986000749617815
1733705079230052000,6.056052001953125,0.03994359559267759,0.024480361261963842,-0.05886603046655654
1733705079240019000,6.06601904296875,0.058308396583795545,0.0143368606492877,-0.012715104666352272
1733705079249985000,6.075985107421875,0.05754267290830612,-0.026814649428427217,0.023543957194685935
1733705079259951900,6.085951904296875,0.06144932495802641,-0.06624357349723577,0.03546937278807163
1733705079269919000,6.0959189453125,0.0690285280406475,-0.083158760201931,0.010793196693062782
1733705079279886000,6.105885986328125,0.05258125110864639,-0.08800327762365341,-0.031013562422990797
1733705079289853000,6.11585302734375,0.04860328738838434,-0.0712441582635045,-0.03852233061790466
1733705079299819000,6.125819091796875,0.02553103935867548,-0.02938040826320648,-0.0347387204259634
1733705079309785900,6.135785888671875,0.023928280337154863,-0.02202303123772144,0.0033715222597122192
1733705079319753000,6.1457529296875,-0.006786299139261246,-0.0013444003462791442,0.04461246418654918
1733705079329720000,6.155719970703125,-0.007716857987642288,0.013080430847406387,0.05048983178734779
1733705079339687000,6.16568701171875,-0.0073942019045352934,0.040108138504624365,0.05413081863820553
1733705079349653000,6.175653076171875,-0.013232698799669741,0.054582946319878096,0.06676935093700885
1733705079359619800,6.185619873046875,-0.023672259749472138,0.04551408920139074,0.0593126051902771
1733705079369587000,6.1955869140625,-0.04335311177521944,0.06465542752295732,0.05181786552071571
1733705079379554000,6.205553955078125,-0.03523118011802435,0.04514934754222631,0.05502221451997757
1733705079389521000,6.21552099609375,-0.017571897047758103,0.030620179191231726,0.04844809682667255
1733705079399488000,6.225488037109375,0.0013034838140010834,0.02589344293028116,0.0204302090883255
1733705079409453800,6.235453857421875,0.009270517170429229,0.02446691725850105,0.00819908854663372
1733705079419421000,6.2454208984375,0.026856150482594966,0.03133592624515295,-0.005200491252541542
1733705079429387800,6.2553876953125,0.05400076251775026,0.03990297132134437,-0.005816577324271202
1733705079439355000,6.26535498046875,0.06145166304558515,0.018634850104153156,-0.011305822390317917
1733705079449322000,6.275322021484375,0.09061492142677306,-0.018953414534032344,-0.032303017711639403
1733705079459287800,6.285287841796875,0.12294395036250352,-0.01806347995698452,-0.0423287371635437
1733705079469255000,6.2952548828125,0.11406155572682618,-0.013439619548618793,-0.04314472972154617
1733705079479221800,6.3052216796875,0.12351853538006544,-0.03294716083407402,-0.07750175735354423
1733705079489188900,6.31518896484375,0.1045841178074479,-0.03502133675962686,-0.11867547926306724
1733705079499156000,6.325156005859375,0.09026771542429923,-0.02602291452884674,-0.11170330216288565
1733705079509121800,6.335121826171875,0.09830284558087586,-0.023356033407151696,-0.08822890307307243
1733705079519089000,6.3450888671875,0.0912991042986512,-0.025695290009677407,-0.06924480113983154
1733705079529055700,6.3550556640625,0.08656038533896207,-0.028982348856329915,-0.03706511754691601
1733705079539022800,6.36502294921875,0.059198915682733055,-0.016163491554558276,-0.005176525855064392
1733705079548990000,6.374989990234375,0.026063246539235113,-0.018977379931509494,0.011326865178346633
1733705079558956000,6.3849560546875,0.03133972563743591,-0.0011249123767018317,0.033528175592422486
1733705079568923000,6.3949228515625,0.02786678882986307,-0.003207271608710289,0.03216214793622493
1733705079578889700,6.4048896484375,0.031063831305503845,0.005983458323776721,0.033145898276567456
1733705079588856800,6.41485693359375,0.007729425208270549,0.019096622397005557,0.021323358535766602
1733705079598824000,6.424823974609375,0.0016527356430888175,0.021691315065324304,0.014659224471449852
1733705079608790000,6.4347900390625,-0.02278817039132118,0.046451077790558334,0.014117957201600074
1733705079618757000,6.444757080078125,-0.022818857790529726,0.057660454069077965,0.037087329378724096
1733705079628724000,6.454723876953125,-0.009457271914184093,0.06007891338765621,0.05774959365725517
1733705079638691000,6.464691162109375,-0.017729425697028636,0.04503945742696523,0.08758066829741
1733705079648658000,6.474657958984375,-0.022847499363124368,0.03385550785064697,0.09876023395955562
1733705079658624000,6.4846240234375,-0.0015405074402689933,0.029402912355959415,0.06981237189471722
1733705079668591000,6.494591064453125,0.0007154547929763794,-0.00736906746327877,0.025878537622094154
1733705079678558000,6.504557861328125,0.033064649733901025,-0.0062777650952339165,-0.04032791873514652
1733705079688525000,6.514525146484375,0.06660334672033787,-0.024523031359910963,-0.08633855928182602
1733705079698492000,6.524491943359375,0.07827917146682739,-0.02166413479745388,-0.09376549441218375
1733705079708458000,6.5344580078125,0.08281155419945717,-0.01340834762752056,-0.08889058185219764
1733705079718425000,6.544425048828125,0.07142740587592125,-0.005362988337874412,-0.05082885448336601
1733705079728392000,6.554391845703125,0.038629882645606996,0.013978840991854667,-0.0037660745352506636
1733705079738359000,6.564359130859375,-0.0016436755537986754,0.0190489838629961,0.038361002576351166
1733705079748326000,6.574325927734375,-0.01312690033763647,0.01933043115288019,0.05585515821278095
1733705079758292000,6.5842919921875,-0.013634849859774112,0.0025929391026496885,0.04813713118135929
1733705079768258800,6.5942587890625,-0.0025680969223380087,-0.02216740814447403,0.03132745067775249
1733705079778226000,6.604225830078125,0.002390402267873287,-0.026952012072503567,0.010438391906023026
1733705079788193000,6.614193115234375,0.01953004537820816,-0.024200959798693654,-0.012954174119234085
1733705079798160000,6.624159912109375,0.01935673463791609,-0.030200200213491915,-0.01995616183578968
1733705079808126000,6.6341259765625,0.007077098779380321,-0.017594693401455877,-0.00048690673410892486
1733705079818092800,6.6440927734375,0.0034741058513522148,-0.016625848369300363,0.01907996352314949
1733705079828060000,6.654059814453125,0.0036892099067568776,-0.016120821456611156,0.03274959243535995
1733705079838027000,6.664027099609375,-0.0036953473865985868,-0.013590426196157931,0.05130173269212246
1733705079847993900,6.673993896484375,-0.013016425700485706,-0.02080839475095272,0.02915945898890495
1733705079857959000,6.683958984375,-0.015099077193439005,-0.021875439460575578,0.040941666719317434
1733705079867925800,6.69392578125,-0.048260173039138314,-0.014573592014610767,0.043405426484346386
1733705079877892900,6.703892822265625,-0.05073036254495382,-0.022490064227581024,0.044188101294636725
1733705079887859700,6.713859619140625,-0.05370908609479665,-0.01803074673116207,0.0503629905372858
1733705079897826800,6.723826904296875,-0.067815352858603,0.0043988194808363915,0.06645254007279873
1733705079907793000,6.73379296875,-0.05236117861717939,0.05135550870597362,0.08099544468820094
1733705079917760000,6.743760009765625,-0.05030716869682073,0.07849339873939752,0.10038286672532558
1733705079927727000,6.75372705078125,-0.06079816757291555,0.08461042031496763,0.10776537819206713
1733705079937694000,6.76369384765625,-0.032840485589206214,0.06897153715640306,0.07020809321403503
1733705079947660800,6.773660888671875,-0.027225568316876888,0.061440264868736265,0.026628479206562042
1733705079957628000,6.7836279296875,0.01196136368960142,0.033254911608994006,-0.02638064192533493
1733705079967594000,6.793593994140625,0.019512217460572717,0.04199409838169813,-0.08696049057245255
1733705079977561000,6.80356103515625,0.046912850083410736,0.05258475823998451,-0.08808569521009922
1733705079987528000,6.81352783203125,0.09097411012798547,0.054042848093807695,-0.05397124416232109
1733705079997495000,6.8234951171875,0.10609072297811507,0.03025105361789465,-0.03173077078163623
1733705080007460900,6.8334609375,0.11288169829249381,0.01876227587610483,-0.016615034714341163
1733705080017428000,6.843427978515625,0.137680331723392,-0.009493804532289504,-0.05573883835673332
1733705080027395000,6.85339501953125,0.16299714380949734,-0.030132980196177956,-0.09068857118487357
1733705080037362000,6.86336181640625,0.1829997751355171,-0.020023966374993322,-0.12014672085940838
1733705080047329000,6.8733291015625,0.19932985542863607,-0.03413403253108263,-0.1525619667738676
1733705080057296100,6.883296142578125,0.21914280940145253,-0.06754442696273326,-0.17194120550453662
1733705080067262000,6.893261962890625,0.22818068685978649,-0.11670564049482345,-0.15569617314636705
1733705080077229000,6.90322900390625,0.20545359900593757,-0.1404664553105831,-0.12087152800261973
1733705080087196000,6.91319580078125,0.16914572956711052,-0.10482143369466065,-0.08534954824447631
1733705080097163000,6.9231630859375,0.13683686663657427,-0.04336450995206833,-0.04312251788973808
1733705080107129900,6.9331298828125,0.09860562791973351,-0.01831570115238428,-0.008024316501617432
1733705080117096000,6.943095947265625,0.05994593465775251,-0.011471242085099219,-0.0003349310427904129
1733705080127063000,6.95306298828125,0.01862286740541458,0.015507073472440241,0.000384030881524086
1733705080137030000,6.96302978515625,-0.019227263039350507,0.035251346123218535,0.013915128105878829
1733705080146997000,6.9729970703125,-0.04610094917863607,0.06408493415862321,0.013537526965141296
1733705080156963800,6.9829638671875,-0.03957680810689926,0.08401186989992857,0.05351823969781398
1733705080166930000,6.992929931640625,-0.0550359507843852,0.08834639197289944,0.09507540796697139
1733705080176896800,7.002896728515625,-0.08898527439832687,0.0839729991942644,0.10554828666448593
1733705080186863900,7.01286376953125,-0.09099456839412451,0.05890782378166914,0.10039105003178118
1733705080196831000,7.0228310546875,-0.08173223453015088,0.04046557364016771,0.11093582492172717
1733705080206797800,7.0327978515625,-0.06878624371737241,0.035679216146469114,0.11325929943323135
1733705080216764000,7.042763916015625,-0.04523614904284477,0.04573503847569227,0.09228782307505608
1733705080226730800,7.052730712890625,-0.023507424576580522,0.009938625690340996,0.07366378662586212
1733705080236697900,7.06269775390625,-0.023372984541952607,-0.017327859158813953,0.04465922593772411
1733705080246665000,7.0726650390625,0.0039300329253077505,-0.029978081895411013,0.0044791912406682965
1733705080256631800,7.0826318359375,0.04232844490259886,-0.029150106638669966,0.004104512709379196
1733705080266598000,7.092597900390625,0.04761982930898666,-0.03785919053405523,-0.021024083328247067
1733705080276564700,7.102564697265625,0.06337590910643338,-0.017187866166234016,-0.020301029750704764
1733705080286531800,7.11253173828125,0.04590834921598434,-0.002140519160032272,-0.00281856455206871
1733705080296499000,7.1224990234375,0.05668079538196325,0.010461772781610488,0.015680384212732313
1733705080306465800,7.1324658203125,0.0490364181086421,-0.0037616906210780144,-0.01190086567401886
1733705080316432000,7.142431884765625,0.04692395599931478,-0.008367138589918614,-0.06224690507650375
1733705080326399000,7.15239892578125,0.03606850772500038,-0.011975976736843585,-0.08727262526154518
1733705080336365800,7.16236572265625,0.030644144588708875,-0.0020008184283971785,-0.06481295617222786
1733705080346333000,7.1723330078125,0.05940408286601305,0.013140052080154419,-0.026997897040843963
1733705080356299800,7.1822998046875,0.07078297049254179,0.016659458377957344,0.003297287979722023
1733705080366266000,7.19226611328125,0.06423866341561078,-0.009810907657444476,0.015786767196655272
1733705080376233000,7.20223291015625,0.04820172085016965,-0.0006786299139261245,0.022658406531810758
1733705080386200000,7.212199951171875,0.009968436306715012,0.008473229312896728,-0.015801380243897437
1733705080396167000,7.2221669921875,0.036409576247632504,0.016248539489507673,-0.037836686441302295
1733705080406134000,7.232134033203125,0.05135580096691846,0.043323593419790266,-0.03232172241210937
1733705080416100000,7.24210009765625,0.06507832911014556,0.043619361495971676,-0.013775427374243735
1733705080426067000,7.25206689453125,0.06915010859370231,0.04403641786426306,-0.0015618424892425537
1733705080436034000,7.262033935546875,0.05816781906932592,0.033683073893189426,-0.0016308160722255706
1733705080446001000,7.2720009765625,0.054422787322103976,0.02879705541729927,0.013967735075950621
1733705080455968000,7.281968017578125,0.0560991961017251,0.0120341366648674,0.0010217442631721496
1733705080465934000,7.29193408203125,0.06799684690535068,0.004380114780366421,-0.019805939710140226
1733705080475901000,7.30190087890625,0.09205839823335409,0.0008262216910719871,-0.02496200729906559
1733705080485868000,7.311867919921875,0.09903671281337738,0.003617605975270271,-0.01367372056543827
1733705080495835000,7.3218349609375,0.10474515358805656,-0.018175708159804342,-0.032923779958486554
1733705080505802000,7.331802001953125,0.10858312431573867,-0.016229834789037705,-0.05419453152418136
1733705080515767800,7.341767822265625,0.10123656094521284,0.0006026420682668685,-0.07603168480098248
1733705080525735000,7.35173486328125,0.0964715385004878,0.010441022254526615,-0.07981763308048248
1733705080535702000,7.361701904296875,0.0830824800953269,0.0009314356312155723,-0.09434124847352504
1733705080545668900,7.3716689453125,0.08277852871268987,-0.0034098084434866904,-0.07406243055462837
1733705080555636000,7.381635986328125,0.0751832512781024,0.0029226094484329224,-0.037834932875633234
1733705080565601800,7.391601806640625,0.054335109038650985,0.028640988072752952,-0.0019189853638410567
1733705080575569000,7.40156884765625,0.04017565078288317,0.007481003405153751,0.02317863101363182
1733705080585536000,7.411535888671875,0.010493044702708721,-0.013449264159798621,0.020588029998540876
1733705080595502800,7.4215029296875,-0.042480420593917365,-0.030396599568426608,0.023196751192212102
1733705080605470000,7.431469970703125,-0.05907032086700201,-0.038705870491266246,0.038410686936974525
1733705080615435800,7.441435791015625,-0.07457885564416647,-0.04787614215761423,0.034092823737859726
1733705080625403000,7.45140283203125,-0.10198270313739775,-0.05613485193699598,0.07117021624445914
1733705080635370000,7.461369873046875,-0.12856821998506784,-0.05748305167555809,0.11671733093261719
1733705080645336800,7.4713369140625,-0.15835779357105492,-0.03750789287835359,0.13613690167367457
1733705080655304000,7.481303955078125,-0.16507511912733316,-0.011279226644337177,0.1744698471993208
1733705080665269800,7.491269775390625,-0.1649146678686142,-0.007215630467236041,0.18068799106180666
1733705080675236900,7.50123681640625,-0.1539680341795087,0.007494447408616542,0.18411036672592163
1733705080685204000,7.511203857421875,-0.14542320093512534,0.031169629767537115,0.17781798858344555
1733705080695170800,7.5211708984375,-0.12928659738749265,0.062146075050532816,0.16440028860569
1733705080705138000,7.531137939453125,-0.1411024151265621,0.06234130536168813,0.12724106303453445
1733705080715103700,7.541103759765625,-0.12872019567638635,0.0667372022330761,0.10313187317252158
1733705080725070800,7.55107080078125,-0.10020838694125413,0.08321750465184449,0.0776116474688053
1733705080735037700,7.56103759765625,-0.07178630231618881,0.09924129547476768,0.03484101175665855
1733705080745004800,7.5710048828125,-0.01941460230499506,0.08768763580322265,0.007604045262932777
1733705080754972000,7.580971923828125,0.016977146025002002,0.11221914273053407,-0.0046831893801689145
1733705080764938000,7.59093798828125,0.05456248805373907,0.08893646682053803,-0.010856909579038619
1733705080774905000,7.600905029296875,0.06969137586355209,0.0632531595095992,-0.05131809930503368
1733705080784872000,7.610871826171875,0.09091244306862353,0.023557401198148725,-0.09436989004611969
1733705080794838800,7.6208388671875,0.14898527733087538,-0.03081044106632471,-0.13252747900485992
1733705080804806000,7.630805908203125,0.1974655228614807,-0.056251756314933295,-0.13898819945156574
1733705080814772000,7.64077197265625,0.2274091179654002,-0.03571721006929874,-0.1415951670795679
1733705080824739000,7.650739013671875,0.23519378049224612,-0.03331657866835594,-0.13752280307412146
1733705080834706000,7.660705810546875,0.2352028405815363,-0.06164367848634719,-0.1564613122999668
1733705080844673000,7.670673095703125,0.2396092588469386,-0.064020052228868,-0.1811316431760788
1733705080854639900,7.680639892578125,0.23962241058945655,-0.042782033888995645,-0.1756546730697155
1733705080864606000,7.69060595703125,0.23096914853453634,-0.03671411215215921,-0.18826923997104167
1733705080874572800,7.70057275390625,0.20880524752140045,-0.07499152809828519,-0.1836316432982683
1733705080884540000,7.710539794921875,0.20127339071184397,-0.09213964677602052,-0.1608487336039543
1733705080894506800,7.7205068359375,0.18478285916000603,-0.09864683671295642,-0.10314999335110187
1733705080904473900,7.730473876953125,0.1519341902643442,-0.07213555414527655,-0.06272913563549518
1733705080914439700,7.740439697265625,0.12572802812308073,-0.049074996553361415,-0.04053133235275745
1733705080924406800,7.75040673828125,0.07446545839756727,-0.018840017287433147,0.024630583387613297
1733705080934374000,7.760373779296875,-0.0029120880544185636,0.027277006243169307,0.03290682882368565
1733705080944340700,7.7703408203125,-0.046613282614946364,0.050524026317894453,0.05089958163201808
1733705080954307800,7.780307861328125,-0.05119505744725465,0.08344751401543617,0.06274667129218578
1733705080964273700,7.790273681640625,-0.07992869223952292,0.10289192693680524,0.051388826453685754
1733705080974240800,7.80024072265625,-0.08390110300183296,0.10101619619280099,0.0698655633866787
1733705080984208000,7.810207763671875,-0.08777531408667563,0.07653466588705778,0.06888181304633617
1733705080994174700,7.8201748046875,-0.11065466989278792,0.05681085150241851,0.08976035042405128
1733705081004141800,7.830141845703125,-0.10807605157643556,0.0442196654766798,0.10172609802782535
1733705081014107600,7.840107666015625,-0.10324030198305845,0.03260375422388315,0.12588497225046158
1733705081024074800,7.85007470703125,-0.08899199640005827,0.016659458377957344,0.1439256558537483
1733705081034041900,7.860041748046875,-0.06578413929194211,0.008757014690339565,0.13859890787303447
1733705081044008700,7.8700087890625,-0.04430179080218077,0.009039631024003028,0.1074012210547924
1733705081053975800,7.879975830078125,-0.03663753978461027,-0.00969838719367981,0.058230070650577545
1733705081063941600,7.889941650390625,-0.014325754733383655,-0.02570318105518818,0.015056699356436729
1733705081073908700,7.89990869140625,0.045079204915463925,-0.006579670651257038,0.01751169129312038
1733705081083875800,7.909875732421875,0.066157356518507,0.0140972066745162,0.01726560757756233
1733705081093842700,7.9198427734375,0.05249123473763465,0.020093524479866027,0.006437339571118354
1733705081103809800,7.929809814453125,0.07718114709705114,-0.011122867038846015,-0.04644961648583412
1733705081113775600,7.939775634765625,0.08698825536221265,-0.03948006973415613,-0.10197568887472153
1733705081123742700,7.94974267578125,0.10432225200086831,-0.027604630762338638,-0.13986848941743374
1733705081133709800,7.959709716796875,0.10846972706913947,-0.0007455576702952385,-0.1630102955520153
1733705081143676700,7.9696767578125,0.11459551647305488,0.014393267011642456,-0.15568331366479396
1733705081153643800,7.979643798828125,0.11132102484703063,0.025983459301292894,-0.11636486423313618
1733705081163609900,7.98960986328125,0.11887217087894678,0.00744184043854475,-0.04878478143513203
1733705081173576700,7.99957666015625,0.10205079993754625,0.013073416584730147,-0.017391279783844946
1733705081183543800,8.009543701171875,0.0928375659123063,0.01580956355035305,0.01134615440070629
1733705081193510700,8.0195107421875,0.08073854731768369,0.005981704758107662,-0.000768061763048172
1733705081203477800,8.029477783203125,0.06506342380195855,0.002570142748951912,-0.020144962406158446
1733705081213443800,8.03944384765625,0.07542933499366045,-0.028168986646831033,-0.015749357795715332
1733705081223411000,8.049410888671876,0.0699938659414649,-0.017786708842217922,-0.01751402938067913
1733705081233377800,8.059377685546876,0.07226473348289728,-0.010600304469466209,-0.018277999490499495
1733705081243345000,8.069344970703124,0.057036184690892694,-0.007330196757614612,-0.03352876011431217
1733705081253312000,8.07931201171875,0.035603520561754705,-0.008992284750938415,-0.024214403802156448
1733705081263277800,8.08927783203125,0.028116379676759243,-0.004614800319075584,-0.0066845923304557795
1733705081273245000,8.099244873046874,0.0037190205231308936,0.009313479529321192,0.009446458259224891
1733705081283211800,8.109211669921875,0.0046855274677276605,0.0015700257956981658,0.027217677271366116
1733705081293179000,8.119178955078125,0.008961889612674712,-0.024604279902577398,0.0406423915117979
1733705081303146000,8.12914599609375,-0.02611789933592081,-0.02134264775812626,0.06125964760482311
1733705081313111800,8.13911181640625,-0.03296031257659197,-0.03145867584198713,0.07418985632658004
1733705081323079000,8.149078857421875,-0.04482464563250541,-0.037813597826659676,0.08417758185565472
1733705081333045800,8.159045654296875,-0.07193710896372794,-0.019341537068784234,0.0735030431061983
1733705081343012900,8.169012939453125,-0.09343962345868348,-0.023247312335669994,0.07311199796199798
1733705081352980000,8.17897998046875,-0.1187926759019494,-0.021903788772225378,0.068593059232831
1733705081362945800,8.18894580078125,-0.12344517788290976,-0.016859364864230154,0.05620996299982071
1733705081372913000,8.198912841796876,-0.13428952024132013,-0.004046645042300224,0.06310439868867397
1733705081382879700,8.208879638671876,-0.12422142295241355,0.006228080734610557,0.07960486711263656
1733705081392846800,8.218846923828124,-0.140634505353868,0.011282149253785609,0.09386077148020266
1733705081402814000,8.22881396484375,-0.13817775985151529,0.03764174839109182,0.12955810780525207
1733705081412779800,8.23877978515625,-0.12136691030412912,0.03156681239157915,0.1250385845541954
1733705081422747000,8.248746826171875,-0.09507306987941265,0.059058922690153115,0.14187924471795557
1733705081432713700,8.258713623046875,-0.09565934533476829,0.07495558000206946,0.13768062398433684
1733705081442680800,8.268680908203125,-0.07055792956501244,0.06892477540522814,0.10761574058830738
1733705081452647700,8.278647705078125,-0.04917874918878078,0.055419104883074756,0.06559212385118007
1733705081462613800,8.28861376953125,-0.02801496512889862,0.04394698601514101,0.018582535395026207
1733705081472580900,8.298580810546875,0.0031283611536026,0.05672346547991037,-0.030583354312181472
1733705081482547700,8.308547607421875,0.04444149153381586,0.041786885371804236,-0.0607458528637886
1733705081492514800,8.318514892578126,0.09124591280668973,0.04092705367207527,-0.06675941406488418
1733705081502481700,8.328481689453126,0.13682722202539443,0.027710429224371908,-0.07559855408072472
1733705081512447700,8.33844775390625,0.15274258403778077,0.0027615736678242683,-0.09063011899590492
1733705081522414600,8.34841455078125,0.19533055665940044,-0.023429975426197052,-0.10511457142233847
1733705081532381700,8.358381591796874,0.20624124225229024,-0.02649783856421709,-0.1399789640545845
1733705081542348800,8.368348876953124,0.23599252965450285,-0.03188683812618255,-0.1584796663850546
1733705081552315600,8.378315673828125,0.26071634428352114,-0.04489361921548843,-0.15990473075211048
1733705081562281700,8.38828173828125,0.2563596103787422,-0.061469783224165436,-0.16728548865318296
1733705081572248600,8.39824853515625,0.2535679338335991,-0.0610530191168189,-0.17091069341301918
1733705081582215700,8.408215576171875,0.24995997246950863,-0.053558863969147205,-0.16582769106030462
1733705081592182800,8.418182861328125,0.2316986318528652,-0.06101736328154802,-0.14293138411939144
1733705081602149600,8.428149658203125,0.2171396528854966,-0.04687660972625017,-0.1300099432259798
1733705081612116000,8.438115966796875,0.16420710412114858,-0.0272729145899415,-0.08850830453634262
1733705081622082800,8.448082763671875,0.13624211561381816,-0.00864127935618162,-0.06587503244578838
1733705081632050000,8.4580498046875,0.10427578251063824,0.003797638717293739,-0.05109013576805591
1733705081642016800,8.468016845703126,0.047855683891475195,0.012253040112555026,-0.05696107362806797
1733705081651983600,8.477983642578126,-0.0007911503776907921,-0.0073883566856384275,-0.048026656544208526
1733705081661950000,8.487949951171874,-0.024131693954765797,-0.019420447523891923,-0.03963467577397823
1733705081671916800,8.497916748046874,-0.05708586905151605,-0.017137305022776127,-0.0025748189240694043
1733705081681884000,8.5078837890625,-0.06100333475619554,0.005759001918137073,0.02866027729511261
1733705081691851000,8.51785107421875,-0.04384732503294945,0.057090837487578386,0.0927133550107479
1733705081701816800,8.52781689453125,-0.05848521445542573,0.07972381731718778,0.11979542320370673
1733705081711784000,8.537783935546875,-0.06661591394096612,0.09598317046165465,0.13802607642114162
1733705081721750800,8.547750732421875,-0.0788800599694252,0.07406886029541492,0.13193711189627647
1733705081731718000,8.5577177734375,-0.08901946892887354,0.044078211179375645,0.10770400339365005
1733705081741685000,8.56768505859375,-0.10428455033898353,0.0177919695392251,0.09787935947179793
1733705081751650800,8.57765087890625,-0.10914572663456201,-0.023210487456619737,0.09661913027763366
1733705081761618000,8.587617919921875,-0.07375964821577072,-0.04269815499782562,0.07143266657292842
1733705081771584800,8.597584716796876,-0.02279956856817007,-0.0616977467611432,0.04066986404061317
1733705081781551900,8.6075517578125,0.008437281216681003,-0.027829379428923127,0.01917056441605091
1733705081791518700,8.617518798828126,0.01884586250633001,0.02451455579251051,0.01983399676084518
1733705081801484800,8.62748486328125,0.01583732834011316,0.05108721315860748,0.028332360514998434
1733705081811452000,8.637451904296874,0.019259996265172958,0.05344079054743051,0.036243279770016665
1733705081821418800,8.647418701171874,0.046582595215737814,0.032197511510550975,0.016128127980232238
1733705081831385900,8.6573857421875,0.05575871210098266,0.018875380861759185,-0.007021861460804939
1733705081841352700,8.667352783203125,0.037679450052976605,0.016143910071253775,-0.028405425751209256
1733705081851319600,8.677319580078125,0.036115269476175306,0.0043999885246157645,-0.03185761203169823
1733705081861286700,8.68728662109375,0.038546588276326656,-0.033396658167243,-0.030532500907778738
1733705081871253500,8.69725341796875,0.018921850351989268,-0.06081511870771646,-0.008959551525115966
1733705081881220600,8.707220703125,0.02573971367329359,-0.04354775756448507,0.034251813691854475
1733705081891187500,8.7171875,-0.002753390361368656,-0.04379880971610546,0.04921382050216198
1733705081901153500,8.727153564453126,-0.01509235519170761,-0.05288491023033857,0.04430559019446373
1733705081911120600,8.73712060546875,-0.004708031560480595,-0.02198123792260885,0.020704349854588508
1733705081921087500,8.74708740234375,-0.008882102374732494,0.003002688947319984,0.013525836527347564
1733705081931054600,8.7570546875,0.010680091707408428,0.01926262661367655,0.00532908606827259
1733705081941021400,8.767021484375,0.021878362070024013,0.03059387570619583,-0.02290682833492756
1733705081950987500,8.776987548828124,0.03269961581379175,0.02411445055902004,-0.032770050701498986
1733705081960954600,8.78695458984375,0.018080138830840586,0.029928689795732495,-0.048536944153904915
1733705081970921500,8.79692138671875,0.016493746422231198,0.03549772209972143,-0.06884265007972717
1733705081980888600,8.806888671875,0.026508944480121133,0.031041619473695752,-0.04401683638095855
1733705081990855400,8.81685546875,0.05521715257018804,0.042194297128915786,-0.02383037292063236
1733705082000821500,8.826821533203125,0.06035246963202953,0.03667933309972286,-0.00991407577097416
1733705082010788400,8.836788330078125,0.05175590620040893,0.043639819762110704,0.015034487524628638
1733705082020755500,8.84675537109375,0.01875409256964922,0.023808161088824272,0.021782792741060257
1733705082030722600,8.85672265625,0.04255202452540397,-0.02425707390010357,0.03842354641854763
1733705082040689400,8.866689453125,0.05874883382767439,-0.038597149419784545,0.010765139642357825
1733705082050655500,8.876655517578126,0.06629296559691429,-0.01968114428669214,-0.011151508611440658
1733705082060622300,8.886622314453126,0.08634820389300585,-0.009596680384874344,-0.03761281455755233
1733705082070589400,8.89658935546875,0.08197364207059145,-0.006755904000997543,-0.0714858580648899
1733705082080556500,8.906556640625,0.07637801402062178,-0.02115384718775749,-0.075176529276371
1733705082090523400,8.9165234375,0.08205956678837538,-0.01577069284468889,-0.07390753225386143
1733705082100489700,8.92648974609375,0.09420856200456619,-0.001513327172398567,-0.06183014096915722
1733705082110456600,8.93645654296875,0.08885784862637519,0.029866730475425717,-0.06838964561522007
1733705082120423700,8.946423583984375,0.07718114709705114,0.013021101875603198,-0.030623101800680157
1733705082130390500,8.956390625,0.06816606599241495,-0.024583529375493525,-0.009354103800654412
1733705082140357400,8.966357421875,0.04096095594167709,-0.014181670087575912,-0.006700958943367004
1733705082150323700,8.97632373046875,0.03666735040098428,-0.027340719129145145,0.013282090899348259
1733705082160290600,8.98629052734375,0.019014497071504592,-0.03269581642150879,0.02399170096218586
1733705082170257700,8.996257568359376,0.0028211949005723,-0.01766132889688015,0.018149404674768447
1733705082180224800,9.006224853515626,0.011112053383886813,-0.011734861457347869,0.03950783452391624
1733705082190191600,9.016191650390626,-0.008054711639881133,0.010683306577801704,0.06013385844528675
1733705082200157700,9.02615771484375,-0.0169946816816926,0.027878771528601645,0.08226210362315177
1733705082210124500,9.03612451171875,-0.024954700775444507,0.03442220182269812,0.06435702909827232
1733705082220091600,9.046091552734374,-0.031247955700755118,0.016306991678476334,0.020980244186520575
1733705082230058500,9.05605859375,-0.022173545624315737,0.018164017722010612,-0.015851064604520796
1733705082240025600,9.066025634765625,-0.028501287341117856,0.029497020380198954,-0.04571487247049808
1733705082249991700,9.07599169921875,-0.00842266816943884,0.05300590626150369,-0.05710018983781338
1733705082259958500,9.08595849609375,0.0013619360029697416,0.044559272694587704,-0.02767301982343197
1733705082269925600,9.095925537109375,0.02073649855852127,0.04325578888058662,0.005014028769731521
1733705082279892500,9.105892578125,0.025051439148187638,0.04398322637230158,0.03786883514523506
1733705082289859600,9.115859619140625,0.04608867421895265,0.040351884132623674,0.05928104100823402
1733705082299825400,9.125825439453125,0.05905570781975984,0.024641981564462182,0.023065233767032622
1733705082309792500,9.13579248046875,0.07571867332905531,-0.025252806939184663,-0.005008183550834655
1733705082319759600,9.145759521484376,0.08629179753065108,-0.0654404404208064,-0.06774491797089577
1733705082329726500,9.1557265625,0.08957797959446906,-0.09054419427812099,-0.09962532635629176
1733705082339692500,9.165692626953126,0.09240063579976558,-0.09194938490092754,-0.09924304904043674
1733705082349659400,9.175659423828124,0.06425619907230139,-0.06506459284573793,-0.0654343029409647
1733705082359626500,9.18562646484375,0.04730623331516981,-0.04273761022537947,-0.027304186511039732
1733705082369593600,9.195593505859375,0.050914486940205096,-0.028263971453905103,-0.00842997469305992
1733705082379560400,9.205560546875,0.0385293448805809,-0.006883329772949218,0.008293781092762947
1733705082389526500,9.215526611328125,0.01577156962752342,0.030458558888733386,-0.0001426233410835266
1733705082399493400,9.225493408203125,0.01835661768466234,0.07064911497980356,0.004381576085090637
1733705082409460500,9.23546044921875,0.011166413919627666,0.08015139507949352,-0.010525485667586326
1733705082419427600,9.245427490234375,0.031088673485815524,0.09751344876885414,-0.006206453424692154
1733705082429394400,9.25539453125,0.03143412592262029,0.08055880683660507,-0.004308510848879814
1733705082439360500,9.265360595703125,0.06167173553705215,0.04368950412273407,-0.04255670070052146
1733705082449327400,9.275327392578125,0.09096680360436439,0.033796178878843786,-0.05037585001885891
1733705082459294500,9.28529443359375,0.08052841169834137,0.01793751548975706,-0.05934533841609955
1733705082469261600,9.295261474609376,0.07587707876116037,0.0074216744333505625,-0.04949380648732185
1733705082479228400,9.305228515625,0.0554477464556694,-0.034760639996826645,-0.03476093225777149
1733705082489194800,9.31519482421875,0.05624006587713957,-0.04651800554692745,-0.0011269582033157349
1733705082499161600,9.32516162109375,0.04196779489666223,-0.05056757319867611,0.02437280923426151
1733705082509128400,9.33512841796875,0.025333470959961413,-0.04778846387416124,0.04190963496863842
1733705082519095600,9.345095458984375,0.006049801558256149,-0.039410219368338585,0.04644961648583412
1733705082529062400,9.3550625,-0.013616729681193828,-0.03132102093696594,0.0427513464897871
1733705082539028700,9.36502880859375,-0.03623363515883684,-0.011740414415299891,0.02756780588328838
1733705082548995600,9.37499560546875,-0.05095335764586925,-0.010025427190959453,0.02186579484939575
1733705082558962700,9.384962646484375,-0.06865355724841356,-0.01291384210884571,0.008685410758852959
1733705082568929500,9.394929443359375,-0.05947188740521669,-0.01986906807422638,0.024444705426692963
1733705082578896600,9.404896728515626,-0.03475654834359884,-0.007940437610447406,0.0471913747638464
1733705082588862700,9.41486279296875,-0.03734276544451713,-0.031361060686409474,0.07111760927438736
1733705082598829600,9.42482958984375,-0.03250175515413284,-0.028810791681706905,0.10467559548318385
1733705082608796700,9.434796630859376,-0.046881870423257345,-0.040972354118525976,0.10882979255318641
1733705082618763500,9.444763427734374,-0.07316255910545587,-0.0352417015120387,0.09100304396152496
1733705082628730600,9.454730712890624,-0.09050269322395324,-0.003863689690828323,0.06706453449130058
1733705082638696400,9.464696533203124,-0.09307312823385,0.021515666237473488,0.06510580163896083
1733705082648663600,9.47466357421875,-0.11698358065336942,0.03784574653059244,0.04129062628746032
1733705082658630700,9.484630615234375,-0.08864829752892256,0.05207739323973656,0.022069208467006683
1733705082668597500,9.494597412109375,-0.06747837598919867,0.07008329779058695,0.0483545733243227
1733705082678564600,9.504564697265625,-0.04335603438466787,0.0847951292321086,0.07853753014206886
1733705082688530400,9.514530517578125,-0.03506897529363632,0.09595774375945329,0.0851502262800932
1733705082698497500,9.52449755859375,-0.02242693586349487,0.08863631483018397,0.0889800137013197
1733705082708464600,9.534464599609375,-0.012349778485298156,0.06613456016480922,0.058633390754461286
1733705082718431500,9.544431396484375,0.003960428063571453,0.0434048419624567,0.014666823256015777
1733705082728397600,9.5543974609375,0.04238835839629173,0.021421265952289104,-0.052851300221681594
1733705082738364400,9.564364501953126,0.07782529021948575,-0.010488953049480915,-0.11529109752178192
1733705082748331500,9.57433154296875,0.12920301075726748,-0.01991553756445646,-0.12478899370729922
1733705082758298600,9.584298583984374,0.17034370718002317,-0.01708352900892496,-0.1242588323533535
1733705082768265500,9.594265380859374,0.21214491333812474,-0.00312660758793354,-0.08878186078071594
1733705082778231600,9.6042314453125,0.23172172046750783,0.009818798702955246,-0.08156301544308663
1733705082788198400,9.614198486328124,0.22505933996886013,-0.04110387154370546,-0.12796060948073862
1733705082798165500,9.62416552734375,0.2178045465350151,-0.05976122574061155,-0.17143091789484022
1733705082808132600,9.634132568359375,0.20429712244719267,-0.07934475487172603,-0.18588146805167197
1733705082818099500,9.644099365234375,0.1992342860996723,-0.06844488293379544,-0.20098668272495268
1733705082828065500,9.6540654296875,0.19448942966014146,-0.04762509000599384,-0.17332243072986603
1733705082838032400,9.664032470703125,0.1779918838456273,-0.020865093374252318,-0.10782266133725643
1733705082847999500,9.67399951171875,0.13511457288861273,-0.03844254337996244,-0.02833937477767467
1733705082857966600,9.683966552734375,0.09581716624498367,-0.05427314971834421,-0.004586743268370628
1733705082867933400,9.693933349609376,0.027743746972084045,-0.052611061725020405,-0.01099544126689434
1733705082877899500,9.7038994140625,0.0010319733962416647,-0.017275544449687003,-0.0004103343665599823
1733705082887866600,9.71386669921875,-0.019248305827379224,0.024694588534533976,0.0030891981869935986
1733705082897833500,9.72383349609375,-0.048344344191253184,0.05125321737527847,0.03675473642349243
1733705082907800300,9.73380029296875,-0.06619681174606085,0.0694315558835864,0.07865677260756491
1733705082917767400,9.743767333984374,-0.08969254588484764,0.06918634895086288,0.09929331792294979
1733705082927733800,9.753733642578124,-0.1251242170110345,0.05632160668075084,0.09792670574486255
1733705082937700600,9.76370068359375,-0.12244330736398697,0.06799889273196458,0.08097790903151035
1733705082947667700,9.773667724609375,-0.09847907893061637,0.08837912519872188,0.06730594203174114
1733705082957634600,9.783634521484375,-0.0828840349137783,0.085404201041162,0.09178338068425655
1733705082967601700,9.7936015625,-0.08158844214528799,0.06649784051924944,0.1331342127263546
1733705082977567500,9.8035673828125,-0.05601970112472772,0.06075257486552,0.15455693998336792
1733705082987534600,9.81353466796875,-0.01787000321149826,0.02252075162678957,0.1441916133135557
1733705082997501700,9.823501708984375,-0.005010229377448558,-0.011169336529076099,0.08659399534761905
1733705083007468500,9.833468505859376,-0.0010883797585964203,-0.035300153701007364,0.014201543831825255
1733705083017434600,9.8434345703125,0.032358839552104474,-0.04705576568543911,-0.021463059267401694
1733705083027401500,9.8534013671875,0.05015870013684034,-0.03893617211580276,-0.04463409149646759
1733705083037368600,9.86336865234375,0.07627338460236788,-0.02412234160453081,-0.03997369846999645
1733705083047335700,9.873335693359374,0.08361468727588653,-0.005721884778141975,-0.052364978009462354
1733705083057302500,9.883302490234374,0.09747720841169356,-0.01154226149469614,-0.06817512608170509
1733705083067268600,9.8932685546875,0.10191606764197349,0.012181728442013264,-0.08047989638149738
1733705083077235500,9.9032353515625,0.0982861867070198,0.009524784192442893,-0.10687456683218478
1733705083087202600,9.91320263671875,0.11945756955146788,0.011126958692073821,-0.12270984934568405
1733705083097169700,9.923169677734375,0.12965046226382254,0.014983049598336219,-0.09729366853833198
1733705083107136500,9.933136474609375,0.11570698484629392,-0.0010503858357667922,-0.05679273132383823
1733705083117102600,9.9431025390625,0.10336012897044419,-0.008471768008172512,-0.05202653983533382
1733705083127069400,9.9530693359375,0.08270078730136156,-0.008564122466742992,-0.0632820933431387
1733705083137036500,9.96303662109375,0.06465630430579185,-0.02359948677420616,-0.046239773127436636
1733705083147003600,9.973003662109376,0.053635436336696145,-0.011191840621829032,-0.04044540763497352
1733705083156970500,9.982970458984376,0.05221095649152994,0.017343348988890648,0.0011649521261453627
1733705083166936600,9.9929365234375,0.022831132750213146,0.032032384076714514,0.042754853621125216
1733705083176903400,10.0029033203125,0.016006255166232584,0.024403496633470058,0.0630851094663143
1733705083186870500,10.01287060546875,-0.018181261117756364,-0.013515607394278048,0.07189619243144989
1733705083196837600,10.022837646484374,-0.05801964277029037,-0.025634499733150004,0.0877554403424263
1733705083206804500,10.032804443359375,-0.0724377519622445,-0.03552694819420576,0.07754501197338104
1733705083216770600,10.0427705078125,-0.06863835967928171,-0.04316401894390583,0.07465279766321181
1733705083226737400,10.0527373046875,-0.06702507926374673,-0.03717968383729458,0.07046411380171776
1733705083236704500,10.06270458984375,-0.06354395914971828,-0.026733693146705626,0.07591945659816264
1733705083246671400,10.07267138671875,-0.07778934212327003,-0.018140929107367993,0.05027238964438438
1733705083256638500,10.082638427734375,-0.06880553293973207,-0.00101911391466856,0.04301613490581512
1733705083266604500,10.0926044921875,-0.07803279549032449,0.005997779110074043,0.058711132165789603
1733705083276571400,10.1025712890625,-0.08807020538002253,0.03299772197753191,0.08249415881335735
1733705083286538500,10.11253857421875,-0.07543722603917122,0.043237376441061494,0.08431260641217231
1733705083296505300,10.12250537109375,-0.07158259643763304,0.051956981730461115,0.08106792540252208
1733705083306472400,10.132472412109376,-0.07273235099464655,0.06973375370055436,0.08266776181459426
1733705083316438500,10.1424384765625,-0.07844955959767103,0.06989946565628051,0.02690729614794254
1733705083326405600,10.152405517578124,-0.061142450965940946,0.05068330853283405,-0.01982055275738239
1733705083336372700,10.162372802734374,-0.03853051392436027,0.05656827491819858,-0.04692658634781837
1733705083346339600,10.172339599609375,-0.01119067157804966,0.07296908235996961,-0.03345978653132915
1733705083356306400,10.182306396484375,0.04573503847569227,0.062081485381722444,-0.03858312089443207
1733705083366272500,10.1922724609375,0.08709609965085983,0.0021656536012887953,-0.029249475359916684
1733705083376239600,10.202239501953125,0.11775865667909383,-0.02822013231217861,-0.0064174658268690106
1733705083386206700,10.212206787109375,0.13336948278695343,-0.04173749327212572,-0.008718728506565094
1733705083396173600,10.222173583984375,0.1691886919260025,-0.05383943447619676,-0.05037409645318985
1733705083406139600,10.2321396484375,0.16164572920054196,-0.03540624442398548,-0.08522270699441432
1733705083416106500,10.2421064453125,0.16197569180727003,-0.03294423822462558,-0.12078501876294612
1733705083426073600,10.252073486328126,0.169663323700428,-0.03386778281033039,-0.13749182341396807
1733705083436040700,10.262040771484376,0.18159604581743477,-0.032847207590937615,-0.12252981660366058
1733705083446007600,10.272007568359374,0.17329788081049918,-0.04844079030305147,-0.10846972706913947
1733705083455973600,10.2819736328125,0.16300035867989063,-0.03464578144550323,-0.08683832549750804
1733705083465940500,10.2919404296875,0.13922376177310944,-0.01626958227753639,-0.03944412163794041
1733705083475907600,10.301907470703124,0.11443038903921841,-0.0099994159668684,-0.04214344372451305
1733705083485874700,10.311874755859375,0.09524462705403566,0.0012234043151140212,-0.012442717465758323
1733705083495841500,10.321841552734375,0.08093173180222511,-0.006712357120215892,-0.01479483354985714
1733705083505807600,10.3318076171875,0.037279637080430986,-0.0046223991036415096,-0.019703648379445073
1733705083515774500,10.3417744140625,0.03284428498148918,0.01893091044127941,-0.026903789016604424
1733705083525741600,10.351741455078125,0.02141132908016443,0.037683541706204415,-0.037948330122232435
1733705083535708700,10.361708740234375,0.00022708675414323805,0.03383563410639763,-0.05510755471587181
1733705083545675500,10.371675537109375,0.003051496525108814,0.04317775520831346,-0.030609657797217367
1733705083555641600,10.3816416015625,0.00632598815113306,0.033843232890963554,0.018664368459582328
1733705083565608400,10.3916083984375,-0.003925649011135101,0.024742519329488274,0.047769466912746424
1733705083575575600,10.401575439453126,-0.017371406039595604,0.027897768490016458,0.06957856313884257
1733705083585542400,10.41154248046875,-0.016623510281741617,0.005081541047990322,0.07165244680345058
1733705083595509500,10.421509521484374,-0.0221685771882534,-0.03989887966811657,0.060763973042368885
1733705083605475600,10.4314755859375,-0.018148235630989072,-0.030825054113566872,0.05831599536836147
1733705083615442400,10.4414423828125,-0.030201076996326445,-0.004372223734855652,0.015253683233261107
1733705083625409500,10.451409423828125,-0.030066344700753686,0.02105097133517265,0.02171206559240818
1733705083635376400,10.46137646484375,-0.024662439830601214,0.038920390024781225,0.05766659154891968
1733705083645343500,10.471343505859375,-0.0020329671323299405,0.018270985227823257,0.05759060370326042
1733705083655309300,10.481309326171875,0.010563479590415955,0.036192718626558776,0.04812018004655838
1733705083665276400,10.4912763671875,0.048714054286479944,0.011990297523140906,0.022116554740071296
1733705083675243500,10.501243408203125,0.054101300282776356,0.001638122595846653,-0.024118542212247848
1733705083685210400,10.51121044921875,0.048370647676289076,0.017176175728440282,-0.0454003996938467
1733705083695176700,10.5211767578125,0.03385083167552948,0.01385842948257923,-0.04831833296716213
1733705083705143600,10.5311435546875,0.05416325960308313,-0.004054243826866149,-0.0431347928494215
1733705083715110700,10.541110595703126,0.061004503799974914,-0.0038397242933511733,-0.021025836893916128
1733705083725077500,10.551077392578126,0.04943038586229086,-0.01191430967748165,-0.01653320164978504
1733705083735044400,10.56104443359375,0.04342208535820245,-0.01926467244029045,-0.01561257967352867
1733705083745010700,10.5710107421875,0.03271539790481329,-0.04109101206213236,-0.009644026657938957
1733705083754977500,10.5809775390625,0.026722879491746423,-0.04716244093030691,0.015128595548868178
1733705083764944600,10.590944580078125,-0.004161795854568481,-0.048939971996843815,0.03199614371955395
1733705083774911700,10.600911865234375,-0.010023673625290393,-0.0373944956317544,0.05767302128970623
1733705083784878600,10.610878662109375,-0.03364624901413917,-0.024670330876111982,0.07870645696818829
1733705083794844700,10.6208447265625,-0.05737082347273826,-0.02612140646725893,0.08546236096918583
1733705083804811500,10.6308115234375,-0.03574351355433464,-0.0008916881427168846,0.09432488186061382
1733705083814778600,10.640778564453125,-0.04605564873218536,0.00014759177714586256,0.07009761857688426
1733705083824745700,10.650745849609375,-0.07600304322838783,0.0047977556705474855,0.043159342768788335
1733705083834712600,10.660712646484376,-0.06460661994516849,0.026984745298326014,0.02559855163693428
1733705083844678700,10.6706787109375,-0.06398673448115587,0.022164485535025594,0.028753216275572775
1733705083854645500,10.6806455078125,-0.04419453103542328,0.056707975649833674,0.04017126686871052
1733705083864612600,10.690612548828126,-0.0444964365914464,0.08442775722444057,0.056474166893959045
1733705083874579500,10.700579345703124,-0.027220015358924866,0.08037439018040896,0.0546112956315279
1733705083884546600,10.710546630859374,-0.04552957903146743,0.049415188293159,0.04070668891966343
1733705083894512400,10.720512451171874,-0.01886865886002779,0.024555764585733414,-0.00042202480435371396
1733705083904479500,10.7304794921875,0.01930295862406492,0.018583119916915893,-0.040999534386396405
1733705083914446600,10.740446533203125,0.043726036740839476,0.02600274852365255,-0.0699304453164339
1733705083924413400,10.750413330078125,0.06804243961274624,0.037161855919659134,-0.05873334399759769
1733705083934380500,10.760380615234375,0.09377572354525326,0.04257745122760534,-0.04341244074702263
1733705083944346400,10.770346435546875,0.10968290225118398,0.040459143899381156,-0.015269465324282645
1733705083954313500,10.7803134765625,0.12473434091061353,0.018852584508061408,-0.006335048240423202
1733705083964280600,10.790280517578125,0.12827215964794159,-0.015357435868680476,-0.05073883811235427
1733705083974247400,10.800247314453125,0.1488981835693121,-0.04973316820114851,-0.09567395838201045
1733705083984214500,10.810214599609376,0.16777122634351252,-0.05725888753086328,-0.11458382603526114
1733705083994180400,10.820180419921876,0.17679536753743885,-0.04871054715514183,-0.1313613578349352
1733705084004147500,10.8301474609375,0.17167290995717047,-0.038360125793516636,-0.12700550071299074
1733705084014114600,10.840114501953124,0.1604673330709338,-0.038998715957999225,-0.10880641167759894
1733705084024081400,10.850081298828124,0.13368600139021872,-0.05075257437676191,-0.09885025033056735
1733705084034048500,10.860048583984375,0.13079612516760825,-0.03828618377447128,-0.055929392492771145
1733705084044014300,10.870014404296874,0.1118082238420844,-0.00724661012738943,-0.044564533391594885
1733705084053981400,10.8799814453125,0.08268208260089159,-0.01007218894213438,-0.03499240292608738
1733705084063948300,10.8899482421875,0.055148763509094714,-0.00006692775636911391,-0.025910686326026916
1733705084073915400,10.899915283203125,0.018744155697524547,0.005995441022515297,-0.03670096040964126
1733705084083882500,10.909882568359375,0.004429214619100094,0.014843641127645968,0.008080430603027343
1733705084093848600,10.9198486328125,-0.0294034968778491,0.028726620529592035,0.022471944049000738
1733705084103815700,10.929815673828125,-0.038681612832844256,0.024136077868938444,0.029797172370553016
1733705084113782500,10.939782470703125,-0.03667670275121927,0.011990297523140906,0.045101124486327165
1733705084123749400,10.949749267578126,-0.04755699320584535,0.017693477600812912,0.0389870255202055
1733705084133716500,10.959716552734376,-0.060685939370095726,0.040537177571654315,0.050500937703251834
1733705084143682600,10.9696826171875,-0.07632920644283295,0.06878770502209663,0.05253799648880958
1733705084153649700,10.979649658203124,-0.07146949145197867,0.07389291920661926,0.06120177993774414
1733705084163616500,10.989616455078124,-0.06186141289025545,0.04719575867801904,0.06096504857242107
1733705084173583600,10.99958349609375,-0.03629091830402612,0.023130407957732677,0.060820671665668485
1733705084183549400,11.009549560546875,-0.009831950445473194,-0.005303659366071224,0.07468611541092396
1733705084193516500,11.0195166015625,0.03220686386078596,-0.008685410758852959,0.03881985225975513
1733705084203483600,11.029483642578125,0.04541647404581308,0.0022562544941902157,0.02136076793670654
1733705084213450500,11.039450439453125,0.06815554459840059,-0.00855681594312191,0.01964285810291767
1733705084223417600,11.04941748046875,0.06351034914106131,-0.02152823345810175,-0.02084112797677517
1733705084233383400,11.059383544921875,0.08280307863205671,-0.01851268502920866,-0.07721183449625968
1733705084243350500,11.0693505859375,0.08827303447574376,-0.028670506428182124,-0.10346037447452544
1733705084253317600,11.079317626953125,0.08394815701395272,-0.010925590901076794,-0.08669102598130703
1733705084263284500,11.089284423828126,0.07338087803125382,0.010234393766522408,-0.054603112325072284
1733705084273251600,11.09925146484375,0.06622837592810392,-0.011009469792246818,-0.013590133935213088
1733705084283217400,11.109217529296876,0.06500730970054865,-0.018891162952780722,0.020827683973312378
1733705084293184500,11.1191845703125,0.02678659237772226,-0.034249475604295726,0.037025954580307004
1733705084303151600,11.129151611328124,0.0008858429238200187,-0.043783319886028765,0.05153554144799709
1733705084313118500,11.139118408203124,-0.015839666427671907,-0.050660804440081114,0.06499766508936881
1733705084323085600,11.14908544921875,-0.012566051584482192,-0.06326455768644809,0.038860184270143504
1733705084333051400,11.159051513671875,-0.028412147752940653,-0.046429742741584776,0.0180512049973011
1733705084343018500,11.1690185546875,-0.03370733155161142,-0.0432043509542942,0.006814940711855888
1733705084352985600,11.178985595703125,-0.04227642245441675,-0.03191021900177002,-0.0009030863195657729
1733705084362952400,11.188952392578125,-0.036247663684189316,0.0077507602572441095,0.011227496457099913
1733705084372919600,11.19891943359375,-0.030836744551360606,0.03963409125208855,0.043514147555828095
1733705084382885400,11.208885498046875,-0.04576134196072817,0.0604015694707632,0.07060965975224971
1733705084392852500,11.2188525390625,-0.04845949500352144,0.06830401315838099,0.08409282618165016
1733705084402819300,11.2288193359375,-0.06312544147670268,0.06445990495085716,0.07746493247449397
1733705084412786400,11.238786376953126,-0.069268182015419,0.0663753831833601,0.05799158571958542
1733705084422753500,11.24875341796875,-0.037410277722775935,0.061952013783156866,0.03090484135150909
1733705084432719400,11.25871923828125,-0.035083880601823325,0.07161708322912454,0.004556348130106926
1733705084442686500,11.2686865234375,-0.027272330068051815,0.054668578776717186,0.0013040683358907699
1733705084452653300,11.2786533203125,-0.019120587794482707,0.045590077047049996,0.011789806514978409
1733705084462620400,11.288620361328125,0.028102643412351608,0.00012567220628261565,-0.010270049601793289
1733705084472587500,11.29858740234375,0.0672530428007245,0.0011503390789031982,0.0020791443616151807
1733705084482553600,11.3085537109375,0.09428016593605279,0.003386427567899227,-0.02430091304183006
1733705084492520400,11.3185205078125,0.1318786597073078,0.002675356689095497,-0.030601474490761754
1733705084502487300,11.3284873046875,0.1480389363914728,-0.016159107640385625,-0.06955518226325512
1733705084512454400,11.338454345703125,0.15011106649041175,-0.019297697927057742,-0.1045475851893425
1733705084522421500,11.34842138671875,0.16911328860223293,-0.021974223659932613,-0.12251637260019778
1733705084532387600,11.3583876953125,0.18718845899701117,-0.027610768242180346,-0.15595511634349823
1733705084542354700,11.368354736328126,0.1858782531812787,-0.013783026158809662,-0.14715280120670796
1733705084552321500,11.378321533203126,0.177112178401649,-0.019979542711377144,-0.13656418717503546
1733705084562288600,11.38828857421875,0.17087942149192092,-0.013543664444983004,-0.107409404361248
1733705084572255500,11.39825537109375,0.15605331602096556,-0.03152852620780468,-0.0718611211180687
1733705084582221600,11.4082216796875,0.12872370280772447,-0.03234218067824841,-0.04103402117788792
1733705084592188700,11.418188720703125,0.08505582599490881,-0.01179974338710308,-0.04765080896914005
1733705084602155500,11.428155517578125,0.0821630271628499,-0.02212386126369238,-0.041269583499431606
1733705084612122600,11.43812255859375,0.057815060108900064,-0.014028233091533183,-0.0224082311630249
1733705084622088400,11.44808837890625,0.03719926532059908,0.002283434762060642,0.006114098966121673
1733705084632055600,11.4580556640625,0.01075491050928831,0.031161446461081502,0.030980244675278663
1733705084642022700,11.468022705078125,-0.013454817117750643,0.037984570479393,0.048102059867978095
1733705084651989500,11.477989501953125,-0.03305266703516245,0.019234861823916434,0.039375732576847074
1733705084661956600,11.48795654296875,-0.05409837767332792,0.023852877013385294,0.04241875353455543
1733705084671922400,11.49792236328125,-0.04908727151304483,0.02896072154641151,0.05312018029093742
1733705084681889500,11.5078896484375,-0.06401946770697832,0.04452420138120651,0.0528378562182188
1733705084691856600,11.517856689453126,-0.04282470398694276,0.05076747968494892,0.055853989169001576
1733705084701823500,11.527823486328124,-0.03259410961270332,0.04253507339060306,0.0703530546426773
1733705084711790600,11.53779052734375,-0.03038344782590866,0.030951310841739178,0.07055705278217791
1733705084721756400,11.54775634765625,-0.02985182516723871,0.013918635237216948,0.047513446325063706
1733705084731723500,11.5577236328125,-0.014613339503109455,0.020081249520182608,0.028795886373519895
1733705084741690400,11.5676904296875,0.0033431729480624195,0.039378362925350664,0.015673369950056075
1733705084751657500,11.577657470703125,0.0024187515795230864,0.029491467422246932,0.01859013417959213
1733705084761624600,11.58762451171875,0.02626987502723932,0.023402502897381782,0.015887304961681364
1733705084771590400,11.59759033203125,0.03241962982863188,0.010989888308942318,0.002523380997776985
1733705084781557500,11.6075576171875,0.034409050080180165,-0.006610358050465583,0.011118775385618208
1733705084791524400,11.6175244140625,0.041002749256789685,-0.02958908257782459,-0.002542085698246956
1733705084801491500,11.627491455078125,0.05035772984027862,-0.03558423133939504,-0.017395371437072753
1733705084811458600,11.63745849609375,0.0424725295484066,-0.05056581963300705,-0.015085340929031372
1733705084821424400,11.64742431640625,0.05664104789346456,-0.04561082757413387,-0.003226560831069946
1733705084831391500,11.6573916015625,0.05259031119793653,-0.0500821277692914,-0.0019195698857307434
1733705084841358300,11.6673583984375,0.031677579289674754,-0.0482175029411912,0.010511457142233848
1733705084851325400,11.677325439453124,0.009736673377454281,-0.03815320504456758,0.014874913048744201
1733705084861292000,11.6872919921875,0.010607610993087291,-0.0427466703146696,-0.0021072014123201368
1733705084871258000,11.697258056640624,-0.01294043785482645,-0.02973638209402561,-0.008536942198872566
1733705084881225200,11.70722509765625,-0.023998130702972412,-0.016299100632965562,0.006228665256500244
1733705084891192000,11.717192138671875,-0.03114244949966669,-0.002597323016822338,0.019676760372519492
1733705084901159200,11.7271591796875,-0.056817865765094754,0.001414250712096691,0.02662029590010643
1733705084911126000,11.7371259765625,-0.051153556393086906,0.021130466312170026,0.03765899178683758
1733705084921092000,11.747092041015625,-0.055525780127942556,0.05038023393303156,0.07201894202828407
1733705084931059200,11.75705908203125,-0.0639046091556549,0.06538198823183775,0.10286766927838326
1733705084941026000,11.767026123046875,-0.06551321339607238,0.06966331881284714,0.12124153035879134
1733705084950993200,11.7769931640625,-0.06687135000675916,0.06839665987789631,0.0950619639635086
1733705084960960000,11.7869599609375,-0.05991553951948881,0.0794052528873086,0.05170329923033714
1733705084970926000,11.796926025390626,-0.026981238166987893,0.082914430052042,0.024043723410367965
1733705084980893000,11.806892822265626,-0.008856675672531128,0.07891951519697904,-0.010517302361130713
1733705084990860000,11.816860107421874,0.028773966802656648,0.060391924859583376,-0.03496902205049991
1733705085000827100,11.8268271484375,0.06860562645345926,0.00365033920109272,-0.050796705779433245
1733705085010793000,11.83679296875,0.10142945316880941,-0.025588614764809607,-0.05222878440916538
1733705085020760000,11.846760009765624,0.13187895196825264,-0.04164543107450008,-0.04317629390358925
1733705085030727000,11.856726806640625,0.14842793570905924,-0.019142799626290796,-0.04828150808811187
1733705085040694000,11.866694091796875,0.16803835284709928,-0.02955459578633308,-0.07936229052841663
1733705085050661000,11.8766611328125,0.1673813502430916,-0.01857581339329481,-0.10599193877875804
1733705085060627000,11.886626953125,0.17678250805586576,-0.015202829828858375,-0.11272446190416813
1733705085070594000,11.896593994140625,0.1803080518335104,-0.008377075462043285,-0.11783961296081542
1733705085080561000,11.906560791015625,0.17583002963662148,-0.041077860319614405,-0.11729951473474502
1733705085090528000,11.916528076171875,0.16087006865292786,-0.06252835236638785,-0.10073182629346847
1733705085100495000,11.9264951171875,0.13106003680080175,-0.07264525723308324,-0.06492109272181987
1733705085110461000,11.9364609375,0.08238368417620659,-0.07138707386553288,-0.05524374831616878
1733705085120428000,11.946427978515626,0.06684241617321968,-0.031189503511786457,-0.026315759995579717
1733705085130395000,11.956394775390624,0.03593874386548996,0.003817512461543083,0.025323826348781584
1733705085140362000,11.966362060546874,0.005601765529811382,0.027535364918410778,0.06678279494047165
1733705085150329000,11.9763291015625,-0.004895078565180302,0.020182956328988075,0.06592413228452206
1733705085160295000,11.986294921875,-0.026703590269386766,0.016382687263190747,0.05007832837700844
1733705085170262000,11.996261962890625,-0.05996756196767091,0.04603460594415664,0.016210545566678045
1733705085180228900,12.006228759765625,-0.08295067040920256,0.06288344941437245,-0.015627192720770833
1733705085190196000,12.016196044921875,-0.043024318212270735,0.08641454712748527,-0.01329027420580387
1733705085200162800,12.026162841796875,-0.012099018594622611,0.074531217110157,0.02149286988377571
1733705085210129000,12.03612890625,-0.017450316494703293,0.03850917887538671,0.051233928152918815
1733705085220096000,12.046095947265625,-0.019852993722259998,0.029288638326525687,0.06241700094640255
