time,seconds_elapsed,z,y,x
1733704725534400300,0.026400146484375,-0.012620996642112732,0.2909729508593678,-0.014852116695046423
1733704725544367400,0.036367431640625,0.07791442980766296,0.08370002747178078,0.17398177142143248
1733704725554334200,0.046334228515625,0.14898966124504803,-0.13494184667021036,0.2430664135634899
1733704725564301300,0.05630126953125,0.14583236625790594,-0.002942190931737423,0.06529343316555022
1733704725574267100,0.06626708984375,0.0689164459683001,0.1373380941569805,-0.016549568262696265
1733704725584234200,0.076234130859375,0.005928074874728918,-0.004510463161766529,0.1293552787095308
1733704725594201300,0.086201416015625,-0.039789574074745176,0.08068973973989486,0.02327566164731979
1733704725604168200,0.096168212890625,-0.0872539205610752,-0.027501462648808955,-0.00409691392481327
1733704725614135300,0.10613525390625,-0.06931143663525581,0.045180911724269385,0.09178162711858749
1733704725624101000,0.11610107421875,-0.0594192804351449,0.2533048989832401,0.0018850830942392348
1733704725634068200,0.126068115234375,-0.058748103175312275,0.11486527332514523,0.09525953236222266
1733704725644035300,0.136035400390625,0.09525587910041212,-0.09903758959621191,0.28374679899811744
1733704725654002200,0.146002197265625,0.210653359606117,-0.07366466340869665,0.32770518319010733
1733704725663969300,0.15596923828125,0.19256956751346588,-0.0023719898283481597,0.25572949578166004
1733704725673935000,0.16593505859375,0.09178381907567382,0.052449441422522065,0.11299275745153427
1733704725683902200,0.175902099609375,-0.010360212103277444,0.03713379886895418,-0.03493102812767029
1733704725693869300,0.185869384765625,-0.09582315759435296,0.005619885708391666,-0.09787409877479075
1733704725703836200,0.195836181640625,-0.1782896977484226,0.01659282288253307,-0.07566285148859024
1733704725713803300,0.20580322265625,-0.22069427662715316,0.01162497134208679,-0.0047393034815788266
1733704725723769000,0.21576904296875,-0.20729586587175725,0.03321457959860563,0.11788929732143878
1733704725733736200,0.225736083984375,-0.14379939912557602,0.04981324770003557,0.3020703911960125
1733704725743703000,0.235703125,-0.09954510072693228,0.009174363319575786,0.4306114309132099
1733704725753670100,0.245670166015625,-0.03107318365573883,-0.027630057464540003,0.528496051082015
1733704725763636200,0.25563623046875,0.05555310652628541,-0.12113777772337198,0.48904491518139837
1733704725773603300,0.265603271484375,0.13177695289850233,-0.15640490593761205,0.4118845186114311
1733704725783570200,0.275570068359375,0.09338540905341505,-0.1498576762512326,0.3513812423318624
1733704725793537000,0.285537109375,0.007612520830333232,-0.11586626706123351,0.2136959421724081
1733704725803504000,0.295504150390625,-0.07247837623357772,-0.009903846637904643,0.08376257131397724
1733704725813470200,0.30547021484375,-0.18371522992849348,0.094110070066154,-0.04356792356967926
1733704725823437300,0.315437255859375,-0.2890717934131622,0.20976853959560393,-0.19068857607245443
1733704725833404400,0.325404296875,-0.3449136537529528,0.223847333830595,-0.27803835822343825
1733704725843371300,0.335371337890625,-0.31764322338104245,0.19557810167968273,-0.2817570864856243
1733704725853338400,0.34533837890625,-0.20111644658446312,0.08700959041118621,-0.2670078456431627
1733704725863304200,0.35530419921875,0.019003098894655703,-0.044752164918184276,-0.1357008483439684
1733704725873271300,0.365271240234375,0.25055165475234387,-0.1365171331629157,0.06511456946730614
1733704725883238400,0.37523828125,0.3790272280178964,-0.17927374034970997,0.10971709678173064
1733704725893205200,0.385205322265625,0.31401085822805763,-0.12696546096354722,0.10811667584776878
1733704725903172400,0.39517236328125,0.05436053574085235,0.03515665357708931,0.13612521123588084
1733704725913138200,0.40513818359375,-0.24820757584422826,0.16833265961855648,0.0961819079041481
1733704725923105300,0.415105224609375,-0.49196051036715505,0.26286650805473327,0.0879728824853897
1733704725933072400,0.425072265625,-0.5830743212267756,0.33995734651982784,0.15874211671352387
1733704725943039200,0.435039306640625,-0.3192375068351626,0.3078226711124182,0.12520751138031483
1733704725953005300,0.44500537109375,0.11285481028556824,0.053846740999817844,0.14955869330465793
1733704725962972200,0.45497216796875,0.4179109392940998,-0.35796821950674057,0.326258491513133
1733704725972939300,0.464939208984375,0.5940066341295838,-0.6897521964430808,0.40964170812070366
1733704725982906400,0.47490625,0.5950473753541707,-0.7186883680701255,0.33540625908672805
1733704725992873200,0.484873291015625,0.1368479725524783,-0.5281356933370233,0.18741992966532706
1733704726002839300,0.49483935546875,-0.364013637150824,-0.302649360127747,-0.02459726563990116
1733704726012806100,0.50480615234375,-0.8661027428224682,0.033495442366600035,0.002160977426171303
1733704726022773200,0.514773193359375,-1.052267996251583,0.3149769267812371,0.08117489290833473
1733704726032740400,0.524740234375,-1.005581063878536,0.27150018862634895,-0.0461409889280796
1733704726042707200,0.534707275390625,-0.5585819772660732,0.35530163064599035,-0.0674035571873188
1733704726052673300,0.54467333984375,0.02630962251573801,0.34670652851909395,0.050938160076737404
1733704726062640000,0.55464013671875,0.2233449372664094,0.1400669345989823,0.27216917392909523
1733704726072607200,0.564607177734375,0.5134592254698276,-0.03385258524119854,0.4532674993574619
1733704726082574000,0.574573974609375,0.7970879510462283,-0.13290098849236964,0.46811727796494956
1733704726092541200,0.584541259765625,0.8240718195617198,-0.1704889608696103,0.3528630053222179
1733704726102507300,0.59450732421875,0.505963024495542,0.1484972015529871,0.25642624587416646
1733704726112474000,0.60447412109375,0.057713061039149756,0.2545236271232366,-0.2127805808931589
1733704726122441200,0.614441162109375,-0.3071498864173889,0.12456512182354926,-0.6271370425760746
1733704726132408000,0.624407958984375,-0.4700830250799656,0.034275779089331625,-0.7482832958668469
1733704726142374400,0.63437451171875,-0.4496083923280239,-0.11970599135458469,-0.7862731270432471
1733704726152341200,0.64434130859375,-0.08233955277353525,-0.2460807929486036,-0.6940683060765266
1733704726162308000,0.65430810546875,0.045752574132382866,-0.359595528447628,-0.38766134698092936
1733704726172275200,0.664275146484375,0.05081862535029649,-0.4762526536256075,-0.06353752940893173
1733704726182242000,0.674241943359375,0.06183803201466798,-0.5480079762816429,0.05572948600649833
1733704726192208400,0.68420849609375,0.16463380510061978,-0.4404804984986782,0.1584141999334097
1733704726202175200,0.69417529296875,0.16667992397546766,-0.21085165865719316,0.17447978407144546
1733704726212142300,0.704142333984375,0.1620057946845889,0.0365817179441452,-0.022385434809327125
1733704726222109400,0.714109375,0.10080752187818288,0.23690029214918612,-0.22734277473092077
1733704726232076300,0.724076171875,0.17216975356340408,0.34579321306645866,-0.45351533663868904
1733704726242042400,0.73404248046875,0.4017907023593783,0.457545615068078,-0.4322960229992866
1733704726252009200,0.74400927734375,0.3105740156471729,0.49845630212724207,-0.3570984509348869
1733704726261976300,0.753976318359375,0.36672523419708014,0.5140010772615671,-0.21566753450632095
1733704726271943400,0.763943359375,0.5509051590278744,0.5031973591744899,-0.11469722328186034
1733704726281910300,0.77391015625,0.7123708554863929,0.43426469272375107,-0.1073491986066103
1733704726291876400,0.78387646484375,1.0298071581184864,0.29509646053016186,-0.07183306406736374
1733704726301843200,0.79384326171875,1.1603501853078604,0.08820376863181591,-0.331413390058279
1733704726311810300,0.803810302734375,0.9704270406499504,0.024791911429166792,-0.8777046255499124
1733704726321777400,0.81377734375,0.6871589650794864,0.09690729956924915,-1.313354050630331
1733704726331744300,0.823744140625,0.25965368348807094,0.08850421288311482,-1.506525675690174
1733704726341710300,0.83371044921875,0.048935880343616005,-0.009440613040328026,-1.3305582834094762
1733704726351677200,0.84367724609375,0.022355331932008265,-0.08806406790018081,-0.9533680615603923
1733704726361644300,0.853644287109375,-0.05724427448362112,-0.09695581488609313,-0.4811860183745622
1733704726371611400,0.863611328125,-0.1773404341995716,-0.0431172571927309,-0.03340893312692642
1733704726381577200,0.8735771484375,-0.20981062517166135,0.01270166066288948,0.22071838815510272
1733704726391544300,0.88354443359375,-0.18634762425869703,0.0522147558838129,0.38242929154634475
1733704726401511200,0.89351123046875,-0.14627981776446103,0.10782675299048423,0.5145248088747263
1733704726411478300,0.903478271484375,-0.12017097851783036,0.13058160563409327,0.5597820007055998
1733704726421445000,0.913445068359375,-0.09373422249108553,0.1478518893867731,0.597674801248312
1733704726431411200,0.9234111328125,-0.10226415042728185,0.15900807417333124,0.6421487337470054
1733704726441378300,0.93337841796875,-0.13590455422252415,0.14713117389678954,0.6952776818662881
1733704726451345200,0.94334521484375,-0.20110387936383484,0.11815700834691524,0.7127391042768955
1733704726461312300,0.953312255859375,-0.2968178774952888,0.11001344937980174,0.6116945587724447
1733704726471279000,0.963279052734375,-0.3421674237847328,0.117465518951416,0.4570896879941225
1733704726481245200,0.9732451171875,-0.34128391894847154,0.14701777665019033,0.27090719116926193
1733704726491212000,0.9832119140625,-0.2369534836411476,0.16308219174444674,0.14689444253146647
1733704726501179100,0.99317919921875,-0.12271803265213965,0.2075122851014137,0.0817512314915657
1733704726511146200,1.003146240234375,-0.06595598872750998,0.24563129561543462,0.07910159376561642
1733704726521113000,1.013113037109375,-0.08049450942873955,0.19977730693519113,0.09423252740204334
1733704726531079200,1.0230791015625,-0.13594751658141613,0.04233341333866119,0.016302900025248528
1733704726541046000,1.0330458984375,-0.1296872871428728,-0.13397300163805484,-0.11436872197985648
1733704726551013000,1.04301318359375,-0.05866495493650436,-0.2571177352696657,-0.2387754383713007
1733704726560980000,1.05297998046875,0.061519759845733636,-0.2675087809026241,-0.18401742774546145
1733704726570946300,1.0629462890625,0.2731172684341669,-0.24911913773119448,-0.030570494830608367
1733704726580913200,1.0729130859375,0.5194190106570721,-0.10133096123039721,0.13423486744463442
1733704726590880300,1.08288037109375,0.4961544549256563,0.042346857342123984,0.2024719528466463
1733704726600847000,1.09284716796875,0.4068807189747691,0.13118424770236015,0.13216858256459235
1733704726610814200,1.102814208984375,0.31762568772435185,0.14587094470262527,-0.04433130915760994
1733704726620780300,1.1127802734375,0.22879648067057132,0.07628244469165801,-0.31230186235308643
1733704726630747100,1.1227470703125,0.17553776869177817,-0.059492637932300564,-0.5644102450281381
1733704726640714200,1.13271435546875,0.11054770238697528,-0.1845738925844431,-0.7626566891342401
1733704726650681000,1.14268115234375,0.0625718992471695,-0.26671733826398847,-0.8197282373994589
1733704726660648200,1.152648193359375,0.03773907128572464,-0.32162089484035966,-0.7985755592554807
1733704726670614000,1.162614013671875,0.07208528526276349,-0.2517529933661222,-0.5255260953605174
1733704726680581000,1.1725810546875,0.18926234266161918,-0.14110533773601056,-0.2474111647695303
1733704726690548200,1.18254833984375,0.3056827364742756,-0.013187398353219032,0.0633294396162033
1733704726700515000,1.19251513671875,0.3069920655071735,0.05675006122589111,0.3020399960577488
1733704726710482200,1.202482177734375,0.3465656587436795,0.1414741710484028,0.43352410348951814
1733704726720448000,1.212447998046875,0.32505028476715087,0.23014088101685046,0.375130951231718
1733704726730415000,1.2224150390625,0.21193390093594788,0.27335867597460745,0.23021043912172315
1733704726740382200,1.23238232421875,0.11674772607088088,0.2590951728224754,0.07072714865207672
1733704726750349000,1.24234912109375,0.0019546411991119383,0.21757073777914046,-0.0547287845313549
1733704726760315100,1.252315185546875,-0.0026803251251578328,0.18674363783895967,-0.09661503862440586
1733704726770282000,1.262281982421875,0.02830810285657644,0.1603431221693754,-0.1163590190142393
1733704726780249000,1.2722490234375,0.12198767255097627,0.13511515741050242,-0.12286240955889224
1733704726790216200,1.28221630859375,0.24777386060208081,0.08584113115370273,-0.05945639757514
1733704726800183000,1.29218310546875,0.2712488442137837,0.061355509194731706,-0.0368909300237894
1733704726810149000,1.302149169921875,0.2629787362575531,0.0982166286021471,-0.12980126891136168
1733704726820116000,1.312115966796875,0.18910949018746614,0.10822364335358142,-0.24593524699807165
1733704726830083000,1.3220830078125,0.08711509661227464,0.05459317545294761,-0.30239830797612666
1733704726840050200,1.33205029296875,0.007256254738569259,-0.02446399464905262,-0.30280338164567944
1733704726850017000,1.34201708984375,-0.049551966415345663,-0.05023498024344444,-0.20637188289463518
1733704726859983000,1.351983154296875,-0.01381225225329399,-0.027330489996075628,-0.05280804560184479
1733704726869950000,1.361949951171875,0.06379471904039383,0.01461480080783367,0.09113105425536631
1733704726879917000,1.3719169921875,0.1549862713113427,0.011529694274067878,0.22466741804182527
1733704726889884200,1.38188427734375,0.2929424973666668,0.003422375664114952,0.2681184372335672
1733704726899851000,1.39185107421875,0.4571884721934795,-0.08674187938570976,0.2201011330395937
1733704726909817300,1.4018173828125,0.48551060357540843,-0.157328158262372,0.060735331469774244
1733704726919784200,1.4117841796875,0.4491393135115504,-0.15050912589728832,-0.168068747985363
1733704726929751000,1.4217509765625,0.3476324111923575,-0.08581833480000495,-0.3629530221819877
1733704726939718000,1.4317177734375,0.07278612700849771,0.06193477038741112,-0.3297767287671566
1733704726949685000,1.44168505859375,-0.12466361376196146,0.0785749395430088,-0.2680319279938936
1733704726959651300,1.4516513671875,-0.2027534001365304,0.10756138005256652,-0.15770225227177143
1733704726969618200,1.4616181640625,-0.09200754482895135,0.09722527947723865,-0.006138064363598823
1733704726979585300,1.471585205078125,0.11172580625563859,-0.008017302238941192,0.12381167310774326
1733704726989552000,1.48155224609375,0.1703261715233326,-0.06821019739508628,0.18476386219859123
1733704726999518200,1.491518310546875,0.20850129613876342,-0.05293196424245834,0.14842998153567313
1733704727009485000,1.501485107421875,0.1308443482235074,-0.0019417817175388335,0.029237200400233268
1733704727019452200,1.5114521484375,0.04462357010245323,0.0027127660900354384,-0.10826572892963886
1733704727029419300,1.521419189453125,-0.19801058952361345,0.10615268229842185,0.08675883052051067
1733704727039386000,1.53138623046875,-0.2940314616471529,0.07792378215789794,0.22487726140022277
1733704727049352200,1.541352294921875,-0.2148106254160404,0.0706236882776022,0.2778969039261341
1733704727059319000,1.551319091796875,-0.08744447469711303,0.0829576846718788,0.31163492287695405
1733704727069286100,1.5612861328125,0.08581219732016325,0.06890519392192364,0.27676176241636274
1733704727079253200,1.571253173828125,0.2178735201179981,0.031869302469491954,0.1854436611562967
1733704727089220000,1.58122021484375,0.2819581620156765,-0.019067104041576386,0.05229249729514122
1733704727099186200,1.591186279296875,0.33987229858487844,-0.04876315412521362,-0.05453764587342739
1733704727109153000,1.601153076171875,0.4161395457074046,-0.06577215659320354,-0.1988642837435007
1733704727119120100,1.6111201171875,0.3743205116316676,-0.03725391811728477,-0.36234102776348587
1733704727129087200,1.621087158203125,0.4531175694927573,-0.07955401370823383,-0.5262088169276714
1733704727139054000,1.63105419921875,0.3230874602615833,-0.04757774373292923,-0.4820452655524015
1733704727149020200,1.641020263671875,0.2724675723537803,-0.09533142855465411,-0.4043383410155773
1733704727158987000,1.650987060546875,0.29910540391057727,-0.1455997265458107,-0.4256131842344999
1733704727168954000,1.6609541015625,0.2666425194621086,-0.1959837598711252,-0.3924707930892706
1733704727178921200,1.670921142578125,0.2720715587735176,-0.14972002134621143,-0.3440267879158258
1733704727188888000,1.68088818359375,0.29777327852398155,-0.030021628776192664,-0.314059519675374
1733704727198854100,1.690854248046875,0.2820665908262133,0.060113984701037404,-0.40278468183279037
1733704727208821000,1.700821044921875,0.3506067508280277,0.02878010428249836,-0.5700064575999975
1733704727218788000,1.7107880859375,0.4486041837215423,-0.05448270081579685,-0.7337550042986869
1733704727228755000,1.7207548828125,0.4898249596431851,-0.09386953930854797,-0.8196423126816749
1733704727238722000,1.73072216796875,0.45797523865699763,-0.17437164752185344,-0.8190010921686888
1733704727248688000,1.740688232421875,0.5045031810760497,-0.35911797406375406,-0.7707575780034065
1733704727258655000,1.750655029296875,0.5743206675373017,-0.5298498037785291,-0.7511947993993758
1733704727268622000,1.7606220703125,0.5903744151070713,-0.5747890157014132,-0.7928045746386051
1733704727278589000,1.7705888671875,0.5477367581248284,-0.5508025754362345,-0.7783902648389339
1733704727288556000,1.78055615234375,0.5396117577277124,-0.43169396545290945,-0.8475918113589286
1733704727298522000,1.790522216796875,0.5049462486684322,-0.2723983065098524,-0.8912859916567802
1733704727308489000,1.800489013671875,0.4610685284972191,-0.15482289744317532,-0.9865577989786862
1733704727318456000,1.8104560546875,0.5199205304384231,-0.1297878249078989,-1.149348898822069
1733704727328423000,1.8204228515625,0.5487127635501324,-0.11271277146637439,-1.2157891639351843
1733704727338389200,1.83038916015625,0.5002911163389683,-0.08719488385021686,-1.2014303837150335
1733704727348356000,1.840356201171875,0.49772046213336285,-0.06294423969089985,-1.1367805091500283
1733704727358323200,1.8503232421875,0.48682840817570683,-0.07467617853879928,-1.0573983448773623
1733704727368290300,1.860290283203125,0.5982441255688667,-0.14389409167170525,-1.0748673660725354
1733704727378257200,1.870257080078125,0.6648176616728305,-0.20017478182017803,-1.2174486215800047
1733704727388223200,1.88022314453125,0.6210884100615978,-0.27446634495556355,-1.356571845588088
1733704727398190000,1.890190185546875,0.6972621336817741,-0.2945341504722834,-1.3253724052041769
1733704727408157200,1.9001572265625,0.6764245128363371,-0.3638581543281674,-1.106176112049818
1733704727418124300,1.910124267578125,0.5398042115598917,-0.46943625160902736,-0.9055769673377275
1733704727428091100,1.920091064453125,0.5839356872964651,-0.5316241199746727,-0.7059802776664496
1733704727438057200,1.93005712890625,0.9341057272076606,-0.6717085902303457,-0.4861152914702892
1733704727448024000,1.940024169921875,1.3278624684542417,-0.7355223062321543,0.16663374674618242
1733704727457991200,1.9499912109375,1.6189543695181607,-0.5264224596783519,0.9047183046817779
1733704727467958300,1.959958251953125,1.5965356169611216,-0.06031272214353084,1.3306547295212745
1733704727477925000,1.969925048828125,0.9730646956771611,0.013547171576321125,0.9032096536844968
1733704727487891200,1.97989111328125,0.05067863235771656,-0.22537878118157387,0.23133622828125952
1733704727497858000,1.989858154296875,-0.7874784842450171,-0.4424342629149556,-0.3419757006049156
1733704727507825200,1.9998251953125,-1.1044272225558758,-0.45741351312100886,-0.48900633673667904
1733704727517792300,2.009792236328125,-1.3029986608326434,-0.34688451543450355,-0.6507458817005157
1733704727527760000,2.019759765625,-1.34959323874712,-0.25413959624171256,-0.5962859772384166
1733704727537726000,2.029725830078125,-0.8200707672268152,-0.20753288949802517,-0.6405465592473745
1733704727547693000,2.039693115234375,0.2317634407173842,-0.2149536871485412,-0.9050064739733934
1733704727557660000,2.049659912109375,1.0705185232132672,-0.192154410841316,-0.8420517128884791
1733704727567627000,2.059626953125,1.468423616310954,-0.0182908589720726,-0.5994833119750023
1733704727577592800,2.0695927734375,1.8370048536382615,0.32073724387362595,-0.1541010129094124
1733704727587560000,2.079559814453125,1.9944557614974676,0.7724461156122386,0.5712690248817205
1733704727597526800,2.08952685546875,2.0760371893800795,1.1546297618344425,1.33452367990911
1733704727607494000,2.099493896484375,2.242752769190818,1.2959762148499487,1.9455524682492016
1733704727617461000,2.1094609375,2.1844062325537204,1.1528734196864068,2.4345780942082405
1733704727627426800,2.1194267578125,1.9897715492039918,0.7784522241592406,2.8722710078150033
1733704727637394000,2.129393798828125,1.8705051183104513,0.35253581919446586,3.5527404121279713
1733704727647360800,2.13936083984375,1.6143419072866438,0.1556875514484942,4.4916777972757815
1733704727657327900,2.149327880859375,1.1425742901206015,0.24071122873947023,5.3557198081761594
1733704727667295000,2.159294921875,0.7861369334429502,0.5887342466846108,6.159892164525389
1733704727677260800,2.1692607421875,0.49417467928528785,0.9690982762642204,6.628708530670404
1733704727687228000,2.179227783203125,0.35867709842845796,1.1732055752277373,6.662014003422856
1733704727697194800,2.18919482421875,0.49377501244321464,1.0340332513809203,6.34514176441431
1733704727707161900,2.199161865234375,0.5578496444035321,0.5006849379621446,5.966430616608262
1733704727717129000,2.20912890625,0.19029928449392317,-0.18334625048562883,5.7479269818931815
1733704727727094800,2.2190947265625,-0.6184796158026904,-0.7369960320465266,5.766700655946135
1733704727737062000,2.229061767578125,-2.0169138231515884,-1.0951087745904922,5.969256779944897
1733704727747028700,2.23902880859375,-3.5339170537143945,-1.4965812047809361,5.942453528693318
1733704727756995800,2.248995849609375,-4.701183302021026,-2.3473086838170887,4.903991354954242
1733704727766963000,2.258962890625,-6.2898191056430335,-3.788718328735232,2.3682453811228275
1733704727776929000,2.268928955078125,-6.865829187572002,-4.856448098012804,-1.616022407719493
1733704727786896000,2.278895751953125,-0.9771148478507995,-4.578265655143559,-6.292386910304427
1733704727796862700,2.28886279296875,4.38476056034565,-3.886564078198373,-12.12080489449501
1733704727806829800,2.298829833984375,2.549702018469572,-3.341070715086162,-14.988509032785892
1733704727816797000,2.308796875,0.7447523452617227,-1.9510295844860375,-10.611426751983165
1733704727826763000,2.318762939453125,0.2767335592351854,-0.5926923366606235,-5.080253346267343
1733704727836730000,2.328730224609375,-0.3664123688556254,0.03983589743450284,-1.6728981411516666
1733704727846697000,2.338697021484375,-0.07999430482164024,0.6777052002966404,0.5794324575930834
1733704727856664000,2.3486640625,0.847385036740452,1.3100989943571388,1.8675959528654813
1733704727866631000,2.358630859375,1.4962192396007477,1.8787452695198357,2.5706372544705864
1733704727876597000,2.368596923828125,1.3519161287367343,2.293270365767926,2.7464994328111407
1733704727886564000,2.378564208984375,0.6563947012424468,2.200967345123738,2.1087351977586746
1733704727896531000,2.388531005859375,0.3001660188794136,1.484440100610256,0.9852046308040618
1733704727906498000,2.398498046875,0.4241176849797368,0.46079833325371145,-0.2202536932528019
1733704727916465000,2.40846484375,0.5720338717743754,-0.45293505253270266,-1.3136433889657257
1733704727926431000,2.418430908203125,0.49994142611846326,-0.9927046311706303,-2.2308277919888497
1733704727936397800,2.428397705078125,0.09499328264147043,-1.0599579662322998,-2.56309575304985
1733704727946365000,2.438364990234375,-0.15000556028932333,-0.7383220199532806,-2.150648339858651
1733704727956332000,2.44833203125,0.04258388096839189,-0.243184633115679,-1.136545531350374
1733704727966299000,2.458298828125,0.13030658808499573,0.11940189384147525,-0.01544482189118862
1733704727976265000,2.468264892578125,0.05053776258230209,0.3202148274347186,0.906667100661993
1733704727986231800,2.478231689453125,0.06481880139112473,0.32347266018688675,1.4719453606963158
1733704727996199000,2.488198974609375,0.07419453250169754,0.16866905196607113,1.6447703632980584
1733704728006166000,2.498166015625,0.08115618820786476,-0.008686579802632332,1.4627052386641501
1733704728016132900,2.5081328125,0.14927856118902563,-0.08335705925300717,0.9596920038849115
1733704728026099000,2.518098876953125,0.0981841876372695,-0.10301979110017419,0.3113753951579332
1733704728036065800,2.528065673828125,-0.031153847676515578,-0.05994447335302829,-0.3611111937075853
1733704728046033000,2.538032958984375,-0.04425765939950943,-0.021784546306729314,-0.9188017750918864
1733704728056000000,2.548,0.019766922874003647,-0.019928543176501987,-1.264121525427699
1733704728065966800,2.557966796875,0.14184855731874704,0.07751461683511733,-1.1866261978149413
1733704728075933000,2.567932861328125,0.11808423537164926,0.15514613804817198,-0.8144260393381119
1733704728085899800,2.577899658203125,0.052057373365014786,0.18969430433809756,-0.4438385767549276
1733704728095867000,2.587866943359375,0.01398527073264122,0.15603373453766106,-0.2883732897549868
1733704728105834000,2.597833984375,0.007534487158060073,0.13666238685250282,-0.23211422691643235
1733704728115800800,2.60780078125,0.006437924093008041,0.10005071216151118,-0.21114976482093334
1733704728125767000,2.617766845703125,-0.015170388863980769,0.09309197906479239,-0.17797464044988154
1733704728135733800,2.627733642578125,-0.10589344684034585,0.08544979374855756,-0.07382453014552592
1733704728145700900,2.637700927734375,-0.1361972535587847,0.0770079824872315,0.06225625742673874
1733704728155668000,2.64766796875,-0.1374690270602703,0.07453881589472293,0.2609831785261631
1733704728165633800,2.6576337890625,-0.10675473984479904,0.01725216357409954,0.3839513865470886
1733704728175601000,2.667600830078125,-0.09173734958544373,-0.07368512167483568,0.3896457987964153
1733704728185567700,2.677567626953125,-0.00777560243755579,-0.13525427362024783,0.3438981931000948
1733704728195534800,2.687534912109375,0.07631868504881859,-0.14797712320163844,0.2557546302229166
1733704728205501700,2.697501708984375,0.0774421361207962,-0.09963146383613347,0.14484218617677688
1733704728215468000,2.707468017578125,0.02206891620606184,-0.00629223201200366,0.14943535918593406
1733704728225435100,2.71743505859375,-0.06093100017234682,0.07392799052000046,0.1594376977622509
1733704728235402000,2.727402099609375,-0.09005202684700489,0.09447451946437359,0.13315700908005237
1733704728245368800,2.737368896484375,-0.09803761877343058,0.10734963699802756,0.10659165823757648
1733704728255335700,2.747335693359375,-0.07996843972802162,0.10693784132674336,0.06418108800947665
1733704728265302000,2.757302001953125,-0.07868541418015956,0.09186053757369518,0.0008615852653980255
1733704728275268900,2.767268798828125,-0.05842793131023645,0.08243132271021604,-0.031010639813542365
1733704728285236000,2.777236083984375,-0.06270283215045928,0.10295622434467076,-0.018042437168955802
1733704728295203000,2.787203125,-0.004038169474899768,0.03091448596268892,-0.1348860248297453
1733704728305170000,2.797169921875,0.08033727304041385,-0.004837064767628908,-0.1629629492789507
1733704728315136000,2.807135986328125,0.1171826103568077,0.007641016272455454,-0.1956044051647186
1733704728325102800,2.817102783203125,0.13254384561777113,0.007917495126277208,-0.23728549207448957
1733704728335070000,2.827070068359375,0.18434125287234782,-0.015358458781987428,-0.27327275125682354
1733704728345037000,2.837037109375,0.20966946313530205,-0.0158760529153049,-0.2731032399088144
1733704728355004000,2.84700390625,0.17664631445556878,0.0029848610296845436,-0.22052900306284426
1733704728364970000,2.856969970703125,0.16527882500588892,0.0375477864973247,-0.1757762536227703
1733704728374936800,2.866936767578125,0.1295300507545471,0.0409225236274302,-0.11625672768354416
1733704728384904000,2.876904052734375,0.11454144819825887,0.03473214455470443,-0.07973053931891917
1733704728394871000,2.88687109375,0.13425386440604925,0.04768675706535577,-0.06387129140794277
1733704728404838000,2.896837890625,0.1428966050669551,0.012478227170556784,-0.089742230245471
1733704728414804000,2.906803955078125,0.1325564128383994,-0.0012238427065312861,-0.11726385889947413
1733704728424770800,2.916770751953125,0.1150371227607131,-0.012010755789279936,-0.13419745804369448
1733704728434738000,2.926738037109375,0.10814736324697732,-0.03893295724540949,-0.11598317143917083
1733704728444705000,2.936705078125,0.08273322826623916,-0.03406520507857203,-0.033676644152402874
1733704728454672000,2.946671875,0.04352437668889761,-0.010416033943742513,0.05677402662336826
1733704728464638000,2.956637939453125,0.014075579364597796,0.023961013562977314,0.09965689053833485
1733704728474604800,2.966604736328125,-0.02850508673340082,0.031456191623955965,0.10887129360735416
1733704728484572000,2.976572021484375,-0.04524520913213491,0.052663376434147355,0.13538286843597888
1733704728494539000,2.9865390625,-0.011696867534518242,0.04505889277979731,0.11202595824599265
1733704728504505900,2.996505859375,0.007328735452890396,0.01281622695326805,0.05269757096469402
1733704728514472000,3.006471923828125,0.020472586925327777,0.013530658832937479,0.022009002712368962
1733704728524438800,3.016438720703125,0.015422902320325374,0.05574570648893713,0.016402268746495245
1733704728534405600,3.026405517578125,0.004766191488504409,0.061696723847836255,0.0017471359282732008
1733704728544372500,3.03637255859375,-0.0022027707412838934,0.052603170679509634,0.0008785364001989365
1733704728554339600,3.046339599609375,-0.001570318056643009,0.03169511494636536,-0.021252046865224836
1733704728564305700,3.0563056640625,0.0009855039060115813,-0.01046893317475915,-0.00502279659807682
1733704728574272500,3.0662724609375,-0.005285246926546096,-0.03353051367998123,0.0005249006569385528
1733704728584239600,3.076239501953125,-0.019722060818970204,-0.009748948337137698,0.027145196557044983
1733704728594206500,3.08620654296875,-0.03591653203368187,0.011089695421606302,0.061331543797254556
1733704728604173600,3.096173583984375,-0.06448679295778274,0.05681918093934655,0.09675941553115844
1733704728614139600,3.1061396484375,-0.07644523403793572,0.08292480531558394,0.10980243697762489
1733704728624106800,3.116106689453125,-0.038998423697054384,0.051584056764841076,0.12189210322201251
1733704728634073600,3.126073486328125,-0.009226385767757892,0.008933101909607648,0.0780301651418209
1733704728644040700,3.136040771484375,0.030212767434120175,-0.020947364830225704,0.04400573046505451
1733704728654007600,3.146007568359375,0.059191024637222284,0.004149813155829906,0.03082008567750454
1733704728663973600,3.1559736328125,0.07212327918559312,0.002344225038588047,0.006012392157316208
1733704728673940700,3.165940673828125,0.0762567257285118,0.008018763543665408,-0.0074193363457918165
1733704728683907600,3.175907470703125,0.05651654473096132,0.013561784623563288,-0.031174305942654607
1733704728693874700,3.185874755859375,0.04722849190384149,0.013411124106496572,-0.05178922394812107
1733704728703841800,3.195841796875,0.0556023524954915,0.018409078524261713,-0.04766308392882347
1733704728713807600,3.2058076171875,0.06005144085884094,0.027887685487419364,-0.050450084298849104
1733704728723774700,3.215774658203125,0.0810693867072463,-0.0023170447707176207,-0.07536766793429851
1733704728733741600,3.225741455078125,0.09839461551755666,-0.002644084767997265,-0.05664543180763721
1733704728743708700,3.235708740234375,0.08491232587099075,0.031723902649432416,-0.028904022923111915
1733704728753675800,3.24567578125,0.08588993873149156,0.04793853986933827,-0.016952303844690323
1733704728763641600,3.2556416015625,0.07045856084376573,0.046285804226249457,-0.018258125746250152
1733704728773608700,3.265608642578125,0.0647848991215229,0.04000993882715702,-0.03746843765079975
1733704728783575600,3.275575439453125,0.06354220558404922,0.028173662821948525,-0.050638884869217866
1733704728793542700,3.285542724609375,0.03260463100671768,0.008208148635923862,-0.055735915747284884
1733704728803509800,3.295509765625,0.04567892437428236,0.005615063402801752,-0.04967851540446281
1733704728813475600,3.3054755859375,0.06252864462733268,-0.0018580489568412303,-0.03435702763199806
1733704728823442700,3.315442626953125,0.08656184664368628,-0.02493190442174673,-0.05302314965724945
1733704728833409500,3.325409423828125,0.11265899545252323,-0.040669133388251066,-0.07339958273172378
1733704728843376600,3.335376708984375,0.08518909698575734,0.004818944589048624,0.008362754675745964
1733704728853343700,3.34534375,0.036794191651046276,0.02954991961121559,0.051496963003277774
1733704728863309600,3.3553095703125,0.0010708441019058226,0.049113428867608305,0.05619885708391666
1733704728873276700,3.365276611328125,-0.025062545064091682,0.0409650475949049,0.04320785808563232
1733704728883243500,3.375243408203125,-0.034926351952552795,0.05221110262200236,0.02769114000201225
1733704728893210600,3.385210693359375,-0.0313794731259346,0.05234671170040965,0.04117255286574364
1733704728903177500,3.395177490234375,-0.03281593566983938,0.04194017623737454,0.03270049259662628
1733704728913143600,3.4051435546875,-0.02703063026666641,0.05467822338789701,0.044082302832603455
1733704728923110700,3.415110595703125,-0.015298983679711818,0.03208163004592061,0.056557753524184226
1733704728933077500,3.425077392578125,-0.00006546645164489745,0.006520780070871114,0.03637070554196834
1733704728943044600,3.435044677734375,0.024810908390581605,-0.011740706676244736,0.03274491626024246
1733704728953011500,3.445011474609375,0.03404021676778793,-0.011272943034023045,0.007663081973791122
1733704728962977500,3.4549775390625,0.03992985932826996,0.004533551776409149,0.0007353285372257233
1733704728972944400,3.4649443359375,0.03952449339777231,0.006254676480591297,-0.013376198923587799
1733704728982911500,3.474911376953125,0.014530045133829116,0.02710676424279809,0.010635375782847404
1733704728992878600,3.484878662109375,-0.011775485728681086,0.02277121925652027,0.029315526333451268
1733704729002845400,3.494845458984375,0.0095288758456707,0.007187573416531086,0.018459785798192022
1733704729012811800,3.504811767578125,0.015872399653494358,0.006352145505696535,0.010414426508545875
1733704729022778600,3.514778564453125,0.03356178560107946,0.007170768412202596,-0.011636077257990837
1733704729032745500,3.524745361328125,0.06945552128106355,-0.02132058205679059,0.0005541267514228821
1733704729042712600,3.534712646484375,0.06915244668126105,-0.016968670457601545,0.001640168422460556
1733704729052679400,3.544679443359375,0.03389174820780754,0.01700812568515539,-0.004774374794960022
1733704729062645800,3.554645751953125,0.029935411797463892,0.00968085153698921,0.0395183559179306
1733704729072612600,3.564612548828125,0.018489888675510883,0.006481178712844848,0.07576397377550602
1733704729082579700,3.574579833984375,-0.021098317608237264,0.017996698331087826,0.09291092340946197
1733704729092546800,3.584546875,-0.044782852317392825,0.06664426325261592,0.1328290922999382
1733704729102513700,3.594513671875,-0.03628507308512926,-0.011026713187992572,0.033656185886263845
1733704729112479700,3.604479736328125,-0.052473991341888904,0.027680034086108207,0.05986965455114841
1733704729122446600,3.614446533203125,-0.06759674167186021,0.07246566288247704,0.11836860527098178
1733704729132413700,3.62441357421875,-0.060873863157629965,0.06164060974642634,0.1337087977439165
1733704729142380800,3.634380859375,-0.06838759978860616,0.0403919238820672,0.10578384898602962
1733704729152347600,3.64434765625,-0.02580810273438692,0.00453983538672328,0.11745382851362228
1733704729162313700,3.654313720703125,0.010225625938177108,-0.014188976611196995,0.11798165178000926
1733704729172280600,3.664280517578125,0.013253157065808771,-0.0447577178761363,0.09962240374684334
1733704729182247700,3.67424755859375,-0.0030640637457370755,-0.06119374276176095,0.06669219404757022
1733704729192214800,3.68421484375,-0.0074377487853169435,-0.0326769655905664,0.039382162317633626
1733704729202181600,3.694181640625,-0.03209492791891098,-0.011744506068527697,0.035728315985202784
1733704729212147700,3.704147705078125,-0.037839901311695574,0.014363018003851175,0.032872342032194135
1733704729222114600,3.714114501953125,-0.03017506577223539,0.0275496857047081,0.024069442373514174
1733704729232081700,3.72408154296875,-0.04595657227188348,0.025812194387614725,0.05198153164982795
1733704729242048500,3.734048583984375,-0.04490092573910951,0.018638649496436118,0.07689911528527736
1733704729252015600,3.744015625,0.011511866356432436,0.020834552105516196,0.08153846552371978
1733704729261981700,3.753981689453125,0.04671382037997245,0.0020189386069774627,0.03156827369630336
1733704729271948500,3.763948486328125,0.0508686019718647,-0.011619272253662346,-0.008534019589424133
1733704729281915600,3.77391552734375,0.03216711637228727,0.0009209142372012137,-0.05919336272478103
1733704729291882500,3.783882568359375,0.04766308392882347,-0.026547084533423183,-0.1204676233768463
1733704729301849600,3.793849609375,0.058792380708456035,0.006743482910841703,-0.12617314154207707
1733704729311815400,3.8038154296875,0.06607523119300604,0.01382993404045701,-0.1522960093140602
1733704729321782500,3.813782470703125,0.07658756511807441,0.03316971754357219,-0.14456979897618294
1733704729331749600,3.82374951171875,0.09996142644286155,0.06142068338543176,-0.14982348172068596
1733704729341716500,3.833716552734375,0.09313158042281866,0.06316314313858747,-0.14483341834843158
1733704729351683600,3.84368359375,0.11760814229249954,0.047299657443910834,-0.1364671565413475
1733704729361649400,3.8536494140625,0.07149024197906255,0.04270268504247069,-0.18506021479666232
1733704729371616500,3.863616455078125,0.09504355152398347,0.02167743267044425,-0.19761691403090953
1733704729381583600,3.87358349609375,0.10082301170825958,0.035262013647705315,-0.16931202604472637
1733704729391550500,3.883550537109375,0.10173954203128814,0.0381830156609416,-0.1379261231780052
1733704729401517600,3.893517578125,0.09742693952918052,0.05263122773021459,-0.10048106640279292
1733704729411483600,3.903483642578125,0.07332154905945062,0.041833939383924004,-0.05522153648436069
1733704729421450500,3.913450439453125,0.0679915862083435,0.015171704038232564,-0.025792028382420538
1733704729431417600,3.92341748046875,0.08003624426722526,0.011904665066301822,-0.025953356423974037
1733704729441384400,3.933384521484375,0.07673515689522027,0.004183277034014463,-0.03782148887217045
1733704729451351600,3.9433515625,0.07480623465925455,-0.0025000001221895216,-0.03839899649918079
1733704729461317600,3.953317626953125,0.05742021557241678,-0.006156622933596373,-0.054413142710924144
1733704729471284700,3.96328466796875,0.05632832868248224,0.01338964292705059,-0.05491349344849586
1733704729481251800,3.973251953125,0.07578677012920379,0.028892770876735446,-0.0420586880505085
1733704729491218700,3.98321875,0.05926496665626764,0.03579217500165105,-0.012748422414064407
1733704729501185500,3.993185546875,0.04677548743933439,0.02586494748815894,0.01998304984271526
1733704729511151600,4.003151611328125,0.02336070958226919,0.032159663718193766,0.0028729250878095627
1733704729521118700,4.01311865234375,0.007091419565677643,0.027760844237357377,-0.04092705367207527
1733704729531085300,4.023085205078125,0.002347439908981323,0.013882833271473645,-0.06903788039088249
1733704729541052400,4.033052490234375,0.008718728506565094,0.015715163265168666,-0.08969137684106826
1733704729551019500,4.04301953125,0.031901158912479875,0.030214228738844395,-0.06847147867977618
1733704729560985300,4.0529853515625,0.036082243989408014,0.05002016844898462,0.004414309310913086
1733704729570952400,4.062952392578125,0.02807809349298477,0.05665595320165157,0.06774082631766795
1733704729580919300,4.072919189453125,0.028038638265430925,0.04167202682048082,0.09954232424795627
1733704729590886400,4.082886474609375,0.03828881412297487,0.03783464061468839,0.10694412493705749
1733704729600853500,4.092853515625,0.033329730410873885,0.022108663694560528,0.07472937003076076
1733704729610819300,4.1028193359375,0.022250702513754366,0.030529432167857883,0.04611410092115402
1733704729620786400,4.112786376953125,0.029475977592170237,-0.0038886780016124246,-0.011433248162269592
1733704729630753300,4.122753173828125,0.016278934627771375,-0.012948767291754483,-0.06059037004113197
1733704729640720400,4.132720458984375,0.03695815004110336,-0.005078180047124624,-0.07043547222912311
1733704729650687500,4.1426875,0.05458820701688528,0.013648293863236903,-0.06288871011137961
1733704729660653300,4.1526533203125,0.06712532476782798,0.029274463670700787,-0.027538579788804054
1733704729670620400,4.162620361328125,0.04302987117022276,0.024496581744402647,0.02693652224242687
1733704729680587300,4.172587158203125,0.01679302162975073,0.03090031130686402,0.041865795826911925
1733704729690554400,4.182554443359375,0.01807312456816435,0.025483108563721178,0.02295125199854374
1733704729700521500,4.192521484375,0.04681932658106088,0.0021003332801163197,-0.030553543695807456
1733704729710487300,4.2024873046875,0.025862755531072614,-0.007536386854201555,-0.06659224080443382
1733704729720454400,4.212454345703125,0.03741261581033468,-0.009270955561846494,-0.07216624154448509
1733704729730421200,4.222421142578125,0.03809767546504736,0.0008523790456354618,-0.047562546163797376
1733704729740388400,4.232388427734375,0.03214753488898277,0.035641952876001595,0.03566577214300632
1733704729750355500,4.24235546875,0.05067454070448875,0.051196957143396137,0.09132277743518352
1733704729760321300,4.2523212890625,0.03968348335176706,0.05149404039382934,0.12972060489058493
1733704729770288400,4.262288330078125,0.001213175182044506,0.020588906781375406,0.08765373353362083
1733704729780255200,4.272255126953125,0.0186547238484025,0.007940876001864671,-0.0021866963893175124
1733704729790222300,4.282222412109375,0.04219108225852251,-0.0034799510702490806,-0.04512333631813526
1733704729800189200,4.292189208984375,0.0462543861746788,0.0008623159177601337,-0.10005787255465984
1733704729810155300,4.3021552734375,0.043346097512543195,-0.003338058381527662,-0.10291501555144786
1733704729820122400,4.312122314453125,0.04123889610022306,0.006094517482817172,-0.07884732674360274
1733704729830089200,4.322089111328125,0.03536678919643164,0.028254180712252854,-0.011508066964149475
1733704729840056300,4.332056396484375,0.04200695786327124,0.05059416894465685,0.044158290678262706
1733704729850023200,4.342023193359375,0.05381663812249898,0.042159518076479434,0.08586568107306956
1733704729859989500,4.351989501953125,0.04149725477546453,0.03979600381553173,0.08689034794569014
1733704729869956400,4.361956298828125,0.04975917942523956,0.042649931941926476,0.05372866757810116
1733704729879923500,4.37192333984375,0.054338323909044264,0.025438538769632577,-0.00495440753698349
1733704729889890600,4.381890625,0.03558949203640222,0.01414338390380144,-0.046314591929316515
1733704729899857400,4.391857421875,0.05081248787045479,-0.011768325335532426,-0.08672083659768104
1733704729909823500,4.401823486328125,0.0618327713176608,-0.008559738552570343,-0.09682371293902396
1733704729919790300,4.411790283203125,0.05051964240372181,-0.003756429924070835,-0.0710591570854187
1733704729929757400,4.42175732421875,0.008664952492713927,0.00909121508076787,-0.0348041868776083
1733704729939724500,4.431724609375,0.019369009597599504,0.01482946647182107,0.010852817925810812
1733704729949691400,4.44169140625,0.004484744198620319,0.01740662348344922,0.033789456877112385
1733704729959657500,4.451657470703125,0.018109949447214602,0.060022653155773875,0.0692073917388916
1733704729969624300,4.461624267578125,0.008327391101419925,0.04444499866515398,0.06966682594418526
1733704729979591400,4.47159130859375,0.0029255320578813553,0.013179653438180684,0.03694295247197151
1733704729989558500,4.48155859375,0.04193944558501243,0.01827478462010622,0.009648702833056449
1733704729999525400,4.491525390625,0.041348201693594454,-0.00015153729990124702,0.01670446656346321
1733704730009491500,4.501491455078125,0.04852554597705602,0.004900193131715059,0.023779519516229627
1733704730019458300,4.511458251953125,0.06231470961570739,-0.0003984977982938289,0.010825345396995544
1733704730029425400,4.52142529296875,0.048340837059915064,0.0005880290210247039,-0.009611293432116507
1733704730039392500,4.531392578125,0.04273644118160009,0.010744827506691217,-0.019763269612193105
1733704730049359400,4.541359375,0.07432312731742859,0.018125585407763718,-0.03390928386449814
1733704730059325400,4.551325439453125,0.08193973980098962,0.03592471534013748,-0.0362374345511198
1733704730069292300,4.561292236328125,0.06710691232830286,0.060319882536679505,-0.02849778020977974
1733704730079259400,4.57125927734375,0.040267420719563955,0.045508828504383564,-0.018149404674768447
1733704730089226200,4.581226318359375,0.027626842594146727,0.024146745393425224,-0.021457798570394513
1733704730099193300,4.591193359375,0.024401450806856153,-0.0018142098151147363,-0.030664602854847907
1733704730109159400,4.601159423828125,0.023053835590183733,0.009972966351360081,-0.028373277047276494
1733704730119126300,4.611126220703125,0.02762099737524986,0.014663900646567344,0.007548515683412552
1733704730129093400,4.62109326171875,0.028830957686901092,0.014285714983940124,0.0626981559753418
1733704730139060200,4.631060302734375,0.017685878816246985,0.011279665035754442,0.081681673386693
1733704730149027300,4.64102734375,-0.002757482014596462,0.022295272307842968,0.0736427438378334
1733704730158993400,4.650993408203125,0.0164282799705863,0.017436726360768078,0.03136778268814087
1733704730168960300,4.660960205078125,0.044400282740592954,0.0104220252931118,-0.03198679136931896
1733704730178927400,4.67092724609375,0.06963496950119734,0.021782938871532678,-0.0521755929172039
1733704730188894200,4.680894287109375,0.055220951962471,0.04306552700549364,-0.05817746368050575
1733704730198861300,4.690861328125,0.06630933220982552,0.03212415401339531,-0.09089140028059482
1733704730208827100,4.7008271484375,0.08995265812575817,0.023338059359043834,-0.06792144358158111
1733704730218794200,4.710794189453125,0.08611614870280027,0.03394070191606879,-0.045240240696072576
1733704730228761300,4.72076123046875,0.082679452252388,0.019268764093518256,-0.009722352591156959
1733704730238728200,4.730728271484375,0.0646776393547654,0.01263502516746521,-0.0063303720653057095
1733704730248695300,4.7406953125,0.04628741166144609,0.002446516369283199,0.028830373165011403
1733704730258661400,4.750661376953125,0.0239724117398262,0.0020928806260228157,0.029935704058408737
1733704730268628500,4.76062841796875,0.012922317676246166,-0.00580839401781559,0.04297755646109581
1733704730278595300,4.77059521484375,-0.008678688757121562,0.005826368065923452,0.03375730817317962
1733704730288562200,4.780562255859375,0.017867372862994668,0.006569149257242679,0.019122633621096608
1733704730298529300,4.790529296875,0.02993336597084999,0.0007218845337629318,0.021628478962182996
1733704730308495400,4.800495361328125,0.029545243436098097,0.023823650918900964,0.03685585871040821
1733704730318462500,4.81046240234375,0.012691431529819965,0.019153174889832734,0.015365911436080931
1733704730328429600,4.8204296875,0.021430910563468932,0.021679916888475415,0.0038958383947610854
1733704730338396400,4.830396484375,0.002177051778137684,0.009396920029073953,-0.009703063368797301
1733704730348363500,4.840363525390625,0.000016658873856067655,-0.010091624294966458,-0.025015783312916755
1733704730358329300,4.850329345703125,0.02171732628941536,0.008522475282102824,-0.026207038924098012
1733704730368296400,4.86029638671875,0.032922903175652024,0.03223258282393217,-0.00938157632946968
1733704730378263600,4.870263671875,0.03377718191742897,0.014722498966008423,-0.00023790040910243987
1733704730388230400,4.88023046875,0.034216450117528434,0.01781841915473342,0.0033399580776691433
1733704730398197500,4.890197509765625,0.05608692114204168,0.02581160986572504,0.024184593185782432
1733704730408163300,4.900163330078125,0.061142158704996105,0.040670156301558014,0.04433364724516868
1733704730418130400,4.91013037109375,0.05074468333125114,0.04541033656597137,0.04111936137378216
1733704730428097300,4.92009716796875,0.03659486968666315,0.04751856089159846,0.02875555436313152
1733704730438064400,4.930064453125,0.02980564793795347,0.020840689585357904,0.023590718945860862
1733704730448031500,4.940031494140625,0.020537468855082987,-0.0010948094993829727,-0.009849778363108635
1733704730457997300,4.949997314453125,0.01775543692111969,0.00524564556851983,-0.039219665232300756
1733704730467964400,4.95996435546875,0.010079495465755463,0.005970452711731195,-0.0553559765189886
1733704730477931300,4.96993115234375,0.02309533664435148,-0.0028616730414330956,-0.03701543318629265
1733704730487898400,4.9798984375,0.02280132213383913,0.02844385806545615,-0.003751461488008499
1733704730497865500,4.989865478515625,0.04423194043636322,0.031124913842976092,0.0414005164027214
1733704730507831300,4.999831298828125,0.04181815729290247,0.004477437674999237,0.03269230929017067
1733704730517798400,5.00979833984375,0.04542524187415838,-0.0009513093754649162,-0.027270868763327596
1733704730527765500,5.019765625,0.0718611211180687,-0.012841799785941839,-0.048538113197684286
1733704730537732600,5.029732666015625,0.09398205977231264,0.0044682314552366735,-0.06583703852295875
1733704730547699700,5.03969970703125,0.08229980528503655,0.01878945614397526,-0.07076923422813415
1733704730557665500,5.04966552734375,0.08280220184922218,0.029388737700134514,-0.06191606568694114
1733704730567632600,5.059632568359375,0.08014934925287961,0.0247197229757905,-0.065873863402009
1733704730577599500,5.069599609375,0.11211363652944564,0.02214081239849329,-0.04637421316206455
1733704730587566600,5.079566650390625,0.09040157093703746,0.018827157805860043,-0.02149403892755508
1733704730597533700,5.08953369140625,0.08682458923310041,0.01584580390751362,-0.003067570877075195
1733704730607499500,5.09949951171875,0.09195084620565175,0.01110021681562066,0.0091062665194273
1733704730617466600,5.109466552734375,0.06361205594986677,0.004518208076804876,0.00300853416621685
1733704730627433500,5.11943359375,0.05863660562485456,-0.005416179829835891,-0.014189853394031523
1733704730637400600,5.129400634765625,0.039708617793023586,0.006411328347027301,-0.015574001228809356
1733704730647367700,5.13936767578125,0.026008886003494262,0.020228110644966362,-0.01968202106952667
1733704730657334500,5.14933447265625,0.002056055746972561,0.027488164775818585,-0.0033569092124700545
1733704730667300600,5.159300537109375,-0.017062486220896244,0.03555909689813852,0.027947160589694976
1733704730677267500,5.169267333984375,-0.04161299010962247,0.028068741142749785,0.07589607572257519
1733704730687234600,5.179234619140625,-0.059548459772765634,0.03792071146294474,0.12084931617081164
1733704730697201700,5.18920166015625,-0.05149199456721544,0.035046909592300654,0.16289397569596767
1733704730707167700,5.199167724609375,-0.0576937718167901,0.018957944578677416,0.13148469195365906
1733704730717134600,5.209134521484375,-0.02948796029090881,0.010637860000878572,0.046636663490533824
1733704730727101400,5.219101318359375,0.026507775436341762,-0.008268792781978845,-0.028920389536023137
1733704730737068500,5.229068603515625,0.05968231528550386,0.003921265096962452,-0.09367080186605453
1733704730747035400,5.239035400390625,0.05545739106684923,0.017768588663637636,-0.08805354650616645
1733704730757002500,5.24900244140625,0.08238485321998595,0.027110125243663786,-0.026010055047273634
1733704730766968800,5.25896875,0.07448708570748568,0.023549071761220692,0.003675473642349243
1733704730776935700,5.268935791015625,0.03939648310393095,0.001731792228668928,0.001654196947813034
1733704730786902800,5.27890283203125,0.010537760627269745,-0.0000881166748702526,-0.006693944680690765
1733704730796869600,5.28886962890625,0.006954349182546138,0.013341566001623869,-0.00918809958398342
1733704730806836500,5.29883642578125,0.021276596784591675,-0.013989216255396604,-0.029082886621356007
1733704730816802600,5.308802490234375,0.019338029937446117,-0.02767711147665977,-0.04208206892609596
1733704730826769700,5.318769775390625,0.06816022077351808,-0.01238645723387599,-0.016580547922849655
1733704730836736800,5.32873681640625,0.07171879003793001,-0.001727700575441122,0.013379706054925918
1733704730846703600,5.33870361328125,0.037889877933263774,0.038905923108011484,0.04468494490087032
1733704730856670700,5.348670654296875,0.006155600020289421,0.041116584894806144,0.048187400063872336
1733704730866636500,5.358636474609375,-0.006436755049228668,0.036625557085871695,0.047751346734166145
1733704730876603600,5.368603759765625,-0.010194061756134033,0.03622296763435006,0.02572130123376846
1733704730886570800,5.37857080078125,-0.006723463036119938,0.03927300285473466,0.02508475689589977
1733704730896537600,5.38853759765625,0.006638707362115383,0.01849427258968353,0.015540098959207533
1733704730906504700,5.398504638671875,0.02881225298643112,0.016802373979985713,0.011222820281982421
1733704730916470500,5.408470458984375,0.009246844033896922,0.016046148785203693,0.016737784311175345
1733704730926437600,5.418437744140625,0.002858312040567398,-0.01585924791097641,0.001332125386595726
1733704730936404700,5.42840478515625,0.03158990100622177,-0.035754911731183524,-0.013915712627768516
1733704730946371600,5.43837158203125,0.008456862699985504,-0.01578486750051379,-0.019449965879321098
1733704730956338700,5.448338623046875,0.015806348679959774,-0.01469020413160324,-0.024511340922117233
1733704730966304500,5.458304443359375,0.02079524300843477,-0.015247838014364242,-0.0010018705189228057
1733704730976271600,5.468271728515625,0.028579905535280704,0.021596914780139923,0.04814999066293239
1733704730986238700,5.47823876953125,0.01348725808262825,0.03922404914647341,0.06391279246211051
1733704730996205600,5.48820556640625,-0.005419394700229167,0.04203647621870041,0.0332704014390707
1733704731006172700,5.498172607421875,-0.004042553389072418,0.04090411118790507,-0.0050064299851655955
1733704731016138500,5.508138427734375,-0.012916764718294144,0.02370791558474302,-0.05338847583830356
1733704731026105600,5.518105712890625,0.017474866414070128,0.017920125963538883,-0.08228373093307018
1733704731036072700,5.52807275390625,0.07805471506118775,0.007231558688730001,-0.06771160022318362
1733704731046039600,5.53803955078125,0.09051584496647119,0.011738660849630832,-0.03648234922289848
1733704731056006700,5.548006591796875,0.049590837121009826,0.004574176047742367,0.014875497570633887
1733704731065972500,5.557972412109375,0.026309037993848323,-0.001629793158918619,0.02822890014052391
1733704731075939600,5.567939697265625,0.009762976862490176,-0.013970073163509369,0.03326397169828415
1733704731085906400,5.577906494140625,0.026192133615911006,-0.03760316994637251,0.031681670942902564
1733704731095873500,5.58787353515625,0.058176002375781535,-0.029213235002756115,-0.0028442835152149197
1733704731105840600,5.597840576171875,0.08784107279926538,-0.029288053804636,0.004483282893896103
1733704731115806500,5.607806396484375,0.09447539624720812,0.02063800662010908,0.053691258177161215
1733704731125773600,5.617773681640625,0.07386047824174165,0.0428418012522161,0.07706395045816898
1733704731135740400,5.627740478515625,0.051585518069565295,0.04158084140568971,0.060309215012192725
1733704731145707500,5.63770751953125,0.05116115517765283,0.04446867180168628,-0.0072486559540033335
1733704731155674600,5.647674560546875,0.047234044861793514,0.0760049429245293,-0.08036006939411162
1733704731165640700,5.657640625,0.035088849037885665,0.09532514494433998,-0.1601566596865654
1733704731175607800,5.66760791015625,0.053497781431674954,0.1141777294524014,-0.1861450874239206
1733704731185574700,5.67757470703125,0.04774754734188318,0.09940306190773844,-0.13611995053887366
1733704731195541500,5.68754150390625,0.023519991797208786,0.06735913352370261,-0.062298927524685854
1733704731205508600,5.697508544921875,0.022837270230054853,0.03975172628238797,0.02172550959587097
1733704731215475500,5.707475341796875,0.008773089042305946,0.009201981978863478,0.07993278389275074
1733704731225441800,5.71744189453125,-0.005694704510271549,-0.0397789065502584,0.08911270017027854
1733704731235408600,5.72740869140625,0.0016024667605757713,-0.046777825526893135,0.10854162326157092
1733704731245375700,5.737375732421875,0.025566110672056674,-0.06417553505152464,0.09176058433055877
1733704731255342800,5.7473427734375,0.060256023520231246,-0.08194456210657954,0.0711328068435192
1733704731265308700,5.75730859375,0.0789455264210701,-0.05641439953073859,0.056397010004520416
1733704731275275800,5.76727587890625,0.07130816341042519,-0.023649609526246784,0.023051789763569832
1733704731285242600,5.77724267578125,0.05644464853852987,0.02751183791235089,-0.020761048477888105
1733704731295209700,5.787209716796875,0.04303162473589182,0.06308949338048696,-0.05059153859615326
1733704731305176600,5.797176513671875,0.04839022915959358,0.07756868510991334,-0.08838555493950843
1733704731315143700,5.807143798828125,0.029855040037631987,0.06896496128514408,-0.09989595999121666
1733704731325109800,5.81710986328125,0.0313490779876709,0.08821502067819237,-0.050555882760882374
1733704731335076600,5.82707666015625,0.007417290519177913,0.09303615722432731,-0.0027688801914453505
1733704731345043700,5.837043701171875,-0.03402618824243545,0.044412703830748794,0.018908114087581633
1733704731355010600,5.847010498046875,-0.03559358368963003,-0.000561579405516386,-0.013032500052452087
1733704731364977700,5.856977783203125,0.010161620791256426,-0.03660685238540173,-0.044056583869457246
1733704731374943700,5.86694384765625,0.027957974244654175,-0.01380333829447627,-0.05584463681876659
1733704731384910600,5.87691064453125,0.011669102744758129,0.0006755611740052699,-0.05268471148312091
1733704731394877700,5.886877685546875,0.031576749263703824,0.021036358287930487,-0.020523732590675352
1733704731404844500,5.896844482421875,0.01493073488920927,0.04648585684299469,0.02625847685039043
1733704731414811600,5.906811767578125,0.007166238367557525,0.04619914885610342,0.07100304298400878
1733704731424777500,5.916777587890625,0.022146657617390153,0.04035100734978914,0.07526303851604461
1733704731434744600,5.92674462890625,0.02202975323945284,0.015679069038480518,0.05442424862682819
1733704731444711700,5.936711669921875,0.04562310253381729,0.000002776478976011276,0.03828501473069191
1733704731454678500,5.946678466796875,0.0659878451704979,0.005157236632704735,0.039596097329258916
1733704731464645600,5.956645751953125,0.05510755471587181,-0.00640855186805129,-0.0018061726391315459
1733704731474611500,5.966611572265625,0.07268617376536131,-0.021636370007693768,-0.029406711748242376
1733704731484578600,5.97657861328125,0.0754702515259385,-0.02548690795600414,-0.030901334220170974
1733704731494545700,5.986545654296875,0.06332213309258222,-0.024090923552960157,-0.07335574358999729
1733704731504512500,5.996512451171875,0.07457476399093865,-0.014887772530317306,-0.05821195047199726
1733704731514479600,6.006479736328125,0.05108516733199358,0.03317264015302062,-0.04060030593574047
1733704731524445400,6.016445556640625,0.03055412821769714,0.07066942711547017,0.009776713126897811
1733704731534412500,6.02641259765625,-0.010439560949802399,0.08684080971553922,0.04509001857042312
1733704731544379600,6.036379638671875,-0.009943886387348175,0.08262918336987495,0.04190437427163124
1733704731554346500,6.046346435546875,-0.03696399526000023,0.0752636230379343,0.008530512458086014
1733704731564313600,6.056313720703125,-0.018239128784835336,0.0465899017393589,-0.016250293055176734
1733704731574279400,6.066279541015625,0.03636456806212664,0.006719663643836975,-0.0366647200524807
1733704731584246500,6.07624658203125,0.054416942103207105,0.00819645819813013,0.0009089315384626388
1733704731594213600,6.086213623046875,0.04270750734806061,0.014145868121832609,0.03890285436809063
1733704731604180500,6.096180419921875,0.025762217766046522,0.01791369622275233,0.051610944771766656
1733704731614147600,6.106147705078125,0.026279227377474308,0.004660977548360824,0.0349608387440443
1733704731624114700,6.11611474609375,0.01595861663222313,0.002858165910094976,0.013400164321064948
1733704731634080800,6.126080810546875,0.02745733124613762,-0.0009710369892418384,0.0008218377768993377
1733704731644047600,6.136047607421875,0.025214813016355034,0.00342222953364253,-0.0070364745080471035
1733704731654014500,6.146014404296875,0.022153087358176705,0.015692659172415732,-0.0013514146089553833
1733704731663981600,6.155981689453125,0.016419804403185842,0.032883594078570604,0.0038058220237493514
1733704731673948700,6.16594873046875,0.03547024957090616,0.04199234481602907,0.01111351468861103
1733704731683914800,6.175914794921875,0.01525748262554407,0.038853900659829375,0.006296469795703887
1733704731693881900,6.1858818359375,0.029707448260486123,0.017945260404795407,-0.0031429742008447646
1733704731703848700,6.1958486328125,0.04298573976755142,-0.0055360068172216415,0.003771335232257843
1733704731713815800,6.20581591796875,0.052146659083664414,-0.024641397042572497,-0.022893384331464765
1733704731723782700,6.21578271484375,0.0509010429367423,-0.05637859756499528,-0.03170797442793846
1733704731733748700,6.225748779296875,0.07263356679528951,-0.07295110831186175,-0.025943419551849364
1733704731743715800,6.2357158203125,0.05678630158305168,-0.045189095030725,-0.027196634483337402
1733704731753682700,6.2456826171875,0.0451148607507348,-0.05105214184522629,-0.05802899512052535
1733704731763649800,6.25564990234375,0.06295622238963842,-0.04997399121969938,-0.054148354294896124
1733704731773616600,6.26561669921875,0.07106617134809494,-0.024513532879203558,-0.045609658530354494
1733704731783582700,6.275582763671875,0.04578472283631563,-0.0038989071346819397,-0.06089139881432056
1733704731793549600,6.285549560546875,0.042132337808609005,0.003966857804358005,-0.05373568184077739
1733704731803516700,6.2955166015625,0.01941109517365694,0.029532530084997413,-0.01956394764780998
1733704731813483800,6.30548388671875,0.001315174251794815,0.05347659251317381,0.024074703070521352
1733704731823450600,6.31545068359375,-0.01868131959438324,0.061375529069453476,0.05963350770771503
1733704731833416700,6.325416748046875,-0.022310323746502398,0.07168693359494209,0.07552081266939639
1733704731843383600,6.335383544921875,-0.03230798614770174,0.05530073920041322,0.07568330975472927
1733704731853350700,6.3453505859375,-0.01639028604775667,0.02650222247838974,0.04783960953950882
1733704731863317800,6.35531787109375,0.032306524842977524,0.01332388421446085,0.02561024207472801
1733704731873284600,6.36528466796875,0.05947188740521669,0.015742781924456356,0.01795183627605438
1733704731883250700,6.375250732421875,0.040676001520454884,0.045776247268915174,0.020835867279767988
1733704731893217500,6.385217529296875,0.04511456848978996,0.04594444344267249,-0.0031973347365856167
1733704731903184600,6.3951845703125,0.05211714072823524,0.02253317271694541,-0.03307575564980507
1733704731913151700,6.40515185546875,0.04123685027360916,0.03017228929325938,-0.06268412744998932
1733704731923118600,6.41511865234375,0.057089960704743856,0.058179071115702384,-0.07880231855809688
1733704731933085700,6.425085693359375,0.04190671235918998,0.066480012601614,-0.05367781417369842
1733704731943051500,6.435051513671875,0.05292582676261663,0.041328620210289956,-0.025912439891695976
1733704731953018600,6.4450185546875,0.05357230797260999,0.03792129598483443,-0.02945581158697605
1733704731962985700,6.45498583984375,0.06501023230999708,0.005770692355930805,-0.02696925546824932
1733704731972952600,6.46495263671875,0.043835634595155715,0.0024988310784101486,-0.025588614764809607
1733704731982919700,6.474919677734375,0.0745791479051113,-0.025457097339630124,-0.032326398587226864
1733704731992885500,6.484885498046875,0.08806991311907768,-0.005215396560728549,-0.012968787166476248
1733704732002852600,6.4948525390625,0.050664019310474394,0.004070902700722218,0.01321136375069618
1733704732012819700,6.50481982421875,0.03846709329932928,-0.0043823067374527454,0.010602642557024955
1733704732022786600,6.51478662109375,0.0014656886383891104,-0.018152911806106568,-0.010280570995807647
1733704732032753700,6.524753662109375,0.011034311972558497,-0.01887611151412129,-0.025968553993105888
1733704732042719500,6.534719482421875,0.0185500944301486,0.009989040703326462,-0.006471826362609863
1733704732052686600,6.5446865234375,0.025085341417789456,0.022130729395896196,0.0034650457620620727
1733704732062653400,6.5546533203125,0.030179157425463198,0.012055763974785805,0.0035790275305509567
1733704732072620500,6.56462060546875,0.042377837002277374,0.01725289422646165,0.015769231539964675
1733704732082587600,6.574587646484375,0.045888767732679844,0.010759586684405803,0.04271042995750904
1733704732092553700,6.5845537109375,0.033465047228336334,0.01975406339243054,0.04793313304185867
1733704732102520800,6.594520751953125,0.03580634965747594,0.02780994407609105,0.024011574706435203
1733704732112487700,6.60448779296875,0.037629473431408406,0.03339198199212551,0.00867313579916954
1733704732122454500,6.61445458984375,0.024781390035152433,0.02002294346168637,-0.019123218142986297
1733704732132421600,6.624421630859375,0.014293606029450892,0.0008764905735850334,-0.04951309570968151
1733704732142387700,6.6343876953125,-0.005497136111557483,-0.011542407625168562,-0.06575286737084389
1733704732152354800,6.644354736328125,0.01090221002548933,0.006812164232879877,-0.053044776967167855
1733704732162321700,6.65432177734375,0.022583587729930875,0.008034545634686946,-0.04276712858080864
1733704732172288800,6.664288818359375,0.023593933816254138,0.02026084387078881,0.0007224690556526184
1733704732182255900,6.674255859375,0.013159925824403762,0.039859716701507564,0.04148001137971878
1733704732192222700,6.68422265625,-0.014867898786067962,0.05520151660963893,0.08895487926006317
1733704732202188800,6.694188720703125,-0.015333178210258484,0.0408982659690082,0.08201017468869685
1733704732212155600,6.70415576171875,0.008994330577552319,0.038001813875138755,0.08175298505723476
1733704732222122800,6.714122802734375,0.002515489952266216,0.03951923270076513,0.04757365207970142
1733704732232089900,6.72408984375,0.014462240594625472,0.044728491781651974,0.01575169588327408
1733704732242056700,6.734056640625,0.021571488077938555,0.03264204040765762,0.019096330136060713
1733704732252022800,6.744022705078125,0.015761340494453907,0.02548676182553172,-0.01758767913877964
1733704732261989600,6.75398974609375,0.024838088658452034,0.027365561309456825,-0.036384734067320824
1733704732271956700,6.763956787109375,0.01788958469480276,0.021150632317364214,-0.05258826537132263
1733704732281923800,6.773923828125,0.011783961296081542,0.0005929974570870399,-0.05383621960580349
1733704732291890700,6.783890625,0.031709435732662675,-0.00526069700717926,-0.05610474905967712
1733704732301856800,6.793856689453125,0.047212709812819956,0.019233400519192218,-0.03748129713237285
1733704732311823600,6.80382373046875,0.028238252490758894,0.041377427788078784,-0.006927168914675712
1733704732321790700,6.813790771484375,0.03685410514473915,0.019564532169699667,0.02576046420037746
1733704732331757600,6.823757568359375,0.04794979191571474,-0.028370646698772907,0.004111526972055435
1733704732341724700,6.833724609375,0.08264058154672384,-0.052201896402239795,-0.024832243439555167
1733704732351690800,6.843690673828125,0.06206219615936279,-0.022545301546156405,0.0011222820281982422
1733704732361657600,6.85365771484375,0.034254444040358066,-0.012758067025244235,0.005872106903791427
1733704732371624700,6.863624755859375,0.0067912675753235814,0.005063128608465194,0.0004904138654470443
1733704732381591600,6.873591552734375,0.018461831624805927,0.026106939550489185,0.009560440027713776
1733704732391558700,6.88355859375,0.024345628966391086,0.038553748669475314,0.00890752907693386
1733704732401525800,6.89352587890625,0.0171297062382102,0.0563300822481513,0.04015665382146835
1733704732411491600,6.90349169921875,0.03546235852539539,0.04325345079302788,0.06389350323975086
1733704732421458700,6.913458740234375,0.04339344378560781,0.04929083126112818,0.058200844556093215
1733704732431425500,6.923425537109375,0.03154313925504684,0.034437399391829965,0.03045008332133293
1733704732441392600,6.933392578125,0.016984744809567926,0.0015226795226335524,-0.03628419630229473
1733704732451359700,6.94335986328125,0.026540800923109054,-0.02400149170383811,-0.0905523775845766
1733704732461325600,6.95332568359375,0.03234831815809011,-0.04382803581058979,-0.12672785281538962
1733704732471292700,6.963292724609375,0.01033405474871397,-0.04994081960245966,-0.13745733662247656
1733704732481259500,6.973259521484375,-0.0030699089646339414,-0.04117752130180597,-0.0911491744339466
1733704732491226600,6.9832265625,0.013650924211740493,-0.03179579884186387,-0.03491699960231781
1733704732501193700,6.99319384765625,0.018500994591414927,-0.03525339194983244,0.04798164835870266
1733704732511159600,7.00315966796875,0.02791384284198284,-0.012925970938056707,0.1247422319561243
1733704732521126700,7.013126708984375,0.049833121444284915,0.015265227540582418,0.18725100283920765
1733704732531093500,7.023093505859375,-0.010798457390069962,0.012482172693312168,0.17257307366728783
1733704732541060600,7.033060546875,-0.006694821463525295,0.010563625720888375,0.08484276776611804
1733704732551027700,7.04302783203125,0.011308160477876663,-0.0011903788283467293,-0.013977087426185607
1733704732560994600,7.05299462890625,0.02630962251573801,0.012235942847281694,-0.06723579940497874
1733704732570960600,7.062960693359375,0.004682897119224071,0.020169950716942546,-0.08943535625338554
1733704732580927500,7.072927490234375,-0.044287762276828284,0.06330386678352952,-0.0737608172595501
1733704732590894600,7.08289453125,-0.0538902878805995,0.053930327630043025,-0.012717442753911018
1733704732600861400,7.092861328125,-0.046237727300822734,0.06398965709060431,0.06442132650613784
1733704732610828500,7.10282861328125,-0.041538171307742594,0.04976590142697095,0.09346797277033328
1733704732620795000,7.112794921875,-0.03577127834409475,0.020189239939302203,0.0608808774203062
1733704732630761700,7.12276171875,-0.0064577978372573844,-0.021739976512640712,0.03147007401883602
1733704732640728800,7.132728759765625,0.034436814869940276,-0.050858372838795185,-0.01711713901758194
1733704732650695700,7.14269580078125,0.05388941109776497,-0.07306918173357844,-0.05227846876978874
1733704732660662500,7.15266259765625,0.07801146044135093,-0.07043693353384733,-0.08184884664714336
1733704732670628600,7.162628662109375,0.05632306798547506,-0.060855596848577255,-0.08700608327984809
1733704732680595700,7.172595703125,0.04703969133347272,-0.018859452640265225,-0.043238253223896024
1733704732690562800,7.182562744140625,0.03018850977569818,0.001829261253774166,-0.01404664553105831
1733704732700529700,7.19252978515625,-0.004838379941880703,-0.00003258709535002708,-0.011858780097961425
1733704732710496800,7.202496826171875,0.006558335602283478,0.04168152530118823,0.014475684598088264
1733704732720462600,7.212462646484375,-0.009023556672036647,0.06989376656785606,0.04935995097458362
1733704732730429700,7.2224296875,-0.02421118893176317,0.06985445747077465,0.0634469285160303
1733704732740396800,7.232396728515625,-0.03273527164906263,0.05112915260419249,0.06749357355833054
1733704732750363600,7.24236376953125,-0.012141396431624889,0.007490940277278423,0.04088613713979721
1733704732760330800,7.252330810546875,0.03296235840320587,-0.03945858855471015,0.001079027408361435
1733704732770297900,7.2622978515625,0.07848258508443832,-0.08030205559656023,-0.03486030097901821
1733704732780263700,7.272263671875,0.07876987759321928,-0.09523469018191098,-0.06396539943218231
1733704732790230800,7.282230712890625,0.050722471499443054,-0.08146525415703654,-0.06125730951726436
1733704732800197600,7.29219775390625,0.028854338562488556,-0.07150222467780112,-0.031903789260983466
1733704732810164700,7.302164794921875,0.008675473886728286,-0.05155526906177401,0.013390227448940277
1733704732820131600,7.312131591796875,0.011644845086336135,-0.04540858300030231,0.034896541336178775
1733704732830097700,7.32209765625,-0.004793956278264522,-0.01762070462554693,0.05362520720362663
1733704732840064800,7.332064697265625,0.000725099404156208,0.007784078004956245,0.06397416726052761
1733704732850031600,7.342031494140625,-0.0005623100578784942,0.050524026317894453,0.06902034473419189
1733704732859998700,7.351998779296875,-0.004794248539209366,0.03895809168666601,0.06071370415985584
1733704732869965600,7.361965576171875,0.005522855074703693,0.03716784726902842,0.024912322938442227
1733704732879931600,7.371931640625,0.0192494748711586,0.06907353622615336,-0.033793548530340195
1733704732889898500,7.3818984375,0.03648848670274019,0.08416706046164035,-0.08336568095088004
1733704732899865600,7.391865478515625,0.05510755471587181,0.11533639796823263,-0.10029226583242416
1733704732909832700,7.401832763671875,0.04487140738368034,0.14039309781342743,-0.10724924536347388
1733704732919799600,7.411799560546875,0.05030395382642746,0.1412239956796169,-0.09779051214456558
1733704732929766700,7.4217666015625,0.0652487172409892,0.14153496132493018,-0.10000935723781586
1733704732939732500,7.431732421875,0.0793161132991314,0.11421133946105837,-0.11951193008720874
1733704732949699600,7.441699462890625,0.11454787793904542,0.0706210579290986,-0.1043815809726715
1733704732959666700,7.451666748046875,0.13174334288984538,0.02717442265152931,-0.06268705005943775
1733704732969633500,7.461633544921875,0.11253770716041325,0.007564297774434089,-0.03496376135349274
1733704732979600600,7.4716005859375,0.09885697233229875,-0.002246609883010387,0.015225041660666464
1733704732989566500,7.48156640625,0.059522156287729736,-0.023721797979623076,0.041140404161810876
1733704732999533600,7.491533447265625,0.03524053246825933,-0.04217690760269761,0.007498246800899505
1733704733009500700,7.501500732421875,0.014188392089307307,-0.05215440399870276,-0.01712941397726536
1733704733019467500,7.511467529296875,0.024214988324046133,-0.061934916517883534,-0.009956161347031593
1733704733029434600,7.5214345703125,0.038512101484835144,-0.04665332236438989,0.001703296786546707
1733704733039400700,7.531400634765625,0.010614040733873844,0.008484627489745617,0.024901217022538183
1733704733049367600,7.541367431640625,-0.03019786212593317,0.018483166673779486,0.043166357031464576
1733704733059334700,7.551334716796875,-0.05353869796395302,0.024593466247618198,0.03477262269556522
1733704733069301500,7.561301513671875,-0.043565000960230825,0.017116700626164674,0.019510171633958816
1733704733079268600,7.5712685546875,-0.053040685313940045,0.009925620078295469,0.02135726080536842
1733704733089235500,7.5812353515625,-0.023325638268887994,0.0021297055050730706,0.019476269364356993
1733704733099201800,7.591201904296875,0.03208002261072397,-0.017532441820204258,0.015873860958218574
1733704733109168600,7.601168701171875,0.024934242509305475,-0.01657850209623575,0.02983049011826515
1733704733119135700,7.6111357421875,0.04847323126792907,-0.024799948605149984,0.01665478220283985
1733704733129102600,7.6211025390625,0.051501931439340114,-0.04734817276075482,-0.02126023017168045
1733704733139069400,7.6310693359375,0.027345103043317793,-0.025888620624691248,-0.059956163790822026
1733704733149035800,7.641035888671875,0.04433978472501039,0.007826894233375787,-0.08345277471244335
1733704733159002600,7.651002685546875,0.040813656425476075,0.03295052183493972,-0.07341068864762783
1733704733168969700,7.6609697265625,0.024848902313411234,0.04181041237786412,-0.026127543947100637
1733704733178936800,7.670936767578125,0.02896861259192228,0.05896130753457546,0.020814824491739273
1733704733188903700,7.680903564453125,0.0025847557961940766,0.06487491549253463,0.06624737288951874
1733704733198869800,7.690869873046875,-0.00039630584120750427,0.05179638434126973,0.06077332539260387
1733704733208836600,7.700836669921875,-0.0030053192958235738,0.03161591223031282,0.05678162540793419
1733704733218803700,7.7108037109375,0.014727905793488025,0.018486381544172762,0.03231938432455063
1733704733228770800,7.720770751953125,0.012140227387845516,0.030057284611463547,0.010022796842455862
1733704733238737700,7.730737548828125,0.026342355741560457,0.01505509192124009,0.003075169661641121
1733704733248704800,7.740704833984375,0.04060468984991312,0.010273264472186565,0.01588496687412262
1733704733258670600,7.750670654296875,0.025187048226594923,0.01520867504775524,0.01960311061441898
1733704733268637700,7.7606376953125,-0.005004676419496536,0.02513444125652313,0.02832768433988094
1733704733278604800,7.770604736328125,-0.01160977377295494,0.020921791997551918,0.013902853146195411
1733704733288571600,7.780571533203125,0.03617372166514397,0.021855565716326235,-0.009583236381411552
1733704733298538800,7.790538818359375,0.05457768562287092,0.018846885419636965,-0.032356793725490565
1733704733308504600,7.800504638671875,0.05278232663869858,0.016572656877338884,-0.07760580224990844
1733704733318471700,7.8104716796875,0.10424012667536735,0.011830138525366782,-0.0887619870364666
1733704733328438800,7.820438720703125,0.12355536025911569,0.015287439372390507,-0.06716682582199573
1733704733338405600,7.830405517578125,0.10342208829075097,-0.003256663708388805,-0.0527636219382286
1733704733348372700,7.840372802734375,0.05365209521055221,-0.00521188942939043,-0.0441238038867712
1733704733358338600,7.850338623046875,0.014596680629253386,-0.031978608062863345,-0.04958265381455421
1733704733368305700,7.8603056640625,0.02499766313433647,-0.032761282873153684,-0.04900923784077167
1733704733378272800,7.870272705078125,0.022642916701734066,-0.023335282880067823,-0.0026437925070524216
1733704733388239600,7.880239501953125,0.014481822077929973,0.0006952887877821922,0.027791677767038343
1733704733398206700,7.890206787109375,-0.014465747725963592,0.0058427346788346764,0.01960369513630867
1733704733408173600,7.900173583984375,-0.040940205414593214,0.008213993854820727,0.02757832727730274
1733704733418139600,7.9101396484375,-0.014363748656213282,-0.005253682744503021,-0.00540098226070404
1733704733428106500,7.9201064453125,0.02211246308684349,0.005113251360505819,-0.028977088159322737
1733704733438073600,7.930073486328125,0.03364011153429747,0.007776040828973055,-0.017143442502617835
1733704733448040700,7.940040771484375,0.035066637206077576,0.03811331142559647,0.004284545451402664
1733704733458007600,7.950007568359375,0.030263036316633223,0.054368719047307966,0.019589082089066505
1733704733467973600,7.9599736328125,0.018363047425448892,0.05150149304792285,0.04565642028152942
1733704733477940500,7.9699404296875,0.002136135245859623,0.05750365607216954,0.04484393485486507
1733704733487907600,7.979907470703125,0.014451719200611113,0.0307118029974401,0.010841712009906768
1733704733497874700,7.989874755859375,0.026434417939186095,0.0042826457552611824,-0.0159206227093935
1733704733507841500,7.999841552734375,0.036082243989408014,0.011095979031920432,-0.010103460863232612
1733704733517807600,8.0098076171875,0.039871114878356456,0.015174626647680997,-0.00933539910018444
1733704733527774500,8.0197744140625,0.048345513235032556,0.03491466151475906,-0.01479483354985714
1733704733537741300,8.0297412109375,0.04111643876433372,0.025359920575469732,-0.02367956627309322
1733704733547708200,8.039708251953124,0.05311521185487508,0.014484744687378405,-0.05176818116009235
1733704733557675000,8.049675048828124,0.0754769735276699,0.002075783360749483,-0.05865326449871063
1733704733567642000,8.05964208984375,0.06571808831840753,-0.0019147475801408289,-0.03950315834879875
1733704733577608200,8.069608154296875,0.05113748204112053,0.010940057817846537,-0.02364215687215328
1733704733587575300,8.0795751953125,0.031682547725737094,0.014585282452404499,-0.010904840373992919
1733704733597542100,8.089542236328125,0.0038920390024781227,0.020205898813158273,0.016590484794974325
1733704733607509200,8.09950927734375,-0.022215338939428328,0.03408741691038012,0.022376666980981827
1733704733617476400,8.109476318359375,-0.04292641079574823,0.01457125392705202,0.028734511575102803
1733704733627442200,8.119442138671875,-0.03439911320805549,-0.02426087329238653,0.0011509236007928847
1733704733637409300,8.1294091796875,-0.03140519208908081,-0.016381079827994107,0.024136077868938444
1733704733647376100,8.139376220703125,-0.041858781564235684,-0.02861599976196885,0.04073708405792713
1733704733657343200,8.14934326171875,-0.02204699663519859,-0.013041414011269807,0.05936170502901077
1733704733667310000,8.15931005859375,0.01786123538315296,-0.0050683893054723735,0.10589490814507006
1733704733677276200,8.169276123046876,0.02434182957410812,-0.01365954590961337,0.09889818112552165
1733704733687243300,8.1792431640625,0.0364203899025917,-0.0215859549947083,0.0857160434693098
1733704733697210000,8.189210205078124,0.048097968214750285,-0.028895839616656302,0.03702010936141014
1733704733707177200,8.19917724609375,0.04696048861742019,-0.03209244370087981,-0.02457271572053432
1733704733717144000,8.20914404296875,0.06950111398845911,-0.01964212745055556,-0.07991174110472202
1733704733727111200,8.219111083984375,0.07860679598599672,0.0029269933626055716,-0.11474983025193214
1733704733737077000,8.229076904296875,0.06242313842624426,-0.012078121937066316,-0.144758015024662
1733704733747044000,8.239044189453125,0.0667129445746541,-0.025732114888727665,-0.13866963502168655
1733704733757011200,8.24901123046875,0.06148731888085603,-0.04872881346419453,-0.11545827078223228
1733704733766978000,8.25897802734375,0.04250672407895326,-0.05019669405966997,-0.0962730933189392
1733704733776945200,8.268945068359375,0.04036211326569319,-0.054631461636722084,-0.06326280412077903
1733704733786911000,8.278910888671875,0.010411211638152599,-0.0077735566109418865,-0.060281157961487766
1733704733796878000,8.288878173828126,-0.017947160100936888,0.0071156772240996355,-0.04802899463176727
1733704733806845200,8.29884521484375,-0.03718582131713628,0.024573738633841276,-0.0028472061246633527
1733704733816812000,8.30881201171875,-0.022189327715337274,0.04705094337984919,0.029499066206812856
1733704733826779100,8.318779052734374,-0.0327235812112689,0.03411751978769898,0.03143324913978576
1733704733836745000,8.328744873046874,-0.01564882003068924,0.012948767291754483,0.04444061475098133
1733704733846712000,8.338712158203125,-0.007363806766271591,0.008760375691205262,0.04913140291571617
1733704733856679200,8.34867919921875,0.01282499478161335,0.016660627421736716,0.07703589340746403
1733704733866646000,8.35864599609375,-0.0066743631973862644,0.00880363031104207,0.08945698356330395
1733704733876613000,8.368613037109375,-0.02154986076802015,0.03403802481070161,0.08974398381114006
1733704733886580200,8.378580322265625,-0.044535891819000244,0.040743075407296415,0.09129472038447857
1733704733896546000,8.388546142578125,-0.05276332967728376,0.0470867453455925,0.08877776912748814
1733704733906513200,8.39851318359375,-0.03761369134038686,0.060868602460622784,0.10066694436371326
1733704733916480000,8.40847998046875,-0.01806640256643295,0.08160174001827836,0.10494389103054999
1733704733926447000,8.418447021484376,-0.022122107698023318,0.11037672973424195,0.08546294549107551
1733704733936414000,8.4284140625,-0.011504852093756198,0.10250190470591188,0.024027941319346425
1733704733946380000,8.438380126953126,0.009993278487026691,0.06152312084659934,-0.01754793165028095
1733704733956347100,8.44834716796875,0.05507452922910452,0.025006138701736926,-0.04440846604704857
1733704733966314000,8.45831396484375,0.10157324555367231,0.016895020699501037,-0.07570552158653736
1733704733976281000,8.468281005859374,0.12291180165857075,0.013608400244265795,-0.10379998169243335
1733704733986248000,8.478248046875,0.1466387142047286,0.02181947148963809,-0.12219722364842892
1733704733996214300,8.48821435546875,0.14685966347903012,0.011091010595858096,-0.12827800486683844
1733704734006181000,8.49818115234375,0.1296270813882351,0.002020984433591366,-0.13908756817281245
1733704734016148000,8.50814794921875,0.13033289157003164,0.002094634191691875,-0.14571546187996864
1733704734026115000,8.518114990234375,0.12524404399842023,0.015261282017827033,-0.13176409341692924
1733704734036082000,8.52808203125,0.07774521072059869,0.016420242794603107,-0.08944529312551021
1733704734046048300,8.53804833984375,0.04265606942176819,0.014741788188368082,-0.0675555328786373
1733704734056015000,8.54801513671875,0.04374649500697851,-0.0059247138738632195,-0.05072831671833992
1733704734065982200,8.557982177734376,0.019866729986667633,-0.021066315034776927,-0.03914250834286213
1733704734075949300,8.56794921875,-0.002506429862976074,-0.01786123538315296,-0.007436287480592727
1733704734085916200,8.577916259765624,-0.015253098711371421,-0.020814239969849584,0.015236732098460196
1733704734095883000,8.587883056640624,-0.0017509353205561638,-0.01948416040986776,0.02385258475244045
1733704734105849000,8.59784912109375,0.0076166124835610385,-0.022034137153625486,0.05301964252591133
1733704734115816200,8.607816162109375,-0.012087620417773722,-0.027158056038618088,0.06980068145692347
1733704734125783300,8.617783203125,-0.003811374981701374,-0.012324497913569212,0.1138321308851242
1733704734135750100,8.627750244140625,0.01750876868367195,-0.015000439124554395,0.09206570475697518
1733704734145717200,8.63771728515625,0.02131429844647646,-0.03229468827471137,0.053690089133381844
1733704734155683000,8.64768310546875,0.030753157921135425,0.011128858388215302,0.04236380847692489
1733704734165650200,8.657650146484375,0.002720364874601364,0.019585574957728384,0.017099018839001653
1733704734175617300,8.6676171875,-0.011682254487276077,0.02206818555369973,-0.02891805144846439
1733704734185584000,8.677584228515625,-0.0052551440492272375,0.030380963607877492,-0.0782353323251009
1733704734195551200,8.68755126953125,0.034710078853368756,0.02908054853379726,-0.09150164113342761
1733704734205517000,8.69751708984375,0.07594342199563979,0.03770853001698851,-0.0779126762419939
1733704734215484200,8.707484130859376,0.06913286519795656,0.05984466624036431,-0.032899814561009405
1733704734225451300,8.717451171875,0.043810207892954346,0.056342941729724406,0.001713233658671379
1733704734235418000,8.727418212890624,0.018316870196163654,0.07541647551208734,0.02159749930202961
1733704734245385200,8.73738525390625,-0.008845277495682239,0.06535787670388818,0.0514829344779253
1733704734255352000,8.74735205078125,-0.005803717842698097,0.05895385488048196,0.023152327528595924
1733704734265318100,8.757318115234375,-0.010588614031672477,0.049404520768672223,0.016020575952529908
1733704734275285000,8.767284912109375,-0.017841946160793303,0.04116875347346067,0.02394903086423874
1733704734285252000,8.777252197265625,-0.03237900555729866,0.0350796428181231,0.040568741753697395
1733704734295219200,8.78721923828125,-0.04257189826965332,0.03917816417813301,0.028613515543937682
1733704734305186000,8.79718603515625,-0.024702187319099903,0.026935353198647496,0.04576280326545238
1733704734315152100,8.807152099609375,-0.02139700829386711,0.03488850416019559,0.050696168014407156
1733704734325119000,8.817118896484375,-0.031214053431153296,0.08536898359730839,0.07768003652989863
1733704734335086000,8.827086181640626,0.022200141370296477,0.0023274200342595576,0.05492693745195865
1733704734345053200,8.83705322265625,0.10790274083614348,-0.13369155434817076,0.15736556766331194
1733704734355020000,8.84702001953125,0.015601181496679783,0.17571780143380164,0.28613281735181806
1733704734364986000,8.856986083984374,-0.04346504771709442,0.1389528358772397,0.01593406671285629
1733704734374953000,8.866952880859374,-0.06050649114996195,-0.0489972551420331,-0.1708440579175949
1733704734384920000,8.876920166015625,0.05944675296396017,0.04923091776743531,-0.17487608991265297
1733704734394887200,8.88688720703125,0.07922229753583669,0.006461889490485191,-0.2877653869897127
1733704734404854000,8.89685400390625,0.12250059050917625,-0.12744053112939,-0.34144320116341115
1733704734414820000,8.906820068359375,0.2184790847957134,-0.17255013118311763,-0.23034721724390983
1733704734424787000,8.916786865234375,0.18995470883995294,-0.2714297537386417,-0.08855214367806911
1733704734434754000,8.926754150390625,0.18100450966507195,-0.32613048121929167,0.06990647991895675
1733704734444721200,8.93672119140625,0.12856091346144674,-0.2481416710011661,0.20421324355602263
1733704734454688000,8.94668798828125,-0.02166325801461935,-0.15170359637886285,0.16639643085896968
1733704734464655000,8.956655029296876,-0.08031710703521966,-0.10386018744707107,0.09041969111561775
1733704734474621200,8.96662109375,-0.11210165383070707,-0.041361499566584824,0.03830196586549282
1733704734484588000,8.976588134765626,-0.11086422099024057,-0.0073432023696601385,-0.015117489632964134
1733704734494555000,8.986554931640624,-0.08447393445372581,0.053991410167515276,0.0009247136294841766
1733704734504522000,8.99652197265625,-0.0751306443080306,0.10344883016720413,0.02935819643139839
1733704734514489000,9.006489013671874,-0.06306757380962372,0.12957739702761173,0.0416968690007925
1733704734524455200,9.016455078125,-0.04790829086154699,0.1501154504045844,0.04955050511062145
1733704734534422500,9.026422607421875,-0.022527473628520964,0.14094795521721243,0.046263154003024096
1733704734544389600,9.0363896484375,0.015460896243155001,0.12771028798148035,0.014073533537983893
1733704734554356700,9.046356689453125,-0.005753741221129894,0.0731533528856933,-0.03340016529858112
1733704734564323600,9.056323486328125,0.03715571843981743,0.012997574869543314,-0.06287468158602715
1733704734574290000,9.0662900390625,0.07087211008071899,0.05153276496902108,0.002433364626765251
1733704734584256800,9.0762568359375,0.032491526021063324,0.04476531666070223,0.036786885127425194
1733704734594223600,9.0862236328125,0.040217444097995755,0.007483341492712498,-0.0366121130824089
1733704734604190700,9.096190673828126,0.02169511445760727,0.028074294100701808,-0.01127776533961296
1733704734614157600,9.106157470703126,-0.0242404150262475,0.06656929832026362,0.023711714977025983
1733704734624124700,9.116124755859374,-0.048724283419549465,0.058544835688173764,0.052914428585767746
1733704734634090800,9.1260908203125,-0.07317132693380117,0.0776034641623497,0.07786006927192211
1733704734644057900,9.136057861328124,-0.07125877131074666,0.07486249489113687,0.10064590157568454
1733704734654025000,9.14602490234375,-0.0671314622476697,0.060442047611624,0.12075754623413085
1733704734663991800,9.15599169921875,-0.02458849781155586,0.029317864421010014,0.11037351486384868
1733704734673958700,9.165958740234375,0.0015659341424703597,0.019978812059015034,0.07193710896372794
1733704734683924700,9.1759248046875,0.043892333218455315,0.002744330272078514,0.03696984047889709
1733704734693891800,9.185891845703125,0.07005904013216495,0.005165273808687925,0.018456278666853905
1733704734703859000,9.19585888671875,0.04947510178685188,0.018825111979246138,0.013892331752181053
1733704734713825800,9.20582568359375,0.11252367863506078,-0.08003682878911494,-0.16978782686293123
1733704734723793000,9.21579296875,0.13097002042979,-0.013557692970335483,-0.15141104317307472
1733704734733758700,9.2257587890625,0.12241729613989591,0.009506664013862609,-0.12376841848790644
1733704734743725800,9.235725830078126,0.17736381507515905,0.0364729968726635,-0.1470715526640415
1733704734753692700,9.245692626953126,0.17703063759803772,0.03687237145379185,-0.16710194877982137
1733704734763659800,9.25565966796875,0.18296178121268747,-0.0054351767912507055,-0.22414602451622484
1733704734773627000,9.265626953125,0.1937660838216543,-0.030654519852250813,-0.28592998825609683
1733704734783592700,9.2755927734375,0.209320795828104,-0.014887188008427619,-0.22505027987957
1733704734793559800,9.285559814453125,0.19539456180632114,-0.015083295102417469,-0.18290099093616008
1733704734803526700,9.295526611328125,0.1208072305947542,-0.0004720014259219169,-0.10791969197094439
1733704734813493800,9.30549365234375,0.05468786799907684,0.006356383289396763,-0.009225508984923362
1733704734823460900,9.3154609375,0.014191022437810896,0.18061434130370616,0.08593173204660415
1733704734833427700,9.325427734375,-0.13266659521460533,-0.17850933184847234,-0.13780629619061946
1733704734843393800,9.335393798828125,0.19671470449417827,-0.2771707816086709,0.28722295067608355
1733704734853360600,9.345360595703125,-0.08890051872432231,0.5597369925200939,0.449307948076725
1733704734863327700,9.35532763671875,-0.26069150210320946,0.1390270701572299,-0.1049567505121231
1733704734873294800,9.365294921875,-0.27729601542353627,-0.12150734168812632,-0.06630231794714928
1733704734883261700,9.37526171875,-0.007799860095977783,0.2807125458687544,0.2175210534185171
1733704734893227800,9.385227783203124,-0.03588146072030067,0.2143266412913799,0.02690554258227348
1733704734903194600,9.395194580078124,-0.10466595087200403,-0.22906550687029956,-0.0867617531299591
1733704734913161700,9.40516162109375,0.08313713289201259,-0.1272387249469757,0.1623176371127367
1733704734923128800,9.41512890625,0.12504998273104428,-0.17246990555375813,0.17637538855969906
1733704734933095700,9.425095703125,0.015180617997050285,-0.30194384220689535,0.12418401355147361
1733704734943061800,9.435061767578125,0.011683715792000293,-0.2709549758337438,0.15035656568408012
1733704734953028600,9.445028564453125,-0.02922784804999828,-0.15782120247632264,0.05366670825779438
1733704734962995700,9.45499560546875,-0.06629179655313491,-0.15044468235895037,-0.052288405641913414
1733704734972962800,9.464962890625,-0.03633504970669746,-0.05246916903629899,0.00005728314518928528
1733704734982929700,9.4749296875,-0.07559533921033143,-0.008790770829468966,0.015037994655966757
1733704734992895700,9.484895751953125,-0.05903963346779346,0.00849208014383912,0.03622399054765701
1733704735002862600,9.494862548828126,-0.026105916637182234,0.02471884619295597,0.0903828662365675
1733704735012829700,9.50482958984375,-0.008496610188484192,0.02080839475095272,0.10511047976911067
1733704735022796500,9.514796630859376,0.02925064440369606,0.07224982817471028,0.10062018261253833
1733704735032763600,9.524763671875,0.013831541475653648,0.14298150687143205,0.05570785869657993
1733704735042730800,9.534730712890624,0.033308979883790016,0.1355254917770624,-0.019729367342591283
1733704735052696800,9.54469677734375,0.05299684617221355,0.05127659825086593,-0.12126608027815818
1733704735062663700,9.55466357421875,0.14318740470707417,0.031381811213493344,-0.13680851732492447
1733704735072630500,9.564630615234375,0.16999182500243187,0.13293211428299545,-0.1384101073026657
1733704735082597600,9.57459765625,0.1454696704253554,0.14825783983916044,-0.21665537649989128
1733704735092564700,9.584564697265625,0.11751637235581874,0.15684928870424628,-0.25780396396815775
1733704735102530800,9.59453076171875,0.09917992067635059,0.2466929334975779,-0.22114275104701517
1733704735112498000,9.604497802734375,0.10390198076218365,0.1389388073518872,-0.24118074594736097
1733704735122464800,9.61446484375,0.0852042945548892,-0.00047404725253581996,-0.1515162571132183
1733704735132432000,9.624431884765626,0.11441051529496908,-0.022286212218552825,-0.0503717583656311
1733704735142398700,9.634398681640626,0.1300485216706991,-0.07120704112350941,0.02802314843535423
1733704735152364800,9.64436474609375,0.05836626425087452,-0.08421952130123972,0.1379179398715496
1733704735162332000,9.654331787109374,-0.031876901254057885,-0.08339110765308141,0.20287527295053004
1733704735172298800,9.664298828125,-0.07886836953163147,-0.040725393620133395,0.21352643082439898
1733704735182265900,9.674265869140624,-0.12471592847108841,-0.0031231004565954205,0.15928104589581488
1733704735192233000,9.68423291015625,-0.1609858039870858,0.03870075592473149,0.13079729421138764
1733704735202198800,9.69419873046875,-0.1575456004053354,0.06087620124518871,0.10358312407135963
1733704735212166000,9.704165771484375,-0.10593553241640329,0.08812515043765307,0.09555471591651439
1733704735222132700,9.7141328125,-0.055767479929327964,0.09895721783638,0.07080547458529472
1733704735232099800,9.724099853515625,-0.014539689745008945,0.07275514734834432,0.052422845676541326
1733704735242066700,9.734066650390625,0.043160804073512554,0.04163520194143057,0.010458850172162056
1733704735252033800,9.74403369140625,0.09894669644236564,0.029878859304636716,-0.06414309408664703
1733704735261999900,9.753999755859375,0.1456435656875372,-0.01979118053242564,-0.1703863772779703
1733704735271966700,9.763966796875,0.1951829648822546,-0.05577537097483873,-0.24074527713954447
1733704735281933800,9.773933837890626,0.24895488708019256,-0.055024114216119045,-0.29209727871417995
1733704735291900700,9.783900634765626,0.23144144222140312,-0.04031301342695951,-0.3087491383075714
1733704735301867800,9.79386767578125,0.19803367813825606,-0.06024170273393392,-0.28664836565852164
1733704735311833900,9.803833740234374,0.18076631699502468,-0.03901537483185529,-0.2635276023119688
1733704735321800700,9.81380078125,0.20467706167548894,-0.034982173793017865,-0.22888240538835525
1733704735331767800,9.823767822265625,0.1671802747130394,-0.08346899519488216,-0.1407061092853546
1733704735341734700,9.833734619140625,0.13759411474466324,-0.06534867048412561,-0.05632452929019928
1733704735351701800,9.84370166015625,0.15263590879291294,-0.05845365027338266,0.058355742856860154
1733704735361667600,9.85366748046875,0.10552022961378096,-0.026466274382174013,0.17041151171922683
1733704735371634700,9.863634765625,0.03574409807622433,-0.013812544514238833,0.22321078949272632
1733704735381601800,9.873601806640625,-0.043992286461591715,0.02000686910971999,0.23499825792014598
1733704735391568600,9.883568603515625,-0.10329495477974414,0.049720016458630556,0.253008546385169
1733704735401535700,9.89353564453125,-0.13914017514288424,0.06315379078835248,0.2614800221323967
1733704735411501600,9.90350146484375,-0.210122759860754,0.1008218426644802,0.29199381833970545
1733704735421468700,9.91346875,-0.24907500632852314,0.11665464095994829,0.349039647641778
1733704735431435800,9.923435791015624,-0.2887058827102184,0.07529957113415002,0.378700626412034
1733704735441402600,9.933402587890624,-0.3042638095870614,0.03378668039813638,0.3424824810832739
1733704735451369700,9.94336962890625,-0.2537549808382988,-0.016372019738703964,0.2404436638444662
1733704735461336800,9.9533369140625,-0.15160305861383674,-0.06297609613388776,0.12257774739861488
1733704735471302700,9.963302734375,-0.0720765174344182,-0.0769210348561406,-0.025140870997309682
1733704735481269800,9.973269775390625,0.041975101420283316,-0.0702152536071837,-0.12828735721707343
1733704735491236600,9.983236572265625,0.11995733576714991,-0.04801408932358026,-0.21316519629657268
1733704735501203700,9.99320361328125,0.17143325598239897,-0.019433453135937452,-0.27855741366147996
1733704735511170600,10.003170654296875,0.17647475728094578,0.011720540671050548,-0.31188918989896774
1733704735521136600,10.01313671875,0.1889580990180373,0.040955841375142334,-0.31053719076812264
1733704735531103700,10.023103759765625,0.19292466456145047,0.04720408811494708,-0.28728724808394906
1733704735541070000,10.033070068359375,0.16799977440237998,0.04263970280885696,-0.25236674135029313
1733704735551037200,10.043037109375,0.11658961289972067,0.030226942089945075,-0.16398235545456408
1733704735561004000,10.053004150390626,0.03831657891273498,0.03437631685435772,-0.07696925791203975
1733704735570970000,10.06297021484375,0.005983166062831878,0.004515723858773708,0.01369593239724636
1733704735580937000,10.07293701171875,-0.0046533787637948985,-0.04681187392696738,0.07292319739162921
1733704735590904000,10.082904052734374,-0.006669394761323929,-0.07771437719091773,0.15556933189630506
1733704735600871200,10.09287109375,-0.018162848678231237,-0.07357070151492953,0.2327659688234329
1733704735610838000,10.102838134765625,-0.06900105551183223,-0.05493555914983153,0.2633434779167175
1733704735620804000,10.11280419921875,-0.07134498828947544,-0.03575169686079025,0.26120295875668526
1733704735630771000,10.12277099609375,-0.060551791596412656,-0.04883417353481054,0.22796002984642982
1733704735640738000,10.132738037109375,-0.01269990709722042,-0.06810118406265973,0.13682605298161507
1733704735650705200,10.142705078125,0.05965192014724016,-0.05197013347297907,0.05136252296864986
1733704735660672000,10.152672119140625,0.09269085091799498,-0.02039835264533758,-0.023290859216451642
1733704735670638000,10.16263818359375,0.08198357894271611,0.04910670686587691,-0.10084171640872955
1733704735680605000,10.17260498046875,0.09089783002138137,0.11546017047837376,-0.16403320885896683
1733704735690572000,10.182572021484376,0.02967617633938789,0.15877908772304652,-0.1364110424399376
1733704735700539000,10.192538818359376,0.196193018707633,-0.011303338172286749,-0.41530864784121513
1733704735710506000,10.202506103515624,0.1648769662067294,0.0749301532998681,-0.3240203571975231
1733704735720472000,10.21247216796875,0.13773732260763644,0.10820669221878051,-0.21200784295499323
1733704735730439000,10.22243896484375,0.09642799161970615,0.07828370151147246,-0.15743687933385372
1733704735740406000,10.232406005859374,0.02502075174897909,0.051542409580200906,-0.055173021167516705
1733704735750372900,10.242372802734375,-0.02661854233443737,0.04426102040037513,0.046428573697805404
1733704735760340000,10.252340087890625,-0.07518383579999208,0.03574102933630347,0.1399959151893854
1733704735770307000,10.26230712890625,-0.10018822093605995,0.030430940229445695,0.20609832665026187
1733704735780273000,10.27227294921875,-0.10382277804613113,0.030410481963306663,0.19471242476105688
1733704735790240000,10.282239990234375,-0.09535334812551736,0.019731267038732767,0.19400982944965361
1733704735800206800,10.292206787109375,-0.08975012129098177,0.03468888993486762,0.14478373398780822
1733704735810174000,10.302174072265625,-0.06640402475595474,0.016121113717556,0.10822364335358142
1733704735820141000,10.31214111328125,-0.048500119274854654,0.01952142368033528,0.08341770339906215
1733704735830107000,10.32210693359375,-0.02865940051227808,0.008245850297808647,0.08824000898897648
1733704735840074000,10.332073974609376,-0.00362462023794651,0.010824030222743749,0.05775777696371078
1733704735850040800,10.342040771484376,0.04806055881381035,0.020973229923844337,0.048690673410892484
1733704735860008000,10.352008056640624,0.05105214184522629,0.05046674317270517,0.03458732925653457
1733704735869975000,10.36197509765625,0.02070464211553335,0.09157280667349696,-0.0021960487395524977
1733704735879940900,10.37194091796875,0.02252981171607971,0.06981909389644861,-0.023999299746751784
1733704735889908000,10.381907958984375,0.021889760246872902,0.0628027853935957,-0.007103110003471374
1733704735899874800,10.391874755859375,0.05532675042450428,0.08421031508147717,0.01312251642346382
1733704735909842000,10.401842041015625,0.05190028310716152,0.05083163096234202,-0.008261047866940497
1733704735919809000,10.41180908203125,0.030062545308470724,0.0065562897756695744,-0.07555646850466728
1733704735929775000,10.421775146484375,0.032682664678990836,-0.04164323911741376,-0.12523556843101977
1733704735939742200,10.4317421875,0.11096183614581823,-0.08294628649502993,-0.12896306452155112
1733704735949709000,10.441708984375,0.11409516573548316,-0.11492021838277577,-0.15314531961977482
1733704735959676000,10.451676025390626,0.13730068475604057,-0.15218772663399577,-0.1719119794100523
1733704735969642800,10.461642822265626,0.16173428426682948,-0.16740429272726176,-0.15280863501131534
1733704735979609000,10.471609130859376,0.15884206995666025,-0.1390117264576256,-0.0945604441821575
1733704735989576200,10.481576171875,0.12059621819257736,-0.09634235916286707,-0.03172258747518063
1733704735999543000,10.49154296875,0.08791092316508292,-0.0703152068503201,-0.0029278701454401013
1733704736009510100,10.50151025390625,0.04657411964833736,-0.04843377604037523,0.01063946743607521
1733704736019477000,10.51147705078125,0.04486614668667316,-0.03651026014313102,0.02521159814596176
1733704736029444000,10.521444091796875,0.026683132003247737,-0.03192643948420882,-0.0026227497190237045
1733704736039410000,10.531409912109375,0.01777852553576231,0.00040638884380459785,0.0049181671798229215
1733704736049377000,10.541376953125,-0.0008735679641366004,0.015048808310925959,0.008304887008666991
1733704736059344100,10.55134423828125,-0.005418810178339481,0.01511091376170516,0.02036182002723217
1733704736069311000,10.56131103515625,-0.010052022936940193,0.043152182375639676,0.044861470511555666
1733704736079278000,10.571278076171875,-0.0070031567603349686,0.07730477347671985,0.06779284876585007
1733704736089244000,10.581243896484375,-0.0009001637101173401,0.05398571107909083,0.05309796845912933
1733704736099211000,10.5912109375,-0.031203239776194092,0.05911459840014577,0.03482990584075451
1733704736109178000,10.60117822265625,-0.02731996860206127,0.06573343201801181,-0.003236497703194618
1733704736119145000,10.61114501953125,-0.014844517910480498,0.09076149029061198,-0.03572247076630592
1733704736129112000,10.621112060546874,-0.030029519821703432,0.08718626215234399,-0.03231879980266094
1733704736139078000,10.631077880859374,-0.0028580197796225547,0.07837313336059451,-0.018214286604523656
1733704736149045000,10.641044921875,0.028334990863502024,0.10229702978357672,0.03969546605050563
1733704736159012000,10.65101220703125,-0.006056815820932388,0.10059797078073024,0.08472527886629104
1733704736168979000,10.66097900390625,-0.02844634228348732,0.0933843861401081,0.10401216313838958
1733704736178946000,10.670946044921875,-0.04525134661197662,0.08131430137902498,0.08590425951778888
1733704736188911900,10.680911865234375,-0.05173427889049053,0.059902680037915705,0.027425182542204857
1733704736198879000,10.69087890625,-0.027564298751950263,0.02600450208932161,-0.01813303806185722
1733704736208846000,10.70084619140625,0.0034732290685176846,0.007680471500009298,-0.039977790123224256
1733704736218813000,10.71081298828125,-0.005503273591399192,0.006415420000255107,-0.026617373290657994
1733704736228780000,10.720780029296876,-0.008217208725214004,0.00306800926849246,-0.002540332132577896
1733704736238745900,10.730745849609375,-0.0010088847815990446,-0.03313610753491521,0.01586100147664547
1733704736248713000,10.740712890625,0.0030213936477899547,-0.03528466387093067,0.04023848688602447
1733704736258680000,10.75068017578125,0.04663023374974727,-0.06096139531061053,0.044674423506855965
1733704736268647000,10.76064697265625,0.06389876393675804,-0.0670930299334228,0.034980712488293646
1733704736278614000,10.770614013671874,0.09578384849727153,-0.10200243075117468,-0.014755670583248138
1733704736288579800,10.780579833984374,0.1432154617577791,-0.08472089495211839,-0.07160626957416534
1733704736298547000,10.790546875,0.19799451517164707,-0.06691197427809238,-0.1232698213160038
1733704736308513800,10.800513671875,0.20881635343730448,-0.020794950747489927,-0.10499240634739399
1733704736318481000,10.81048095703125,0.16375789904892443,0.03831701730415225,-0.09668927290439605
1733704736328448000,10.820447998046875,0.10118629206269979,0.06321034328117967,-0.05944938331246376
1733704736338414800,10.830414794921875,0.03278758635818958,0.05457154814302921,-0.04802957915365696
1733704736348381000,10.840380859375,-0.018868366599082944,0.016315028854459523,-0.06072656364142894
1733704736358347800,10.85034765625,-0.0034980712488293644,-0.03228504366353154,-0.06364215882718563
1733704736368315000,10.86031494140625,-0.000016366612911224363,-0.037880087191611525,-0.06375730963945389
1733704736378282000,10.870281982421876,-0.010547112977504729,-0.06008139760568738,-0.058062312868237494
1733704736388248800,10.880248779296876,-0.014081716844439505,-0.07227890813872218,-0.022667758882045745
1733704736398215200,10.890215087890626,-0.008290858483314513,-0.07316431267112493,0.034866146197915074
1733704736408182000,10.90018212890625,-0.0017068039178848265,-0.044735067652910944,0.04745791674554348
1733704736418149000,10.910149169921874,0.0006084872871637344,0.020430501349270342,0.06617664574086665
1733704736428116000,10.920115966796875,-0.006668810239434242,0.06934884603619575,0.12905249637067318
1733704736438082800,10.930082763671875,-0.022705168282985685,0.10445888399258256,0.15841186184585093
1733704736448049200,10.940049072265625,-0.030524317601323125,0.11532631496563553,0.14860241549313066
1733704736458016000,10.95001611328125,-0.027687048348784445,0.10317775814086198,0.07436345932781696
1733704736467983000,10.959983154296875,0.02879705541729927,0.0767474318549037,0.021697452545166016
1733704736477950200,10.9699501953125,0.043189153385162354,0.0573420357696712,-0.05786299090385437
1733704736487917000,10.9799169921875,0.06988426808714866,0.048490913055092094,-0.07535773106217383
1733704736497883100,10.989883056640625,0.0891536167025566,0.024009675010293722,-0.07314531570971011
1733704736507850000,10.99985009765625,0.096599841055274,0.01242035950347781,-0.061111763566732404
1733704736517817000,11.009817138671876,0.10510638811588287,-0.018072832307219504,-0.027140520381927487
1733704736527784000,11.019783935546876,0.11378478461205958,-0.02428936873450875,-0.0183779527336359
1733704736537751600,11.02975146484375,0.0971142203181982,-0.03500803888663649,-0.04118541234731674
1733704736547717600,11.039717529296874,0.09786416190266609,-0.024105682730674743,-0.07516016266345978
1733704736557684500,11.0496845703125,0.05555705204904079,-0.00992751977443695,-0.06655833853483199
1733704736567651600,11.059651611328125,0.04017155912965536,0.00647781771197915,-0.04678454752862453
1733704736577618700,11.06961865234375,0.039437107375264166,0.016802520110458134,-0.028380291309952736
1733704736587585500,11.07958544921875,0.019662147325277327,-0.008214286115765572,-0.029491467422246932
1733704736597551600,11.089551513671875,0.047559623554348944,-0.041094665323942896,-0.03210661835670471
1733704736607518500,11.0995185546875,0.044563656608760355,-0.026455899118632078,0.015827683728933332
1733704736617485600,11.109485595703125,0.03154401603788137,-0.025197131229192017,0.0703185678511858
1733704736627452400,11.119452392578125,-0.004286299017071724,-0.009870090498775243,0.07932137399613856
1733704736637419500,11.12941943359375,-0.0232514039888978,-0.017987053719907997,0.050478141349554057
1733704736647385600,11.139385498046876,-0.03420388289690018,-0.02547638656198978,0.052020694616436956
1733704736657352400,11.1493525390625,-0.031339141115546226,-0.020116466964036225,0.048458033698797226
1733704736667319600,11.159319580078124,-0.047725043249130246,-0.006604805092513561,0.03561082708537578
1733704736677286400,11.169286376953124,-0.042565176267921924,0.022027561282366513,0.048825113445520395
1733704736687253500,11.17925341796875,-0.033655893625319004,0.0278251416452229,0.0551864651709795
1733704736697220600,11.189220703125,-0.029567455267906186,0.028204788612574336,0.016596914535760877
1733704736707186400,11.1991865234375,-0.007943067958950997,0.029946225452423095,0.02108428908288479
1733704736717153500,11.209153564453125,-0.008964812222123145,0.04041296667009592,0.03337736894488334
1733704736727120400,11.219120361328125,0.005910393087565899,0.04650207732543349,0.019888357296586036
1733704736737087500,11.22908740234375,0.04593231461346149,0.007425766086578369,0.014730536141991614
1733704736747054600,11.2390546875,0.04091127158105373,-0.012678279787302016,-0.04144494006633758
1733704736757020400,11.2490205078125,0.06107435416579246,-0.02540419810861349,-0.060109893047809594
1733704736766987500,11.258987548828125,0.0772591807693243,-0.009204612327367067,-0.08509528122246265
1733704736776954400,11.268954345703126,0.07871931644976139,0.011486439654231071,-0.09201134422123432
1733704736786921500,11.27892138671875,0.08738777607381343,0.014109481634199618,-0.06665536916851997
1733704736796888600,11.288888671875,0.0838750917777419,0.0034412264950573444,-0.03729132751822471
1733704736806854400,11.2988544921875,0.07226970191895961,-0.001666179646551609,-0.009542904371023177
1733704736816821500,11.308821533203124,0.05857435404360294,0.011132657780498266,0.01596153924167156
1733704736826788400,11.318788330078124,0.05906944408416748,0.03314136823192239,0.03626023090481758
1733704736836755500,11.32875537109375,0.03279810775220394,0.03264057910293341,0.019908815562725064
1733704736846722600,11.33872265625,0.02353460484445095,0.039840135218203065,-0.00897942526936531
1733704736856688400,11.3486884765625,0.023001520881056784,0.037981940130889416,-0.012248071676492691
1733704736866655500,11.358655517578125,0.03607669103145599,0.03519245554283261,-0.012855974441766739
1733704736876622300,11.368622314453125,-0.007198387071490287,0.02249181779325008,-0.014499065473675727
1733704736886589400,11.37858935546875,-0.00846270791888237,0.020106968483328817,-0.013585457760095596
1733704736896556300,11.388556396484375,-0.013770751199126243,0.02641819745674729,0.027789339679479597
1733704736906522600,11.398522705078125,-0.03639583998322487,0.03342588426172733,0.045863341030478476
1733704736916489700,11.40848974609375,-0.04605097255706787,0.02612330616340041,0.03898877908587456
1733704736926456600,11.41845654296875,-0.06100421153903007,0.030593729575723407,0.036053894677758214
1733704736936423400,11.42842333984375,-0.04630874671041965,0.025684914746135473,0.06455752010643481
1733704736946390300,11.438390380859374,-0.03198737589120865,0.02632496621534228,0.07974924401938915
1733704736956356600,11.448356689453124,-0.03313829949200153,0.0023142682917416096,0.10714344690144062
1733704736966323500,11.458323486328124,0.00021451953351497648,-0.019043284774571657,0.1149737021356821
1733704736976290600,11.46829052734375,0.029944471886754035,-0.02467822192162275,0.07110825692415237
1733704736986257700,11.478257568359375,0.08689619316458702,-0.02330021156668663,0.0448994644343853
1733704736996224500,11.488224609375,0.13537380834668875,-0.02785977456718683,0.0024321955829858777
1733704737006190600,11.498190673828125,0.12893091581761837,-0.057726358912140126,-0.07373802090585231
1733704737016157400,11.508157470703125,0.11291501604020594,-0.06107333125248551,-0.16874620885550976
1733704737026124500,11.51812451171875,0.1469505566328764,-0.05862915297076106,-0.2321165650039911
1733704737036091600,11.528091552734375,0.14580314016342164,-0.06467515513673425,-0.2542676065355539
1733704737046058500,11.53805859375,0.13319675656855107,-0.03739128076136112,-0.2217132444113493
1733704737056024600,11.548024658203126,0.11774433589279651,0.016085604012757538,-0.1099672721505165
1733704737065991400,11.557991455078126,0.06893003610223532,0.035447599347680804,-0.007011924588680267
1733704737075958500,11.56795849609375,0.025533669707179067,0.04183013999164104,0.08414192602038383
1733704737085925600,11.577925537109374,0.0032648470148444173,0.05819368416294455,0.10883797585964203
1733704737095892500,11.587892578125,-0.017312953850626943,0.06290156959295272,0.07309095517396927
1733704737105858600,11.597858642578124,-0.03701484866440296,0.053878597442805765,0.030488661766052243
1733704737115825400,11.607825439453125,-0.03905307649374008,0.054118251417577264,0.022254501906037328
1733704737125792500,11.61779248046875,-0.018810498932003972,0.034867899763584134,0.04138824144303799
1733704737135759600,11.627759521484375,-0.03528641743659973,0.011789368123561144,0.0728495476335287
1733704737145726500,11.6377265625,-0.03122340578138828,0.014271394197642803,0.099084059086442
1733704737155692500,11.647692626953125,-0.04991846164017916,0.017045096694678068,0.09707388830780983
1733704737165659400,11.657659423828125,-0.06128595108985901,0.04018587991595268,0.08614975871145725
1733704737175626500,11.66762646484375,-0.03081745532900095,0.03659618486091494,0.0759171185106039
1733704737185593600,11.677593505859376,0.0006517419070005417,0.03664879183098674,0.032497663500905036
1733704737195560400,11.687560546875,0.017388357174396515,0.05430296033471822,0.0033721067816019057
1733704737205527600,11.697527587890624,0.02071194863915443,0.04294643067047,-0.01971826142668724
1733704737215493400,11.707493408203124,0.03380816157758236,0.021051848118007182,-0.046404023778438566
1733704737225460500,11.71746044921875,0.039757717631757256,-0.0012228197932243347,-0.06886427738964557
1733704737235427300,11.72742724609375,0.07244184361547232,-0.01549172977283597,-0.04836567924022674
1733704737245394400,11.73739453125,0.11031272458732128,-0.02385711479708552,-0.024800094735622405
1733704737255361500,11.747361572265625,0.1355553023934364,-0.048407618685811754,-0.0013444003462791442
1733704737265327400,11.757327392578125,0.15196283183693884,-0.040577947973459955,-0.012234627673029899
1733704737275294500,11.76729443359375,0.11950666939020156,-0.015473317333310841,-0.06510697068274021
1733704737285261300,11.77726123046875,0.08414952480494975,0.033843232890963554,-0.14297405421733855
1733704737295228400,11.787228515625,0.04236556204259395,0.06801598999723792,-0.14276421085894106
1733704737305195500,11.797195556640625,0.05114654213041067,0.05626373901367187,-0.11166998441517352
1733704737315161300,11.807161376953125,0.04331014941632747,0.032022885596007106,-0.006146832191944122
1733704737325128400,11.81712841796875,-0.002691431041061878,0.012665858697146176,0.039352936223149296
1733704737335095300,11.82709521484375,-0.008253156821429729,-0.024956600471585988,0.06235153449475765
1733704737345062400,11.8370625,-0.027830256211757658,-0.042362493302673096,0.09958382530212402
1733704737355029500,11.847029541015624,-0.026861118918657303,-0.03544862226098776,0.09857552504241467
1733704737364995600,11.85699560546875,-0.02774608505964279,-0.04563596201539039,0.05906885956227779
1733704737374962700,11.866962646484374,-0.037166824355721474,-0.016083412055671212,0.01962064627110958
1733704737384929500,11.876929443359375,-0.010664894138276577,-0.029339199469983576,0.030151392635703086
1733704737394896400,11.886896484375,-0.01393207924067974,-0.004806085107475519,0.045315644019842144
1733704737404863500,11.896863525390625,-0.004092237749695778,0.0036586686380207538,0.052124739512801166
1733704737414829600,11.90682958984375,0.01930383540689945,-0.03415975149422884,0.04199439064264297
1733704737424796700,11.916796630859375,0.035245500904321665,-0.059712125901877876,0.02224631859958172
1733704737434763500,11.926763427734375,0.07853869918584823,-0.05665200767889619,-0.012026537880301474
1733704737444730600,11.936730712890625,0.08197101172208786,-0.02713701325058937,-0.04911562082469463
1733704737454697700,11.94669775390625,0.11142711557000874,-0.04258154288083315,-0.0834936912447214
1733704737464663600,11.95666357421875,0.13884849871993063,-0.03703516080006957,-0.09330547568500042
1733704737474630700,11.966630615234376,0.14384849896430968,-0.006850742677599191,-0.11066752937436103
1733704737484597500,11.976597412109374,0.14142682477533816,-0.0029493513248860835,-0.1169476325571537
1733704737494564600,11.986564697265624,0.09183014243543147,0.045935091092437506,-0.08892916029691696
1733704737504531500,11.996531494140624,0.03552081071436405,0.09366334921196103,-0.06454115349352359
1733704737514497500,12.00649755859375,-0.012558160538971424,0.12676701578199862,-0.022111294043064115
1733704737524464600,12.016464599609375,-0.04693126252293586,0.13477905732393264,0.03891396028399467
1733704737534431500,12.026431396484375,-0.07748889787197112,0.13547273867651818,0.09856675721406936
1733704737544398600,12.036398681640625,-0.08169803999960422,0.09650924016237258,0.15749065534770487
1733704737554365400,12.046365478515625,-0.06831921072751283,0.06911065336614847,0.17032850961089133
1733704737564331500,12.05633154296875,-0.06504325779676437,0.020117197616398335,0.1452162801861763
1733704737574298400,12.06629833984375,-0.02846153985261917,-0.03676905720978975,0.07902268331050873
1733704737584265500,12.076265380859375,-0.004876666125655174,-0.05062836347520351,0.015430793365836143
1733704737594232600,12.086232666015626,0.021046002899110315,-0.045657150933891534,-0.008730418944358826
1733704737604199400,12.096199462890626,0.04946954882889986,-0.03637099780291319,-0.026771102547645566
1733704737614165500,12.10616552734375,0.05361527033150196,-0.008241320253163575,-0.040052608925104136
