time,seconds_elapsed,z,y,x
1733704452226642400,0.018642333984375,-0.07228022331297397,-0.025658465130627153,0.14389701428115367
1733704452245329400,0.037329345703125,-0.009989479094743728,-0.01643470971137285,0.05877776766121387
1733704452255296500,0.047296630859375,0.0160252521276474,-0.06066197397261858,-0.026985622081160544
1733704452265262300,0.057262451171875,0.06362462317049503,-0.06180792913734912,-0.09093874655365944
1733704452275228200,0.067228271484375,0.07181143675744533,-0.04058218575716018,-0.0994061306476593
1733704452285195000,0.077195068359375,0.0660924745887518,-0.008806991311907767,-0.09478373154401779
1733704452295161300,0.087161376953125,0.07405249368250369,-0.012846037569642066,-0.07139817978143692
1733704452305128200,0.097128173828125,0.06358078402876853,-0.011373334668576717,-0.03796937291026115
1733704452315094300,0.10709423828125,0.0218418294519186,-0.002484218031167984,-0.04066109621226787
1733704452325061000,0.11706103515625,0.004319032242894172,-0.02890373066216707,-0.059711833640933035
1733704452335028200,0.1270283203125,0.02037175689935684,-0.04655395364314317,-0.06577332563698292
1733704452344994000,0.136994140625,0.04948386961519718,-0.06139584120512008,-0.08897183039486407
1733704452354961200,0.146961181640625,0.09184358643889427,-0.03491992221176624,-0.11245558183491229
1733704452364927000,0.156927001953125,0.11264905858039856,-0.024855332054197786,-0.08425941492021083
1733704452374894000,0.16689404296875,0.10953004977703094,-0.028563831183314323,-0.04666355149745941
1733704452384860200,0.176860107421875,0.06764671829342842,0.0017024200037121771,0.00026128128468990325
1733704452394827000,0.186826904296875,0.024146014741063117,0.05267798948138952,0.016599252623319623
1733704452404793300,0.19679345703125,0.039303836384415626,0.07896978407949208,0.027589433193206784
1733704452414760200,0.20676025390625,0.022716566459834574,0.016024083083868025,0.03679389939010143
1733704452424727300,0.216727294921875,-0.012095511463284492,-0.03951046487241983,0.010987842482328414
1733704452434693000,0.226693115234375,0.013666121780872344,-0.04404606247544288,0.0049169981360435485
1733704452444660200,0.23666015625,0.01726443853378296,-0.017322890722751616,-0.005708440774679184
1733704452454626000,0.2466259765625,0.0321612711533904,0.03259469413459301,-0.07468085471391678
1733704452464593200,0.25659326171875,0.06431698934882879,0.02733750425875187,-0.04514145649671554
1733704452474560300,0.266560302734375,0.017528057906031607,-0.04530599940866232,0.10308569594323634
1733704452484526000,0.276526123046875,-0.020211597901582716,-0.026535247965157032,0.18508593375980853
1733704452494493200,0.2864931640625,-0.0483808768093586,0.011975976736843585,0.19301438867151735
1733704452504459300,0.296459228515625,-0.06882920607626437,0.03731616969853639,0.16920739662647247
1733704452514426000,0.306426025390625,-0.08879004408717155,0.026453414900600908,0.08884265105724334
1733704452524392200,0.31639208984375,-0.06930266880691051,-0.01578413684815168,0.027435703936219212
1733704452534359300,0.326359375,-0.010379062934219837,-0.019115911619365215,-0.006576455780863762
1733704452544326100,0.336326171875,0.038951369684934616,-0.03565934240221977,-0.02493453477025032
1733704452554292200,0.346292236328125,0.060198740375041956,-0.008327391101419925,-0.018899346259236335
1733704452564259000,0.356259033203125,0.07679916204214096,0.0033861353069543835,-0.019854455026984213
1733704452574225200,0.36622509765625,0.08250906412154435,0.013956629160046577,-0.039433015722036356
1733704452584192300,0.376192138671875,0.06856149505078792,0.010564648634195328,-0.04649170206189155
1733704452594158000,0.386157958984375,0.05523877988010645,-0.02334405070841312,-0.041211715832352634
1733704452604125200,0.396125244140625,0.06883738938272,-0.03504764024466276,-0.036408699464797974
1733704452614092000,0.406092041015625,0.056874856649339195,-0.039525077919662,-0.02526829676926136
1733704452624058400,0.416058349609375,0.04706336447000503,-0.03933423152267933,-0.02656009014546871
1733704452634025200,0.426025146484375,0.039975159774720666,-0.03801759596616029,-0.013923895934224127
1733704452643991300,0.4359912109375,0.00954758054614067,-0.02529869190752506,-0.006385317122936249
1733704452653958100,0.445958251953125,0.013142682428658008,-0.015393383964896201,0.0015033903002738952
1733704452663924200,0.45592431640625,0.020231471645832062,-0.013134206861257552,0.010035656324028969
1733704452673891000,0.46589111328125,0.01907996352314949,-0.008134498877823353,0.01830781010687351
1733704452683858200,0.475858154296875,0.004380407041311264,0.017467267629504204,0.032609307181835176
1733704452693824000,0.485823974609375,0.0015124503895640373,0.007374620421230793,0.05009644855558872
1733704452703791000,0.495791015625,0.003300210589170456,0.013571136973798274,0.03189092977941036
1733704452713757200,0.505757080078125,0.005470540365576744,0.010309504829347133,0.012374912926554679
1733704452723724000,0.51572412109375,0.009372223979234694,-0.011589607767760753,-0.016212883654236794
1733704452733690400,0.5256904296875,0.0015314473509788513,-0.005464695146679878,-0.02268061836361885
1733704452743657200,0.5356572265625,-0.0027086744368076325,-0.002020399911701679,-0.022886954590678212
1733704452753624300,0.545624267578125,-0.007085574346780777,0.003448679149150848,0.0008364508241415023
1733704452763590100,0.555590087890625,0.016106500670313835,-0.010110182864964007,0.02650222247838974
1733704452773557200,0.56555712890625,-0.007298632575571537,-0.014722352835536003,0.04292904114425182
1733704452783523000,0.575523193359375,0.0024900632500648497,-0.014634674552083015,0.033389643904566765
1733704452793490200,0.585490234375,0.019475684842467308,-0.017481588415801524,0.019763269612193105
1733704452803456000,0.5954560546875,0.018825111979246138,-0.02117839710712433,-0.0033890579164028165
1733704452813423000,0.605423095703125,-0.00031359599381685255,-0.008540157069265843,-0.024057167413830755
1733704452823390200,0.61539013671875,0.009511047928035258,0.007858020024001598,-0.02567863113582134
1733704452833356000,0.62535595703125,0.041158232079446314,-0.009126432524621485,-0.021176059019565582
1733704452843323100,0.6353232421875,0.05428980859220028,0.0014653963774442671,-0.020972060880064963
1733704452853289200,0.645289306640625,0.047692017762362954,-0.023565292243659493,0.00455050291121006
1733704452863256300,0.65525634765625,0.03237403712123632,-0.012539748099446297,0.017148118677735327
1733704452873222100,0.66522216796875,0.006639291884005069,-0.03971943144798278,-0.012276128727197647
1733704452883189200,0.675189208984375,0.015756079797446726,-0.039625907945632935,-0.049994741746783256
1733704452893156000,0.685156005859375,0.007114800441265106,-0.036470951046049596,-0.033442250874638556
1733704452903122200,0.6951220703125,0.01156271976083517,-0.03162818718999624,-0.02490355511009693
1733704452913089300,0.70508935546875,-0.0021387655943632127,-0.025320903739333152,0.003994622594118118
1733704452923055000,0.71505517578125,-0.023825112223625183,-0.007284604050219058,0.042591187492012975
1733704452933022200,0.725022216796875,-0.02940262009501457,0.01268120239675045,0.06575345189273357
1733704452942988000,0.734988037109375,-0.03425824343264103,0.005814531497657299,0.054745151144266126
1733704452952955100,0.744955078125,-0.02385433831810951,0.01133183361440897,0.05581190359294414
1733704452962922000,0.754921875,0.006429448525607585,-0.0018351064726710318,0.05688859291374683
1733704452972888300,0.764888427734375,0.02381868248283863,0.020434885263442993,0.04049041582047939
1733704452982855200,0.774855224609375,0.012687047615647316,0.043213995565474034,-0.012216507494449615
1733704452992821200,0.7848212890625,0.02084580415189266,0.03324292891025543,-0.03712707686722278
1733704453002788000,0.7947880859375,0.06083353114724159,0.011864917577803134,-0.04582242449820041
1733704453012754200,0.804754150390625,0.07627952208220959,0.011806465388834475,-0.07357610834240913
1733704453022721000,0.814720947265625,0.07280044779479503,0.0018067571610212326,-0.09664894089400768
1733704453032688000,0.824688232421875,0.07748480621874332,0.0032397125735878943,-0.07186462824940681
1733704453042654200,0.834654296875,0.09018880496919154,-0.0016544892087578772,-0.0461976875513792
1733704453052621000,0.84462109375,0.1120586914718151,0.005812777931988239,-0.035925884383916855
1733704453062587100,0.854587158203125,0.07781623013019562,-0.016331249336898324,-0.038653848043084145
1733704453072554000,0.864553955078125,0.049910570594668385,-0.020203999117016792,-0.06284487096965313
1733704453082520300,0.874520263671875,0.06395604708194733,-0.04436784177571535,-0.06215162800848484
1733704453092487200,0.884487060546875,0.06468056196421385,-0.04839110594242811,-0.020227379992604256
1733704453102454300,0.894454345703125,0.04044949928820133,-0.026194763964414596,0.006413958695530891
1733704453112420000,0.904420166015625,0.033339082761108876,-0.02026420487165451,0.013413023802638053
1733704453122387200,0.91438720703125,-0.011311083087325095,-0.005638590408861637,0.01568506038784981
1733704453132353000,0.92435302734375,-0.026441432201862333,0.0015168343037366865,-0.010303367349505424
1733704453142320000,0.934320068359375,-0.001235094752907753,-0.0024497312396764754,-0.03193827605247497
1733704453152287200,0.944287353515625,-0.01743161179423332,0.00839694920629263,-0.03234627233147621
1733704453162253000,0.954253173828125,-0.03684709088206291,0.01674070692062378,-0.00575695609152317
1733704453172220200,0.96422021484375,-0.02442249359488487,0.024260288770496845,0.006204115337133408
1733704453182186200,0.974186279296875,-0.011373042407631873,0.017940438099205494,0.05103869784176349
1733704453192153000,0.984153076171875,0.029276655627787113,-0.0032622166663408276,0.10153379032611846
1733704453202119200,0.994119140625,0.02860913162976503,-0.019281039053201676,0.13655308125913143
1733704453212086300,1.004086181640625,0.024751871679723262,-0.02122194398790598,0.12932722165882587
1733704453222053000,1.01405322265625,0.011514496704936027,-0.028732758009433746,0.05144318698942661
1733704453232019200,1.024019287109375,0.02482522917687893,-0.03696779465228319,-0.059735214516520495
1733704453241986300,1.033986328125,0.035948096215724944,-0.036251170815527436,-0.13185060265660284
1733704453251952000,1.0439521484375,0.03279635418653488,-0.008483458445966242,-0.1525315716356039
1733704453261919200,1.053919189453125,0.004877835169434547,0.0093850834608078,-0.10392506937682627
1733704453271885000,1.063885009765625,0.028563831183314323,0.026734862190484997,-0.026884499794244766
1733704453281853000,1.07385302734375,0.045727731952071186,0.010564648634195328,0.02006196029782295
1733704453291819800,1.08381982421875,0.026992636343836782,-0.009948270301520824,0.049455228042602536
1733704453301785900,1.093785888671875,0.0648591334015131,-0.04905950672328472,0.07773088993430137
1733704453311753000,1.1037529296875,0.07496142522096634,-0.01601034681946039,0.09576981997191905
1733704453321719000,1.113718994140625,0.044230479131639,-0.013498948520421982,0.061081952950358384
1733704453331686100,1.12368603515625,0.013158756780624389,-0.006196516552567481,-0.016417466315627096
1733704453341652000,1.13365185546875,-0.016515081471204757,-0.0006309913799166679,-0.09692366618216038
1733704453351619000,1.143619140625,0.009743979901075362,-0.011160860961675644,-0.12361702731847762
1733704453361586000,1.1535859375,0.0137900404214859,-0.019662439586222172,-0.0812280844002962
1733704453371552000,1.163552001953125,0.028714053308963775,-0.017155717462301254,-0.0311398191511631
1733704453381518800,1.173518798828125,0.025675416265428064,-0.009041969111561774,0.022237550771236417
1733704453391485000,1.18348486328125,0.04293137923181057,-0.01658902349025011,0.04560907400846481
1733704453401451800,1.19345166015625,0.0706999683842063,-0.023981471829116342,0.05350596473813057
1733704453411417900,1.20341796875,0.09011983138620853,-0.015408581534028052,0.051777533510327337
1733704453421384700,1.213384765625,0.05993336743712425,0.012872341054677962,0.033117841225862504
1733704453431351800,1.223351806640625,0.026560382406413553,0.0017418752312660217,-0.014455226331949234
1733704453441318100,1.233318115234375,0.0356102425634861,-0.034573008470237254,-0.07614683561325072
1733704453451285000,1.243284912109375,0.03874327989220619,-0.040650282557308674,-0.10552256770133972
1733704453461251000,1.2532509765625,0.03710077338218689,-0.029584990924596783,-0.07197685645222664
1733704453471218000,1.263218017578125,0.03526011395156383,-0.01215571721792221,-0.045748774740099904
1733704453481184000,1.27318408203125,0.04802373393476009,-0.018293781581521035,-0.011495792004466055
1733704453491150800,1.28315087890625,0.05375029488801956,-0.00045300446450710294,-0.011475333738327025
1733704453501118000,1.293117919921875,0.034577392384409905,-0.025515549528598785,0.00009293898046016692
1733704453511083800,1.303083740234375,0.04166355125308036,-0.032958266749978066,0.019230770170688628
1733704453521051000,1.31305078125,0.04229775750339031,-0.016108254235982895,0.030237317353487014
1733704453531016700,1.3230166015625,0.03590688742250204,-0.00433481433391571,0.033522914895415305
1733704453540983800,1.33298388671875,0.00824877290725708,0.00021656536012887954,0.007683540239930152
1733704453550951000,1.342950927734375,0.0023798808738589284,-0.0059694297984242434,-0.030150223591923712
1733704453560917000,1.3529169921875,0.027272622328996656,-0.01513853242099285,-0.06685527565479278
1733704453570884000,1.362884033203125,0.05467471625655889,-0.009861176539957522,-0.07751637040078639
1733704453580850000,1.372849853515625,0.07707330280840397,-0.01972352212369442,-0.09052373601198196
1733704453590817000,1.382817138671875,0.14816870025098322,-0.041214346180856225,-0.12637012541890144
1733704453600782800,1.392782958984375,0.24763357534855604,-0.06557429593354464,-0.1943377462297678
1733704453610750000,1.40275,0.504482138288021,-0.08367693885713816,-0.36926118241548533
1733704453620716800,1.412716796875,1.097213053393364,-0.12466536732763052,-0.689259444490075
1733704453630683000,1.422682861328125,1.7273039773389696,-0.3483116256281733,-1.2421785736888646
1733704453640650000,1.43264990234375,2.556571027456224,-0.6387386330425739,-2.1486504440397023
1733704453650615800,1.44261572265625,3.3898727399170396,-0.8245338841155171,-3.4113726240634916
1733704453660583000,1.4525830078125,3.5444320179879663,-0.848849994726479,-4.634864032939076
1733704453670549000,1.462549072265625,2.8923063723668454,-0.561687542065978,-5.251439349490404
1733704453680516000,1.47251611328125,1.5666408294349907,0.16672551668286323,-4.556400737076998
1733704453690483000,1.48248291015625,0.3135179601445794,1.065901384806633,-2.7094758163183927
1733704453700449000,1.492448974609375,-0.3452802951082587,1.7741192122668026,-0.4972381585091352
1733704453710416000,1.502415771484375,-0.2609264799028635,2.055346137398481,1.1749527111560105
1733704453720382000,1.5123818359375,0.34855332542955875,1.9279303023189305,2.0860832209676503
1733704453730348800,1.522348876953125,0.9563120060577988,1.4701324660554527,2.2521412136524916
1733704453740315000,1.53231494140625,1.5108666275039315,0.8101669205889105,1.9530875399291514
1733704453750281700,1.54228173828125,1.7074843013644216,0.29500147572308777,1.6008809526890515
1733704453760248800,1.552248779296875,1.3001016242168844,0.05584595199301839,1.2948153543770313
1733704453770215000,1.56221484375,0.5888824229836463,0.11192615113332867,1.1926233924031258
1733704453780181800,1.572181640625,-0.032832740674167867,0.3877310512162745,1.2811924872159957
1733704453790148000,1.582148193359375,-0.14105696854963898,0.6415685957714915,1.581982190951705
1733704453800115000,1.592114990234375,-0.41242914688214655,0.7066442945331335,1.8355957174926996
1733704453810081000,1.6020810546875,-0.5005507901884615,0.48864407929554576,1.9271335989832876
1733704453820048000,1.6120478515625,-0.6346694839075208,0.05180076825544238,2.0920055967539546
1733704453830015000,1.622014892578125,-0.8666295431755483,-0.27798692029714583,2.0710528250962494
1733704453839980800,1.631980712890625,-0.9592493746839463,-0.525012300619483,2.0357126316457985
1733704453849948000,1.641947998046875,-0.9151157800555229,-0.7018051839388907,1.9955951407909391
1733704453859913700,1.651913818359375,-0.7721849804580211,-0.7486497910916805,1.8248954597800968
1733704453869880800,1.661880859375,-0.4996399589538574,-0.778168146520853,1.4508599025696516
1733704453879848000,1.671847900390625,-0.4265373133420944,-0.8092904300153255,1.0722615674883127
1733704453889814000,1.68181396484375,-0.5796386476896703,-0.9347028163179755,0.6966518928289414
1733704453899780900,1.69178076171875,-0.6893395239889621,-1.0423571353510022,0.38557460383474823
1733704453909747000,1.701746826171875,-0.7332451550804078,-0.9940788421332836,0.1963935097157955
1733704453919714000,1.711714111328125,-0.5812498092133551,-0.8858718576535582,0.18121698337197303
1733704453929680000,1.721679931640625,-0.48994990119710563,-0.7956988347753882,0.32299335223734377
1733704453939647000,1.73164697265625,-0.47072249202728267,-0.7426721779868006,0.6393547191143035
1733704453949613800,1.74161376953125,-0.6022269115947186,-0.78867375844419,1.0281038613319395
1733704453959580000,1.751579833984375,-0.5082781695701182,-0.7331091076105832,1.3271610421866178
1733704453969547000,1.761547119140625,-0.32456630064249037,-0.5116448695242405,1.4301701657623052
1733704453979512800,1.771512939453125,-0.23444705377817152,-0.21706074243038892,1.322598848837614
1733704453989480000,1.78147998046875,-0.25484686772823334,0.005145253933966159,1.034846905851364
1733704453999446000,1.791446044921875,-0.22926234461665151,0.18305822732448576,0.6704962918311357
1733704454009413000,1.8014130859375,-0.13541969331502915,0.32961832333505153,0.17018004105091095
1733704454019380000,1.8113798828125,-0.05364142768606543,0.33664339966624973,-0.34171441932022567
1733704454029346000,1.821345947265625,0.08278115906119346,0.14774287605434655,-0.7753951746761798
1733704454039313000,1.83131298828125,0.311841112973541,-0.07721066545248031,-1.0854898823738097
1733704454049279000,1.841279052734375,0.542528375826776,-0.26612843246012924,-1.3298264620035887
1733704454059245800,1.851245849609375,0.7449369080483913,-0.29885756662935015,-1.5797428875923156
1733704454069213000,1.861212890625,0.927253815486282,-0.21897534388005732,-1.7559107708811759
1733704454079178800,1.8711787109375,0.9091219464682042,-0.07106558682620524,-1.735203498417139
1733704454089145900,1.881145751953125,0.7209576281763613,0.07127484566271304,-1.543389717707038
1733704454099112000,1.89111181640625,0.5514005413293838,0.15278773835375903,-1.3197259237498045
1733704454109078800,1.901078857421875,0.4391432585455477,0.18350319461300968,-1.0871750589817761
1733704454119045000,1.911045166015625,0.36585239688530563,0.1751619211167097,-0.8522393449038267
1733704454129012000,1.921011962890625,0.37403307299241423,0.1306545247398317,-0.6661936262011527
1733704454138979000,1.93097900390625,0.44048517467379567,0.11663038330152631,-0.5687339534461497
1733704454148945000,1.94094482421875,0.5594773186706006,0.12416545498147606,-0.46945466404855246
1733704454158912000,1.950912109375,0.6423930638968944,0.17565496533066033,-0.41341187430918214
1733704454168877800,1.9608779296875,0.567300632707402,0.18253157310187815,-0.42456922813951964
1733704454178845000,1.970844970703125,0.29224224014282224,0.17590557909086346,-0.44681145508587355
1733704454188810800,1.980810791015625,0.04151844369396567,0.09581541267931461,-0.5387012187540531
1733704454198777900,1.99077783203125,-0.060149786666780704,0.0014541443310678004,-0.7048550730288028
1733704454208745000,2.000744873046875,-0.2549183255292475,-0.011237287198752164,-0.9820622411251068
1733704454218710800,2.010710693359375,-0.2940121724247932,-0.09083645522296428,-1.303407826155424
1733704454228678000,2.020677978515625,-0.17796579955630004,-0.06954246891215443,-1.5656681850105523
1733704454238644000,2.03064404296875,-0.022531053825095293,0.0434223776191473,-1.8508622602075337
1733704454248611000,2.040611083984375,0.2766378437757492,0.16888795541375876,-2.1690233699828383
1733704454258578000,2.050577880859375,0.6073696082454174,0.28629049213156105,-2.4030501525223253
1733704454268544000,2.0605439453125,0.5112029709756374,0.3733855688691139,-2.4058932669937607
1733704454278510800,2.0705107421875,0.34620413195490835,0.4259656509339809,-2.155776934918761
1733704454288477000,2.080476806640625,0.1573287427842617,0.6266714708909392,-1.575031056639552
1733704454298443800,2.09044384765625,-0.05098083017468452,0.9441747012794017,-0.8103051600158214
1733704454308409900,2.100409912109375,0.12507420385684817,1.2054757135830818,0.1426104816019535
1733704454318376700,2.110376708984375,0.4382143071323633,1.4675626155674457,1.3112807514876126
1733704454328343800,2.12034375,0.5686878492821008,1.6347009508349,2.3464415455937386
1733704454338310000,2.130309814453125,0.6507471238095313,1.6230680884473025,2.907477345752716
1733704454348276700,2.14027685546875,0.6377005952317267,1.4089071591116487,2.9860137068510055
1733704454358242800,2.150242919921875,0.37238494045920667,1.0121709636628626,2.726052857109904
1733704454368210000,2.1602099609375,-0.0034060090512037277,0.6660419427707791,2.5304127961099145
1733704454378175700,2.17017578125,-0.48871349126994607,0.38895153292194007,2.5360212836414573
1733704454388142800,2.180142822265625,-0.6836082868605852,0.10362827838733792,2.7508102817475795
1733704454398110000,2.19010986328125,-0.4886158761143684,-0.1657707001760602,3.1950673761755226
1733704454408075800,2.20007568359375,-0.1705126340061426,-0.4130769432663917,3.7768764997720714
1733704454418043000,2.21004296875,0.12854556976184248,-0.671252955417335,4.267041943415999
1733704454428008700,2.2200087890625,0.27644670511782166,-0.8357602115288376,4.393238465833663
1733704454437975800,2.229975830078125,0.3020258944671601,-1.1316235647782682,3.986435196009278
1733704454447942700,2.239942626953125,0.3878939866930246,-1.4144032723098992,3.4948394273012875
1733704454457909000,2.249908935546875,0.29415011959075926,-1.432925017428398,3.294678674006462
1733704454467875800,2.259875732421875,0.010642390045523644,-1.161700723133981,3.2339322366207837
1733704454477842000,2.269842041015625,-0.18074059803187847,-0.7044222345694899,3.1051427751004694
1733704454487809000,2.27980908203125,-0.3821726864367723,-0.3627981238812208,2.6623469853967427
1733704454497774800,2.28977490234375,-0.6489630899369716,-0.3340764717876911,1.950078421241045
1733704454507742000,2.299741943359375,-0.8080296162992715,-0.6366507208526134,1.0793518180102109
1733704454517708800,2.309708740234375,-0.9797627320110798,-1.1033289059251545,0.15977613593637943
1733704454527675000,2.3196748046875,-1.163230124658346,-1.4303133736252784,-0.7222586277723312
1733704454537641700,2.329641845703125,-0.9087830699026584,-1.3316316117294131,-1.3601719159066676
1733704454547607800,2.33960791015625,-0.14697452203035355,-0.8885968987032771,-1.8383073145389557
1733704454557574700,2.34957470703125,0.40073191402144726,-0.46455841643959284,-2.2509213164687156
1733704454567541000,2.359541015625,0.5552034407436848,-0.2762384691946208,-2.534866268387437
1733704454577507800,2.3695078125,0.6843769331455231,-0.2504005558438599,-2.650201205050945
1733704454587475000,2.379474853515625,0.8043032161872834,-0.12472995699644088,-2.560705058521032
1733704454597440800,2.389440673828125,0.9012113194741308,0.02748246568739414,-2.383241290202737
1733704454607407900,2.399407958984375,0.9809471194900572,0.11129472136199474,-2.0558049870818853
1733704454617374000,2.4093740234375,0.884969648116827,0.11556699185371398,-1.4845365467220544
1733704454627340800,2.4193408203125,0.5122878436028957,0.10389365132525563,-0.8228133439332246
1733704454637308000,2.429307861328125,0.016557020916789768,0.13008534654974938,-0.20630875453054903
1733704454647273700,2.439273681640625,-0.3495522733390331,0.15720204766467213,0.26989129212498664
1733704454657240800,2.44924072265625,-0.505749527875334,0.23321707359179852,0.5232452909469604
1733704454667206700,2.45920654296875,-0.5813515890873968,0.30510902823954816,0.5051268659323453
1733704454677173800,2.469173828125,-0.552735589325428,0.34383448021411894,0.4349766403853893
1733704454687139800,2.479139892578125,-0.37686259732991456,0.2969958644106984,0.33849136562049387
1733704454697107000,2.48910693359375,-0.03751359196677804,0.08803031176105142,0.11374562164545059
1733704454707074000,2.499073974609375,0.3492088667288422,-0.2489573712982237,-0.29619419263899327
1733704454717039900,2.509039794921875,0.6600532237499952,-0.6072932550735771,-0.666513944196701
1733704454727007000,2.519007080078125,0.7975684280395507,-0.8419353930324316,-0.7888777565836906
1733704454736972800,2.528972900390625,0.6993360173463821,-0.8593716810017824,-0.7761953851431608
1733704454746940000,2.53893994140625,0.37780952279120683,-0.6172517545081675,-0.6490881776213645
1733704454756906800,2.54890673828125,0.06271832198053598,-0.3341737946823239,-0.4427876063972711
1733704454766872800,2.558872802734375,-0.11878858424872159,-0.13159545885175467,-0.3098123836249113
1733704454776839700,2.568839599609375,-0.08588263220787049,-0.006546206773072481,-0.3080798607438803
1733704454786805800,2.5788056640625,0.12937222984433172,0.030934944228827952,-0.3919815482676029
1733704454796772600,2.588772705078125,0.39450200665593144,-0.026182489004731177,-0.5006587806075811
1733704454806739000,2.598739013671875,0.5971081072762608,-0.12732143479436636,-0.6327642348080873
1733704454816706000,2.6087060546875,0.7427294611319899,-0.12394918188229202,-0.6881669730782508
1733704454826673000,2.6186728515625,0.7794561405047774,-0.12589096359983085,-0.6084633217662573
1733704454836639000,2.628638916015625,0.7083563591480254,-0.20250132507160304,-0.5316846179902553
1733704454846605800,2.638605712890625,0.5565060477748512,-0.14805471848249435,-0.39383857431113717
1733704454856572000,2.648572021484375,0.3416071595534682,-0.00756079064309597,-0.26347265725433827
1733704454866538800,2.658538818359375,0.09592939444780349,0.141439245865494,-0.15950374873578546
1733704454876504800,2.6685048828125,-0.020992519146203995,0.3666140289075672,-0.04501286168098449
1733704454886471700,2.6784716796875,-0.10876432610154152,0.5839173479221761,0.06439151588976383
1733704454896438800,2.688438720703125,-0.21845102774500846,0.7358712658002973,0.12152443895339965
1733704454906404600,2.698404541015625,-0.29143910706639287,0.7173639875985681,0.08574760765135288
1733704454916371700,2.708371826171875,-0.36099604289531706,0.5477300361230969,-0.0034597850650548933
1733704454926337800,2.718337890625,-0.3012716420337558,0.28337942699044943,-0.16923954533040522
1733704454936305000,2.728304931640625,-0.15444325047582386,0.012166238611936568,-0.30120997497439383
1733704454946272000,2.73827197265625,-0.008009703454375267,-0.12714227883517742,-0.3681622812628746
1733704454956237800,2.74823779296875,0.16299188311249016,-0.15026377283409237,-0.32809155215919017
1733704454966205000,2.758204833984375,0.21751725402623415,-0.08986161884143948,-0.18272797245681285
1733704454976170800,2.768170654296875,0.21307138053327798,-0.017069792744517327,-0.0889274067312479
1733704454986137900,2.778137939453125,0.2169640040576458,0.003507861990481615,-0.10146598578691482
1733704454996103700,2.788103759765625,0.3000856471195817,-0.037932694161683315,-0.23953648587167262
1733704455006070800,2.79807080078125,0.5085866509974003,-0.2018279558546841,-0.4989350255548954
1733704455016038000,2.808037841796875,0.8180044823467731,-0.42090266845598817,-0.9086264180362223
1733704455026003700,2.818003662109375,1.0541767524823547,-0.5811579662114381,-1.3928151253581047
1733704455035970800,2.827970703125,1.193012683981657,-0.6385175376378,-1.800720803466439
1733704455045937000,2.83793701171875,1.3221603112898765,-0.6468498971752822,-2.0734365053623915
1733704455055904000,2.847904052734375,1.393756497861445,-0.5140232890933751,-2.2803426412642
1733704455065870800,2.857870849609375,1.2406753295190631,-0.18417539478614925,-2.4766584095686675
1733704455075837000,2.8678369140625,1.0395829944625496,0.23260829404368996,-2.4845418562948702
1733704455085803800,2.8778037109375,0.8732897317171097,0.5784554292544722,-2.23582486962378
1733704455095769900,2.887769775390625,0.8032895821653306,0.7212387832053005,-1.8698294110059737
1733704455105736700,2.89773681640625,0.7756886046648025,0.5708602979503572,-1.6615584164917467
1733704455115702800,2.907702880859375,0.8259775070525706,0.2277709370151162,-1.7972499124854802
1733704455125669600,2.917669677734375,1.045100588840246,-0.23573300193548202,-2.341326394537091
1733704455135636700,2.92763671875,1.1604501385509967,-0.5122818522535264,-3.019806670859456
1733704455145602800,2.937602783203125,0.9554769434731453,-0.65174965191558,-3.9803988384544846
1733704455155569700,2.947569580078125,0.4983283283660188,-0.6187663968548178,-4.470938960629701
1733704455165536000,2.957535888671875,0.13082301317453385,-0.23097937766760587,-4.423265939828753
1733704455175502800,2.9675029296875,-0.003590717968344688,0.4148914453424513,-3.974810809189081
1733704455185469000,2.977468994140625,0.028620456741377708,0.9415576506488025,-3.3994705893456936
1733704455195435800,2.987435791015625,0.27176570769473907,1.2394235758922993,-2.9183634814262387
1733704455205403000,2.99740283203125,0.6775925337024032,1.3077394256189465,-2.3736755894780157
1733704455215368700,3.00736865234375,0.7492185308903455,1.3496644042871893,-1.6442653363853692
1733704455225335800,3.017335693359375,0.7949101686157286,1.4565632287777959,-0.8852572328865528
1733704455235301600,3.027301513671875,0.9380841293193399,1.6766840894311665,-0.006317512583732605
1733704455245268700,3.037268798828125,1.2341785148456692,1.8605032181255519,1.2115794372856616
1733704455255235800,3.04723583984375,1.7704741337627172,1.832830928954482,2.4556916093856094
1733704455265202000,3.057201904296875,2.218442649929225,1.5149562349051235,3.736998662891984
1733704455275168800,3.067168701171875,2.4513380903512236,1.0042601905383168,5.246643931907415
1733704455285134000,3.077134033203125,2.466419924148917,0.2647868085928261,6.703915455085038
1733704455295101000,3.087100830078125,1.8803423294529318,-0.5274165852822363,8.146243676152825
1733704455305067000,3.09706689453125,1.3263894732922314,-1.2246119373381137,9.286501506024598
1733704455315034000,3.1070341796875,1.0194780718058347,-1.6879177233681082,9.851896670436858
1733704455325001000,3.1170009765625,0.904007526063919,-1.8080134446926415,9.761648828756808
1733704455334967000,3.126967041015625,1.1431222793921827,-1.628158689584583,9.196440126827358
1733704455344934000,3.136933837890625,1.4434636548385023,-1.0757349426873029,8.268832529467344
1733704455354900200,3.146900146484375,1.4777105000942945,-0.29869375436976553,7.132914774626493
1733704455364867000,3.1568671875,1.5821283214241266,0.3915354119352996,5.978175999459624
1733704455374834200,3.166834228515625,1.7881927458047866,0.7115403960116207,4.914024088668823
1733704455384800000,3.176800048828125,1.6634075514897704,0.6706501672185957,4.064197065603733
1733704455394767000,3.18676708984375,1.3374752231910825,0.32036782603934405,3.574434942063689
1733704455404733000,3.19673291015625,0.989937796805799,-0.04400310011655092,3.4300866768836973
1733704455414700000,3.206699951171875,0.650079526746273,-0.20027108180150388,3.3404543367534876
1733704455424665900,3.216665771484375,0.5664063872814178,-0.21151392195820806,3.1253812610089775
1733704455434633000,3.226633056640625,0.6601194208540022,-0.11607669494152069,2.893856816679239
1733704455444600000,3.23660009765625,0.5575555568277836,-0.06197188752740621,2.204672190991044
1733704455454566000,3.24656591796875,0.5148743529647588,0.10924041918069123,1.315256084859371
1733704455464533000,3.256532958984375,-0.023263934676907957,0.31007629525810476,0.015481062248349189
1733704455474499000,3.2664990234375,-1.547925023049116,0.22412731981575487,-2.1230898863255976
1733704455484466200,3.276466064453125,-3.522749763011932,-0.6210109609112143,-5.123409766426682
1733704455494433000,3.28643310546875,-3.876846109521389,-1.9025237661227583,-8.47760855089426
1733704455504399000,3.296399169921875,-0.5378349573135376,-2.7886826240241525,-10.85653548502922
1733704455514366200,3.3063662109375,1.9209844287037847,-3.1536049004524944,-11.654312002861499
1733704455524332000,3.31633203125,1.5119243198633192,-3.0881206208899616,-10.539067618215084
1733704455534299100,3.326299072265625,1.2274223185837267,-2.3626914002574977,-7.668032874196768
1733704455544265000,3.336264892578125,1.2800047387361526,-1.1524432115755974,-4.454602158334851
1733704455554232000,3.346232177734375,1.3114986320219932,-0.04486410086005926,-2.031760094627738
1733704455564199000,3.356198974609375,1.454499428115785,0.8247503033451735,-0.46121524349153037
1733704455574165000,3.3661650390625,1.4929003243111074,1.4211923479281365,0.5228109911829233
1733704455584131800,3.3761318359375,1.196407733247429,1.7190969977468251,1.0582710360586642
1733704455594098200,3.38609814453125,0.672989277690649,1.7131639544360338,1.2739192813426254
1733704455604065000,3.39606494140625,0.20833894518390297,1.3569739966481924,1.2323463309824465
1733704455614032100,3.4060322265625,0.002847936777025461,0.7430522633455693,1.0144149431973695
1733704455623998000,3.415998046875,0.021180881325155495,0.2022059953868389,0.7135247016966343
1733704455633965000,3.425965087890625,0.017093758141994476,-0.1154199845984578,0.36282267380058764
1733704455643931100,3.43593115234375,0.04807794834002852,-0.2715801219947636,0.06387713662683964
1733704455653898000,3.44589794921875,0.03542085747122765,-0.3335854734003544,-0.13338438809514044
1733704455663864000,3.455864013671875,0.027279782722145318,-0.33264760802835225,-0.1908078185379505
1733704455673831000,3.465830810546875,0.031887861039489505,-0.27107012664601204,-0.09770458742678165
1733704455683798000,3.475798095703125,0.004470350347086787,-0.1783754763357341,0.1037976436048746
1733704455693764000,3.48576416015625,-0.025487565543130038,-0.11052914381697773,0.2808423097282648
1733704455703731000,3.49573095703125,0.020469956576824187,-0.019888503427058456,0.39262744495570656
1733704455713697000,3.505697021484375,0.0902897811256349,0.04495587079674005,0.41586861981153483
1733704455723664100,3.5156640625,0.11119462198838591,0.06615633360520005,0.3558668633133173
1733704455733630000,3.5256298828125,0.09202142722383141,0.06409063324704765,0.3122042471975088
1733704455743597000,3.53559716796875,0.05023753752671182,-0.020447306353598833,0.1749929942905903
1733704455753564200,3.545564208984375,0.06433949344158173,-0.1721747219994664,-0.05424421588480472
1733704455763530000,3.555530029296875,-0.016130319937318564,-0.253320096552372,-0.22161796734333036
1733704455773497000,3.5654970703125,-0.06380743239149451,-0.2398082885503769,-0.38625498731434343
1733704455783463000,3.575462890625,-0.035761122276261444,-0.2434593584038317,-0.5695230579972267
1733704455793430000,3.585429931640625,0.06378551282063126,-0.21673151047602296,-0.7080138293206691
1733704455803396900,3.59539697265625,0.05839139869213104,-0.047311055620759726,-0.5623351923197507
1733704455813363200,3.60536328125,-0.017360153993219135,0.11961319850459694,-0.3511696454077959
1733704455823330000,3.615330078125,-0.1092401269197464,0.2749981137447059,-0.17228724246323107
1733704455833296100,3.625296142578125,-0.21286299847960471,0.3102241792961955,-0.05165186130404472
1733704455843263200,3.63526318359375,-0.2932826891064644,0.26778832849636675,0.06034545536935329
1733704455853229000,3.64522900390625,-0.32680406963191927,0.24310469974726437,0.12120938165485859
1733704455863196200,3.655196044921875,-0.31726218817420304,0.18247882000133395,0.1790402238547802
1733704455873163000,3.6651630859375,-0.27192411312684417,0.13139423719123006,0.24302783511877057
1733704455883129000,3.675129150390625,-0.1977741504192352,0.0832769797541201,0.36654724728167054
1733704455893096000,3.685095947265625,-0.16295520436391234,0.05931728136539459,0.49239656369686124
1733704455903062000,3.69506201171875,-0.13090952241420745,0.07091273435205221,0.5612924052685498
1733704455913028900,3.70502880859375,-0.13963774940147994,0.025589491547644137,0.6063403382629156
1733704455922996000,3.714995849609375,-0.06922858065739274,-0.03620207097679377,0.6051625266551971
1733704455932962000,3.724962158203125,0.018691548727452753,-0.07140913956686853,0.5248170703083277
1733704455942929200,3.73492919921875,0.06201309632062912,-0.1199700491182506,0.3331657866835594
1733704455952895000,3.74489501953125,0.14558116797581314,-0.15797580851614473,0.06898410437703133
1733704455962862000,3.754862060546875,0.1619464657127857,-0.13511661871522665,-0.10506430253982543
1733704455972828200,3.764828125,0.16113149606809019,-0.1274742872685194,-0.2758271119147539
1733704455982795000,3.774794921875,0.21480945637226104,-0.10961831258237362,-0.3786743229269981
1733704455992762000,3.78476220703125,0.24458953147754073,-0.0709079120464623,-0.4666495434999466
1733704456002728000,3.79472802734375,0.23607202463150023,-0.005027326642721891,-0.5049029940485954
1733704456012695000,3.804695068359375,0.16887538819313047,0.06514554912745953,-0.5147679699808358
1733704456022660900,3.814660888671875,0.1422939629986882,0.10688260400816797,-0.5265531003206968
1733704456032628000,3.8246279296875,0.14959887918457387,0.08573328686505556,-0.5278688590943813
1733704456042595000,3.834594970703125,0.1785340278983116,-0.02472001523673534,-0.5162047247856855
1733704456052561200,3.84456103515625,0.20479308927059173,-0.07364245157688856,-0.4485474850982427
1733704456062528300,3.8545283203125,0.23774375723600386,-0.14020809663534164,-0.33593057522177694
1733704456072494000,3.864494140625,0.193209034460783,-0.1410753809891641,-0.15416823292672632
1733704456082461200,3.874461181640625,0.11139116747379302,-0.11100962081030011,-0.014371055179834365
1733704456092427000,3.884427001953125,0.06638429714217782,-0.04637698964104056,0.08307458904981613
1733704456102394000,3.89439404296875,0.026777093897014853,0.008751461732387542,0.1604261242777109
1733704456112361000,3.90436083984375,0.016504560077190398,0.050547261063009497,0.17386545156538485
1733704456122327000,3.9143271484375,0.032072569956630465,0.039332185696065426,0.21000760904848575
1733704456132294000,3.9242939453125,0.033322277756780386,-0.004196428776532412,0.2158084042817354
1733704456142260000,3.934260009765625,-0.0036196518018841743,-0.014945786327868698,0.21227263137102126
1733704456152226800,3.944226806640625,-0.04189516805186867,0.027775311154127118,0.2530237439543009
1733704456162193200,3.954193115234375,-0.10289455728530883,0.04240940118432045,0.28393969122171403
1733704456172160300,3.96416015625,-0.13599150185361503,0.054812517292052505,0.29384616820812226
1733704456182127000,3.974127197265625,-0.10119944380521774,0.059120005227625366,0.26673019774556156
1733704456192093200,3.98409326171875,-0.08136062473878264,0.05017433609738946,0.20744681864976883
1733704456202060000,3.99406005859375,-0.027692309045791626,0.040457974855601785,0.10795534780621528
1733704456212026000,4.004026123046875,0.028467385071516034,0.01639043217822909,-0.003099135059118271
1733704456221993000,4.013992919921875,0.0468916611649096,0.036804859175533056,-0.06879238119721412
1733704456231960000,4.0239599609375,0.04085793395861983,0.038629005862772466,-0.14138064754605292
1733704456241926000,4.03392578125,0.05513327367901802,0.036086920164525506,-0.14893033227324484
1733704456251893000,4.04389306640625,0.028773528411239382,0.05827843983694911,-0.0925654709726572
1733704456261858800,4.05385888671875,0.0634333383820951,0.0052374622620642184,-0.1445966869831085
1733704456271826000,4.063825927734375,0.07030483158677817,-0.01152282614186406,-0.12286240955889224
1733704456281792800,4.073792724609375,0.03666019000783562,-0.013059972581267357,-0.08858020072877407
1733704456291759600,4.083759521484375,0.028262802410125732,-0.018960574927181003,-0.04418167155385017
1733704456301726500,4.0937265625,0.018485943152755497,-0.008538988025486468,0.017590017226338385
1733704456311692500,4.103692626953125,0.0024127602301537987,0.012540186490863562,0.05728782136440277
1733704456321659600,4.11365966796875,0.01844531888142228,-0.007843845368176698,0.10013269135653972
1733704456331625500,4.12362548828125,0.03072363956570625,-0.027105302938073873,0.11421499272286892
1733704456341592600,4.133592529296875,0.04461304870843887,-0.04581584862694144,0.09206979641020298
1733704456351559700,4.1435595703125,0.033319062886387106,-0.05760740870758891,0.07169277881383895
1733704456361525500,4.153525390625,-0.007092588609457016,-0.09930953840538859,0.06252163036465644
1733704456371492600,4.16349267578125,-0.03563815348371863,-0.12494053100720047,0.0737953040510416
1733704456381458400,4.17345849609375,-0.04641586034670472,-0.11426569999679922,0.18547873246967791
1733704456391425500,4.183425537109375,-0.0612521949507296,-0.038144437216222286,0.31766075903773305
1733704456401391600,4.1933916015625,-0.0960651496566832,0.05418547143489122,0.36262568992376326
1733704456411358700,4.203358642578125,-0.08502937637940049,0.08392039222419262,0.3423299208700657
1733704456421325600,4.21332568359375,-0.01215484043508768,0.052285483032464976,0.22381401608288287
1733704456431291600,4.223291748046875,0.06530965364798903,0.015186901607364415,0.023465046739578246
1733704456441258500,4.233258544921875,0.08999050591811537,0.00447772993594408,-0.1397743813931942
1733704456451224600,4.243224609375,0.08754165146127342,0.04957885442227125,-0.21185060656666754
1733704456461191700,4.253191650390625,0.03497998183593154,0.07219985155314207,-0.2316805116742849
1733704456471157500,4.263157470703125,0.0037665129266679287,0.04455766525939107,-0.22292671185433863
1733704456481124600,4.27312451171875,0.014820844773948192,-0.03708236094266176,-0.18408406324088572
1733704456491091500,4.283091552734375,0.02849982603639364,-0.10208338703289628,-0.11397709231376647
1733704456501057500,4.2930576171875,0.0637175621509552,-0.1613441159054637,-0.07114800441265105
1733704456511024400,4.3030244140625,0.09073767102360725,-0.20051029738485812,-0.017552023303508756
1733704456520990700,4.31299072265625,0.09687412795200943,-0.1735045092985034,0.06769698717594147
1733704456530957600,4.32295751953125,0.04245747810974717,-0.10813684185296296,0.16770575989186762
1733704456540924700,4.332924560546875,-0.002965717937797308,-0.03345964040085673,0.25898060653209687
1733704456550890500,4.342890380859375,-0.03008183453083038,0.010745412028580903,0.25520108799338337
1733704456560857600,4.352857666015625,-0.05110080329254269,-0.009626198740303515,0.21637422147095203
1733704456570823400,4.362823486328125,-0.05286459809467196,-0.051302755605429406,0.18036007428169248
1733704456580790500,4.37279052734375,-0.04445756588578224,-0.06562120381519199,0.15963234355151654
1733704456590756600,4.382756591796875,-0.051015901488065715,-0.07356456403508782,0.11625146698653697
1733704456600723500,4.392723388671875,-0.017485387808084486,-0.060909665123373265,0.10013269135653972
1733704456610690600,4.402690673828125,-0.02747369785904884,-0.04510390096530318,0.07448562440276145
1733704456620656400,4.412656494140625,-0.012318506564199925,-0.03935132878795266,0.011640753433108329
1733704456630623500,4.42262353515625,0.0038870705664157865,-0.03203048438057303,-0.059413142955303186
1733704456640589600,4.432589599609375,-0.009719576112180947,-0.05495046445801854,-0.15552783084213734
1733704456650556700,4.442556640625,0.03654065528139472,-0.058680737027525895,-0.202981655934453
1733704456660522500,4.4525224609375,0.09923311216831207,-0.0922948373377323,-0.21728899822831152
1733704456670489600,4.462489501953125,0.15834800282940267,-0.08844766039028763,-0.2181096669614315
1733704456680456700,4.472456787109375,0.1848326896511018,-0.03238090525344014,-0.18226269303262232
1733704456690422500,4.482422607421875,0.19824965897649524,0.02852817534804344,-0.20051088190674782
1733704456700389600,4.4923896484375,0.1944572809562087,0.0348966874666512,-0.23546119925677775
1733704456710355500,4.50235546875,0.12437091442570089,0.04882423666268587,-0.1660907259106636
1733704456720322600,4.512322509765625,0.04647752740606665,0.07130261045247316,-0.06488368332087993
1733704456730289400,4.522289306640625,-0.03118058955296874,0.07415069335997104,0.011335048484802246
1733704456740255500,4.53225537109375,-0.06479395921081305,0.10016498619094491,0.07635083375275134
1733704456750222300,4.542222412109375,-0.04935848966985941,0.07277677465826272,0.12395429644882679
1733704456760188700,4.552188720703125,-0.03218523655086756,0.04085676491484046,0.16723405072689054
1733704456770155500,4.562155517578125,-0.026037819837033748,0.058889265211671586,0.19401976632177828
1733704456780121600,4.57212158203125,-0.02884498621225357,0.05634995599240064,0.15800561913251876
1733704456790088700,4.582088623046875,-0.027013386870920655,0.08276055466458201,0.1305073713541031
1733704456800055600,4.5920556640625,-0.03747808226197958,0.1059045527562499,0.09170914640426635
1733704456810021600,4.602021728515625,0.05729483562707901,0.022252456079423426,-0.08761398604512215
1733704456819988500,4.611988525390625,0.11340630668848753,-0.025373218448460102,-0.14635142169594764
1733704456829954600,4.62195458984375,0.12082096685916184,-0.03128200410082936,-0.18650456838607787
1733704456839921400,4.63192138671875,0.12125702018886804,-0.01265548343360424,-0.1290250238418579
1733704456849888500,4.641888427734375,0.1437587748542428,-0.05328267737627029,-0.14620704478919505
1733704456859854300,4.651854248046875,0.15695026486068964,-0.02050736597776413,-0.12353870138525962
1733704456869821400,4.661821533203125,0.11460355364903807,0.02248538805246353,-0.10033902758359908
1733704456879787500,4.67178759765625,0.06729600515961646,0.046306847014278174,-0.08529343414306641
1733704456889754600,4.681754638671875,0.02670198283419013,0.0494711562640965,-0.053310734426975245
1733704456899720400,4.691720458984375,-0.021988690576702354,0.04385565446987748,0.013618190985918044
1733704456909687600,4.7016875,-0.04590016590952873,0.023251988510787486,0.03747954356670379
1733704456919654700,4.711654541015625,-0.06678177202716469,0.0007218845337629318,0.06407762763500213
1733704456929620500,4.721620361328125,-0.01222936697602272,-0.030793343801051375,0.07354395963847636
1733704456939587600,4.731587646484375,0.029586013837903737,-0.06513342029824852,0.052963528424501416
1733704456949553400,4.741553466796875,0.03958031523823738,-0.08449863050356507,0.006807926449179649
1733704456959520500,4.7515205078125,0.07362506205067038,-0.071637687625736,-0.019431845700740812
1733704456969486600,4.761486572265625,0.11786737775057554,-0.05068944601267576,-0.02553016257584095
1733704456979453400,4.771453369140625,0.11322057485803962,0.0003578735269606113,-0.07726911764144898
1733704456989420500,4.781420654296875,0.12157689979299902,0.032570436476171014,-0.06755027218163014
1733704456999386600,4.79138671875,0.10975216809511185,0.029748364792764184,-0.035113398957252503
1733704457009353700,4.801353759765625,0.10119593667387962,0.022985884920507668,-0.04504442586302757
1733704457019319600,4.811319580078125,0.1381844818532467,0.04196969459280371,-0.08879588930606841
1733704457029286700,4.82128662109375,0.14827683680057524,0.03909837694019079,-0.12534896567761897
1733704457039253500,4.83125341796875,0.12259849792569875,0.05681581993848085,-0.12701076140999792
1733704457049219600,4.841219482421875,0.08173822587952018,0.04246449237242341,-0.13812836775183676
1733704457059186400,4.8511865234375,0.10989596047997474,0.03622632863521576,-0.17578560597300527
1733704457069152500,4.861152587890625,0.13740268382579088,0.04734627306461334,-0.1953963153719902
1733704457079119400,4.871119384765625,0.14351283726915717,0.012882862448692321,-0.1637859560996294
1733704457089085700,4.881085693359375,0.08124035935997963,-0.030582039137929676,-0.09276771554648876
1733704457099052500,4.891052490234375,0.05294350854977965,-0.07379121239781379,-0.000040332010388374324
1733704457109019400,4.901019287109375,-0.010238631550222635,-0.10152209988832474,0.11305530129373073
1733704457118985700,4.91098583984375,-0.06962240228056907,-0.10733429329842328,0.23474574446380136
1733704457128952600,4.92095263671875,-0.0768507460989058,-0.09234919787347316,0.3289648278623819
1733704457138918700,4.930918701171875,-0.10589432362318038,-0.07991524823606014,0.3988473423838615
1733704457148885500,4.940885498046875,-0.10426569950804114,-0.08665537014603614,0.4485311184853315
1733704457158851600,4.9508515625,-0.09919336467981338,-0.09034165744334459,0.4605915586352348
1733704457168818400,4.960818359375,-0.09106383423805237,-0.07702712557911873,0.43559272645711894
1733704457178785500,4.97078564453125,-0.06593406915664672,-0.11528466778099536,0.3722007429987192
1733704457188751400,4.98075146484375,-0.11085209216102956,-0.11423325903192162,0.28327567435503004
1733704457198718500,4.990718505859375,-0.11084288594126701,-0.09715937463417648,0.14189035063385963
1733704457208684500,5.0006845703125,-0.05675736774951219,-0.0628602146692574,0.019597849917411803
1733704457218651600,5.010651611328125,-0.007685001544654369,-0.031271482706815006,-0.07318389415442943
1733704457228618500,5.020618408203125,0.0418656496964395,-0.002096387757360935,-0.1698766741901636
1733704457238584600,5.03058447265625,0.06475728046223521,-0.007692454198747873,-0.23243571395576
1733704457248551700,5.0405517578125,0.09781623110771179,0.0021280980698764325,-0.29898236205279827
1733704457258517500,5.050517578125,0.12850976779609918,0.002534633044153452,-0.3291618117392063
1733704457268484600,5.060484619140625,0.15847674377560614,-0.03338409094661474,-0.36812487186193465
1733704457278450400,5.070450439453125,0.16797610126584767,-0.03816504161283374,-0.37120530222058296
1733704457288419000,5.080419189453125,0.16805983402654529,-0.03978738211765885,-0.340469972217083
1733704457298386000,5.090385986328125,0.10447773482352495,0.026492870128154752,-0.2265525011360645
1733704457308352000,5.10035205078125,0.0503238275706768,0.09486761043518781,-0.09560264671146869
1733704457318318800,5.11031884765625,0.029938918928802013,0.13264526016563177,0.07049100180864333
1733704457328285000,5.120284912109375,0.033949031352996824,0.14267434061840176,0.19526421342492103
1733704457338251800,5.130251708984375,0.04346650902181864,0.13894509096220134,0.26652619960606094
1733704457348217900,5.1402177734375,0.01710413340553641,0.17843889696076512,0.30875965970158575
1733704457358184700,5.150184814453125,-0.03727846803665161,0.18767624251395462,0.2897784803777933
1733704457368151800,5.16015185546875,-0.058684828680753705,0.164755531784147,0.25810382369756696
1733704457378118100,5.1701181640625,-0.05131868382692337,0.1271359952248633,0.23266893818974493
1733704457388085000,5.1800849609375,-0.03215805628299713,0.04741641569137573,0.20943594664037227
1733704457398051000,5.190051025390625,-0.024263211379945276,-0.01950987937301397,0.17257774984240531
1733704457408018000,5.200017822265625,-0.05405658435821533,-0.07283025841116905,0.11639058319628239
1733704457417984000,5.20998388671875,-0.07648205891698598,-0.09253010739833116,0.07507482246756553
1733704457427950800,5.219950927734375,-0.042252895448356864,-0.08731514922901988,0.030786183407902717
1733704457437918000,5.22991796875,-0.012101941204071045,-0.07268807346150279,-0.013504793739318847
1733704457447883800,5.2398837890625,0.016141279722750188,-0.08677432035058737,-0.07992810771763324
1733704457457851000,5.249850830078125,0.04337035517096519,-0.13937383776828646,-0.13327040632665157
1733704457467816700,5.259816650390625,0.08452566464096307,-0.1701521301306784,-0.16343407392203807
1733704457477783800,5.26978369140625,0.10555763901472091,-0.1553426835335791,-0.16815817983448506
1733704457487751000,5.2797509765625,0.09497516246289014,-0.13328779585286973,-0.16295535049438475
1733704457497717000,5.289717041015625,0.07463380070179701,-0.0684897449888289,-0.14553309105038642
1733704457507684000,5.29968408203125,0.07060293775051832,0.019150398410856723,-0.11057926656901836
1733704457517650000,5.30964990234375,0.05984101297855377,0.05427694911062717,-0.07152911268472671
1733704457527617000,5.319616943359375,0.02139496246725321,0.02525762924477458,-0.050880876931548115
1733704457537582800,5.329582763671875,0.011310498565435409,-0.005385492430627346,0.01575812562406063
1733704457547550000,5.339550048828125,-0.0038379707276821134,-0.014999270080775022,0.10495616599023341
1733704457557516800,5.349516845703125,-0.03966565543413162,0.009521130930632352,0.1800286503702402
1733704457567483000,5.35948291015625,-0.036807489524036646,0.03242094500288367,0.21741993113160132
1733704457577450000,5.369449951171875,-0.02701075652241707,0.06383154391944408,0.25010522615909575
1733704457587415800,5.379415771484375,0.007605798828601837,0.0670201108276844,0.23942484219074248
1733704457597383000,5.3893828125,0.018321546371281146,0.0463110847979784,0.1878635817795992
1733704457607349000,5.399348876953125,0.051909343196451664,0.04009644806683063,0.1245288814663887
1733704457617316000,5.409316162109375,0.06979644367322325,0.02625628489330411,0.07819207770526408
1733704457627283000,5.419282958984375,0.045377603340148925,0.004952069449424743,0.02427519407868385
1733704457637249000,5.4292490234375,0.039249768109619616,-0.0204781398832798,-0.029902970832586286
1733704457647215900,5.4392158203125,0.06671615944504737,-0.06953676982372999,-0.09451017529964446
1733704457657182000,5.449181884765625,0.03622749767899513,-0.06698094786107539,-0.12500585132837294
1733704457667148800,5.459148681640625,0.06708557727932929,-0.06391060050502419,-0.15670447340607643
1733704457677115000,5.469114990234375,0.10274258159399031,-0.05405892244577407,-0.17813246136009692
1733704457687081700,5.479081787109375,0.10961772806048392,-0.08148688146695494,-0.21270810017883776
1733704457697048800,5.489048828125,0.11052475990280508,-0.10292480629310011,-0.20429390757679938
1733704457707015000,5.499014892578125,0.09320771439895033,-0.06144245682582259,-0.17731588428020476
1733704457716981800,5.508981689453125,0.07062456506043673,-0.021255700127035378,-0.11684358766078948
1733704457726948000,5.518947998046875,0.03715571843981743,0.019743103606998918,-0.06182721835970878
1733704457736915000,5.5289150390625,0.019235738606750964,0.019652210453152654,0.00934241336286068
1733704457746882000,5.538882080078125,-0.014671645561605691,0.047800446572899814,0.08870002771615981
1733704457756847900,5.548847900390625,-0.016436755537986753,0.061660337360203266,0.11858897002339362
1733704457766815000,5.55881494140625,-0.0026218729361891747,0.05851502507179975,0.155028649148345
1733704457776780800,5.56878076171875,-0.03364478770941496,0.04374181883186102,0.19736440057456492
1733704457786748000,5.578747802734375,-0.03508037347048521,-0.021988544446229934,0.19610417138040065
1733704457796713700,5.588713623046875,-0.021380349420011043,0.001644260075688362,0.1584083547145128
1733704457806680800,5.598680908203125,0.0015945757150650024,0.039468233165889974,0.13245441376864908
1733704457816648000,5.60864794921875,-0.014268179327249527,0.04869403441175818,0.10617547865211963
1733704457826614000,5.618614013671875,-0.01285612057223916,0.03482318383902311,0.044078795701265334
1733704457836580900,5.628580810546875,-0.010502397052943705,0.007403408124297857,-0.0023830957442522046
1733704457846547000,5.638546875,0.00723857295140624,-0.01755932982712984,-0.050204585105180735
1733704457856514000,5.64851416015625,0.0072796356141567225,-0.020876345420628786,-0.07216741058826447
1733704457866479900,5.65847998046875,0.03296031257659197,-0.007088204695284366,-0.06970189725756645
1733704457876447000,5.668447021484375,0.04006663745045662,-0.0222360894665122,-0.05129822556078434
1733704457886413800,5.678413818359375,0.0690156685590744,-0.03371887585893273,-0.046994975408911704
1733704457896380000,5.6883798828125,0.1259302726969123,-0.01108954929113388,-0.05786942064464092
1733704457906347000,5.698346923828125,0.15905220557600258,-0.026034604966640472,-0.05451426499783992
1733704457916312800,5.708312744140625,0.16847937461286783,-0.02484948683530092,-0.01654898374080658
1733704457926280000,5.718280029296875,0.1520037483692169,-0.017433511490374802,-0.020413842475414275
1733704457936246000,5.72824609375,0.11534224318712949,-0.010284078127145766,-0.031254969963431356
1733704457946213000,5.738213134765625,0.0766509857431054,-0.0320201091170311,-0.053791795942187304
1733704457956180000,5.748179931640625,0.06886836904287338,-0.013101473635435103,-0.07674655507206916
1733704457966146000,5.75814599609375,0.04933160166293382,0.011129589040577412,-0.07397124513983726
1733704457976113000,5.76811279296875,0.056419221836328505,0.017529957602173088,-0.061060325640439984
1733704457986079000,5.778078857421875,0.07863777564615011,0.010494506007432937,-0.04712357022464275
1733704457996045800,5.7880458984375,0.08626710148081183,0.030053631349653005,0.017544424518942833
1733704458006012000,5.798011962890625,0.08913052808791398,0.05002864401638508,0.06368073727190494
1733704458015978800,5.807978759765625,0.05527122084498405,0.06328165495172143,0.07891746937036513
1733704458025945900,5.81794580078125,0.050585108855366705,0.046897506383806464,0.06235153449475765
1733704458035912000,5.827911865234375,0.05308393993377685,0.0029106267496943473,0.0375882646381855
1733704458045878800,5.837878662109375,0.03953267670422792,-0.059819677929580206,-0.015274726021289825
1733704458055845000,5.84784521484375,0.023814590829610825,-0.09670388595163822,-0.052773558810353276
1733704458065812000,5.85781201171875,0.03453969072252512,-0.12870952815189957,-0.08505027303695678
1733704458075779000,5.867779052734375,0.08588497029542923,-0.12244038475453853,-0.07271393855512141
1733704458085745000,5.877744873046875,0.08017448369413614,-0.05847337788715958,-0.06104629711508751
1733704458095712000,5.8877119140625,0.07094561370834708,0.005117635274678468,-0.11148995167315005
1733704458105677800,5.897677734375,0.042077100490033624,0.041781916935741896,-0.14092296690642833
1733704458115645000,5.90764501953125,0.007432488088309764,0.04336991677954793,-0.14732114351093767
1733704458125610800,5.91761083984375,0.030036972475796935,0.05116437004804611,-0.06111001000106334
1733704458135577900,5.927577880859375,0.026847090393304823,0.030010376729816195,0.05308920063078403
1733704458145545000,5.937544921875,0.02018266406804323,-0.014683920521289109,0.17479074971675873
1733704458155510800,5.9475107421875,0.022668781795352696,-0.06803454856723547,0.2388397357791662
1733704458165478000,5.957477783203125,-0.0039312019690871235,-0.06747939890250564,0.21675883687436578
1733704458175444000,5.96744384765625,-0.04639204107969999,0.006006108547002077,0.154618314781785
1733704458185411000,5.9774111328125,-0.06297989552617073,0.07398512753471732,0.0760743548989296
1733704458195377000,5.987376953125,-0.04536094446629286,0.07814400077983737,0.051469490474462504
1733704458205344000,5.997343994140625,-0.04036474361419678,0.07955079883784055,0.06619944209456444
1733704458215310800,6.007310791015625,-0.03491349247097969,0.066998483517766,0.08012859872579574
1733704458225277000,6.01727685546875,-0.037112171559035775,0.054339200691878795,0.07561492069363594
1733704458235244000,6.027244140625,-0.028625205981731412,0.04760404721796512,0.08002104669809341
1733704458245209900,6.0372099609375,-0.041039428005367515,0.015095277801156043,0.07227730070352553
1733704458255177000,6.047177001953125,-0.01301934830993414,-0.02282455687895417,0.05470949530899524
1733704458265143000,6.05714306640625,-0.008355155891180037,-0.03569704406410455,0.04166121316552162
1733704458275110000,6.06710986328125,0.013559738796949385,-0.051547378016263246,0.041352585607767105
1733704458285075500,6.077075439453125,0.02171031202673912,-0.0783811705365777,-0.02000233906507492
1733704458295041300,6.087041259765625,0.018564707477390766,-0.10108867690712213,-0.10004033689796923
1733704458305008400,6.09700830078125,0.0956837491236627,-0.09160524763837456,-0.1551496451795101
1733704458314974200,6.10697412109375,0.14041414060145616,-0.0903485255755484,-0.1680769312918186
1733704458324941300,6.11694140625,0.17478475836738944,-0.08924611729159951,-0.14499357734620572
1733704458334907600,6.12690771484375,0.18068974462747572,-0.09526070140600204,-0.13144143733382224
1733704458344874500,6.13687451171875,0.15914222194701433,-0.08125745662525295,-0.05815700541436672
1733704458354841300,6.14684130859375,0.16464564166888593,-0.051210255016386506,-0.002199555870890617
1733704458364807400,6.156807373046875,0.1279353289090097,-0.021287410439550875,0.048448681348562235
1733704458374774500,6.1667744140625,0.07360752639397979,-0.03750044022426009,0.061037529286742206
1733704458384740400,6.176740234375,0.06880407163500786,-0.05136676075235009,0.031492870372533795
1733704458394707500,6.18670751953125,0.014790741896629333,-0.05753770447224378,-0.001079027408361435
1733704458404673300,6.19667333984375,-0.012921440893411636,-0.05721431773677468,0.03461129465401173
1733704458414640400,6.206640380859375,-0.054327948645502326,-0.029689766473323106,0.10670564000606536
1733704458424607500,6.216607421875,-0.06953910791128873,-0.014659224471449852,0.15377192708551882
1733704458434573300,6.2265732421875,-0.05096460969224572,0.0029303543634712696,0.20275252335369587
1733704458444540400,6.23654052734375,-0.03920271409749985,0.013992869517207145,0.19320143567621706
1733704458454506500,6.246506591796875,-0.03527940317392349,0.008794131830334662,0.1563262877434492
1733704458464473600,6.2564736328125,-0.02814472898840904,0.00036371874585747714,0.1372334647387266
1733704458474439400,6.266439453125,-0.012866203574836253,-0.010331278269737959,0.09393500576019287
1733704458484406500,6.276406494140625,-0.03535553715005517,-0.03143032653033733,0.036975101175904274
1733704458494373400,6.286373291015625,-0.0025531916141510007,-0.06602934622466564,-0.06815057616233826
1733704458504339500,6.29633935546875,0.08507862234860658,-0.13161708616167306,-0.13352642691433428
1733704458514306300,6.306306396484375,0.15527940903902052,-0.131488491345942,-0.17059271350502966
1733704458524272400,6.3162724609375,0.18539982201457023,-0.10015534157976508,-0.17853052076697348
1733704458534239500,6.326239501953125,0.159257518889755,-0.04108648201748728,-0.16662088726460933
1733704458544205300,6.336205322265625,0.12045739424377679,0.02434095279127359,-0.12456278373599051
1733704458554172400,6.34617236328125,0.09850713598132133,0.0739911188840866,-0.09569967734515666
1733704458564139300,6.35613916015625,0.06247048469930887,0.12272358561009168,-0.03695815004110336
1733704458574105600,6.366105712890625,-0.00796118813753128,0.1586890713520348,0.061984454748034476
1733704458584072400,6.376072509765625,-0.07617693849056958,0.155254274597764,0.1390297005057335
1733704458594038500,6.38603857421875,-0.0879904181420803,0.10293883481845259,0.16577917574346065
1733704458604005400,6.39600537109375,-0.0682090283513069,0.02486176179498434,0.13387421743869782
1733704458613972500,6.405972412109375,-0.021270459304749963,-0.03457520042732358,0.08402852877378464
1733704458623938300,6.415938232421875,0.043544542694091797,-0.07462137961164117,0.012601122897863387
1733704458633905400,6.425905517578125,0.08370002747178078,-0.08336655773371457,0.011344985356926917
1733704458643871200,6.435871337890625,0.08158274305686354,-0.04251739160344004,0.03749824826717377
1733704458653838300,6.44583837890625,0.06267682092636823,-0.021001286974549293,0.046211131554841994
1733704458663804400,6.455804443359375,0.04814706805348396,-0.029357758039981124,0.05256079284250736
1733704458673771300,6.465771240234375,0.01159910624846816,-0.025543898840248585,0.049479193440079686
1733704458683738400,6.47573828125,-0.029135055200010536,-0.0069046648219227786,0.06545476120710372
1733704458693704400,6.485704345703125,-0.058287061534821986,0.017938538403064013,0.09738017777800559
1733704458703671600,6.495671630859375,-0.07218845337629318,0.022599662081897256,0.09821779764592647
1733704458713637400,6.505637451171875,-0.0409562797665596,-0.004616992276161909,0.10667290678024291
1733704458723604500,6.5156044921875,0.02610708568096161,-0.04961977095454931,0.06290507672429084
1733704458733570300,6.5255703125,0.08500818746089935,-0.10453867123052477,-0.018334698113799095
1733704458743537400,6.535537353515625,0.16491101460680366,-0.1287016371063888,-0.08347381750047206
1733704458753504500,6.54550439453125,0.16842282212004064,-0.0998462756305933,-0.12995616721212863
1733704458763470300,6.55547021484375,0.1232145839974284,-0.027376959486305714,-0.12254735226035117
1733704458773437400,6.5654375,0.08102759339213371,0.01664937537536025,-0.04697393262088299
1733704458783403500,6.575403564453125,0.021136165400594473,0.044727907259762285,-0.003189151430130005
1733704458793370400,6.585370361328125,0.0015239946968853473,0.040268297502398485,0.06067044954001903
1733704458803336400,6.59533642578125,-0.027542379181087016,0.014349135608971117,0.13322306005358694
1733704458813303600,6.605303466796875,-0.035524610106647016,-0.05022898889407515,0.12326748322844505
1733704458823270400,6.6152705078125,-0.014765607455372809,-0.09765139593482017,0.0686281305462122
1733704458833236500,6.625236572265625,0.019189707507938147,-0.08541384565234184,0.036007132926583287
1733704458843203300,6.635203369140625,0.016062223137170074,-0.05151742126941681,0.026069676280021666
1733704458853169400,6.64516943359375,0.01605550113543868,-0.020547113466262815,-0.0068611179411411285
1733704458863136500,6.655136474609375,0.036340748795121905,-0.019003975677490233,-0.016064999616146085
1733704458873102300,6.665102294921875,0.054283378851413724,-0.02363952652364969,0.01014145478606224
1733704458883069400,6.6750693359375,0.04940379011631012,-0.03631605274528265,-0.004122048366069793
1733704458893036300,6.685036376953125,0.04609568848162889,-0.018695055858790874,-0.01456687001287937
1733704458903002600,6.695002685546875,0.04251213090643286,0.001892828009277582,-0.025859248399734497
1733704458912969500,6.704969482421875,0.04597030853629112,0.00193082193210721,-0.03998305082023144
1733704458922935600,6.714935546875,0.04129062628746032,0.05790493034943938,-0.045180034941434855
1733704458932902400,6.72490234375,0.06056026716381311,0.10991028126627206,-0.056198272562026974
1733704458942868500,6.734868408203125,0.02759133288934827,0.11836904366239905,-0.06860708775818347
1733704458952835300,6.74483544921875,0.02493906481489539,0.10526669324412942,-0.07115443415343761
1733704458962802400,6.754802490234375,0.021773001999408004,0.03872296775653958,-0.027776480197906493
1733704458972768300,6.764768310546875,0.0038312487259507177,-0.00030497429594397545,0.021596914780139923
1733704458982735400,6.7747353515625,0.038453210904449225,-0.04614961062595248,0.04399170193970203
1733704458992701400,6.784701416015625,0.0737561410844326,-0.1087068968258798,0.0439887793302536
1733704459002668300,6.794668212890625,0.07533902636170386,-0.14470117027089,0.06105389589965343
1733704459012634600,6.804634521484375,0.06585691226720809,-0.14934738864153624,0.043427638316154475
1733704459022601500,6.8146015625,0.07045008527636527,-0.13201193069815634,-0.0035942250996828075
1733704459032568600,6.824568603515625,0.05331877160295844,-0.12029080550521612,-0.04566577263176441
1733704459042534400,6.834534423828125,0.04635726202726364,-0.07164061023518442,-0.09457797983884811
1733704459052501500,6.84450146484375,0.07315759066939354,-0.029599750102311372,-0.13339841662049293
1733704459062467300,6.85446728515625,0.09296820655465125,-0.013249211543053387,-0.12422609912753105
1733704459072434400,6.864434326171875,0.08929770134836434,0.028082331276684996,-0.05751695394515991
1733704459082400300,6.874400146484375,0.08613368435949087,0.09822305834293366,0.048612347477674483
1733704459092367400,6.884367431640625,0.036520050884783266,0.1312426998913288,0.12173252874612807
1733704459102334500,6.89433447265625,-0.0025341946527361867,0.10267243896722793,0.11502455554008484
1733704459112300300,6.90430029296875,0.0010290507867932318,0.03535319906249642,0.10258476068377494
1733704459122267400,6.914267333984375,0.019650456887483597,-0.02599997204467654,0.05946574992537498
1733704459132233500,6.9242333984375,0.02960048075467348,-0.09319806978777051,0.033412440258264536
1733704459142200600,6.93420068359375,0.006175181503593921,-0.12384966703057289,0.05146013812422752
1733704459152166400,6.94416650390625,-0.007711012768745422,-0.13869067780971525,0.0824175864458084
1733704459162133500,6.954133544921875,-0.015112228935956954,-0.12056290044486521,0.10136953967511653
1733704459172100400,6.964100341796875,0.01775485239923,-0.12475436078533529,0.12852584214806556
1733704459182066400,6.97406640625,0.023319208528101442,-0.10401961579248309,0.1609580391973257
1733704459192033500,6.984033447265625,0.011160860961675644,-0.10013283748701214,0.1341056881070137
1733704459201999400,6.993999267578125,0.010678045880794525,-0.060194064199924464,0.05779927801787853
1733704459211966500,7.003966552734375,-0.015949410412460563,-0.03874357215315103,0.028510639691352844
1733704459221932300,7.013932373046875,0.021013854195177553,0.027379882095754145,0.04225742549300193
1733704459231899400,7.0238994140625,0.02038607768565416,0.07777619038075208,0.05251695370078086
1733704459241866200,7.0338662109375,0.0271203543767333,0.1285835636846721,0.03016775924861431
1733704459251832600,7.04383251953125,0.014913345362991094,0.11689648689180612,-0.002171498820185661
1733704459261799400,7.05379931640625,0.03331102571040392,0.07459449160471558,-0.04303834673762321
1733704459271765500,7.063765625,0.03117006815895438,0.07584273810014128,-0.05178162516355514
1733704459281732900,7.07373291015625,0.03418050202131271,0.11143164561465382,-0.07672843489348888
1733704459291699000,7.083698974609375,0.07909969406947492,0.10020195720046758,-0.14672025500833988
1733704459301665800,7.093665771484375,0.12422814495414494,0.06607187019214034,-0.20042145005762577
1733704459311633000,7.1036328125,0.14733429525345562,0.07498042218238114,-0.15778116272687912
1733704459321598700,7.1135986328125,0.1493229848526418,0.05012319043204188,-0.08421557577848433
1733704459331565800,7.12356591796875,0.15994301693588495,-0.02266819727346301,-0.04203296908736229
1733704459341531600,7.13353173828125,0.12722148155122995,-0.05576309601515531,-0.011557751324772833
1733704459351498800,7.143498779296875,0.09230448194891214,-0.04598141445219516,-0.006610358050465583
1733704459361464800,7.15346484375,0.012666881610453129,-0.049072366204857824,-0.01160977377295494
1733704459371432000,7.163431884765625,-0.05203808414265513,-0.026600714416801927,0.0038911622196435925
1733704459381399000,7.17339892578125,-0.08270166408419609,0.01248158817142248,0.07941957367360591
1733704459391364900,7.18336474609375,-0.10473726254254578,0.03355652490407228,0.15109540135264396
1733704459401332000,7.19333203125,-0.08240238887667656,0.05955795825347304,0.21433891625106333
1733704459411297800,7.2032978515625,-0.019542612598836422,0.009326923532783984,0.20812077238857746
1733704459421265000,7.213264892578125,0.05005290167480707,-0.02809504462778568,0.13487959508895872
1733704459431230700,7.223230712890625,0.08903072097525,-0.048263680170476435,0.0598439355880022
1733704459441197800,7.23319775390625,0.07515314840078353,-0.06986264077723026,0.009882511588931083
1733704459451164700,7.24316455078125,0.04938961546048522,-0.07448840088173747,-0.0751677614480257
1733704459461130800,7.253130859375,0.028239275404065844,-0.05853168394565582,-0.10974281574487685
1733704459471097900,7.263097900390625,0.03431289622932672,-0.032738486519455906,-0.09186521374881267
1733704459481064000,7.27306396484375,0.028411270970106123,-0.017126345237344503,-0.035308044746518136
1733704459491031000,7.283031005859375,0.021292086614668367,-0.018619944795966147,0.008754968863725662
1733704459500996900,7.292996826171875,0.00730067840218544,-0.029191899953782557,0.05972352407872677
1733704459510964000,7.3029638671875,0.003112286801636219,-0.028650194292515516,0.08555529994964599
1733704459520930800,7.312930908203125,0.024061551328003406,-0.02432385552600026,0.08185819899737834
1733704459530897000,7.32289697265625,0.053344928957521916,0.002970540243387222,0.07813245647251606
1733704459540863700,7.33286376953125,0.049566141071170564,0.007500731018930673,0.0615869798630476
1733704459550829800,7.342829833984375,0.0649820291288197,-0.027261078021675347,-0.002808043158054352
1733704459560796700,7.352796630859375,0.08173398809581994,-0.0658954907119274,-0.1219797815054655
1733704459570762800,7.3627626953125,0.07793649550899863,-0.10032266097068786,-0.14794424384534358
1733704459580729600,7.3727294921875,0.055660220162570474,-0.07021788395568727,-0.1402665488243103
1733704459590696700,7.38269677734375,0.03828939864486456,-0.012343494874984024,-0.10538169792592525
1733704459600663000,7.3926630859375,0.06729249802827834,0.024327654918283224,-0.07181552841067314
1733704459610630000,7.4026298828125,0.09529913372024894,0.03176145818084478,-0.10932371354997157
1733704459620596000,7.412595947265625,0.16801014966592193,0.030665625768154858,-0.14442951372265814
1733704459630562800,7.422562744140625,0.19812252546548842,0.04481470876038074,-0.13371522748470305
1733704459640529000,7.43252880859375,0.16706337033510207,0.04267316668704152,-0.08745207348167895
1733704459650495700,7.442495849609375,0.08558715639263391,0.025115005903691052,-0.04047404920756817
1733704459660461800,7.4524619140625,0.028611469717323777,0.012085136199742556,0.04557224912941456
1733704459670428700,7.4624287109375,-0.023420623075962065,0.01415843534246087,0.1475859319269657
1733704459680395800,7.472395751953125,-0.09578794015049934,0.006391016211360692,0.24202888720929622
1733704459690361900,7.48236181640625,-0.14066183175221084,-0.023047844240814446,0.31451836935877797
1733704459700328700,7.49232861328125,-0.14320757071226833,-0.05669307034164667,0.3128466367542744
1733704459710294800,7.502294677734375,-0.1394248373031616,-0.053132016859203574,0.2017652658820152
1733704459720262000,7.512261962890625,-0.046290626531839366,-0.007016308502852916,0.10503156931400298
1733704459730228000,7.52222802734375,0.04826265725716948,0.030778146231919525,-0.00412087932229042
1733704459740194800,7.53219482421875,0.11615969704985618,0.02854045030772686,-0.1128039568811655
1733704459750162000,7.542161865234375,0.15068608989939092,0.019177870939671993,-0.1889776805013418
1733704459760127700,7.552127685546875,0.1687406558975577,-0.0076166124835610385,-0.21180735194683073
1733704459770094800,7.5620947265625,0.14176760103702543,-0.00448576711192727,-0.1436029997706413
1733704459780060700,7.572060791015625,0.09360416637063027,0.023065526027977467,-0.03610708616971969
1733704459790027800,7.58202783203125,0.043538697475194926,0.008423398821800947,0.027552023792266844
1733704459799993900,7.591993896484375,-0.01542436362504959,-0.03199409789294004,0.0558791236102581
1733704459809961000,7.6019609375,-0.01274608432650566,-0.061184974933415646,0.07446458161473274
1733704459819927800,7.611927734375,0.017161416550725696,-0.052767421330511564,0.06328735404014588
1733704459829894000,7.621893798828125,0.039321956562995905,-0.03760039346739649,0.05738835912942886
1733704459839861000,7.631861083984375,0.04557546399980783,-0.03358063643202185,0.0670592737942934
1733704459849826800,7.641826904296875,0.03489508003145456,-0.00789542942494154,0.07740764932930469
1733704459859794000,7.6517939453125,0.019420155262947082,-0.010170388619601727,0.07435527602136134
1733704459869759700,7.661759765625,0.01109568677097559,-0.0034517478890717028,0.03896422916650772
1733704459879726800,7.671726806640625,0.016838760467618702,0.007063070254027843,0.0375227981865406
1733704459889693700,7.681693603515625,0.007720657379925251,0.03865253286883235,0.05219254405200481
1733704459899659800,7.69165966796875,0.006995850236713886,0.03731616969853639,0.07023088956773281
1733704459909626600,7.701626708984375,0.008730418944358826,0.014737842665612696,0.07099661324322223
1733704459919593000,7.711593017578125,0.007713204725831747,-0.0011434709466993807,0.06598901421427726
1733704459929560000,7.72156005859375,0.005867430728673934,0.030930852575600146,0.053608256068825716
1733704459939526000,7.73152587890625,0.04600421080589294,0.05629048089012503,-0.013411270236968994
1733704459949493000,7.741492919921875,0.0690393416956067,0.02960588758215308,-0.07101239533424376
1733704459959459800,7.7514599609375,0.09730535897612572,0.0004889525607228278,-0.09484043016731739
1733704459969426000,7.761426025390625,0.13127660216093062,0.0013749416150152683,-0.0882867707401514
1733704459979392800,7.771392822265625,0.130328507655859,-0.03255246242806315,-0.0939770913362503
1733704459989358800,7.78135888671875,0.14093611864894628,-0.0547450050137937,-0.0845177735954523
1733704459999325700,7.79132568359375,0.09795768540501594,-0.04780673018321395,-0.01837327655851841
1733704460009291800,7.801291748046875,0.04295885176062584,-0.03337430020496249,-0.02605214062333107
1733704460019258600,7.811258544921875,0.03237316033840179,-0.0013281798638403416,-0.03272387347221374
1733704460029225700,7.821225830078125,0.032997283586114645,0.01588862013593316,-0.02087853737771511
1733704460039191800,7.83119189453125,0.01986293059438467,0.015512188038975,0.009691957452893257
1733704460049159000,7.841158935546875,0.03335471872165799,0.010647650742530821,0.06494798072874546
1733704460059125000,7.851125,0.014773498500883579,-0.005668547155708074,0.11935118656754493
1733704460069091800,7.861091796875,0.03297083397060632,-0.03067293229177594,0.12725333799421787
1733704460079058000,7.871057861328125,0.04400046976804733,-0.055638885113596916,0.09036708414554595
1733704460089024800,7.881024658203125,0.05333280012831092,-0.06350128905177116,0.0482891068726778
1733704460098991900,7.890991943359375,0.035482670661062,-0.06920636882558465,-0.012468436428904533
1733704460108957700,7.900957763671875,0.012374328404664993,-0.032308424539119,-0.04528349531590938
1733704460118924800,7.9109248046875,0.025319442434608933,-0.018510493072122335,-0.05381634586155414
1733704460128891000,7.920890869140625,0.029663316857814787,-0.008859744412451982,-0.0256499895632267
1733704460138857700,7.930857666015625,0.03719765788540244,0.003057634004950523,0.016621464455127716
1733704460148823800,7.94082373046875,-0.00010404489636421203,0.01318374509140849,0.07009235787987708
1733704460158791000,7.950791015625,0.0021427111171185968,0.006222820037603378,0.07483984466791152
1733704460168756700,7.9607568359375,0.024677637399733065,-0.0009793664261698721,0.028426468539237974
1733704460178723800,7.970723876953125,0.06907295170426368,0.03506371459662914,0.0013689502656459808
1733704460188691000,7.98069091796875,0.08714286140203475,0.037136136956512925,-0.01987199068367481
1733704460198656800,7.99065673828125,0.06352730027586222,-0.0024484160654246806,-0.06033785658478737
1733704460208623900,8.000623779296875,0.06460983481556176,-0.018546002776920794,-0.08314180906713009
1733704460218589700,8.010589599609375,0.07653057423382997,-0.027665128777921197,-0.0962257470458746
1733704460228556800,8.020556884765625,0.10237769380435346,-0.0608754705928266,-0.14113807096183298
1733704460238523000,8.03052294921875,0.12239303848147391,-0.04788593289926648,-0.1206768822133541
1733704460248490000,8.040489990234375,0.12615151423215865,0.013160948737710714,-0.09944763170182705
1733704460258456800,8.050456787109376,0.12857377294301986,0.04165858281701803,-0.08544657887816429
1733704460268423000,8.0604228515625,0.10627075572013854,0.056704322388023136,-0.03610124095082283
1733704460278390000,8.07039013671875,0.08367664659619331,0.0406261710293591,0.030375264519453046
1733704460288356000,8.080356201171876,0.033192952288687225,0.006690145288407803,0.09029343438744544
1733704460298323000,8.090322998046876,-0.0025397476106882094,-0.022100480388104915,0.16446049436032772
1733704460308289000,8.1002890625,-0.07855301997214555,-0.04849602762162685,0.24492986934781072
1733704460318255900,8.110255859375,-0.09480126720070839,-0.06420110788419843,0.23294833965301512
1733704460328223000,8.120222900390624,-0.07463058583140372,-0.05323430818989872,0.1700122832685709
1733704460338188800,8.130188720703124,-0.05467150138616562,-0.04208513766601681,0.10199380905330181
1733704460348156000,8.140156005859374,-0.009198036456108092,-0.03827171685770154,0.04341536335647106
1733704460358122000,8.1501220703125,0.028513708431273696,-0.005462941581010818,-0.008117840003967284
1733704460368089000,8.160089111328125,0.04751783023923635,0.008834463840723037,-0.036840661141276355
1733704460378055000,8.170054931640625,0.08278115906119346,0.010515841056406497,-0.0761480046570301
1733704460388022000,8.18002197265625,0.10426496885567903,0.009619915129989385,-0.07246025605499744
1733704460397989000,8.189989013671875,0.1154421964302659,0.02538900053948164,-0.06537059005498885
1733704460407955000,8.199954833984375,0.0904106310263276,0.03298237827792763,-0.019383330383896828
1733704460417922000,8.209922119140625,0.04069821335226297,0.04653188794180751,0.036003625795245166
1733704460427887900,8.219887939453125,0.010557342110574245,0.02654591548964381,0.06314063904583454
1733704460437855000,8.22985498046875,0.003422667925059795,0.0006260229438543319,0.08060498406589031
1733704460447820800,8.23982080078125,-0.012682225310057402,-0.0002921148143708706,0.07842822454869747
1733704460457788000,8.249787841796875,0.0236368961751461,0.0046035482726991175,0.09504618187248706
1733704460467755000,8.259755126953126,0.026246201890707015,0.018415069873631,0.0811018276721239
1733704460477721000,8.26972119140625,0.02790039883852005,0.027617782504856584,0.06107143155634403
1733704460487688200,8.279688232421876,0.019942571701854466,0.014141922599077223,0.028183891955018043
1733704460497654000,8.289654052734376,0.02828589102476835,0.016441139452159404,-0.003933832317590713
1733704460507621000,8.29962109375,0.050476972305774685,-0.002752221317589283,-0.02769990783035755
1733704460517587000,8.3095869140625,0.060199909418821335,-0.01858998804911971,-0.03885083191990852
1733704460527554000,8.319553955078124,0.05714271380528807,-0.0025632746167480944,-0.04163666324615478
1733704460537519900,8.329519775390626,0.04805383681207895,-0.004261749097704887,-0.05623743552863598
1733704460547487000,8.339487060546874,0.05154898545145988,-0.014143530034273861,-0.04914543144106864
1733704460557453800,8.349453857421874,0.08047609698921442,-0.02813406146392226,-0.029728783309459685
1733704460567420000,8.359419921875,0.09821516729742288,-0.034064182165265085,0.01731178480684757
1733704460577386800,8.36938671875,0.08189151674509047,-0.03966477865129709,0.0492477227717638
1733704460587353000,8.37935302734375,0.04808306290656328,-0.028453941068053244,0.051882747450470924
1733704460597320200,8.3893203125,0.034546704985201356,-0.012202478969097137,0.00595043283700943
1733704460607286000,8.3992861328125,0.02247822765931487,-0.028669483514875173,-0.020513211196660993
1733704460617253000,8.409253173828125,0.04595043479204178,-0.03483545879870653,-0.0178115510225296
1733704460627220000,8.419219970703125,0.06473331506475806,-0.030713556563109156,-0.018367431339621543
1733704460637186000,8.42918603515625,0.049328825183957814,-0.008351064237952233,0.0014496142864227294
1733704460647153000,8.43915283203125,0.03358224386721849,-0.025941227594763038,0.02275076099038124
1733704460657119000,8.449118896484375,-0.007247194649279117,-0.015813362942636012,0.054905894663929936
1733704460667085800,8.4590859375,-0.02351677692681551,-0.02532499539256096,0.0827706376671791
1733704460677052000,8.469052001953125,-0.018841478592157363,0.009566577507555483,0.08157412135899067
1733704460687018800,8.479018798828125,0.0060427872955799095,-0.007468290054053067,0.06458966881036758
1733704460696985000,8.488985107421875,0.008958382481336593,-0.01428542272299528,0.05863631336390972
1733704460706952000,8.498951904296876,0.014694880306720733,-0.010938304252177476,0.08473696930408477
1733704460716919000,8.5089189453125,-0.013516191916167736,-0.027006810999661682,0.08853577706515789
1733704460726884900,8.518884765625,-0.007421966694295406,-0.04319046855941414,0.07306640525460242
1733704460736852000,8.52885205078125,0.03422726377248764,-0.02502981183826923,0.09541618422865868
1733704460746818000,8.538818115234376,0.02501286070346832,-0.04590294238850474,0.049229602593183514
1733704460756785000,8.548784912109374,0.04263736472129821,-0.029794688152521846,-0.012547931405901908
1733704460766751000,8.5587509765625,0.051152679610252376,-0.00043970659151673316,-0.054174657779932016
1733704460776717800,8.5687177734375,0.05934679972082376,0.010260112729668617,-0.0909533596009016
1733704460786685000,8.578684814453124,0.06802081230282783,0.006679039372503757,-0.11771627884209156
1733704460796651000,8.588651123046875,0.07243395256996155,0.010426116946339607,-0.07992460058629512
1733704460806617900,8.598617919921875,0.027261224152147767,0.012990852867811917,-0.03799626091718673
1733704460816584000,8.608583984375,0.030665771898627278,0.014299158987402916,-0.027828502646088597
1733704460826551000,8.618551025390625,0.036528964843600985,0.004562485609948635,0.0002291325807571411
1733704460836516900,8.628516845703125,0.053027679701894516,-0.013543079923093318,0.03906301336586475
1733704460846484000,8.63848388671875,0.0831716196835041,-0.02948240733295679,0.058659694239497184
1733704460856451000,8.648451171875,0.07580985874384641,-0.04960384273305535,0.03498538866341114
1733704460866417000,8.6584169921875,0.055230012051761146,-0.05924465452060103,0.015109890848398208
1733704460876384000,8.668384033203125,0.040809857033193106,-0.03629354865252971,0.0006347907721996307
1733704460886349800,8.678349853515625,0.038757600678503513,-0.001998188079893589,0.007253332129120826
1733704460896317000,8.68831689453125,0.04012976581454277,0.015153145468235015,0.009141337832808493
1733704460906283000,8.698282958984375,0.05270034744367003,0.005720715734362602,0.013331775259971618
1733704460916250000,8.70825,0.05419599282890558,-0.008436696694791317,0.007705752071738243
1733704460926216000,8.7182158203125,0.07485884162932634,-0.038411855980753896,-0.04124678714573383
1733704460936183000,8.72818310546875,0.04225391836166382,-0.033036300422251225,-0.08291033839881419
1733704460946150100,8.738150146484376,0.04902823480218649,-0.008697101196646689,-0.06978957554101943
1733704460956116000,8.748115966796876,0.04555748995169997,0.004194967471808195,-0.03590308803021908
1733704460966083000,8.7580830078125,0.040589492280781264,0.009575783727318049,0.008838555493950843
1733704460976049000,8.768048828125,0.03421703463941812,-0.004756254616379738,0.05164776965081692
1733704460986016000,8.77801611328125,0.02686813318133354,-0.0018219547301530836,0.07743862898945808
1733704460995981800,8.78798193359375,0.023632804521918297,0.01643017966672778,0.06604337475001812
1733704461005949000,8.797948974609374,0.014052929141372442,0.022052695723623037,0.040619595158100125
1733704461015915800,8.807915771484375,0.014635551334917545,0.01834931116104126,0.012995675173401831
1733704461025882000,8.817882080078125,0.014225216968357561,-0.020316373450309035,0.023377368456125258
1733704461035849000,8.827848876953125,-0.0028100889846682546,-0.02615443195402622,0.04114683390259743
1733704461045815000,8.83781494140625,-0.013984101688861847,-0.0114056295029819,0.0692985771536827
1733704461055782100,8.8477822265625,-0.011738076327741145,-0.0035698213107883928,0.064406128937006
1733704461065748000,8.857748046875,-0.010133271479606628,-0.005564940650761127,0.0524894811719656
1733704461075715000,8.867715087890625,-0.001988251207768917,-0.00573737460821867,0.025095862811803815
1733704461085682000,8.877681884765625,0.02776625106483698,-0.012306377734988928,0.004101590099930763
1733704461095648000,8.88764794921875,-0.002398585574328899,-0.010411211638152599,0.020553543207049368
1733704461105614800,8.89761474609375,0.007874094375967979,-0.0005041501298546791,0.02102174524068832
1733704461115581000,8.907580810546875,0.026737492538988588,-0.006939736135303974,0.008539864808320998
1733704461125547800,8.9175478515625,0.06853782191425561,-0.027410423364490268,0.0011865794360637664
1733704461135514000,8.92751416015625,0.05685293707847595,-0.03477817565351724,-0.007810381489992141
1733704461145481000,8.93748095703125,0.0653425330042839,-0.04200388912335038,-0.018458032232522962
1733704461155447000,8.947447021484376,0.06319149245023727,-0.015067951402813196,0.005967968493700027
1733704461165414000,8.957413818359376,0.03182239458784461,-0.012904489758610724,0.02950549594759941
1733704461175381000,8.967381103515624,0.029016689517349002,0.00838555102944374,0.07070201421082019
1733704461185346800,8.977346923828126,0.011491554220765829,0.007267214524000883,0.07139584169387816
1733704461195314000,8.98731396484375,0.026235534366220233,-0.011056231543421745,0.0449561630576849
1733704461205280000,8.997280029296874,0.043738457830995316,-0.022939707691222427,-0.003017301994562149
1733704461215246800,9.007246826171874,0.03894201733469963,-0.032654023106396195,-0.03477905243635177
1733704461225213000,9.017212890625,0.06895955445766448,-0.042831133727729315,-0.045751697349548336
1733704461235179800,9.0271796875,0.06894990984648466,-0.030464842499047518,-0.051121699950098985
1733704461245147000,9.03714697265625,0.06047770344689488,-0.010805325522273779,-0.03202829242348671
1733704461255113000,9.047113037109375,0.05835471994355321,0.009532821368426083,0.005849895071983337
1733704461265080000,9.057080078125,0.02187383202537894,-0.002536094348877668,0.0071007719159126275
1733704461275046000,9.0670458984375,0.018964082058519124,-0.01816825550571084,0.0178857853025198
1733704461285012500,9.077012451171875,0.011567688196897507,-0.0018164017722010612,0.03154372377693653
1733704461294978300,9.086978271484375,-0.012774287507683038,0.001727262184023857,0.04389525582790375
1733704461304945400,9.0969453125,-0.009324585445225238,-0.004888502693921327,0.053912207451462746
1733704461314911500,9.106911376953125,0.022593962993472813,0.026485855865478514,0.06996727019548415
1733704461324878300,9.11687841796875,0.022269991736114023,0.04789747720658779,0.09014087417423725
1733704461334845200,9.12684521484375,-0.008394903379678726,0.05440788201391697,0.11512275521755218
1733704461344811500,9.1368115234375,-0.03156505882591009,0.006943243266642093,0.11905541849136352
1733704461354778600,9.146778564453125,-0.024172610487043857,-0.04966141813918948,0.08878010721504688
1733704461364744400,9.156744384765625,-0.024516893880069255,-0.07730491960719227,0.05910393087565899
1733704461374711600,9.166711669921876,-0.03766688283234834,-0.07595131304115056,0.02296294243633747
1733704461384677400,9.176677490234376,-0.005195230555534363,-0.0385894045047462,-0.025558219626545906
1733704461394644500,9.18664453125,0.034603111347556115,-0.02562237090393901,-0.0786404059946537
1733704461404611300,9.196611328125,0.0696165570616722,-0.019073241521418094,-0.07593757677674293
1733704461414577400,9.206577392578126,0.08183189551234245,-0.02694529007077217,-0.05324585249722004
1733704461424544300,9.216544189453124,0.07716185787469149,-0.01208645137399435,0.000034486791491508485
1733704461434510600,9.226510498046874,0.041214930702745914,0.020974983489513398,0.04712532379031181
1733704461444477400,9.2364775390625,0.008561784379184246,0.05206906380280852,0.10802256782352923
1733704461454443500,9.246443603515624,-0.007518705067038536,0.04647898871079087,0.1233434710741043
1733704461464410400,9.256410400390624,-0.006535831509530544,-0.0016010054558515548,0.08639058173000812
1733704461474377500,9.26637744140625,-0.009073241032660008,-0.033941870959848165,0.00035188217759132384
1733704461484343600,9.276343505859375,0.018475275628268718,-0.0327418475203216,-0.0622357991605997
1733704461494310400,9.286310302734375,0.05788987891077995,-0.045306437800079584,-0.12088555652797221
1733704461504276500,9.2962763671875,0.1461149825915694,-0.08956146685108542,-0.18598843555748462
1733704461514243300,9.306243408203125,0.12782821527272462,0.013211509881168603,-0.10011983187496662
1733704461524209400,9.31620947265625,0.09997077879309654,0.03789966867491602,-0.05600245772898197
1733704461534176300,9.32617626953125,0.060522565501928326,0.026900428015738723,-0.006987959191203117
1733704461544142600,9.336142578125,0.03979249668419361,0.010405804810672999,0.0002466682374477386
1733704461554109400,9.346109375,0.05823796169608831,-0.029760055230557917,-0.00831014770567417
1733704461564076500,9.35607666015625,0.027744623754918575,-0.0341723187148571,-0.017367898908257483
1733704461574042400,9.36604248046875,0.016238018095493315,-0.0036984161265194416,-0.021440262913703916
1733704461584009500,9.376009521484375,0.0030111645147204396,-0.003420768228918314,-0.007524550285935402
1733704461593975300,9.385975341796875,0.012752806328237056,-0.00917290201485157,0.02840191861987114
1733704461603942400,9.3959423828125,0.03275543765425682,-0.012423135982453822,0.08949556200802326
1733704461613908500,9.405908447265626,0.053177171175181864,-0.04133548834249377,0.087384853464365
1733704461623875300,9.415875244140626,0.05406564444750547,-0.04378711927831173,0.0465203436344862
1733704461633841400,9.42584130859375,0.052849838916957374,-0.03521276767849922,0.01682604711651802
1733704461643808300,9.435808349609376,0.043992286461591715,-0.01769508503600955,0.004398527219891548
1733704461653775400,9.445775390625,0.04848725979328155,-0.003782879539579153,-0.03139642426073551
1733704461663741400,9.455741455078124,0.034032617983222005,0.022594255254417658,-0.04355915574133396
1733704461673708500,9.46570849609375,0.03534340832084417,0.023662907399237154,-0.030168343770503998
1733704461683674400,9.47567431640625,0.02546644968986511,0.006819324626028537,0.003706453302502632
1733704461693641500,9.485641357421875,0.019437398658692834,0.02575958741754293,0.049263504862785336
1733704461703607300,9.495607177734374,0.008899930292367934,0.034698534546047446,0.04269230977892875
1733704461713574400,9.505574462890625,0.004243628919124603,-0.00019172317981719968,0.04606383203864097
1733704461723541500,9.51554150390625,0.009326631271839142,-0.0046435880221426485,0.02871463783085346
1733704461733507300,9.52550732421875,0.014344167172908782,-0.011764379812777042,0.009836334359645843
1733704461743474400,9.535474365234375,0.022444763781130313,-0.015442629934102297,0.015039748221635818
1733704461753440300,9.545440185546875,0.022616320955753326,-0.012365852837264537,-0.002042904004454613
1733704461763407400,9.555407470703125,0.01479044963568449,-0.029157267031818628,0.0192798700094223
1733704461773373400,9.56537353515625,0.048235623119771476,-0.039619770465791224,0.02251929032206535
1733704461783340500,9.575340576171875,0.04183277034014463,-0.04074059118926525,0.02932078703045845
1733704461793307400,9.585307373046875,0.0380196417927742,-0.04281827424615621,0.02812777785360813
1733704461803273500,9.5952734375,0.01166384204775095,-0.023142829047888516,0.016915478965640066
1733704461813240600,9.605240478515626,-0.01794014583826065,-0.02295037521570921,0.04567746306955814
1733704461823206400,9.615206298828125,-0.019193068508803843,-0.02555339732095599,0.02996902180612087
1733704461833173500,9.625173583984376,0.01298486151844263,-0.013278876028954983,0.04032616516947746
1733704461843139300,9.635139404296876,0.017761282140016554,0.003286474324762821,0.054174073258042334
1733704461853106400,9.6451064453125,0.011938275074958801,0.005277209750562906,0.08257248474657534
1733704461863072500,9.655072509765626,0.06226297942847013,-0.08217150273025035,-0.03021569004356861
1733704461873039400,9.665039306640624,0.07159370235353708,-0.045897097169607874,-0.048912791728973386
1733704461883006200,9.675006103515624,0.032274083878099914,0.03822627028077841,0.019636428362131118
1733704461892972500,9.68497265625,0.014832535211741923,0.03428615435287356,0.0031365444600582122
1733704461902939400,9.694939453125,0.023472061002254484,0.022500877882540224,-0.010405074158310889
1733704461912905500,9.704905517578124,0.049311435657739634,0.02471986910626292,-0.04172784866094589
1733704461922872300,9.714872314453125,0.06768412769436837,0.035992958270758386,-0.035251346123218535
1733704461932838400,9.72483837890625,0.06534487109184264,0.02826908602043986,-0.02445698038637638
1733704461942805500,9.734805419921875,0.04561871861964464,0.03258607243672013,-0.05594809719324111
1733704461952772400,9.7447724609375,0.055608197714388366,0.027547347617149352,-0.056631403282284734
1733704461962738400,9.754738525390625,0.06974193700700998,0.011612842512875794,-0.05399988573491573
1733704461972705300,9.764705322265625,0.08691723595261573,-0.0022654607139527797,-0.039159459477663035
1733704461982671600,9.774671630859375,0.08189648518115282,-0.017676672596484422,-0.03883154269754886
1733704461992638500,9.784638427734375,0.10024404277652502,-0.0473689232878387,-0.06354688175916672
1733704462002604500,9.7946044921875,0.10451368291974067,-0.041308308074623344,-0.0680436086565256
1733704462012571400,9.8045712890625,0.08616758662909269,-0.03610957038775086,-0.04754559502899647
1733704462022537500,9.814537353515625,0.06320698228031396,-0.012180121006816626,-0.02562719320952892
1733704462032504300,9.82450439453125,0.042833471815288064,-0.03259220991656184,0.003480243331193924
1733704462042471400,9.834471435546876,0.03404576972573995,-0.04942819390520453,-0.03925532106757164
1733704462052437200,9.844437255859376,0.057201312124729155,-0.07064809206649661,-0.09414835624992847
1733704462062404400,9.854404296875,0.12401420994251966,-0.04397431241348385,-0.13430442554950714
1733704462072370400,9.864370361328126,0.138232412648201,0.002892068179696798,-0.153835055449605
1733704462082337300,9.874337158203126,0.13323270466476678,0.028062749793380498,-0.10101648845374583
1733704462092303600,9.8843037109375,0.10220277562886476,0.05119987975284457,0.008262801432609558
1733704462102270500,9.8942705078125,0.07965192112475633,0.039808863297104834,0.10718085630238056
1733704462112237600,9.904237548828124,0.06245733295679092,0.022405016292631624,0.1609451797157526
1733704462122203400,9.914203369140624,0.007471651054918766,0.005447744011878967,0.1565045669198036
1733704462132170500,9.92417041015625,-0.0465548304259777,-0.010115443561971187,0.15316402432024478
1733704462142136300,9.93413623046875,-0.07180120762437582,-0.001300707335025072,0.12084230190813541
1733704462152103400,9.944103515625,-0.04476005596369505,-0.013675181870162487,0.08714169235825538
1733704462162069200,9.9540693359375,-0.04416530494093895,0.00925561186224222,0.05934767650365829
1733704462172036400,9.964036376953125,-0.058148529846966265,0.024350451271981,0.04636076915860176
1733704462182002400,9.97400244140625,-0.053579614496231075,0.012498685436695814,0.08373919043838977
1733704462191969300,9.98396923828125,-0.024681144531071186,-0.008209025418758393,0.11577683521211146
1733704462201936400,9.993936279296875,-0.0070537179037928575,-0.015822569162398575,0.12361644279658794
1733704462211902500,10.00390234375,0.001646305902302265,-0.005042962603271008,0.11758300785124301
1733704462221869600,10.01386962890625,-0.006086041915416717,0.006250877088308334,0.08805997624695301
1733704462231835400,10.02383544921875,-0.02449059039503336,0.003616436931490898,0.044832828938961025
1733704462241802500,10.033802490234375,0.00790975021123886,-0.02178483856767416,-0.008917465949058533
1733704462251768300,10.043768310546875,-0.005848433767259121,-0.009590689035505055,-0.004313187023997306
1733704462261735400,10.0537353515625,-0.004787234276533127,0.0015770400583744047,0.0037263270467519758
1733704462271702500,10.06370263671875,0.020033026464283465,0.007396832253038883,0.0024380408018827436
1733704462281668400,10.07366845703125,0.03908931685090065,0.004721329433470964,0.014512509477138518
1733704462291635200,10.08363525390625,0.04184036912471056,-0.0258687468804419,0.007625088050961494
1733704462301601500,10.0936015625,0.05663812528401613,-0.03171718064770102,-0.03981821564733982
1733704462311568400,10.103568359375,0.06975099709630012,-0.006753712043911219,-0.015793196937441824
1733704462321534500,10.113534423828124,0.05159019424468279,0.03403130280897021,0.01573591379225254
1733704462331501300,10.123501220703124,0.01692804618626833,0.037191958796977995,0.01605097109079361
1733704462341468400,10.133468505859375,0.03831102595478296,0.044927083093672986,0.028650924944877622
1733704462351434200,10.143434326171874,0.03882715878337621,0.03356441594958305,0.025216274321079254
1733704462361401300,10.1534013671875,0.042297172981500625,0.011330518440157174,0.0017418752312660217
1733704462371367200,10.1633671875,0.05805851347595453,-0.008119739700108767,-0.059923430564999575
1733704462381334300,10.173334228515625,0.06361234821081162,-0.021970570398122072,-0.05297521886229515
1733704462391300000,10.183300048828125,0.07493833660632371,-0.03770049284100532,-0.07357610834240913
1733704462401267200,10.19326708984375,0.06875994023233652,-0.024084493812173605,-0.0773942053258419
1733704462411233300,10.2032333984375,0.07479395969957113,-0.014656740253418683,-0.06932604968249798
1733704462421200400,10.213200439453125,0.06802899560928344,0.011896189498901366,-0.038591888722777364
1733704462431167500,10.22316748046875,0.0379737568244338,0.014233254144340752,0.020820669710636137
1733704462441133300,10.23313330078125,0.05199760600179434,0.011445669252425432,0.053663201126456256
1733704462451100400,10.243100341796875,0.07201397359222174,0.011599398509413003,0.0456312858402729
1733704462461066200,10.253066162109375,0.07780658551901579,0.010445260038226841,0.021687515673041342
1733704462471033300,10.263033447265625,0.08031447668671607,0.026197248182445763,-0.007355623459815978
1733704462480999200,10.272999267578125,0.05504764122217893,0.035800066047161815,-0.0201426243185997
1733704462490966300,10.28296630859375,0.049229894854128355,0.02400543722659349,-0.014060674056410788
1733704462500933400,10.292933349609376,0.031142157238721845,0.00697217710018158,0.0031172552376985546
1733704462510899200,10.302899169921876,0.02077478474229574,-0.0059204760901629926,0.020282325050234792
1733704462520866300,10.3128662109375,0.005668693286180496,-0.034331600929796695,0.032499417066574096
1733704462530832400,10.322832275390626,0.011971008300781249,-0.0424745753750205,0.051937107986211775
1733704462540799500,10.332799560546874,0.008316577446460723,-0.00859422534406185,0.03294482274651527
1733704462550765300,10.342765380859374,0.018720774821937083,0.032672289415448905,0.01555938818156719
1733704462560732400,10.352732421875,0.014765899716317653,0.047922757778316734,-0.00768061763048172
1733704462570698200,10.3626982421875,0.037843700703978536,0.037368046016246076,-0.02393792494833469
1733704462580665300,10.372665283203125,0.04933247844576835,0.03125833096429705,-0.024762685334682462
1733704462590632200,10.382632080078125,0.06310147607922553,0.021202947026491163,-0.043945524710416795
1733704462600598300,10.392598388671875,0.08074351575374603,0.017522651078552005,-0.050855742490291594
1733704462610565000,10.402565185546875,0.06167056649327278,-0.01633797133862972,-0.0245955120742321
1733704462620531200,10.41253125,0.05314677603691816,-0.022846038058400152,0.010201660540699958
1733704462630498300,10.422498291015625,0.02872603600770235,-0.012744623021781443,0.057168578898906704
1733704462640464400,10.43246435546875,0.005555296039581299,0.001734714838117361,0.0798778388351202
1733704462650431500,10.442431396484375,0.0032242227435111998,-0.014454641810059546,0.04253215078115463
1733704462660397300,10.452397216796875,0.008351356498897075,-0.00959288099259138,0.005183540117740631
1733704462670364400,10.462364501953125,0.03630903848260641,0.004740910916775465,-0.015802549287676812
1733704462680331300,10.472331298828125,0.026851474307477474,0.0015720716223120688,0.022158055794239042
1733704462690297300,10.48229736328125,0.014680851781368255,-0.0006581716477870941,0.03401274423897266
1733704462700264200,10.49226416015625,0.020376725335419177,-0.006511135459691285,0.016347908210754394
1733704462710230300,10.502230224609375,0.035762510515749454,-0.010371025758236646,0.011595745247602462
1733704462720197000,10.512197021484376,0.06018851124197244,-0.03476020160540938,0.009525953236222266
1733704462730163500,10.52216357421875,0.07892097650170325,-0.03707125502675771,0.015543021568655967
1733704462740130300,10.53213037109375,0.051151510566473005,-0.02227130691036582,0.012647300127148627
1733704462750097200,10.54209716796875,0.06257920577079057,-0.006600567308813333,-0.004032616516947746
1733704462760063500,10.5520634765625,0.04054273052960634,-0.003885170870274305,0.007898644295334815
1733704462770030300,10.5620302734375,0.03134177146404982,-0.03641410629227757,0.013405425018072127
1733704462779996400,10.571996337890624,0.03024228578954935,-0.052409547803550956,0.009651625442504882
1733704462789963300,10.58196337890625,0.0074503160059452055,-0.08136150152161717,-0.041029345002770425
1733704462799929300,10.591929443359374,-0.021216975551843643,-0.12035977908819913,-0.07050736842155456
1733704462809896200,10.601896240234375,-0.025557635104656216,-0.09481368829086423,-0.03942541693747043
1733704462819863300,10.61186328125,-0.025333763220906257,-0.06454568353816867,-0.029092238971590995
1733704462829829000,10.6218291015625,-0.024442367339134213,-0.0609963204935193,-0.019150690671801567
1733704462839796200,10.631796142578125,-0.016354922473430632,-0.03263166514411568,0.07615560344159603
1733704462849762300,10.64176220703125,0.014434475804865359,0.021508651974797247,0.14043021495342253
1733704462859729400,10.6517294921875,0.06500351030826568,0.04522562764883041,0.2155383551687002
1733704462869695200,10.6616953125,0.08885434149503707,0.04681304297074675,0.20975743367969987
1733704462879662300,10.671662353515625,0.060006724934279915,0.05368789717629552,0.16065350329279898
1733704462889628400,10.68162841796875,0.035060791987180706,0.07208630817607045,0.06706161188185214
1733704462899595300,10.69159521484375,0.03922697175592184,0.10937705117240548,0.011572948893904686
1733704462909562400,10.701562255859375,0.03869622588008642,0.13087547401413321,-0.006820201408863067
1733704462919528200,10.711528076171875,0.013508008609712123,0.10405746358484029,-0.031931261789798736
1733704462929495300,10.721495361328126,-0.015469079549610614,0.056433396492153405,-0.02850420995056629
1733704462939461000,10.731461181640626,-0.02001899793893099,0.025287585991621016,-0.020071312648057938
1733704462949428200,10.74142822265625,-0.001998188079893589,0.01950447254553437,0.016767010405659675
1733704462959394300,10.751394287109376,0.013023439963161944,-0.003250526228547096,0.053768415066599844
1733704462969361400,10.761361328125,0.020836159540712832,-0.021244155819714068,0.0643096828252077
1733704462979328500,10.77132861328125,0.016718787349760532,-0.0190152277238667,0.0670201108276844
1733704462989294300,10.78129443359375,0.030228841786086556,-0.03892141293808818,0.0722919137507677
1733704462999261400,10.791261474609374,0.02655921336263418,-0.05593903710395098,0.06707739397287368
1733704463009227300,10.801227294921874,0.025034780274331567,-0.030479601676762103,0.09312018224596977
1733704463019194400,10.8111943359375,0.016418927620351315,0.006252484523504972,0.08490764969587325
1733704463029160200,10.82116015625,0.0492740262567997,-0.017907120351493357,0.045561727735400195
1733704463039127300,10.831127197265625,0.05127426016330719,-0.02544423785805702,0.0038519992530345916
1733704463049093000,10.841093017578125,-0.0037821488872170446,-0.050584524333477016,-0.043992286461591715
1733704463059060200,10.851060302734375,-0.03431874144822359,-0.03438376950845122,-0.048069326642155644
1733704463069027000,10.861027099609375,-0.09204583101272583,-0.0224669756129384,-0.0015343699604272842
1733704463078993400,10.870993408203125,-0.11438041241765022,-0.0414363183684647,0.0246259072124958
1733704463088960500,10.88096044921875,-0.11559709473103284,-0.04525485374331474,0.08828092552125454
1733704463098926300,10.89092626953125,-0.14876988101452587,-0.03731748487278819,0.18121932145953176
1733704463108893400,10.9008935546875,-0.15791706406623124,-0.03198649910837412,0.26155133380293843
1733704463118859300,10.910859375,-0.17625234670192003,0.00407119496166706,0.39427521216273304
1733704463128826400,10.920826416015625,-0.11976736615300178,-0.03320917277112603,0.4170598754227161
1733704463138793200,10.930793212890626,-0.006660919193923473,-0.06805617587715387,0.3372697148710489
1733704463148759300,10.94075927734375,0.03841828572154045,0.042814767114818096,0.31049919684529304
1733704463158726100,10.95072607421875,0.0931926629602909,0.10183438070788979,0.20978373716473578
1733704463168692200,10.960692138671876,0.10752163256406784,0.06726487936899066,0.04952361710369586
1733704463178659300,10.970659423828126,0.04599076680243015,0.00361132236495614,-0.08924363307356833
1733704463188625400,10.98062548828125,-0.0012894552886486053,-0.04577960826978087,-0.16042963140904903
1733704463198592300,10.99059228515625,-0.05665332285314798,-0.07983239225819706,-0.17072890710532665
1733704463208558300,11.000558349609374,-0.1092003794312477,-0.11735592109709977,-0.17049276026189325
1733704463218525400,11.010525390625,-0.1012099651992321,-0.14237725736796855,-0.11557809776961803
1733704463228492300,11.0204921875,-0.11219517733305692,-0.09795271696895361,-0.03706745563447475
1733704463238458400,11.030458251953124,-0.11495236708670854,-0.04464841228276491,0.06442600268125534
1733704463248425200,11.04042529296875,-0.1757648554459214,-0.010470540609955788,0.18641805914640425
1733704463258391300,11.050391357421875,-0.1464773861631751,-0.030162206290662286,0.23284487927854058
1733704463268358100,11.060358154296875,-0.10223901598602533,-0.15206629221141338,0.15833295139074324
1733704463278324500,11.070324462890625,-0.11451163758188486,-0.1695674621105194,0.17122224358022212
1733704463288291300,11.080291259765625,-0.05885755489915609,-0.15330226374715566,0.16128186432421207
1733704463298258400,11.090258544921875,0.02534106974452734,-0.09222031079679727,0.15271043533384798
1733704463308224500,11.100224609375,0.07844634472727775,-0.05321224248856306,0.10069032523930072
1733704463318191600,11.110191650390625,0.11078531053513288,-0.09698474871963261,0.001703296786546707
1733704463328157400,11.120157470703125,0.1295017014428973,-0.09349135364592075,-0.09772387664914131
1733704463338124500,11.13012451171875,0.12631488810032607,-0.11844897703081368,-0.19496376917362213
1733704463348090600,11.140090576171875,0.09680383919477462,-0.13819588003009556,-0.24675825381875036
1733704463358057500,11.150057373046875,0.10638035357445477,-0.027614859895408152,-0.1880938834041357
1733704463368023600,11.1600234375,0.1004708372697234,-0.10043927308768033,-0.23110943378806112
1733704463377990400,11.169990478515626,0.15075637865662575,-0.09750994163751601,-0.18078443717360496
1733704463387957500,11.17995751953125,0.13142594750374556,-0.05313362429440021,-0.1421089618206024
1733704463397923600,11.189923583984376,0.11712152781933545,-0.07266103932410478,-0.10963234110772609
1733704463407890400,11.199890380859374,0.14129296926259993,-0.04161240558773279,-0.06588146218657494
1733704463417856500,11.2098564453125,0.17419775225967168,0.050401276721060276,-0.07059153957366943
1733704463427823600,11.21982373046875,0.1634545321881771,0.05338292288035154,-0.11171206999123096
1733704463437789400,11.22978955078125,0.17487229052036998,0.04368599699139595,-0.16688041498363018
1733704463447756500,11.239756591796874,0.18801994138509034,0.03465074988156557,-0.19318156193196773
1733704463457723600,11.2497236328125,0.1896817371174693,0.09374591292887925,-0.1379442433565855
1733704463467689500,11.259689453125,0.07829173868745565,0.10937369017153978,-0.077485390740633
1733704463477656600,11.269656494140625,-0.05910217730998993,0.1015717842489481,-0.015372925698757171
1733704463487622400,11.279622314453125,-0.14009616069346664,0.1295738898962736,0.030213351956009864
1733704463497589500,11.289589599609375,-0.1453600725710392,0.14920651886612177,0.09141630093753338
1733704463507555600,11.2995556640625,-0.17106383814811704,0.14891688826978206,0.1422007317572832
1733704463517522700,11.309522705078125,-0.16981208452135324,0.17243892589360474,0.1803244184464216
1733704463527488500,11.319488525390625,-0.1378065884515643,0.17853899633437395,0.17913666996657848
1733704463537455600,11.32945556640625,-0.06618892070055007,0.14608546423614024,0.15482640457451344
1733704463547422700,11.339422607421875,-0.010202537323534489,0.09148235191106796,0.12568506576418875
1733704463557388500,11.349388427734375,0.03807429458945989,-0.03450432714819908,0.07206044308245181
1733704463567355600,11.359355712890626,0.04900222357809543,-0.09430734620392323,0.03313362331688404
1733704463577321500,11.369321533203125,0.05223959806412458,-0.09206658153980969,-0.06515840860903263
1733704463587288600,11.37928857421875,0.10618512326329946,-0.04262801237106323,-0.13298866677582263
1733704463597254400,11.38925439453125,0.11790391036868095,-0.04035451448112726,-0.2235346146196127
1733704463607221500,11.399221435546876,0.07643471264392138,-0.07316402041018008,-0.23253332911133764
1733704463617188400,11.409188232421876,0.048370355415344235,-0.002932546320557594,-0.14191899220645426
1733704463627154700,11.41915478515625,0.0073345806717872615,-0.0053720484271645545,-0.09879062909781933
1733704463637121500,11.42912158203125,-0.007809212446212768,-0.03331716319024563,-0.03927402576804161
1733704463647087600,11.439087646484374,-0.01953735190182924,-0.07076777292340994,0.009140753310918808
1733704463657054700,11.4490546875,-0.03733282857239246,0.0008648001357913017,0.063007368054986
1733704463667020500,11.4590205078125,-0.13758797726482153,-0.028032500785589217,0.04725391860604286
1733704463676987600,11.468987548828125,-0.13170944062024353,-0.06145546243786811,0.05060556712150573
1733704463686954500,11.47895458984375,-0.16324176622033118,0.10708616375625132,0.17064590499699114
1733704463696920600,11.488920654296875,-0.03216097889244556,0.18696137224286793,0.18702829999923706
1733704463706887400,11.498887451171875,0.027833178821206093,0.20266922898441553,0.19219488898217676
1733704463716853500,11.508853515625,0.08637596868276595,0.12846972804665566,0.12017770051956177
1733704463726820400,11.5188203125,0.13807809886932373,0.13185878596305847,0.1179015722811222
1733704463736786700,11.52878662109375,0.14412848494946956,0.14449205756485461,0.04401099116206169
1733704463746753500,11.53875341796875,0.12284604294598102,0.07693418659865855,-0.0806225197225809
1733704463756719600,11.5487197265625,0.08009294289052486,-0.0416860553458333,-0.13243454002439975
1733704463766686500,11.5586865234375,0.044191608425974846,-0.09643617492616176,-0.15104220986068248
1733704463776653600,11.568653564453125,-0.038131285473704334,-0.12266776376962661,-0.1595896734535694
1733704463786619600,11.57861962890625,-0.08460720544457435,-0.031713235124945637,-0.13142916237413882
1733704463796586500,11.58858642578125,-0.14329934064894914,-0.04205810352861881,-0.17098258960545062
1733704463806552600,11.598552490234376,-0.05613894359022378,-0.04141074553579092,-0.15147007988393305
1733704463816519400,11.60851953125,0.03928074776977301,0.03758212715834379,-0.061627896395325656
1733704463826485800,11.61848583984375,0.11636077257990836,0.01222498306185007,-0.03619008827805519
1733704463836452600,11.62845263671875,0.2779331442832947,-0.027966157551109788,0.00018938509225845335
1733704463846418700,11.638418701171876,0.3163520145267248,-0.014045476487278937,0.1191302372932434
1733704463856385500,11.648385498046874,0.23159371017366645,0.029656594856083393,0.2409931144207716
1733704463866352600,11.6583525390625,0.024345628966391086,-0.08425941492021083,0.15489362459182737
1733704463876318500,11.668318359375,-0.10562661259770392,-0.10497253260314464,0.06652560530900954
1733704463886285600,11.67828564453125,-0.21387129873931407,-0.06929477776139974,-0.0028261633366346356
1733704463896251400,11.68825146484375,-0.30399405273497104,-0.08117050899416207,-0.10036182393729687
1733704463906218500,11.698218505859375,-0.3322173999175429,-0.09449322416484356,-0.12888883024156092
1733704463916184300,11.708184326171875,-0.24065438398569822,-0.018363924208283422,-0.12576280717551708
1733704463926151400,11.7181513671875,-0.06207271755337715,0.018017302727699278,-0.07634381949007511
1733704463936118500,11.728118408203125,0.16662907057106494,-0.00606587591022253,0.14368600187897682
1733704463946084600,11.738084716796875,0.2180348481595516,0.005211304907500744,0.4197621201187372
1733704463956051700,11.7480517578125,0.17879589370489118,-0.07425181564688682,0.4604647173851728
1733704463966017500,11.758017578125,-0.012430734767019749,-0.09926993704736232,0.39223172363638875
1733704463975984600,11.767984619140625,-0.1581435662984848,-0.04627279861420393,0.25855507459640503
1733704463985950500,11.777950439453125,-0.24264146614968776,-0.055419689404964445,0.1167687688589096
1733704463995917600,11.78791748046875,-0.23278175091445444,-0.03669277710318565,-0.04443184692263603
1733704464005883400,11.79788330078125,-0.27551731531322,-0.11888619940429926,-0.21959376803934572
1733704464015850500,11.8078505859375,-0.10094020834714174,-0.07045797632187605,-0.16493278804719447
1733704464025817600,11.817817626953126,0.08981938713490963,-0.0931973391354084,-0.1338052438557148
1733704464035783400,11.827783447265626,0.24047639707028864,-0.09183920252472162,0.009895371070504188
1733704464045750500,11.83775048828125,0.2944067247003317,-0.14747341146320103,0.1285889705121517
1733704464055716600,11.847716552734376,0.40791064654439685,-0.11888006192445755,0.23164544036090373
1733704464065683700,11.85768359375,0.3539297577708959,-0.028114918372035023,0.19421791924238205
1733704464075649500,11.8676494140625,0.2473310852706432,0.022734394377470015,0.03485036410689354
1733704464085616600,11.87761669921875,0.18267945713996886,0.12435264811664819,-0.16991057645976543
1733704464095583500,11.88758349609375,0.2061924346745014,0.13655541934669016,-0.4567658628672361
1733704464105549600,11.897549560546874,0.2941752540320158,0.13120324466377495,-0.6569482434719801
1733704464115516700,11.9075166015625,0.5108505042761564,0.1685156149700284,-0.729706021168828
1733704464125482500,11.917482421875,0.8895552223414183,0.3137543992489576,-0.6962316215902566
1733704464135449600,11.92744970703125,1.0621648286268115,0.3504556519195437,-0.6238274796366691
1733704464145415400,11.93741552734375,1.202570785921812,0.30292028602361676,-0.582228810313344
1733704464155382500,11.947382568359375,1.2545885579288005,0.19265519997030495,-0.580673397564888
1733704464165349400,11.957349365234375,1.1429729340493677,-0.004845101943612098,-0.7436532979786395
1733704464175315700,11.967315673828125,0.9412064991235732,-0.05928513266146183,-0.913955504104495
1733704464185282600,11.977282470703125,0.6366600732028483,0.022794015610218047,-1.0379793586581945
1733704464195248600,11.98724853515625,0.39497634616941213,0.15125000739246605,-1.0580722986161708
1733704464205215500,11.997215576171875,0.25294454123824833,0.262050223235786,-0.8487538408756256
1733704464215181600,12.007181640625,0.2632590145036578,0.2476929043203592,-0.5726216085344553
1733704464225148400,12.0171484375,0.35665567560344935,0.08805179294049739,-0.37551089046001435
1733704464235114500,12.027114501953125,0.5829238068401813,-0.06313420930504798,-0.396091906195879
1733704464245081600,12.03708154296875,0.8714356282830238,-0.20494857209324835,-0.7136994737416505
1733704464255048400,12.04704833984375,1.095036293876171,-0.3149810184344649,-1.0640759229451418
1733704464265014500,12.0570146484375,1.1325392183184624,-0.3467310784384608,-1.3468243585556745
1733704464274981400,12.0669814453125,1.124637651413679,-0.28858664024472236,-1.5224462983995675
1733704464284947700,12.07694775390625,1.050009695930779,-0.12380933502018451,-1.4866156910836696
1733704464294915000,12.0869150390625,0.6352583897113799,0.13111673542410135,-1.1278747336387633
1733704464304881200,12.096881103515624,0.051501200786978,0.4052648082107305,-0.5543985541015863
1733704464314848000,12.106847900390624,-0.3524642152629793,0.5598576962903141,0.07520926250219345
1733704464324814000,12.11681396484375,-0.34222836019173264,0.4808309213265776,0.4646656762063503
