time,seconds_elapsed,z,y,x
1733700015580267500,0.025267578125,0.010474047741293907,-0.006609042876213789,0.021837153276801108
1733700015590222300,0.035222412109375,0.0255278244882822,0.0015416764840483666,0.004577975440025329
1733700015600176400,0.04517626953125,-0.0014899462968111037,0.008841039711982012,-0.014160042777657507
1733700015610131500,0.05513134765625,-0.00492693500816822,-0.0021409575514495373,0.0004886602997779846
1733700015620085500,0.06508544921875,0.00860650030374527,-0.0036892099067568776,-0.0018564415216445922
1733700015630040300,0.075040283203125,0.028397826966643332,0.012986322823166847,-0.004822890111804009
1733700015639994400,0.084994384765625,0.013562661406397818,0.01186623275205493,0.016695114213228224
1733700015649949400,0.094949462890625,0.03808978441953659,0.002083966667205095,-0.007762450695037841
1733700015659903500,0.104903564453125,0.032015432941913606,-0.004488105199486017,-0.017189035210013387
1733700015669857500,0.114857421875,0.045994858455657955,0.01716857694387436,-0.007470774272084236
1733700015679812400,0.124812255859375,0.06188683959245681,0.004623568147420883,-0.022484219008684157
1733700015689766400,0.134766357421875,0.03148877871930599,-0.00203822782933712,0.015900748965144155
1733700015699721200,0.14472119140625,0.04458499165773391,-0.03160261435732245,0.033955461093783376
1733700015709675500,0.154675537109375,0.05292319641411304,-0.03930427477583289,0.01674187596440315
1733700015719630600,0.164630615234375,0.062248658642172806,-0.04433452402800321,-0.01473462779521942
1733700015729584400,0.17458447265625,0.04688976146876812,-0.011319997046142815,-0.015196400088071823
1733700015739539500,0.18453955078125,0.03504910154938698,-0.007004033543169498,-0.019338322198390958
1733700015749493200,0.1944931640625,0.01788695434629917,-0.009297551307827234,-0.005603811356425285
1733700015759448600,0.204448486328125,-0.004095744881033897,-0.015618424892425537,-0.008022562935948371
1733700015769402600,0.214402587890625,-0.02354629528224468,-0.012144903562963008,-0.0009597849428653717
1733700015779357400,0.224357421875,-0.031000118419528006,-0.013662906910479068,-0.0324468100965023
1733700015789311500,0.2343115234375,-0.014398527708649635,-0.007205839725583791,-0.03623977263867855
1733700015799265300,0.244265380859375,-0.030825930896401402,-0.018109949447214602,-0.010425532424449921
1733700015809220600,0.254220703125,-0.04425707487761974,-0.01862812810242176,-0.0073415949344635
1733700015819174700,0.264174560546875,-0.01830488749742508,-0.014915537320077419,-0.01123334167599678
1733700015829129500,0.27412939453125,-0.010025719451904296,-0.016192717649042607,-0.019423077872395514
1733700015839083500,0.28408349609375,-0.007433364871144294,-0.0021473872922360897,-0.030546529433131218
1733700015849038600,0.29403857421875,-0.0002443301498889923,0.003759206403046846,-0.03839373580217361
1733700015858992600,0.30399267578125,0.019599603483080864,-0.008186229065060615,-0.038293782559037204
1733700015868947500,0.313947509765625,0.010700257712602615,0.006902911256253719,-0.026174305698275564
1733700015878901500,0.323901611328125,-0.007645546317100524,0.002533317869901657,-0.013020809614658355
1733700015888856300,0.333856201171875,0.01511982772052288,-0.0035442484781146046,-0.014942717587947844
1733700015898810400,0.343810302734375,-0.011384732845425604,0.005658025761693716,-0.002362052956223488
1733700015908765400,0.353765380859375,-0.009016834670305252,-0.0021408114209771154,-0.006718494600057602
1733700015918719500,0.363719482421875,-0.017653145590424538,-0.004342851509898901,-0.01084638818502426
1733700015928674600,0.373674560546875,-0.0034989480316638946,-0.0017144027024507521,-0.0029500819772481915
1733700015938628400,0.38362841796875,0.0028489596903324126,-0.0043014965862035745,-0.014271686458587646
1733700015948582400,0.39358251953125,0.010099953731894493,-0.017050941913574934,0.004015080860257148
1733700015958537500,0.403537353515625,0.03350245662927628,-0.011251315724104642,-0.00909925225675106
1733700015968491500,0.413491455078125,0.04709200604259967,0.00650704380646348,0.0033820436537265776
1733700015978446600,0.423446533203125,0.0639046091556549,0.015962562154978512,-0.019286299750208853
1733700015988400400,0.433400390625,0.048121933612227434,0.0005630407102406024,-0.02716273221373558
1733700015998355500,0.44335546875,0.048001522102952,0.009277531433105468,-0.01064297456741333
1733700016008309500,0.4533095703125,0.02013736362159252,0.010436492209881543,-0.009370470413565635
1733700016018264600,0.4632646484375,0.0077758946985006325,-0.012083528764545918,0.005952770924568176
1733700016028218600,0.473218505859375,0.007898059773445128,-0.013272884679585694,-0.004864975687861442
1733700016038173400,0.48317333984375,0.0035147301226854323,-0.022235504944622515,-0.012201309925317764
1733700016048127500,0.49312744140625,-0.014628829333186148,-0.010444967777281999,-0.013262217155098914
1733700016058082600,0.50308251953125,0.001346153911948204,-0.005550181473046541,-0.01381751295030117
1733700016068036600,0.51303662109375,-0.009009235885739326,0.0011295885518193243,-0.006619710400700569
1733700016077991400,0.522991455078125,-0.019202128598093986,0.005823591586947441,-0.006971592578291892
1733700016087945500,0.532945556640625,-0.008681903627514838,-0.0019236615389585494,-0.02975157966315746
1733700016097899500,0.5428994140625,0.0011088380247354507,0.004754062659293413,-0.010599135425686836
1733700016107854600,0.5528544921875,0.001405190622806549,-0.004956745624542236,-0.00950140331685543
1733700016117808600,0.56280859375,-0.0035310967355966566,-0.0026743337757885455,-0.019169395372271535
1733700016127763500,0.572763427734375,0.006710895815491676,0.002035743611305952,-0.022315292182564735
1733700016137717500,0.582717529296875,0.0069517188340425485,-0.002256985146552324,-0.011847089660167693
1733700016147672300,0.59267236328125,-0.0032230536997318268,-0.006230857213586569,0.004846855509281158
1733700016157626400,0.60262646484375,-0.01109130285680294,0.0073012629240751265,-0.02155658276975155
1733700016167581400,0.61258154296875,-0.0005050269126892089,-0.009374269805848597,-0.0263122528642416
1733700016177535500,0.622535400390625,0.009371639457345008,0.007046557510644197,-0.007844283759593963
1733700016187490600,0.632490478515625,-0.015507950255274771,-0.0007423427999019623,-0.015007599517703056
1733700016197444400,0.6424443359375,0.013801146337389944,0.00992488942593336,-0.006985036581754684
1733700016207399400,0.6523994140625,0.02065758810341358,0.006286386793106794,-0.013555062621831893
1733700016217353500,0.662353515625,0.01716156268119812,0.010337123488634824,-0.0014162965387105942
1733700016227308500,0.67230859375,0.01896364366710186,0.006509089633077383,-0.007622165441513061
1733700016237262600,0.6822626953125,0.03320025881230831,-0.0007400047123432159,-0.015128595548868178
1733700016247216400,0.69221630859375,0.023640987828373906,0.0063974459521472455,-0.023583120161294935
1733700016257171500,0.70217138671875,0.033416531911492346,0.00936024128049612,-0.023691256710886954
1733700016267125200,0.712125244140625,0.014223755663633346,-0.00007423427999019622,-0.01648410181105137
1733700016277080600,0.72208056640625,0.0036672903358936308,0.0017027122646570204,-0.005320318239927292
1733700016287034600,0.73203466796875,0.003918634748458862,-0.002214607309550047,0.0020750527083873748
1733700016296989400,0.741989501953125,0.0045317982107400895,-0.012592501199990511,0.013209610185027122
1733700016306943500,0.751943603515625,-0.007089081478118896,-0.010434884774684905,0.010245499682426452
1733700016316898600,0.761898681640625,-0.007236965516209602,-0.015519202301651238,0.018940262791514395
1733700016326852600,0.7718525390625,-0.010623685345053672,-0.0014094284065067767,0.017562544697523115
1733700016336807400,0.781807373046875,0.0023065233767032623,0.0020087094739079476,0.0027805706292390823
1733700016346761500,0.791761474609375,0.020901918253302572,-0.00390782109349966,-0.014392682489752768
1733700016356716300,0.80171630859375,0.011340309181809425,0.022569266943633554,-0.008145897054672242
1733700016366670300,0.81167041015625,0.004705985733866692,0.005457242492586374,-0.0196545485407114
1733700016376625700,0.821625732421875,0.024345336705446242,0.011934475682675838,-0.007827332624793052
1733700016386579500,0.831579345703125,0.02944529019296169,0.023010873231291768,-0.018414777612686156
1733700016396533500,0.841533447265625,0.02754208692014217,0.007649784100800752,-0.021129297268390655
1733700016406488300,0.85148828125,0.04880056352615356,0.012760112851858138,0.0021340894192457198
1733700016416442400,0.8614423828125,0.02708031462728977,0.005823007065057754,-0.01454115104973316
1733700016426397400,0.8713974609375,0.016692191603779792,0.009524784192442893,0.005343114593625069
1733700016436351500,0.8813515625,0.011641337954998016,-0.011200754580646753,-0.0015372925698757171
1733700016446306600,0.891306640625,0.011195932275056839,-0.019986703104525803,-0.007050503033399581
1733700016456260400,0.90126025390625,0.008602408650517463,0.006536854422837496,-0.004938625445961952
1733700016466215400,0.91121533203125,0.02263444113433361,-0.0004208557605743408,-0.00215630125105381
1733700016476169500,0.92116943359375,0.0065974985688924785,-0.01227817455381155,-0.0011333879441022873
1733700016486124500,0.93112451171875,0.021809680747985838,-0.006714841338247061,0.006878653597831725
1733700016496078600,0.94107861328125,0.03316343393325805,-0.018019348554313183,-0.011081950506567954
1733700016506033400,0.951033447265625,0.030375849041342735,0.004377922823280095,-0.011904957327246665
1733700016515987500,0.960987548828125,0.025803134298324582,0.007689677719771862,-0.012349193963408469
1733700016525942500,0.970942626953125,0.02681026551425457,0.0014693419001996517,-0.003211363261938095
1733700016535896600,0.980896484375,0.025878537622094154,0.010048808066546917,-0.005520224726200103
1733700016545850600,0.9908505859375,0.01718669712245464,0.015505904428660868,0.0008972411006689071
1733700016555805400,1.000805419921875,0.0006318681627511978,0.009576222118735312,0.0040320319950580595
1733700016565759500,1.010759521484375,0.01516425138413906,0.008949906913936137,-0.0015028057783842085
1733700016575714600,1.020714599609375,-0.003822773158550262,0.0013894085317850112,-0.010776245558261871
1733700016585668600,1.030668701171875,0.010628361520171164,-0.0040171266868710516,-0.027286650854349136
1733700016595623400,1.04062353515625,0.02539104636609554,-0.0006448737747967243,-0.022265023300051687
1733700016605577500,1.050577392578125,0.03264028684198856,-0.0006925123088061809,-0.02419511457979679
1733700016615532300,1.0605322265625,0.04413549432456493,-0.009053659549355506,-0.019122633621096608
1733700016625486300,1.070486328125,0.04524550139307976,0.02523117962926626,-0.01297229429781437
1733700016635441700,1.080441650390625,0.03293371683061123,0.015132833332568407,-0.020381109249591828
1733700016645395500,1.0903955078125,0.03701601770818233,0.013407763105630873,-0.00708674339056015
1733700016655350500,1.1003505859375,0.025433131942152975,-0.00012523381486535072,0.004321370330452919
1733700016665304300,1.11030419921875,0.011876900276541709,0.004309095370769501,-0.005298106408119201
1733700016675259600,1.120259765625,0.01316343295574188,0.011395984891802071,-0.0015887304961681365
1733700016685213400,1.13021337890625,0.002788753935694694,0.014709054962545633,0.0007236380994319916
1733700016695167500,1.14016748046875,-0.008041267636418343,0.0021015023238956927,0.002128244200348854
1733700016705122600,1.15012255859375,-0.0012315876215696334,-0.004852992989122867,0.00028700024783611294
1733700016715076400,1.160076416015625,-0.0030500352203845977,-0.004654109416157007,-0.011988543957471847
1733700016725031400,1.170031494140625,-0.005722469300031662,0.007105009699612855,-0.012473112604022025
1733700016734985500,1.1799853515625,0.01780336771607399,0.0020768062740564347,-0.009986556485295296
1733700016744940500,1.1899404296875,0.024938626423478126,0.003454962759464979,-0.00910100582242012
1733700016754894600,1.19989453125,0.02206803942322731,0.0025884090580046175,-0.006489946541190147
1733700016764849400,1.209849365234375,0.022080314382910728,0.009602379473298787,-0.017303016978502273
1733700016774803500,1.219803466796875,0.004021510601043701,0.008732026379555464,-0.007078560084104538
1733700016784758500,1.229758544921875,0.022231121030449864,-0.004128185845911503,-0.019210896426439285
1733700016794712600,1.239712646484375,0.02324818911850452,-0.0025784721858799456,-0.026791560813784598
1733700016804667400,1.24966748046875,0.012079729372262954,0.014994886166602371,-0.016758242577314376
1733700016814621400,1.259621337890625,0.006557751080393791,0.0018504501722753047,-0.012416998502612114
1733700016824576300,1.269576171875,-0.012931962287425994,-0.00530512067079544,-0.009061842855811119
1733700016834530600,1.279530517578125,-0.015547697743773459,0.0028207565091550348,0.004537643429636955
1733700016844484600,1.289484619140625,-0.033417116433382035,-0.004044745346158743,0.006518003591895103
1733700016854439400,1.299439453125,-0.026453707161545752,-0.015569032792747019,-0.006851181069016456
1733700016864393500,1.3093935546875,-0.023939093992114066,-0.006100801093131303,-0.019121464577317237
1733700016874348300,1.319348388671875,-0.019501403805613517,-0.005971329494565725,0.004988894328474998
1733700016884302300,1.32930224609375,-0.013566168537735939,-0.00989654011428356,0.003096212449669838
1733700016894257700,1.339257568359375,-0.012577742022275924,-0.006971154186874628,-0.01005085389316082
1733700016904211500,1.34921142578125,-0.010339023184776306,-0.006236117910593747,-0.012408230674266815
1733700016914166500,1.35916650390625,0.015995441511273384,-0.0025236732587218284,-0.010702011278271674
1733700016924120300,1.369120361328125,-0.017757190486788747,0.001152823296934366,-0.02583937465548515
1733700016934075600,1.37907568359375,-0.006152677410840988,-0.0051296179734170435,-0.01820201164484024
1733700016944029700,1.38902978515625,0.021639584878087044,0.004494681070744991,-0.0022737901508808134
1733700016953984500,1.398984619140625,0.00521451977789402,-0.005203267731517553,-0.008581365862488746
1733700016963938600,1.4089384765625,-0.0048299043744802475,0.00408799996599555,-0.004470423412322998
1733700016973893400,1.418893310546875,-0.007935469174385071,0.013374153096973896,-0.012863573226332664
1733700016983847400,1.428847412109375,-0.010007014751434326,0.009912176074832676,-0.0322901582300663
1733700016993801500,1.438801513671875,-0.0013496610432863236,-0.0027023908264935015,-0.0391565368682146
1733700017003756500,1.448756591796875,-0.002068038445711136,-0.006687222678959369,-0.009285130217671394
1733700017013710600,1.458710693359375,0.008753215298056602,0.0022441256649792193,-0.009468670091032982
1733700017023665400,1.46866552734375,0.009729951375722884,0.016174889731407165,-0.0035603228300809856
1733700017033619500,1.478619384765625,0.008618775263428687,-0.005669423938542604,0.0020154314756393433
1733700017043574500,1.488574462890625,-0.012615735945105552,-0.010820230830460785,0.016672902381420135
1733700017053528600,1.498528564453125,-0.000661094257235527,-0.01899389267489314,0.024869652840495107
1733700017063483400,1.5084833984375,-0.005637713626027107,-0.024775983207672832,-0.0003916296660900116
1733700017073437400,1.5184375,-0.023795886129140853,0.0010671908400952815,-0.00956979237794876
1733700017083392300,1.528392333984375,-0.016247370445728302,0.0018793840058147907,-0.01905249099433422
1733700017093346600,1.5383466796875,-0.0044137247890233995,0.022451339652389286,-0.02569090609550476
1733700017103301600,1.548301513671875,0.002626256850361824,0.03241188491359353,-0.016246201401948927
1733700017113255400,1.55825537109375,0.010067220506072044,0.0014165887996554374,-0.024048984107375142
1733700017123210500,1.56821044921875,0.032055764952301974,0.01593202088624239,-0.01621171461045742
1733700017133164300,1.578164306640625,0.03356733855903148,0.01010682186409831,-0.027440964633226393
1733700017143118300,1.588118408203125,0.03258417274057865,0.016565788745135066,-0.021948796957731245
1733700017153073700,1.59807373046875,0.03448503792583942,0.0038400165542960166,-0.016921324184536932
1733700017163027500,1.60802734375,0.021472411617636678,-0.008908113598823547,-0.0016559505134820937
1733700017172982500,1.617982421875,0.01852525224983692,-0.007851736413687468,0.004085808008909226
1733700017182936300,1.627936279296875,0.013649170646071433,-0.007650953144580125,-0.021267828956246376
1733700017192891600,1.6378916015625,0.0041524435043334956,-0.006839344500750303,-0.0024760347247123715
1733700017202845700,1.647845703125,-0.0033358664244413374,-0.0046603930264711374,-0.0028431144714355467
1733700017212800500,1.657800537109375,-0.007072714865207672,0.005545359167456626,-0.00040799627900123595
1733700017222754600,1.667754638671875,0.003096212449669838,0.002132774244993925,-0.002217091527581215
1733700017232709400,1.67770947265625,0.014862638089060782,0.01163826921507716,-0.014862053567171097
1733700017242663400,1.687663330078125,0.02156125894486904,0.011617518687993288,-0.011910218024253844
1733700017252618500,1.697618408203125,0.044827568241953844,0.007182751110941171,-0.021688100194931028
1733700017262572500,1.707572509765625,0.03318155411183834,-0.0016918986096978188,-0.013320084822177886
1733700017272527400,1.71752734375,0.025241408762335774,0.012272183204442262,-0.01719780303835869
1733700017282481400,1.7274814453125,0.0303337634652853,0.016360475431382655,-0.009306757527589797
1733700017292435500,1.737435546875,0.028665537992119787,0.006967354794591665,0.012374912926554679
1733700017302390500,1.747390625,0.014568039056658743,-0.0013595979154109954,0.014679682737588882
1733700017312344600,1.757344482421875,0.006437339571118354,0.0023947861820459364,0.011005378139019011
1733700017322299400,1.76729931640625,0.0069219082176685326,0.0011620295166969298,-0.0074181673020124435
1733700017332253400,1.77725341796875,0.013284428986907005,0.007530103243887424,-0.010151391658186912
1733700017342208500,1.78720849609375,0.0019376900643110274,0.0045450960837304585,-0.014287468549609184
1733700017352162600,1.79716259765625,0.011311083087325095,0.013385551273822783,-0.016501052945852277
1733700017362117600,1.80711767578125,0.0029658640682697296,0.008725888899713754,-0.02005026986002922
1733700017372071400,1.817071533203125,0.0037251580029726027,-0.00427709279730916,-0.02269055523574352
1733700017382026500,1.827026611328125,0.016244447836279867,0.008930033169686795,-0.006671148326992988
1733700017391980300,1.836980224609375,0.02156242798864841,0.007813011838495731,-0.009306173005700111
1733700017401935600,1.846935546875,0.01909340752661228,0.010282909083366393,-0.004686696511507034
1733700017411889700,1.8568896484375,0.026643092253804207,0.006896481515467167,-0.0038660277783870694
1733700017421844500,1.866844482421875,0.026184827092289923,0.01527706410884857,-0.0001607435196638107
1733700017431798500,1.876798583984375,0.029525369691848755,0.023545126238465306,0.002421089667081833
1733700017441752300,1.88675244140625,0.02743161228299141,-0.006102116267383099,0.005634791016578674
1733700017451707600,1.896707763671875,0.021282442003488538,-0.004825812721252441,-0.008138298270106314
1733700017461661700,1.90666162109375,0.013307225340604781,0.0007522796720266342,-0.007716857987642288
1733700017471616500,1.916616455078125,0.016801497197151183,-0.010871814887225627,-0.017400632134079934
1733700017481570600,1.926570556640625,0.016994973942637444,-0.017141835067421198,0.000706102442741394
1733700017491525400,1.936525390625,0.01973521256148815,-0.01980155579596758,0.007319967624545097
1733700017501479400,1.9464794921875,0.00405249026119709,0.0029629414588212967,0.008967150309681891
1733700017511434500,1.9564345703125,0.023708207845687865,0.0030761925749480724,-0.01269815353155136
1733700017521388500,1.966388427734375,0.010493336963653564,0.006945289093255996,-0.015174772778153418
1733700017531343400,1.97634326171875,-0.008970657441020012,-0.0017677403248846529,-0.021654782447218895
1733700017541297400,1.98629736328125,-0.018644494715332985,0.005342822332680225,-0.016126958936452863
1733700017551252500,1.99625244140625,-0.003925649011135101,0.007166530628502368,-0.007183774024248123
1733700017561206500,2.00620654296875,0.005464110624790191,0.0019422201089560984,-0.009931611427664756
1733700017571161600,2.01616162109375,-0.007399462601542473,0.0013628127858042716,-0.006830722802877426
1733700017581115400,2.026115478515625,-0.009590835165977477,-0.0035835575751960273,-0.005199906730651855
1733700017591070500,2.036070556640625,0.006320435193181037,-0.011112199514359235,-0.01104337206184864
1733700017601024500,2.0460244140625,-0.008799977049231529,0.006881430076807737,-0.014275778111815452
1733700017610978600,2.055978515625,-0.008197919502854346,0.0017649638459086418,0.00046411038041114806
1733700017620933600,2.06593359375,-0.011973930910229682,0.004630144018679857,-0.007779401829838752
1733700017630887400,2.075887451171875,0.005497428372502326,-0.00017184943556785583,-0.012782324683666229
1733700017640842500,2.085842529296875,-0.0009463409394025802,0.0005216857865452766,0.0018184475988149641
1733700017650796300,2.09579638671875,0.010496259573101997,0.007914718647301196,-0.0005576338827610015
1733700017660751600,2.105751708984375,0.0004927519530057906,-0.008701046719402075,-0.009701894325017928
1733700017670705700,2.11570556640625,0.006560089167952537,-0.012409691978991031,-0.013376198923587799
1733700017680660500,2.125660400390625,-0.011611527338624,-0.0001695113480091095,-0.008839724537730216
1733700017690614500,2.135614501953125,-0.009839256969094276,-0.008547317462414503,-0.01418342365324497
1733700017700569300,2.1455693359375,0.029686113211512564,-0.002520896779745817,-0.0014887772530317305
1733700017710523400,2.1555234375,0.013327099084854126,0.006870616421848535,-0.011529109752178192
1733700017720478500,2.165478515625,0.007881108638644219,0.0034597850650548933,-0.010207505759596823
1733700017730432500,2.1754326171875,-0.001202361527085304,-0.000017535656690597534,-0.008993453794717788
1733700017740387300,2.18538720703125,0.017410569006204604,0.0003587503097951412,-0.02795534389615059
1733700017750341400,2.19534130859375,0.024887188497185707,0.01243541094213724,-0.024255320334434508
1733700017760295400,2.20529541015625,0.017825579547882078,0.01853606590479612,-0.0241729027479887
1733700017770250500,2.21525048828125,0.00386427421271801,0.014214841704815625,-0.023901684591174123
1733700017780204500,2.22520458984375,-0.011001871007680892,-0.007133066750317812,0.0019178163200616835
1733700017790159400,2.235159423828125,0.00789630620777607,-0.02110211700052023,-0.0014928689062595367
1733700017800113400,2.245113525390625,0.003661445116996765,-0.021176205150038003,0.025664602610468865
1733700017810068500,2.255068359375,0.013892916274070738,-0.011170067181438207,0.016267244189977645
1733700017820022500,2.2650224609375,0.020984920361638067,-0.002373451133072376,0.008491349491477012
1733700017829977600,2.2749775390625,0.03725742524862289,-0.001271042849123478,-0.004888941085338592
1733700017839931400,2.284931396484375,0.04168284047544002,0.005079495221376419,-0.01853577364385128
1733700017849886500,2.294886474609375,0.03606792320311069,0.00457622187435627,-0.01919979051053524
1733700017859840300,2.30484033203125,0.030500936725735662,0.004979103586822748,-0.026347324177622793
1733700017869795300,2.31479541015625,0.014912906971573828,0.017396686611324548,-0.022384850287437436
1733700017879749400,2.324749267578125,0.01040156702697277,0.006648936495184898,-0.013212532794475554
1733700017889704200,2.3347041015625,0.007944821524620055,0.01633314903303981,-0.011795067211985588
1733700017899658200,2.344658203125,-0.00471826069355011,0.006953326269239187,-0.005703180077672005
1733700017909612300,2.3546123046875,0.011796236255764961,-0.011743483155220747,-0.01820142712295055
1733700017919567400,2.3645673828125,0.02263444113433361,-0.015779022281616924,-0.003883563435077667
1733700017929521400,2.374521484375,0.018313655325770378,-0.006920593043416738,0.01921849521100521
1733700017939476200,2.384476318359375,0.014494973820447921,-0.013604016330093144,-0.013132453295588492
1733700017949430300,2.39443017578125,-0.0021925416082143783,-0.0109884270042181,-0.001844166561961174
1733700017959385000,2.404385009765625,0.00934241336286068,0.014329261864721774,-0.003932078751921654
1733700017969339100,2.414339111328125,0.007256839260458945,0.006866232507675886,-0.010666355443000793
1733700017979294200,2.424294189453125,0.007056932774186134,0.004354541947692633,0.002159223860502243
1733700017989248300,2.434248291015625,0.02108545812666416,-0.004383329650759697,0.003853752818703651
1733700017999203300,2.444203369140625,0.031873394122719764,-0.008859598281979561,-0.006342062503099441
1733700018009157000,2.4541572265625,0.024260581031441686,-0.002048456962406635,0.0036433249384164807
1733700018019112400,2.464112548828125,0.011031681624054908,0.008116232568770646,-0.0013239420801401138
1733700018029066200,2.474066162109375,0.014297989943623543,0.014662439341843128,-0.00012567220628261565
1733700018039021300,2.484021240234375,0.01698679063618183,0.004613046753406525,-0.008110241219401359
1733700018048975000,2.49397509765625,0.0021288287222385404,0.0035853111408650873,0.007386603119969367
1733700018058929200,2.50392919921875,-0.0032891046732664107,-0.00673705317005515,0.0051531449794769285
1733700018068884200,2.51388427734375,0.013756722673773765,0.0011404022067785262,-0.00487725064754486
1733700018078838300,2.52383837890625,0.0234235456854105,0.0073161682322621345,-0.003990530940890312
1733700018088793300,2.53379345703125,0.034275194567441936,0.012947744378447533,-0.02056874077618122
1733700018098747100,2.5437470703125,0.03502455163002014,0.01117649692222476,-0.018766075268387795
1733700018108702200,2.5537021484375,0.027342764955759047,-0.005404489392042159,-0.009196867412328719
1733700018118656300,2.56365625,0.0026800328642129895,-0.0023538696497678755,-0.011480594435334205
1733700018128611300,2.573611328125,0.009561024549603461,0.00042158641293644903,-0.0027186113089323043
1733700018138565400,2.5835654296875,0.006111760878562927,0.001530716698616743,0.0003249941706657409
1733700018148520200,2.593520263671875,-0.009589081600308417,0.003623889585584402,0.0015127426505088806
1733700018158474200,2.60347412109375,0.00289046074450016,-0.0014231646709144115,-0.006870470291376113
1733700018168429000,2.613428955078125,0.005669277808070182,-0.0035072774685919283,-0.004929273095726967
1733700018178383400,2.62338330078125,0.011074351722002029,0.006456921054422855,-0.0000935235023498535
1733700018188338200,2.633338134765625,0.022172668841481207,-0.005200491252541542,-0.0099994159668684
1733700018198292200,2.643292236328125,0.00943476782143116,-0.005934796876460313,-0.010936989077925681
1733700018208247300,2.653247314453125,0.012593524113297462,-0.010603519339859485,-0.004255903878808021
1733700018218201000,2.663201171875,0.009596095862984657,0.0024776421599090096,-0.0029366379737854
1733700018228155100,2.673155029296875,0.022660744619369507,0.000949701940268278,-0.0138379712164402
1733700018238110200,2.683110107421875,0.03148468706607818,0.009505494970083236,-0.01234042613506317
1733700018248064300,2.693064208984375,0.02640460732281208,0.0016318389855325222,-0.008660860839486122
1733700018258019300,2.703019287109375,0.03432955510318279,0.002038520090281963,-0.019946809485554693
1733700018267973000,2.71297314453125,0.019667408022284505,0.002124006416648626,-0.008550970724225044
1733700018277928400,2.722928466796875,0.018993454283475875,0.0000032148703932762145,-0.009931611427664756
1733700018287882200,2.73288232421875,0.0003214870393276214,0.00210837045609951,-0.0038888241320848465
1733700018297837300,2.74283740234375,-0.00016191256344318388,-0.007964403007924557,-0.017114800930023193
1733700018307791400,2.752791259765625,0.023259879556298255,0.015578677403926848,-0.01650046842396259
1733700018317746200,2.76274609375,0.012285481077432632,0.015716186178475616,-0.007051672077178954
1733700018327700200,2.7727001953125,0.025543022057414055,-0.0019797756403684614,-0.02126373730301857
1733700018337655300,2.7826552734375,0.024543489626049995,0.015003361734002827,-0.017216507738828657
1733700018347609300,2.792609375,0.01740413926541805,0.01675517383739352,-0.006539630901813507
1733700018357564200,2.802564208984375,0.0054833998471498484,0.005232639956474304,-0.017052257087826726
1733700018367518200,2.812518310546875,-0.005707856252789497,0.0011629062995314598,0.010007014751434326
1733700018377472300,2.82247216796875,-0.0004132569760084152,-0.006947042658925056,-0.0005938742399215698
1733700018387427300,2.83242724609375,-0.0253624047935009,-0.01961348587796092,0.004587327790260315
1733700018397381400,2.84238134765625,-0.024031448450684546,-0.01380859899148345,-0.009192775759100914
1733700018407336200,2.852336181640625,-0.021558920857310294,-0.009477876310795545,0.02084229702055454
1733700018417290200,2.862290283203125,-0.02981120089590549,-0.01223915771767497,-0.008802899658679962
1733700018427245000,2.8722451171875,-0.018024901512265205,-0.0017129413977265357,-0.008496610188484192
1733700018437199400,2.882199462890625,0.00036649522483348846,0.009397942942380905,-0.010965630650520324
1733700018447154200,2.892154296875,0.015205167916417121,0.012069792500138283,-0.01965162593126297
1733700018457108200,2.902108154296875,0.022378420546650884,0.01023190954849124,-0.035652912661433216
1733700018467063300,2.912063232421875,0.04142506632208824,0.00656301177740097,-0.012597615766525268
1733700018477017000,2.92201708984375,0.045668695241212844,0.008951368218660355,0.0058054714083671565
1733700018486972400,2.931972412109375,0.03098375180661678,0.018067425479739902,0.0000046761751174926755
1733700018496926200,2.94192626953125,0.02848725881576538,0.005218465300649404,-0.01909516109228134
1733700018506881300,2.95188134765625,0.02278992395699024,0.00544087587967515,-0.029567455267906186
1733700018516835300,2.96183544921875,0.022824995270371434,0.003519698558747768,-0.041129298245906824
1733700018526789000,2.9717890625,0.014479191729426383,-0.0023451018214225767,-0.00277238732278347
1733700018536744200,2.981744140625,-0.005593874484300613,-0.01489522518441081,0.0015688567519187926
1733700018546698200,2.9916982421875,-0.011979191607236862,-0.00039528292790055273,0.0071586395829916
1733700018556653300,3.0016533203125,-0.00713116705417633,-0.007078121692687273,-0.0039127895295619965
1733700018566607400,3.011607421875,-0.007593523868918419,-0.009115180478245019,0.018899346259236335
1733700018576562200,3.021562255859375,-0.0270136791318655,-0.03393149569630623,0.013881810358166694
1733700018586516200,3.03151611328125,0.004276946666836738,-0.008597147953510284,0.01047697035074234
1733700018596471300,3.04147119140625,0.014321955341100692,-0.00025046762973070144,0.006132803666591644
1733700018606425300,3.05142529296875,0.014140169033408164,0.009425269340723753,-0.01447626911997795
1733700018616380200,3.061380126953125,0.022138766571879385,0.019899901603907345,-0.019503741893172263
1733700018626334200,3.071334228515625,0.02682254047393799,0.022390549375861882,-0.008349310672283172
1733700018636289000,3.0812890625,0.02109013430178165,0.025812925039976835,-0.013666121780872344
1733700018646243300,3.091243408203125,0.024048399585485457,0.013314093472808599,-0.023902269113063812
1733700018656198100,3.1011982421875,0.018851415464282036,0.022391864550113678,-0.01438040753006935
1733700018666152200,3.111152099609375,0.02609305715560913,0.014798048420250415,-0.017593524357676506
1733700018676107300,3.121107177734375,0.012947744378447533,-0.003945815016329288,-0.015443068325519562
1733700018686061000,3.13106103515625,0.014210311660170553,-0.017674480639398096,-0.0033849662631750105
1733700018696016400,3.141016357421875,0.010008768317103385,-0.005595920310914516,0.00009293898046016692
1733700018705970200,3.15097021484375,0.007543254986405372,-0.01404576874822378,-0.008665537014603614
1733700018715924200,3.16092431640625,-0.009656886139512062,-0.011538608232885599,-0.01123158811032772
1733700018725879300,3.17087939453125,0.0015279402196407318,-0.004827420156449079,-0.002472527593374252
1733700018735833000,3.1808330078125,0.004474515065550804,0.006144932495802641,0.0023223054677248
1733700018745788400,3.190788330078125,0.0019949732095003126,0.0006688391722738743,-0.012847791135311126
1733700018755742200,3.2007421875,0.011176058530807494,-0.009048691113293171,-0.0037409400939941405
1733700018765697300,3.210697265625,0.014681436303257942,-0.004239975657314062,-0.018839725026488303
1733700018775651300,3.2206513671875,0.015389292311668395,-0.004957184015959501,-0.005022212076187134
1733700018785606100,3.230606201171875,-0.00003331774771213531,0.009688596452027558,-0.01190086567401886
1733700018795560200,3.240560302734375,0.00009761515557765961,0.008203910852223634,-0.009162965142726898
1733700018805515300,3.250515380859375,0.00982990461885929,0.016166560294479132,-0.017934885141253472
1733700018815469300,3.26046923828125,-0.003599485796689987,-0.0029147184029221533,0.00036298809349536896
1733700018825424100,3.270424072265625,0.0024497312396764754,-0.0030817455329000946,-0.004465162715315819
1733700018835378200,3.280378173828125,0.009486205747723579,-0.0024112989254295824,0.0022504092752933503
1733700018845333200,3.290333251953125,0.0009171148449182509,0.008440934478491544,-0.007520458632707595
1733700018855288000,3.3002880859375,0.010540683236718177,-0.001348638129979372,-0.01827916853427887
1733700018865242000,3.3102421875,0.028950784674286842,0.014740180753171444,-0.02051788737177849
1733700018875197000,3.320197021484375,0.017029460734128952,0.0050770110033452505,-0.01300268943607807
1733700018885151000,3.33015087890625,0.018153496327996253,-0.0066335927955806255,0.0017377835780382155
1733700018895106000,3.34010595703125,0.005502104547619819,-0.0026094518460333346,-0.01509936945438385
1733700018905060000,3.35006005859375,0.0069505497902631755,-0.011752397114038467,-0.009130231916904449
1733700018915015000,3.360014892578125,0.009022095367312431,-0.0023117840737104413,0.0026876316487789154
1733700018924969000,3.369968994140625,-0.0011123451560735701,0.004668722463399172,0.0021849428236484524
1733700018934923800,3.379923828125,-0.0011532616883516312,-0.0029101883582770822,-0.0016974515676498412
1733700018944878000,3.389878173828125,0.009020341801643371,0.004632482106238603,-0.0033288521617650985
1733700018954833200,3.399833251953125,0.010493336963653564,-0.00631532062664628,-0.006355506506562233
1733700018964787000,3.409786865234375,0.003181552645564079,-0.0033799978271126744,-0.025672201395034788
1733700018974742000,3.419741943359375,-0.007729717469215393,-0.006945727484673261,-0.005940495964884758
1733700018984695800,3.42969580078125,0.011527940708398817,0.0008022562935948371,-0.013524667483568191
1733700018994651100,3.439651123046875,0.01431552560031414,0.0005192015685141087,-0.023992285484075546
1733700019004605000,3.44960498046875,0.01922375590801239,-0.00461713840663433,-0.02935994999706745
1733700019014560000,3.45956005859375,0.008607084825634955,0.007566197470575571,-0.01641863535940647
1733700019024514000,3.46951416015625,0.0066273091852664945,-0.00415098219960928,-0.009330722925066948
1733700019034467800,3.4794677734375,0.012807459124922751,0.0068108490586280815,-0.007044073292613029
1733700019044423200,3.489423095703125,0.02588262927532196,-0.007584756040573119,-0.008422375908493995
1733700019054377000,3.499376953125,0.012646715605258941,-0.007027122157812118,0.00713467418551445
1733700019064332000,3.50933203125,0.0024871406406164168,-0.010419979466497897,-0.0017506430596113203
1733700019074286000,3.5192861328125,0.008231237250566481,0.0037855098880827426,-0.021376550027728078
1733700019084241000,3.529240966796875,0.03360416343808174,0.006918254955857992,-0.018548633125424385
1733700019094195000,3.53919482421875,0.025156068566441533,-0.0021462182484567162,-0.017840192595124243
1733700019104150000,3.54914990234375,0.014600772282481193,0.0032639702320098876,-0.022651976791024205
1733700019114104000,3.55910400390625,0.010267126992344855,0.0003635726153850555,-0.031000118419528006
1733700019124059000,3.569058837890625,0.0016103578060865402,0.0019582944609224796,-0.018205518776178358
1733700019134013000,3.579012939453125,-0.009345335972309111,-0.0021928338691592215,0.0039139585733413695
1733700019143967700,3.5889677734375,-0.011226911935210228,-0.005773907226324081,-0.011102408772706985
1733700019153922000,3.598922119140625,-0.00928746830523014,-0.0055681555211544035,0.013127192598581314
1733700019163877000,3.608877197265625,0.005432546442747116,0.00041457215026021,0.008788286611437797
1733700019173831000,3.618830810546875,0.005648235020041466,-0.0033510639935731886,0.00639876112639904
1733700019183786000,3.628785888671875,0.016762334230542183,-0.0009033785805106163,-0.010210428369045257
1733700019193739800,3.63873974609375,0.0132236387103796,0.009891425547748803,-0.025450083076953886
1733700019203693800,3.64869384765625,0.01419043791592121,0.0018644786976277827,-0.009258826732635497
1733700019213649200,3.658649169921875,-0.008777765217423439,0.00018938509225845335,-0.03151917385756969
1733700019223603000,3.66860302734375,-0.0025350714355707165,0.005277648141980171,-0.023826281267404555
1733700019233558000,3.67855810546875,-0.005531330642104149,0.010043108978122472,0.0014969605594873428
1733700019243511800,3.68851171875,0.018507716593146324,-0.004812807109206915,-0.0053045361489057535
1733700019253467100,3.698467041015625,0.021465981876850126,0.009003098405897617,-0.028390812703967094
1733700019263421200,3.708421142578125,0.01745557719171047,0.010667232225835323,-0.024735212805867195
1733700019273376000,3.7183759765625,0.02662029590010643,0.015054507399350403,-0.034790742874145505
1733700019283330000,3.728330078125,0.051259647116065024,0.0048700902543962,-0.03775719146430492
1733700019293284900,3.738284912109375,0.03384206384718418,0.002556406484544277,-0.018050620475411415
1733700019303239000,3.748239013671875,0.013710545444488525,0.0008845277495682239,0.00196633163690567
1733700019313194000,3.758194091796875,0.004221417087316512,-0.010193184973299503,0.0061252048820257185
1733700019323148000,3.76814794921875,-0.023456278911232947,-0.004925912094861268,0.008533435067534446
1733700019333102800,3.778102783203125,-0.024835750570893288,-0.014916852494329213,0.005941080486774444
1733700019343057000,3.788056884765625,-0.019672084197402,-0.012600246115028857,0.02030862853527069
1733700019353011000,3.798010986328125,-0.018563830694556235,-0.007936784348636865,-0.002508183428645134
1733700019362966000,3.807966064453125,0.004047814086079597,0.010987988612800837,-0.013902268624305724
1733700019372920000,3.817920166015625,0.026426234632730482,0.006609481267631053,-0.006056815820932388
1733700019382875000,3.827875,0.02879179472029209,0.013821750734001397,-0.008922142124176025
1733700019392829000,3.837828857421875,0.016574118182063103,0.012106763509660959,-0.01313479138314724
1733700019402783700,3.84778369140625,0.03688274671733379,0.011944704815745354,-0.020711364117264746
1733700019412738000,3.857738037109375,0.029376316609978675,0.00335296368971467,-0.023769582644104958
1733700019422693000,3.867693115234375,0.027978724771738052,0.01392681854367256,-0.02328676756322384
1733700019432647000,3.87764697265625,0.03240647808611393,0.007857873893529176,-0.01660392879843712
1733700019442602000,3.88760205078125,0.01809212152957916,0.001624094070494175,-0.003471475502848625
1733700019452555800,3.8975556640625,0.019363456639647482,0.005291384406387806,-0.007320552146434784
1733700019462511000,3.907510986328125,0.010746434941887855,-0.002871609913557768,-0.006205284380912781
1733700019472465200,3.917465087890625,0.0022620997130870816,-0.014628244811296463,0.004721767824888229
1733700019482420000,3.927419921875,-0.014534136787056923,-0.0028837387427687643,-0.011716156756877899
1733700019492374000,3.9373740234375,-0.015815408769249917,0.0006415127739310264,-0.019741057780385016
1733700019502328800,3.947328857421875,-0.021632570615410802,-0.004398527219891548,0.01757598870098591
1733700019512283100,3.957283203125,-0.00580839401781559,-0.004893617260456085,0.016133388677239416
1733700019522237200,3.9672373046875,0.0022159224838018414,0.010466741217672824,-0.011712065103650093
1733700019532192000,3.97719189453125,0.01015022261440754,0.013346534437686203,-0.02405132219493389
1733700019542146000,3.98714599609375,0.019159458500146866,0.005573562348634004,-0.004474515065550804
1733700019552100900,3.997100830078125,0.013935586372017859,0.0013015841178596018,-0.009976035091280937
1733700019562055000,4.007054931640625,0.016747721183300018,-0.0008634849615395068,-0.017192542341351508
1733700019572010000,4.017010009765625,0.010716624325513839,0.005388268909603357,0.004848609074950218
1733700019581964000,4.026964111328125,0.0020674539238214494,-0.010142039307951926,-0.008939093258976936
1733700019591918800,4.0369189453125,0.024642273825407027,-0.0008535480894148349,0.010620762735605239
1733700019601873000,4.046872802734375,-0.0006844751328229904,0.0028549510397017,-0.009782558345794678
1733700019611828000,4.056827880859375,0.010724223110079764,0.008590864343196154,-0.0241162041246891
1733700019621782000,4.066781982421875,0.027905659535527226,-0.0041582887232303615,-0.017976970717310903
1733700019631737000,4.076737060546875,0.018175708159804342,-0.002685731952637434,-0.01892915687561035
1733700019641691000,4.08669091796875,0.003207271608710289,-0.0004528583340346813,-0.017097849795222282
1733700019651646000,4.09664599609375,0.011276011773943901,0.00037117139995098113,-0.01653320164978504
1733700019661600000,4.10660009765625,0.014567454534769058,0.0016235095486044882,0.007319383102655411
1733700019671555000,4.11655517578125,0.01807867752611637,0.013082330543547868,0.00201426243185997
1733700019681509000,4.126509033203125,0.017371406039595604,0.023737872331589457,-0.006288871011137962
1733700019691463000,4.136462890625,0.0106704470962286,0.007764788782596587,0.0032283143967390057
1733700019701418000,4.14641796875,-0.0019563947647809983,-0.003227291483432054,0.006625555619597435
1733700019711371800,4.156371826171875,0.003686579558253288,0.003205225782096386,-0.007639701098203658
1733700019721327000,4.1663271484375,0.0024579145461320877,0.008819266271591186,0.0018576105654239655
1733700019731281200,4.17628125,-0.005200491252541542,-0.004743102873861789,0.013085691544413566
1733700019741236000,4.186236083984375,0.01229775603711605,0.0006270458571612835,-0.00865092396736145
1733700019751190000,4.19618994140625,0.010271803167462349,0.005629676450043916,-0.017149872243404387
1733700019761144800,4.206144775390625,0.019305004450678825,0.005595774180442095,-0.008548632636666298
1733700019771099100,4.21609912109375,0.020264789393544196,-0.005200929643958806,0.01102817449271679
1733700019781054000,4.226053955078125,0.03306932590901852,-0.00437383117005229,-0.01106207676231861
1733700019791008000,4.236008056640625,0.02990764700770378,0.010407412245869637,-0.020308044013381002
1733700019800962800,4.245962890625,0.03126256874799728,0.009414455685764551,-0.011709727016091347
1733700019810916900,4.255916748046875,0.01939969699680805,0.018718436734378337,-0.018888824865221976
1733700019820872200,4.2658720703125,0.007608721438050269,0.015350421606004238,-0.012249240720272064
1733700019830826000,4.275825927734375,-0.003926818054914474,0.011539046624302864,-0.007176759761571884
1733700019840781000,4.285781005859375,0.002304185289144516,0.009535890108346939,-0.01029226143360138
1733700019850734800,4.29573486328125,0.013822189125418662,0.010145400308817625,-0.0027729718446731564
1733700019860689200,4.305689208984375,0.001388239488005638,0.0046682840719819065,-0.017975801673531532
1733700019870644000,4.31564404296875,0.022361469411849973,0.011257891595363617,-0.01172960076034069
1733700019880598000,4.325597900390625,0.011834814700484276,0.0005509118810296058,-0.015579261925816535
1733700019890553000,4.335552978515625,0.003354571124911308,-0.003516775949299335,-0.0048036008894443505
1733700019900507100,4.345507080078125,0.005972060146927833,-0.005438537792116403,-0.001637245813012123
1733700019910462200,4.355462158203125,-0.0053548050314188,-0.012939707202464342,0.010012859970331191
1733700019920416000,4.365416015625,0.014406711015105246,-0.008802461267262697,0.015026888740062713
1733700019930371000,4.37537109375,0.014121464332938193,0.007085574346780777,0.002347439908981323
1733700019940325000,4.3853251953125,0.01086041671037674,0.004556640391051769,-0.0054822308033704754
1733700019950280200,4.3952802734375,0.01810615005493164,0.00620353081524372,-0.00808627582192421
1733700019960234200,4.405234130859375,0.010088847815990447,0.009976181221753358,-0.021882161462306975
1733700019970189000,4.41518896484375,0.009828735575079918,0.007840776628255844,-0.017599369576573373
1733700019980143000,4.42514306640625,0.024112112471461295,0.005543313340842723,-0.0005669862329959869
1733700019990098000,4.435097900390625,0.024995909568667412,-0.00005611410140991211,0.004592003965377807
1733700020000052200,4.44505224609375,0.022556699723005294,0.016531448084115982,-0.012270868030190467
1733700020010007000,4.455007080078125,0.03883563435077667,0.0001293254680931568,0.002354454171657562
1733700020019961000,4.464961181640625,0.03961480202972889,-0.0010733283199369907,-0.018193828338384628
1733700020029915100,4.4749150390625,0.03342413069605827,0.008306786704808474,-0.01140636015534401
1733700020039870000,4.484869873046875,0.009072948771715163,0.007741992428898811,-0.018444003707170486
1733700020049824000,4.494823974609375,-0.009918751946091651,0.003383066567033529,-0.007874094375967979
1733700020059779000,4.504779052734375,-0.006788052704930305,0.0014437690675258635,0.004083469921350479
1733700020069733000,4.514733154296875,-0.01831131723821163,-0.0047777357958257195,0.020811317360401153
1733700020079688200,4.524688232421875,-0.007968786922097206,-0.018851999986171722,0.028754969841241835
1733700020089642000,4.53464208984375,0.006498129847645759,-0.020350860241800547,0.028351065215468405
1733700020099597300,4.544597412109375,0.0010854571491479873,-0.015101123020052908,-0.00329261180460453
1733700020109551000,4.554551025390625,0.034950317350029944,-0.010540244845300912,-0.008562661162018776
1733700020119506200,4.564506103515625,0.025337854874134064,0.008079846081137657,-0.011340309181809425
1733700020129460200,4.574460205078125,0.02034954506754875,0.02249693235978484,-0.02296644956767559
1733700020139415000,4.5844150390625,0.028398411488533018,0.022432196560502052,-0.017826164069771767
1733700020149369000,4.594369140625,0.019155951368808745,0.014328238951414822,-0.008131284007430076
1733700020159324200,4.60432421875,0.01123860237300396,0.023155104007571935,-0.021606851652264593
1733700020169278200,4.6142783203125,0.03646539808809757,0.01574029770642519,-0.013127777120471
1733700020179232000,4.62423193359375,0.020241408517956732,0.020848288369923827,-0.003360416343808174
1733700020189187000,4.63418701171875,0.024943302598595618,-0.0034201837070286273,-0.014517185652256012
1733700020199141000,4.64414111328125,0.008348726150393485,-0.014269202240556477,0.008313070315122604
1733700020209096200,4.65409619140625,0.00528466240465641,-0.014358780220150946,-0.006965747359395026
1733700020219050200,4.66405029296875,-0.00882218888103962,-0.016977584416419268,0.011098317119479178
1733700020229005000,4.674005126953125,-0.02164309200942516,-0.018783903186023233,-0.0015028057783842085
1733700020238959000,4.683958984375,-0.022773557344079015,-0.004999854113906622,-0.022648469659686088
1733700020248914000,4.693913818359375,-0.00042027123868465424,-0.000841126999258995,-0.0010229133069515229
1733700020258868200,4.7038681640625,-0.001021159741282463,0.0021617080785334107,-0.01139759232699871
1733700020268823000,4.713822998046875,0.007605798828601837,0.003418284010887146,0.011383563801646231
1733700020278777000,4.723777099609375,0.012590601503849028,0.019312895496189593,-0.009918167424201966
1733700020288732200,4.733732177734375,0.014784896677732466,0.0030747312702238557,-0.027086744368076322
1733700020298686000,4.74368603515625,0.02718669761121273,0.01186637888252735,-0.015904256096482276
1733700020308641300,4.753641357421875,0.02440729602575302,0.015469371810555457,-0.01100070196390152
1733700020318595000,4.763594970703125,0.015242577317357063,-0.002213730526715517,-0.016866379126906392
1733700020328550100,4.773550048828125,0.012940145593881605,0.006707096423208713,-0.013275661158561707
1733700020338504200,4.783504150390625,0.001163198560476303,-0.006076251173764467,0.02277764899730682
1733700020348459000,4.793458984375,-0.012070961543917656,-0.005396452216058969,0.002715104177594185
1733700020358413300,4.803413330078125,-0.014413725277781486,0.008014671890437603,0.0003425298273563385
1733700020368367000,4.8133671875,0.003713467565178871,0.01851794572621584,-0.02170972750484943
1733700020378322200,4.823322265625,0.039321956562995905,-0.0013062602929770945,-0.032623920229077334
1733700020388276200,4.833276123046875,0.02756780588328838,0.0028209026396274566,-0.02521802788674831
1733700020398231000,4.84323095703125,0.03524491638243198,0.005299421582370996,-0.012106032857298851
1733700020408185000,4.85318505859375,0.021387071421742437,-0.0006023498073220253,-0.0016518588602542877
1733700020418140200,4.86314013671875,0.02318915240764618,-0.0004889525607228278,0.0006716156512498855
1733700020428094200,4.87309423828125,-0.000346036958694458,0.008312193532288074,-0.019113281270861624
1733700020438049000,4.883049072265625,0.011268997511267661,-0.004402618873119354,-0.005364741903543472
1733700020448003000,4.893003173828125,0.0028366847306489943,-0.0006812602624297142,0
1733700020457958100,4.902958251953125,-0.008232990816235542,-0.003707768476754427,-0.0008826280534267425
1733700020467912200,4.912912109375,-0.002737316009402275,0.0025450083076953888,-0.018343465942144394
1733700020477867000,4.922866943359375,0.008620528829097748,-0.006486293279379606,-0.003824526724219322
1733700020487821000,4.932821044921875,0.0059212067425251005,-0.007859627459198236,-0.008016133195161819
1733700020497776000,4.942776123046875,0.025360651227831838,-0.004324585200846195,-0.0011503390789031982
1733700020507730000,4.95272998046875,0.018247604352235793,0.0011215513758361338,-0.0010164835661649703
1733700020517684200,4.962684326171875,0.0292705181479454,0.011881284190714358,-0.008881225591897964
1733700020527639000,4.97263916015625,0.04030219977200031,0.014659662862867117,-0.012129413732886314
1733700020537593000,4.982593017578125,0.027117724028229713,0.009765314950048922,-0.012532733836770057
1733700020547548200,4.992548095703125,0.01946340988278389,0.0018763152658939361,-0.007165653845667839
1733700020557502000,5.002501953125,0.02374503272473812,-0.0030849604032933712,-0.0006838906109333038
1733700020567457300,5.012457275390625,-0.0025765724897384643,-0.0031793606884777544,-0.01209726502895355
1733700020577411000,5.0224111328125,0.005296352842450142,-0.0026591362066566942,-0.009440613040328026
1733700020587366100,5.0323662109375,-0.00635083033144474,-0.007184212415665388,-0.005868015250563621
1733700020597320200,5.0423203125,0.0181862295538187,-0.013018471527099609,-0.01093406646847725
1733700020607275000,5.05227490234375,0.01662964776158333,-0.017951982406526804,-0.024512509965896604
1733700020617229300,5.062229248046875,0.04155599922537803,-0.008798223483562469,-0.010980243697762489
1733700020627184000,5.07218408203125,0.07186287468373775,-0.011120821212232112,0.015372925698757171
1733700020637138200,5.08213818359375,0.10972118843495846,-0.03608049042373895,0.037085575813055036
1733700020647093000,5.092093017578125,0.14591829097568987,-0.04042173449844122,0.044888358518481254
1733700020657047000,5.102047119140625,0.15620938336551188,-0.01783463963717222,0.06383271296322346
1733700020667002000,5.112002197265625,0.14847674328684807,-0.007762158434092998,0.06344634399414062
1733700020676956200,5.1219560546875,0.09382686921060085,-0.0005481354020535946,0.07718903814256191
1733700020686911200,5.1319111328125,0.03803542388379574,-0.009215718243271111,0.11214520071148872
1733700020696865000,5.141864990234375,-0.06579729103446007,-0.012313245867192745,0.13130933538675307
1733700020706819000,5.151819091796875,-0.08991992489993572,-0.016923223880678413,0.11126023457050323
1733700020716774100,5.161774169921875,-0.08308511044383049,-0.008224661379307508,0.05284194787144661
1733700020726728200,5.171728271484375,-0.026886253359913823,0.010521978536248207,0.003568506136536598
1733700020736683000,5.18168310546875,0.047694648110866544,0.022039251720160243,-0.029437106886506078
1733700020746637000,5.191636962890625,0.0844219120055437,0.0652332274109125,-0.10641747071444987
1733700020756592000,5.201592041015625,0.07826222033202648,0.08100172829851508,-0.11989303835928439
1733700020766546000,5.2115458984375,0.07361877844035625,0.07090221295803785,-0.08170037808716296
1733700020776501200,5.221501220703125,-0.0038251112461090086,0.05651946734040975,-0.08006488583981991
1733700020786455000,5.231455078125,-0.05581891785562038,0.06349339800626039,-0.09885434198379515
1733700020796410000,5.24141015625,-0.07680325369536876,0.05843596848621964,-0.0954278746664524
1733700020806364200,5.2513642578125,-0.08957797959446906,0.04566767232790589,-0.10611527289748192
1733700020816319200,5.2613193359375,-0.12098375620543957,0.02678732303008437,-0.09308686449825763
1733700020826273300,5.271273193359375,-0.1088560960382223,0.005946779575198889,-0.0542974073767662
1733700020836228000,5.28122802734375,-0.08400690146386623,-0.00021466566398739814,-0.004195698124170303
1733700020846182100,5.29118212890625,-0.09677753570973872,-0.01074775011613965,-0.01996492966413498
1733700020856137000,5.301136962890625,-0.08777122243344783,-0.014712854354828594,-0.022726795592904088
1733700020866091000,5.311091064453125,-0.08638006033599376,-0.004121609974652529,0.013729834666848182
1733700020876045000,5.321045166015625,-0.10499532895684241,-0.00664732905998826,0.03675648998916149
1733700020886000000,5.331000244140625,-0.11203355703055858,-0.005003799636662006,0.006554243949055671
1733700020895954200,5.3409541015625,-0.14065467135906218,0.013011895655840634,-0.008992869272828101
1733700020905909000,5.350908935546875,-0.14960428601205347,0.01344458798468113,-0.007992752319574355
1733700020915863000,5.360863037109375,-0.1391600488871336,0.009369301369786262,0.005519640204310417
1733700020925817900,5.37081787109375,-0.1418739840209484,0.003345949427038431,0.013266893330216406
1733700020935772200,5.380772216796875,-0.11595160725712776,0.02209127416834235,0.009601941081881523
1733700020945727200,5.390727294921875,-0.10815350072681904,-0.0025512919180095193,-0.006416881304979324
1733700020955681000,5.400680908203125,-0.10376491037905215,0.05313976177424192,-0.08784837932288646
1733700020965636000,5.410635986328125,0.059212067425251,0.019904285518079996,-0.15587152971327303
1733700020975590000,5.42058984375,-0.02847498385608196,0.13738573269098997,-0.07044131744801997
1733700020985545200,5.430545166015625,-0.05946107375025749,0.14399872108995915,-0.10628712233304977
1733700020995499000,5.4404990234375,-0.06245674843490123,0.1539512291751802,-0.15123042590916155
1733700021005454000,5.4504541015625,-0.14045242678523062,0.17316183334067464,-0.20324644435048103
1733700021015408000,5.460408203125,-0.212353295391798,0.1671026794321835,-0.22714812894165515
1733700021025362000,5.47036181640625,-0.2610550747185945,0.18243045081496237,-0.24140461783111095
1733700021035317200,5.480317138671875,-0.32380642218589784,0.22790625383257865,-0.2633317874789238
1733700021045271000,5.49027099609375,-0.3036503538638353,0.2699536898367107,-0.3196311823278665
1733700021055226000,5.50022607421875,-0.32168285416066644,0.2905151240892708,-0.33733751941025253
1733700021065180200,5.51018017578125,-0.4004173681795597,0.2674132115736604,-0.3159825966924429
1733700021075135000,5.520135009765625,-0.2514490419834852,0.20828385399580002,-0.28061317714750766
1733700021085089000,5.530089111328125,0.0050993689656257625,0.07784019552767277,-0.17194821976721286
1733700021095044000,5.540044189453125,0.10091302807927131,-0.07571355876252055,-0.08154547978639602
1733700021104998100,5.549998046875,0.1703735177963972,-0.18339447354152796,0.013781272593140602
1733700021114953000,5.559952880859375,0.27047113783955573,-0.1847805210724473,0.12207272048592567
1733700021124907000,5.569906982421875,0.3238677969843149,-0.16819734280109405,0.18009470134377478
1733700021134862000,5.579862060546875,0.4181856645822525,-0.163324183806777,0.17486264590919018
1733700021144816000,5.589816162109375,0.47848318915665145,-0.11495295160859823,0.10351239692270756
1733700021154771200,5.599771240234375,0.3053156567275524,0.039076749630272384,-0.01032967083454132
1733700021164725000,5.60972509765625,0.13764146101772784,0.17184549004510044,-0.09568798690736294
1733700021174680000,5.61968017578125,0.16629355500638485,0.2148598713852465,-0.16120295386910438
1733700021184633900,5.6296337890625,0.23584932179152965,0.19293547821640966,-0.21919570863246918
1733700021194589200,5.639589111328125,0.12722820355296136,0.17936653319969773,-0.24032325233519075
1733700021204543200,5.649543212890625,-0.044834582504630086,0.21686901925057173,-0.25382629250884053
1733700021214497000,5.6594970703125,0.026183073526620863,0.23936785130649804,-0.21872575303316116
1733700021224452000,5.6694521484375,0.06138239720165729,0.2220886535950005,-0.12616846536695955
1733700021234406000,5.679406005859375,0.047208910420536994,0.15420944171994924,0.08005319540202617
1733700021244361200,5.689361328125,-0.09055003949701786,0.0989066566929221,0.3449205218851566
1733700021254315300,5.699315185546875,-0.2915367222219705,0.020176964979618787,0.5496574970543384
1733700021264270000,5.70927001953125,-0.5104448460847139,-0.02185410441160202,0.6635632776975632
1733700021274224000,5.71922412109375,-0.6998691013097763,0.03274491626024246,0.7583142760157585
1733700021284179000,5.729178955078125,-0.42936698381006716,-0.1525923619121313,0.6686398503094911
1733700021294133200,5.73913330078125,0.20185060607790944,-0.7344609606109559,0.6348422101259231
1733700021304088000,5.749088134765625,-0.17807985439002513,-0.7729428130879997,0.5622375771641731
1733700021314042000,5.7590419921875,-0.11368892302215099,-0.7183353168487548,0.5055944834440946
1733700021323997000,5.768996826171875,0.23420915336906908,-0.7148797695674002,0.5221908134579658
1733700021333951000,5.778950927734375,0.4110036441236734,-0.5395242255747318,0.3561187922477722
1733700021343906000,5.788906005859375,0.45959553333520886,-0.2959497163586318,-0.0034749826341867445
1733700021353860000,5.798860107421875,0.3274064925044775,0.038794571688026185,-0.35638591875135894
1733700021363815200,5.808815185546875,0.4526321240633726,0.22948986976221203,-0.6230483119577169
1733700021373769000,5.81876904296875,0.6490116052538156,0.27922727574706074,-0.810984958973527
1733700021383723000,5.828722900390625,0.7213859365910291,0.2740685778096318,-0.8219219480514526
1733700021393677800,5.838677734375,0.6728121675580739,0.2482593060314655,-0.6899480112761258
1733700021403632000,5.848632080078125,0.41864860591888425,0.26671295434981585,-0.5020195475667715
1733700021413587200,5.858587158203125,0.12390285852253437,0.29977365856096144,-0.4079582850784063
1733700021423541000,5.868541015625,-0.07706511950194835,0.3190370158270001,-0.45958442741930483
1733700021433496000,5.87849609375,-0.19468086057901382,0.37579131483659145,-0.5506967769742012
1733700021443449900,5.888449951171875,-0.24271686947345733,0.40683001170083877,-0.7016027932345866
1733700021453405200,5.8984052734375,-0.24350305141508577,0.42852775650694963,-0.8377993161410093
1733700021463359200,5.908359130859375,-0.19277648826241492,0.5191426779337227,-0.93610245398283
1733700021473314000,5.91831396484375,-0.10603343983292579,0.6740490158766508,-1.0809896483451127
1733700021483268000,5.92826806640625,0.2673345933794975,0.623567513526231,-1.2121388247340916
1733700021493223000,5.938222900390625,0.2954530188828707,0.6605982904121279,-1.0684574990302325
1733700021503177200,5.94817724609375,-0.0036959319084882733,0.6593767857931554,-0.659050184187293
1733700021513132000,5.958132080078125,-0.347495340809226,0.5582425161786377,-0.2171335154056549
1733700021523086000,5.968086181640625,-0.5576993492126464,0.3425584689289331,0.21925708343088626
1733700021533041000,5.978041015625,-0.5836141271919012,0.11812836677432059,0.5835393083900213
1733700021542995000,5.987994873046875,-0.4433849877685308,0.04112856759354472,0.7967635413974523
1733700021552949000,5.997948974609375,-0.37409693200886246,0.23625994841903447,0.9456950427144766
1733700021562904000,6.007904052734375,0.07108779865801335,0.01765606819987297,0.8875912287920713
1733700021572858000,6.017858154296875,0.35706630223095415,-0.31673633766919373,0.8376783201098441
1733700021582813000,6.02781298828125,0.4352297383636236,-0.519944057444483,0.9521399810701608
1733700021592767000,6.03776708984375,0.27396950134932996,-0.7107404778055846,1.202091477972269
1733700021602722000,6.04772216796875,0.19952713156640528,-0.7483063844814896,1.4794552979350089
1733700021612676000,6.057676025390625,0.24911563059985636,-0.7934374657146632,1.5412702413350343
1733700021622631200,6.067631103515625,0.371138082203269,-0.8745940923139452,1.4731184961289165
1733700021632585000,6.0775849609375,0.34547289507091045,-0.8731272346317768,1.328839204531908
1733700021642540000,6.0875400390625,0.016561843222379684,-0.6356599562495947,1.1734124959766865
1733700021652494000,6.097494140625,-0.21574527591764925,-0.3430423069231212,0.8057271845757961
1733700021662449200,6.10744921875,0.047339843323826784,-0.009331891968846321,0.250434896504879
1733700021672403200,6.1174033203125,0.3067325377881527,-0.018666998808085918,-0.31073359012305735
1733700021682358000,6.12735791015625,0.38459611419141293,-0.23641645415499804,-0.7250503043174743
1733700021692312000,6.13731201171875,0.2780693378835916,-0.3167049196176231,-0.9676274730592965
1733700021702267100,6.14726708984375,0.058768999832868575,-0.2952029896445572,-1.0182698650598525
1733700021712221200,6.15722119140625,-0.04276829762458801,-0.09070099227502941,-0.8750883055716753
1733700021722175200,6.16717529296875,0.09348726199269294,0.06239625041931867,-0.6724135236293077
1733700021732130000,6.177130126953125,0.33282734850943085,0.06984510512053967,-0.48442076251208777
1733700021742084000,6.187083984375,0.37631986875534057,0.06844765941277146,-0.3247258751183748
1733700021752039000,6.197038818359375,0.20317045650482177,0.10762407002523541,-0.14601649065315722
1733700021761993200,6.2069931640625,0.05297521886229515,0.09643924366608261,0.0495265397131443
1733700021771948000,6.216947998046875,-0.10387713858187198,0.09364420612007379,0.23489538206756114
1733700021781902000,6.226902099609375,-0.2604109315961599,0.09101721861734986,0.37778409608900543
1733700021791857000,6.23685693359375,-0.31553543744683266,0.031163346157222986,0.41727965565323827
1733700021801811000,6.24681103515625,-0.3005477116733789,-0.029956892976909875,0.3291086202472448
1733700021811766300,6.256766357421875,-0.1858493193477392,-0.04822875498756766,0.22740473405122755
1733700021821720000,6.266719970703125,-0.03512099774181843,-0.028628859243541954,0.15531681843996048
1733700021831675100,6.276675048828125,0.016671148815751075,-0.0027937223717570303,0.09818740250766277
1733700021841629000,6.28662890625,0.01776245118379593,-0.0015494213990867138,0.08618892167806624
1733700021851584000,6.296583984375,0.04865326400995254,-0.06871712400391697,0.1392068106383085
1733700021861537500,6.30653759765625,0.0008820435315370559,-0.1196304419003427,0.19686346531510351
1733700021871491300,6.3164912109375,-0.07937105835676193,-0.0950822760991752,0.2628723532736301
1733700021881446700,6.32644677734375,-0.07127835279405116,-0.09899375045448541,0.2705851196080446
1733700021891400400,6.336400390625,-0.08654431098699569,-0.08614362123161554,0.19104221181571482
1733700021901355500,6.34635546875,-0.10393208363950251,-0.04871610011309385,0.09758359139561652
1733700021911309600,6.3563095703125,-0.052041737404465674,-0.0052447687856853,0.014783143112063407
1733700021921264400,6.366264404296875,0.008030161720514297,-0.0009879881240427494,-0.07821545858085155
1733700021931218400,6.376218505859375,0.006993219888210296,0.021114976482093335,-0.11816928330659866
1733700021941173500,6.386173583984375,-0.029158874467015265,0.015800941852480172,-0.12190788531303405
1733700021951127600,6.39612744140625,0.00509644635617733,0.012533172228187322,-0.09716098206937313
1733700021961082400,6.406082275390625,0.042342765688896174,-0.009763707514852284,-0.05959960543811321
1733700021971036400,6.416036376953125,0.10921148534715175,-0.01891848935112357,-0.03520575341582298
1733700021980991500,6.425991455078125,0.19606091676056384,-0.03608765081688761,-0.08544950148761273
1733700021990945500,6.435945556640625,0.20907354306876658,-0.036977147002518175,-0.1203548106521368
1733700022000900600,6.445900634765625,0.09801906020343303,0.03567892388552427,-0.19070669625103473
1733700022010854400,6.4558544921875,-0.0020586860954761505,0.12006181905493139,-0.2675181332528591
1733700022020809500,6.4658095703125,-0.023696517407894132,0.12204714765325188,-0.30621991209089755
1733700022030763300,6.47576318359375,0.008362170153856277,0.12328721084222197,-0.28493454747796054
1733700022040718600,6.485718505859375,0.009824059399962424,0.10272899146005511,-0.19588263758420943
1733700022050672600,6.495672607421875,-0.047940731826424596,0.06151099201738834,-0.1317436351507902
1733700022060626400,6.50562646484375,-0.08064122442305087,0.03577800034582615,-0.09354746774733066
1733700022070581500,6.51558154296875,-0.05899696336984634,0.00387318817153573,-0.0555132129073143
1733700022080535300,6.525535400390625,-0.019154197803139685,-0.02278364034667611,-0.04154138617813587
1733700022090490600,6.53549072265625,0.010711948150396347,-0.033645226100832225,-0.05202595531344414
1733700022100444700,6.545444580078125,0.033029578420519824,-0.03275938317701221,-0.06171849728822708
1733700022110399500,6.5553994140625,0.06834989812672138,-0.026588147196173667,-0.06612170068323611
1733700022120353500,6.565353515625,0.06461772586107253,-0.025884382840991017,-0.08521686177551746
1733700022130308400,6.575308349609375,0.08573942434489727,-0.018173370072245596,-0.059875499770045276
1733700022140262700,6.5852626953125,0.07769698766469955,-0.009799801741540432,-0.029909985095262527
1733700022150217500,6.595217529296875,0.051063832283020014,-0.007968348530679941,-0.04873042089939117
1733700022160171500,6.605171630859375,0.06407236693799495,-0.009947101257741451,-0.08737316302657126
1733700022170126300,6.615126220703125,0.06678221041858196,-0.0004931903444230556,-0.04934709149301052
1733700022180080400,6.625080322265625,0.09478548510968685,0.005362403815984726,-0.04147241259515285
1733700022190035500,6.635035400390625,0.14669921222031115,-0.006764964090287685,-0.02031856540739536
1733700022199989500,6.644989501953125,0.18172025671899317,0.00336450799703598,-0.0015139116942882538
1733700022209943600,6.654943603515625,0.19938450822532175,0.017243541876226662,0.0018827450066804885
1733700022219898400,6.6648984375,0.19759411767721174,0.006048340253531933,-0.00568681346476078
1733700022229852400,6.674852294921875,0.19845979459583757,0.006123743577301502,0.002893383353948593
1733700022239807500,6.684807373046875,0.12516191867291926,0.04156871257647872,0.003320668855309486
1733700022249761500,6.694761474609375,0.026671149304509163,0.031015315988659857,-0.025302783560752867
1733700022259716600,6.704716552734375,-0.008141805401444435,0.03410071478337049,-0.03924129254221916
1733700022269670400,6.71467041015625,-0.03343114495873451,0.04802344167381525,-0.03787468036413193
1733700022279625500,6.72462548828125,-0.06828676976263523,0.050842444617301225,-0.02962181580364704
1733700022289579300,6.734579345703125,-0.0878115544438362,0.06467413222342729,0.002637362766265869
1733700022299534600,6.74453466796875,-0.05838379990756511,0.05941854978278279,0.002277297282218933
1733700022309488600,6.754488525390625,-0.054931029105186456,0.040189387047290796,0.0065665189087390895
1733700022319443500,6.764443359375,-0.028504794472455977,0.03081920889467001,-0.0015326163947582245
1733700022329397500,6.7743974609375,-0.008956628915667533,0.02263692535236478,0.015831190860271453
1733700022339352300,6.784352294921875,0.030880875954031942,0.009150982443988322,0.004015080860257148
1733700022349306600,6.794306640625,0.047051089510321616,0.0031929508224129675,-0.002270283019542694
1733700022359261400,6.804261474609375,0.06676350571811199,-0.004658931721746922,0.005062544086575508
1733700022369215500,6.814215576171875,0.06289923150539398,-0.031185704119503495,0.016641922721266744
1733700022379170300,6.82417041015625,0.05557049605250358,-0.02518587918281555,0.016221651482582092
1733700022389124400,6.834124267578125,0.04913491004705429,-0.017245879963785408,0.03453121515512466
1733700022399078400,6.844078369140625,0.057334583115577695,-0.03350947089195251,0.011648936739563942
1733700022409033500,6.854033447265625,0.04967851540446281,-0.03476809265092015,0.007386603119969367
1733700022418987500,6.863987548828125,0.019462825360894203,-0.037076369593292476,0.0060737669557332985
1733700022428942300,6.8739423828125,-0.01842646805047989,-0.02587926827445626,0.0032867665857076642
1733700022438896400,6.883896484375,-0.03353986603021621,-0.025420856982469556,-0.00426642527282238
1733700022448851700,6.893851806640625,-0.05186053561866283,-0.0068089493624866005,-0.026225159102678298
1733700022458805500,6.903805419921875,-0.06018412732779979,-0.00870689193829894,-0.011722586497664451
1733700022468760600,6.913760498046875,-0.05465338120758533,0.015951748500019312,-0.009870236629247665
1733700022478714400,6.92371435546875,-0.03798749308884144,0.005087970788776874,-0.008233575338125229
1733700022488669400,6.93366943359375,-0.0001397007316350937,0.018263824834674595,-0.013614683854579925
1733700022498623500,6.94362353515625,0.029018589213490483,0.026733693146705626,-0.0073655603319406505
1733700022508578600,6.95357861328125,0.07344751352667808,0.015203414350748061,-0.027943653458356855
1733700022518532600,6.96353271484375,0.05374503419101238,0.034978374400734896,-0.01796761836707592
1733700022528487400,6.9734873046875,0.07102817742526531,0.03153670951426029,-0.03520692245960235
1733700022538441500,6.98344140625,0.06845920372009277,0.02771145213767886,-0.02411269699335098
1733700022548395500,6.9933955078125,0.019780805268883705,0.02678264685496688,-0.01386018304824829
1733700022558350600,7.0033505859375,0.015438976672291755,0.006931552828848361,-0.025157822132110593
1733700022568304600,7.0133046875,-0.009247720816731453,0.004712707735598087,-0.03451367949843406
1733700022578259500,7.023259521484375,-0.009775544083118438,0.0063056760154664515,-0.03977262293994426
1733700022588213500,7.033213623046875,-0.01786123538315296,0.00589008095189929,-0.044350598379969595
1733700022598168300,7.043168212890625,-0.03198562232553959,0.008655161751061678,-0.033438159221410746
1733700022608122600,7.05312255859375,-0.023694763842225075,0.009916559989005327,-0.023802315869927405
1733700022618077400,7.063077392578125,-0.02269230880141258,-0.0036963702999055384,-0.004119125756621361
1733700022628031500,7.073031494140625,-0.006883914294838905,-0.00825417973473668,0.0073906947731971736
1733700022637986300,7.082986328125,0.0037923780202865597,-0.0032474574886262415,0.008456862699985504
1733700022647940400,7.0929404296875,0.052447980117797846,0.022857143974304196,-0.001204115092754364
1733700022657895700,7.102895751953125,0.0325426716864109,0.03298895414918661,-0.03382686627805233
1733700022667849500,7.112849365234375,0.08591945708692074,0.021442016479372977,-0.07867313922047614
1733700022677804500,7.122804443359375,0.1313379769593477,0.004323562287539244,-0.031761750441789624
1733700022687758300,7.13275830078125,0.0015437223106622695,0.035814532963931556,-0.033334114325046536
1733700022697713400,7.14271337890625,0.02945756515264511,0.00034881343767046927,-0.042101358148455614
1733700022707667700,7.152667724609375,-0.014529460611939429,-0.012073445761948824,0.006400514692068099
1733700022717621500,7.16262158203125,-0.057768882879614826,0.030790567322075364,0.019732289952039718
1733700022727576600,7.17257666015625,-0.02866846060156822,-0.019121902968734502,-0.0006248539000749588
1733700022737530400,7.1825302734375,-0.052556701189279555,0.005613309837132692,0.036846506360173226
1733700022747485400,7.1924853515625,-0.045723055776953694,-0.00542494765818119,0.034273441001772875
1733700022757439500,7.202439453125,-0.03489595681428909,0.006566957300156355,0.03111936088502407
1733700022767394600,7.21239453125,-0.024469839867949483,0.00177636202275753,0.02665069103837013
1733700022777348600,7.2223486328125,0.004883680388331413,-0.0006703004769980907,0.009570376899838447
1733700022787303400,7.232303466796875,0.010700842234492301,0.012977116603404283,-0.028690087911486625
1733700022797257500,7.242257568359375,0.03420680550634861,0.004514700945466757,-0.030120412975549696
1733700022807212500,7.252212646484375,0.03644844695329666,-0.01561959393620491,-0.007735562688112259
1733700022817166600,7.26216650390625,0.057874096819758414,-0.022301848179101944,-0.02147065805196762
1733700022827121400,7.272121337890625,0.043720483782887454,-0.019578560695052146,-0.008189151674509048
1733700022837075500,7.282075439453125,-0.0024859715968370438,-0.02110255539193749,-0.006226327168941497
1733700022847030500,7.292030517578125,-0.0033522330373525616,-0.019081863219290972,-0.019143676409125326
1733700022856984300,7.301984375,-0.013698270484805106,-0.021444500697404147,-0.023550386935472487
1733700022866938600,7.311938720703125,-0.016058569875359533,-0.006887275295704603,-0.021402853512763977
1733700022876893400,7.3218935546875,-0.011829554003477096,-0.018647563455253837,-0.029603695625066755
1733700022886847500,7.331847412109375,-0.015250176101922988,-0.0241357856079936,-0.0386339742988348
1733700022896802300,7.34180224609375,-0.012373743882775306,-0.003821165723353624,-0.02154781494140625
1733700022906756400,7.35175634765625,-0.009222001853585243,0.017448855189979077,0.003039513826370239
1733700022916711700,7.361711669921875,-0.03296586553454399,0.02056698721051216,0.004424246183037757
1733700022926665500,7.37166552734375,-0.027597616499662397,0.03386252211332321,0.007466682618856429
1733700022936620500,7.38162060546875,-0.03460544943511486,0.04423939309045672,-0.00857376707792282
1733700022946574300,7.39157421875,-0.02789455361962318,0.03369242624342442,-0.015355390042066572
1733700022956529400,7.401529296875,-0.01913958475589752,0.03435176693499088,-0.007779986351728439
1733700022966483700,7.411483642578125,-0.015310966378450393,0.010062982722371817,-0.025984336084127424
1733700022976438500,7.4214384765625,-0.005220949518680572,0.01099368770122528,-0.010339023184776306
1733700022986392600,7.431392578125,-0.007313537883758545,0.01104439497515559,-0.01409808345735073
1733700022996347400,7.441347412109375,0.008713467809557915,0.00014525368958711622,-0.0072153382062911985
1733700023006301400,7.451301513671875,0.02878478045761585,0.002979308071732521,0.0011538462102413177
1733700023016256500,7.461256591796875,0.054260582497715946,-0.0018055881172418593,0.0051519759356975555
1733700023026210600,7.47121044921875,0.045892567124962806,-0.009509732753783464,0.01026128177344799
1733700023036164600,7.48116455078125,0.03532499588131904,-0.012636194211244582,0.01485445478260517
1733700023046119400,7.491119384765625,0.04279635467529297,-0.014466186117380857,0.012533318358659744
1733700023056073500,7.501073486328125,0.031413959917426106,-0.012686170832812786,-0.011754735201597213
1733700023066028500,7.511028564453125,0.04322013304531574,-0.010381401021778583,-0.025012276181578634
1733700023075982600,7.520982666015625,0.003825695767998695,-0.0054614802762866016,-0.012740823629498481
1733700023085937400,7.5309375,-0.012365560576319694,0.012200725403428076,-0.004727613043785095
1733700023095891500,7.540891357421875,0.0019137246668338775,0.008036445330828429,-0.0055406829923391335
1733700023105846500,7.550846435546875,-0.005379939472675323,-0.002425619711726904,-0.016316344028711318
1733700023115800300,7.56080029296875,-0.011122867038846015,-0.0013062602929770945,-0.016202362260222435
1733700023125755600,7.570755615234375,-0.003707622346282005,0.006949819137901068,-0.011573533415794372
1733700023135709400,7.58070947265625,-0.007789923223853111,0.0013189736440777779,-0.008428805649280547
1733700023145664500,7.59066455078125,-0.0021989713490009307,0.0006792144358158111,-0.018250526961684225
1733700023155618300,7.600618408203125,-0.007359715113043785,0.004898877957463264,-0.02147942588031292
1733700023165573600,7.61057373046875,-0.006595745003223419,0.021103870566189287,-0.024437106642127036
1733700023175527700,7.620527587890625,-0.004395020088553428,0.0022889877200126646,-0.008123100700974464
1733700023185481500,7.6304814453125,0.016612112104892728,0.005335077417641878,-0.009198036456108092
1733700023195436500,7.6404365234375,0.028214287093281745,0.002344225038588047,0.003062310180068016
1733700023205390300,7.650390380859375,0.03334755832850933,-0.007490209624916314,0.01135492222905159
1733700023215345400,7.660345458984375,0.03739946406781673,0.0098218674428761,-0.0022469021439552304
1733700023225299700,7.6702998046875,0.03822363993227482,0.01534369960427284,0.0097597619920969
1733700023235254500,7.680254638671875,0.03750935418307781,-0.00994783191010356,-0.00825403360426426
1733700023245208600,7.69020849609375,0.033415362867712975,0.0009172609753906727,-0.014545827224850654
1733700023255163400,7.700163330078125,0.01604395682811737,0.008688917890191078,-0.010621931779384612
1733700023265117400,7.710117431640625,0.003782441148161888,0.004865852470695972,-0.009393266767263412
1733700023275072500,7.720072509765625,0.019842764589190483,-0.004274754709750413,-0.0027408231407403945
1733700023285026600,7.730026611328125,0.02625029354393482,-0.005425970571488142,0.008166355320811272
1733700023294981400,7.7399814453125,0.039864977398514745,-0.011983867782354354,0.004263502663373947
1733700023304935400,7.749935302734375,0.05199848278462887,-0.002719634222239256,-0.029886019697785374
1733700023314890500,7.759890380859375,0.0487292518556118,-0.00384030881524086,-0.03436462641656399
1733700023324844500,7.769844482421875,0.045098201876878734,-0.008114040611684322,-0.03435001336932182
1733700023334799600,7.779799560546875,0.05000760122835636,-0.021742606861144303,-0.012898060017824172
1733700023344753400,7.78975341796875,0.036830139747262,-0.013602993416786193,0.008460954353213309
1733700023354707500,7.79970751953125,0.01314297468960285,-0.005894464866071939,-0.006958733096718787
1733700023364662500,7.80966259765625,-0.041032267612218856,-0.006017506723850965,-0.021235095730423925
1733700023374616300,7.8196162109375,-0.054551674398779865,0.010516571708768605,-0.008268646651506423
1733700023384571600,7.829571533203125,-0.019116203880310056,-0.016822247724235056,-0.021346739411354065
1733700023394525400,7.839525390625,-0.03917290348112583,0.006925999870896339,-0.021444354566931723
1733700023404480500,7.84948046875,-0.030457682105898855,0.010938011991232633,0.0036018238842487334
1733700023414434600,7.8594345703125,0.06255670167803765,-0.047696693937480446,0.01887771894931793
1733700023424389600,7.8693896484375,0.04951718736290931,-0.04092500784546137,0.03626256899237632
1733700023434343700,7.87934375,-0.11452011314928531,0.013617898724973201,0.02425648937821388
1733700023444298500,7.889298583984375,-0.10917699855566024,0.07140577856600284,0.0029179332733154295
1733700023454252500,7.89925244140625,-0.06209902103841304,0.05896349949166178,-0.04620119468271732
1733700023464207400,7.909207275390625,0.020187632504105567,0.026075229237973688,-0.05888941134214401
1733700023474161400,7.919161376953125,0.0143085113376379,-0.0013788871377706526,-0.039026773008704184
1733700023484116500,7.929116455078125,0.005974398234486579,0.0008702069632709026,-0.036194764453172684
1733700023494070500,7.939070556640625,0.002921440404653549,-0.02011398274600506,-0.012155132696032524
1733700023504024600,7.949024658203125,-0.012428104418516158,-0.02237272145822644,-0.013893500795960426
1733700023513979400,7.9589794921875,-0.012341010656952858,-0.011341332095116376,-0.02508124976456165
1733700023523933400,7.968933349609375,-0.018449264404177664,0.003533434823155403,-0.027745500537753105
1733700023533888500,7.978888427734375,-0.011413958939909935,0.010918576638400554,0.012666589349508284
1733700023543842600,7.988842529296875,0.01724047313630581,0.005933920093625784,0.04447627058625221
1733700023553797400,7.99879736328125,0.02365092470049858,0.0028707331307232377,0.037813890087604524
1733700023563751400,8.00875146484375,0.08151800725758075,-0.01432970025613904,0.03147708828151226
1733700023573706500,8.01870654296875,0.11437807433009146,-0.02498597269654274,0.028835049340128895
1733700023583660500,8.02866064453125,0.12744038499891758,-0.025416765329241753,-0.02817044795155525
1733700023593615600,8.03861572265625,0.13848083445131779,0.007225567339360714,-0.06374152754843235
1733700023603569400,8.0485693359375,0.13550094185769557,0.010349398448318243,-0.09742635500729084
1733700023613524500,8.0585244140625,0.17573475256860255,-0.01965411014929414,-0.0866571237117052
1733700023623478500,8.068478515625,0.16784721418917178,-0.053620677158981556,-0.04912088152170181
1733700023633433600,8.07843359375,0.09732114106714725,-0.03714709674194455,-0.0019371055424213409
1733700023643387600,8.0883876953125,-0.05002864401638508,-0.015402297923713922,0.030341946771740912
1733700023653342500,8.098342529296875,-0.12828501912951468,-0.004069733656942844,0.04773439559936523
1733700023663296500,8.108296630859375,-0.14766601142585276,0.021455022091418502,0.02891512883901596
1733700023673250600,8.11825048828125,-0.18089491181075573,0.021764088040590285,0.008541033852100371
1733700023683205600,8.12820556640625,-0.1860714376658201,0.03462240056991577,-0.007436872002482414
1733700023693159700,8.13815966796875,-0.20948446195721626,0.04830693479031324,-0.03361585387587547
1733700023703114500,8.148114501953126,-0.136824299415946,0.01613441159054637,-0.05910217730998993
1733700023713068500,8.158068603515625,-0.07501461671292782,0.005830313588678837,-0.05327566311359405
1733700023723023400,8.1680234375,-0.024272855991125105,-0.00582169189080596,0.0022708675414323805
1733700023732977400,8.177977294921876,0.016264321580529213,0.007813157968968153,0.019919336956739423
1733700023742932500,8.187932373046875,0.05884440315663814,0.006344838982075452,-0.007328735452890396
1733700023752886500,8.197886474609374,0.0928963103622198,0.027136574859172105,-0.03339841173291206
1733700023762841300,8.20784130859375,0.11325579230189323,0.03307341756224632,-0.07785948475003242
1733700023772795400,8.21779541015625,0.12241700387895106,0.019962591576576233,-0.07826923459470271
1733700023782750500,8.22775048828125,0.09631927054822444,0.0049319034442305565,-0.04906593646407127
1733700023792704500,8.23770458984375,0.0737473732560873,-0.0021660919927060603,-0.013275661158561707
1733700023802659600,8.24765966796875,0.027602877196669578,-0.00194324302226305,-0.00123217214345932
1733700023812613400,8.25761328125,0.007123568269610405,-0.0013955460116267203,0.0017383680999279022
1733700023822567400,8.2675673828125,-0.030103461840748785,-0.0005433130964636803,-0.00849836375415325
1733700023832522500,8.2775224609375,-0.07023322765529155,-0.017729279566556216,0.008177461236715316
1733700023842476300,8.287476318359374,-0.06655716949105263,-0.013880349053442478,0.02334463523030281
1733700023852431600,8.297431640625,-0.06956979531049728,-0.012309446474909782,0.025852818658947944
1733700023862385700,8.3073857421875,-0.09365618881881237,-0.009697364280372857,0.020030980637669563
1733700023872340700,8.3173408203125,-0.07346738727092743,0.007233896776288748,-0.01234393326640129
1733700023882294500,8.32729443359375,-0.046609190961718554,0.010027911408990621,-0.015898995399475098
1733700023892249600,8.33724951171875,-0.015640636724233627,-0.0026031682357192036,-0.0156330379396677
1733700023902204000,8.347203857421874,-0.002358545824885368,0.0004541735082864761,-0.023435820645093915
1733700023912158700,8.35715869140625,0.039024434921145434,-0.0029068273574113846,-0.028816929161548613
1733700023922112800,8.36711279296875,0.0533171641677618,0.009301058439165353,-0.03782967217862606
1733700023932067600,8.377067626953124,0.047047582378983495,0.014914660537242889,-0.0435486343473196
1733700023942021600,8.387021728515625,0.03965981021523476,0.014983195728808641,-0.050723640543222426
1733700023951976700,8.396976806640625,0.003859598037600517,0.012558452799916266,-0.052175008395314214
1733700023961930800,8.4069306640625,-0.011450199297070503,-0.0037789340168237684,-0.04714519753456115
1733700023971885600,8.416885498046875,-0.02232815166413784,0.007146510753780603,-0.04462649271190166
1733700023981839600,8.426839599609375,-0.013708791878819465,-0.001228080490231514,-0.0184521870136261
1733700023991793700,8.436793701171876,-0.026747137150168417,-0.01231821430325508,-0.0026467151165008545
1733700024001748700,8.446748779296875,0.007286649876832961,-0.014530045133829116,0.037893969586491584
1733700024011702800,8.456702880859375,0.0029237784922122954,-0.015488661032915114,0.01497778890132904
1733700024021657600,8.46665771484375,0.04381751441657543,0.0006894435688853263,0.03342646878361702
1733700024031611600,8.476611572265625,0.0620487521559,-0.015606734454631805,0.034874914026260376
1733700024041566700,8.486566650390625,0.0604278729557991,-0.008528174370527266,0.006441431224346161
1733700024051520500,8.4965205078125,0.07849369100034237,-0.003965250369161367,-0.029670915642380714
1733700024061475800,8.506475830078125,0.056495794203877445,-0.0025099369943141934,-0.03768763335943222
1733700024071429600,8.5164296875,0.03969312796294689,0.008232260163873434,0.000692073917388916
1733700024081384700,8.526384765625,0.012774725899100304,0.013322130648791789,-0.0037070378243923186
1733700024091338800,8.5363388671875,-0.011647767695784569,0.028468992506712674,0.008306056052446364
1733700024101293800,8.5462939453125,-0.03196808666884899,0.0341615050598979,-0.021426818910241126
1733700024111248000,8.556247802734376,-0.06336626449525357,0.0216021754771471,-0.044533553731441494
1733700024121202700,8.56620263671875,-0.08056465205550194,0.020780629961192607,-0.03563070082962513
1733700024131156700,8.57615673828125,-0.06891746888160705,0.001476210032403469,-0.03441898695230484
1733700024141110800,8.58611083984375,-0.05753975029885768,-0.0040080665975809095,-0.03593406769037247
1733700024151065600,8.596065673828125,-0.02323299154937267,-0.008568067989498376,-0.010722469544410704
1733700024161020000,8.60602001953125,0.0018628712624311446,-0.012570581629127263,0.01945814918577671
1733700024170974700,8.615974609375,0.03982639895379543,-0.0020842589281499383,0.003513561078906059
1733700024180928800,8.6259287109375,0.032571313259005544,-0.015336685341596603,-0.025686814442276953
1733700024190883600,8.635883544921874,0.04358136757314205,-0.004882365214079618,-0.0238373871833086
1733700024200837600,8.645837646484376,0.07627718399465083,-0.008509031278640031,-0.0187613990932703
1733700024210792700,8.655792724609375,0.0474351203918457,-0.0030611411362886426,-0.012466098341345787
1733700024220746800,8.665746826171874,0.02792787136733532,-0.016808365329355,-0.0156722009062767
1733700024230701600,8.67570166015625,0.02504091775417328,-0.003584872749447822,0.006958148574829101
1733700024240655600,8.685655517578125,-0.025094109246134755,0.006336947936564683,0.02304302193522453
1733700024250610700,8.695610595703124,-0.03539104685485363,0.012742284934222697,0.031463644278049464
1733700024260564700,8.705564697265626,-0.06571370440423488,0.012119915252178906,0.052792263510823244
1733700024270519800,8.715519775390625,-0.07573591672480105,-0.0010990472830832005,0.04292202688157558
1733700024280473600,8.7254736328125,-0.07718436196744441,-0.008896715421974658,-0.013768997633457182
1733700024290427600,8.735427734375,-0.05839432130157947,0.0006067337214946747,-0.05421966596543788
1733700024300382700,8.7453828125,-0.00981470704972744,-0.0013043605968356131,-0.09783084415495395
1733700024310336500,8.75533642578125,0.04847147770226001,0.0047628304876387115,-0.08304419391155242
1733700024320291800,8.765291748046875,0.07344166830778122,-0.004307926326990127,-0.06138824242055416
1733700024330245600,8.77524560546875,0.06906886005103588,0.013291589380055665,-0.054803603333234786
1733700024340200700,8.78520068359375,0.04602525359392166,0.02417377953082323,-0.05896773727536201
1733700024350154800,8.79515478515625,0.051418052548170085,0.029129794503003358,-0.05858721352517605
1733700024360109800,8.80510986328125,0.021502806755900383,0.023240882594883442,-0.042542087653279305
1733700024370064000,8.81506396484375,0.027833178821206093,0.016666911032050848,-0.019922844088077544
1733700024380018700,8.825018798828125,0.024499065962433814,-0.006664718586206436,0.018029577687382697
1733700024389972700,8.83497265625,0.009836334359645843,-0.020363281331956386,0.04072364005446434
1733700024399927600,8.844927490234374,0.002880523872375488,-0.029892303308099506,0.038001521614193914
1733700024409881600,8.854881591796875,0.022376666980981827,-0.029919775836914776,0.04095803333222866
1733700024419836700,8.864836669921875,0.045889644515514375,-0.022227321638166903,0.012611059769988059
1733700024429790700,8.874790771484374,0.08764847283661364,-0.015999387034028766,0.009488543835282325
1733700024439745800,8.884745849609375,0.14264847552478313,-0.0064461073994636535,-0.03804769884347915
1733700024449699600,8.894699462890625,0.20518939511179923,0.0012685586310923098,-0.04474281256794929
1733700024459653600,8.904653564453126,0.25409692614376544,0.022483780617266892,-0.05496376233100891
1733700024469608700,8.914608642578125,0.2754512643396854,0.04303060182258486,-0.04546878875494003
1733700024479562800,8.924562744140625,0.23358780660033224,0.046781332658231256,-0.02597147660255432
1733700024489517600,8.934517578125,0.14464286421239375,0.03779357795193791,0.03266542128324509
1733700024499471600,8.9444716796875,0.033111996006965634,0.022176906625181434,0.03550269053578377
1733700024509426700,8.9544267578125,-0.07038987952172755,0.019706132597476243,-0.004645779979228973
1733700024519380700,8.964380615234376,-0.12422434556186199,-0.004900777653604745,-0.053687166523933405
1733700024529335800,8.974335693359375,-0.1711965246170759,-0.0037643209695816036,-0.05993395195901394
1733700024539289600,8.98428955078125,-0.2037140618622303,-0.02749737099558115,-0.04239887979030609
1733700024549244700,8.99424462890625,-0.2233504902243614,-0.06259104233905673,0.02664718390703201
1733700024559198700,9.00419873046875,-0.21999007388055322,-0.08056202170699835,0.11760405063927173
1733700024569153800,9.01415380859375,-0.24233342311382292,-0.06390563206896185,0.13054419623315333
1733700024579107800,9.02410791015625,-0.18497721268832681,-0.04266995181664824,0.07407470551431179
1733700024589062700,9.034062744140625,-0.09892565365433692,-0.012558014408499001,-0.006027005204558372
1733700024599016700,9.0440166015625,-0.023692425754666326,0.03451704049929976,-0.07314823831915855
1733700024608970800,9.053970703125,0.01678279249668121,0.055703620912879705,-0.09817220493853092
1733700024618925800,9.06392578125,0.0668283876478672,0.07587123354226351,-0.07630407200157642
1733700024628880000,9.0738798828125,0.09864975932240486,0.05156169880256056,-0.05326806432902813
1733700024638834700,9.083834716796876,0.09034545683562754,0.0257033271856606,-0.032174422895908356
1733700024648788700,9.093788818359375,0.06501461622416972,0.014078940365463494,0.004614800319075584
1733700024658743600,9.10374365234375,0.023309563916921613,0.0043140638068318365,0.014492051210999488
1733700024668697600,9.113697509765625,-0.020972060880064963,-0.003078384532034397,0.01286415774822235
1733700024678652700,9.123652587890625,-0.05764730232656002,-0.006266951440274715,0.01528232480585575
1733700024688606700,9.133606689453124,-0.07227671618163585,-0.011030366449803113,0.01718728164434433
1733700024698561800,9.143561767578126,-0.06036416006982326,-0.012708528795093297,0.009080547556281088
1733700024708515600,9.153515625,-0.024423078116774556,-0.0031438509836792944,0.017157471027970314
1733700024718471000,9.163470947265624,0.008203180199861526,0.004500526289641857,0.002237549793720245
1733700024728424700,9.1734248046875,0.02985796264708042,-0.005451981795579194,-0.01898234836757183
1733700024738379800,9.1833798828125,0.06426759724915027,0.01617196712195873,-0.020465280401706695
1733700024748333600,9.19333349609375,0.08171440661251544,0.014455226331949234,-0.023625790259242056
1733700024758287600,9.20328759765625,0.08564005562365054,0.005269757096469402,-0.04441080413460731
1733700024768242700,9.21324267578125,0.07110591883659362,0.014496435125172137,-0.03996551516354084
1733700024778196700,9.22319677734375,0.03935995048582554,0.010712678802758455,-0.04073708405792713
1733700024788151800,9.23315185546875,0.01699848107397556,0.01594824136868119,-0.04743395134806633
1733700024798105600,9.243105712890625,-0.0022679449319839475,0.007295856096595526,-0.020234394255280494
1733700024808060700,9.253060791015624,-0.014797171637415885,-0.005352174682915211,0.011291209343075752
1733700024818014700,9.2630146484375,-0.04172141892015934,-0.004748655831813812,0.007244564300775528
1733700024827969800,9.2729697265625,-0.048238837990164755,-0.014408464580774306,0.027752514800429343
1733700024837923800,9.282923828125,-0.05381985299289226,-0.009577098901569842,0.02279869178533554
1733700024847878700,9.292878662109375,-0.024754502028226853,-0.007353869894146919,-0.0032090251743793485
1733700024857833200,9.302833251953125,-0.009824059399962424,0.012147387780994176,-0.017390110740065575
1733700024867788000,9.3127880859375,0.018279753056168555,0.0011762041725218296,-0.044235447567701335
1733700024877742000,9.3227421875,0.012758943808078765,0.0006970423534512519,-0.041835985210537906
1733700024887697200,9.332697265625,0.018276245924830434,0.009947393518686294,-0.02457154667675495
1733700024897651200,9.342651123046876,0.023458032476902008,-0.001552197878062725,-0.020299860706925393
1733700024907605200,9.352605224609375,0.04255319356918335,0.00956540846377611,-0.012106617379188537
1733700024917560000,9.36256005859375,0.034005145454406735,0.01446735516116023,-0.010846972706913947
1733700024927514000,9.37251416015625,0.016722002220153808,0.01442570797652006,-0.016719079610705373
1733700024937469000,9.382468994140625,-0.003975333371758461,0.007772825958579779,-0.007646715360879897
1733700024947423200,9.39242333984375,-0.014280454286932944,-0.002586217100918293,-0.011192425143718718
1733700024957378000,9.4023779296875,-0.026157354563474653,0.00009980711266398429,-0.004399111741781234
1733700024967332000,9.41233203125,-0.022904490247368813,0.0034960254222154616,-0.020822423276305197
1733700024977287200,9.422287109375,-0.01379530111849308,-0.010731968025118112,-0.02845627915561199
1733700024987241000,9.432240966796876,-0.011778700599074363,-0.008133622094988822,-0.017969956454634665
1733700024997196300,9.4421962890625,0.0003214870393276214,-0.002477057638019323,-0.018344634985923765
1733700025007150000,9.452150146484374,0.0004155950635671615,0.007590308998525142,-0.0089145433396101
1733700025017105200,9.462105224609376,0.010756371814012526,0.008610153565555811,-0.005461188015341759
1733700025027059200,9.47205908203125,0.002530395260453224,0.009628829088807106,-0.00485679238140583
1733700025037014000,9.482013916015624,0.002814472898840904,0.010382716196030378,-0.026291210076212882
1733700025046968300,9.49196826171875,0.005551788908243179,0.005937427224963903,-0.013695347875356673
1733700025056922000,9.501922119140625,-0.014283376896381378,0.005164250895380974,-0.010466448956727981
1733700025066877200,9.511877197265624,0.01161678803563118,0.0064181964792311185,-0.015526070433855056
1733700025076831000,9.5218310546875,0.004938040924072265,-0.0018910744436085223,-0.011902034717798233
1733700025086786000,9.5317861328125,0.0041524435043334956,-0.0021352584630250928,0.0004769698619842529
1733700025096740000,9.541739990234374,0.002150456032156944,-0.0066810851991176605,-0.00926876360476017
1733700025106695200,9.551695068359376,-0.005682137289643287,-0.016879823130369186,0.0007335749715566634
1733700025116649200,9.561649169921875,-0.005582768568396568,-0.011333148788660765,0.0020306290447711945
1733700025126604000,9.57160400390625,0.004162380376458168,-0.009302227482944726,-0.005460603493452072
1733700025136558000,9.58155810546875,-0.004233692046999931,-0.0012074760936200619,-0.01310030459165573
1733700025146513200,9.59151318359375,0.004497895941138267,-0.007251286302506923,-0.02878010428249836
1733700025156467200,9.60146728515625,0.007415829214453697,-0.011988543957471847,-0.008946107521653176
1733700025166422000,9.611422119140625,-0.014914076015353201,-0.008229775945842266,0.008853168541193009
1733700025176376000,9.6213759765625,-0.00843172825872898,-0.024216888020187614,0.002915595185756683
1733700025186331100,9.6313310546875,0.009909399595856665,-0.015009645344316959,0.01811784049272537
1733700025196285000,9.641284912109375,0.003936754927039147,-0.01550415086299181,0.006093640699982643
1733700025206239200,9.6512392578125,0.010929390293359756,0.012766980984061956,0.014655132818222045
1733700025216194000,9.661194091796874,-0.002565466573834419,0.00876096021309495,-0.0057183776468038554
1733700025226148000,9.671148193359375,-0.003777180451154709,-0.008505816408246755,-0.022065701335668562
1733700025236103200,9.681103271484375,-0.005437222617864609,0.02059109873846173,-0.02735387087166309
1733700025246057000,9.691056884765626,0.005330255112051963,0.020166881977021694,-0.02652794144153595
1733700025256012300,9.70101220703125,0.011142156261205672,0.013717413576692343,-0.005810732105374336
1733700025265966000,9.710966064453125,0.011118775385618208,0.017870441602915524,-0.013509469914436339
1733700025275921200,9.720921142578124,0.023428806382417677,0.0019129940144717692,-0.009878419935703276
1733700025285875200,9.730875244140625,0.023535773888230322,0.005510726245492696,0.014757424148917198
1733700025295830000,9.740830078125,0.03625380116403103,-0.009269932648539543,0.014827566775679587
1733700025305784300,9.750784423828126,0.05419628508985042,-0.0011665595613420008,0.0036672903358936308
1733700025315739100,9.7607392578125,0.05456862553358078,0.004224631957709789,-0.004524199426174163
1733700025325693200,9.770693115234375,0.05759469535648822,0.004191314209997654,0.0032721535384654995
1733700025335647200,9.780647216796876,0.030014029991626737,0.016902181092649696,0.00552080924808979
1733700025345602000,9.79060205078125,0.018661445850133896,-0.00045300446450710294,0.00856675281524658
1733700025355556000,9.80055615234375,0.006917816564440727,0.015152853207290172,0.0006347907721996307
1733700025365511200,9.81051123046875,-0.00490296961069107,0.008761690865457058,0.0009089315384626388
1733700025375465200,9.82046533203125,0.01021335097849369,0.014284107548743485,-0.0005669862329959869
1733700025385420000,9.830419921875,0.007916179952025412,0.007812427316606045,-0.024051906716823578
1733700025395374000,9.8403740234375,0.02974456540048122,0.006424187828600407,-0.02087327668070793
1733700025405329200,9.8503291015625,0.04582768519520759,0.009855477451533078,-0.0005617255359888076
1733700025415283200,9.860283203125,0.047098435783386225,-0.0056529111951589585,-0.00722702864408493
1733700025425238000,9.870238037109376,0.028388474616408345,-0.014825374818593263,0.005414426264166832
1733700025435192000,9.880192138671875,0.04708732986748218,-0.002293956156075001,0.01184767418205738
1733700025445147100,9.890147216796874,0.042269115930795666,-0.004485328720510006,0.017569558960199357
1733700025455101000,9.900100830078125,0.04851531684398651,-0.007562251947820186,0.018738018217682836
1733700025465056300,9.91005615234375,0.05482990681827068,-0.0020674539238214494,0.006828384715318679
1733700025475010000,9.920010009765624,0.03865852421820164,-0.0038474692083895205,-0.020634207227826117
1733700025484964000,9.929964111328125,0.04743395134806633,0.003228752788156271,-0.006605097353458404
1733700025494919200,9.939919189453125,0.030480478459596633,0.00046513329371809955,-0.00464110380411148
1733700025504873000,9.949873046875,0.058359249988198275,0.02331000230833888,-0.013657938474416731
1733700025514828300,9.959828369140626,0.10102408723831176,0.0377549995072186,-0.04465338071882725
1733700025524782000,9.969781982421875,0.11699673239588737,0.03719239718839526,-0.04392682000994682
1733700025534737200,9.979737060546874,0.13160568798482417,0.026277327681332827,-0.03436813354790211
1733700025544691200,9.989691162109375,0.10809914019107818,0.01642214249074459,-0.017721534651517868
1733700025554646000,9.99964599609375,0.07365326523184776,-0.016371873608231544,0.014034955093264578
1733700025564600300,10.009600341796874,0.034147768795490266,-0.02888064204752445,0.019510171633958816
1733700025574555100,10.01955517578125,0.012579495587944984,-0.03045519788786769,0.01696457880437374
1733700025584509200,10.02950927734375,0.009520692539215087,-0.04558759282901883,0.01166471883058548
1733700025594464000,10.039464111328124,-0.017649638459086417,-0.02733794265016913,0.014938041412830352
1733700025604418000,10.04941796875,-0.10442366654872894,-0.0013188275136053562,0.026655367213487623
1733700025614373000,10.059373046875,-0.06703355483114719,-0.0045176235549151894,0.037275545427203176
1733700025624327200,10.0693271484375,-0.035734745725989336,-0.01771481264978647,0.05862520744800567
1733700025634281200,10.07928125,-0.13358020292818545,0.004946370361000299,0.019614801052212714
1733700025644236000,10.089236083984375,-0.12232231133282184,0.01137888762652874,-0.023437574210762976
1733700025654190000,10.099190185546876,-0.01714461154639721,0.0005332300938665867,0.011813771912455558
1733700025664145000,10.109144775390625,0.006402852779626846,-0.005954378359764814,0.025583354067802426
1733700025674099200,10.11909912109375,0.006266659179329872,-0.008024608762562275,0.019181670331954954
1733700025684054000,10.129053955078126,0.014248305583000182,0.01553878378495574,-0.011135141998529434
1733700025694008000,10.139008056640625,0.017104279536008835,0.011579086373746394,-0.009991817182302474
1733700025703963100,10.148963134765625,0.029812369939684866,0.01017784127369523,-0.030222119784355163
1733700025713917000,10.1589169921875,0.02388064180314541,0.013856237525492907,-0.028978841724991797
1733700025723872300,10.168872314453125,0.030548867520689964,0.016916063487529755,-0.013438742765784262
1733700025733826000,10.178825927734374,0.03132452806830406,0.003358662778139114,-0.0112672439455986
1733700025743781000,10.188781005859376,0.04192833966910839,0.0027143735252320765,-0.011518003836274146
1733700025753735200,10.198735107421875,0.03200140441656112,-0.0011119067646563053,-0.021760580909252165
1733700025763689000,10.20868896484375,0.04101005578041077,0.0008310439966619014,-0.007342179456353187
1733700025773644300,10.218644287109376,0.031761750441789624,0.004714315170794725,-0.002882277438044548
1733700025783598000,10.22859814453125,0.032721535384655,0.007451923441141844,-0.002412321838736534
1733700025793553200,10.23855322265625,0.03548398583531379,-0.0030170097336173055,0.011418050593137741
1733700025803507200,10.248507080078125,0.03352876011431217,-0.005400251608341932,0.010454173997044562
1733700025813462000,10.2584619140625,0.01960311061441898,-0.014405541971325873,0.006953472399711609
1733700025823416000,10.268416015625,0.025499767437577245,-0.018085107266902923,0.013561492362618445
1733700025833371100,10.27837109375,0.004012158250808716,-0.000517009611427784,0.0066793316334486
1733700025843325200,10.2883251953125,-0.02365384730994701,-0.008719459158927202,0.007148702710866928
1733700025853280000,10.298280029296874,-0.008998714491724968,-0.002425473581254482,-0.019115034836530684
1733700025863233800,10.30823388671875,-0.025870938837528227,-0.016481033071130514,-0.01951777041852474
1733700025873188900,10.31818896484375,-0.03542319555878639,-0.011336802050471306,-0.02751169178187847
1733700025883143000,10.328142822265624,-0.004150689938664436,0.006351414853334426,-0.003087444621324539
1733700025893098000,10.338097900390625,0.009491466444730758,-0.013747224193066357,0.0217635035187006
1733700025903051800,10.3480517578125,-0.006138064363598823,-0.005297521886229515,0.007123568269610405
1733700025913005800,10.358005859375,-0.014690788653492926,-0.01532221842482686,0.008041267636418343
1733700025922960600,10.367960693359375,0.002439209845662117,-0.012786270206421613,-0.0164478614538908
1733700025932915000,10.3779150390625,0.004805354455113411,-0.013320377083122729,-0.04887421328425407
1733700025942870000,10.3878701171875,-0.0015203414350748062,0.0015668109253048896,-0.037193127840757366
1733700025952823800,10.39782373046875,-0.0011176058530807495,0.005564356128871441,-0.028888240832090375
1733700025962779000,10.40777880859375,0.02583937465548515,-0.012213292624056338,-0.012027122402191162
1733700025972732700,10.417732666015626,-0.00011456629037857055,-0.012129705993831157,-0.002668342426419258
1733700025982688000,10.42768798828125,0.004963759887218475,-0.02176277286633849,0.01945639562010765
1733700025992642000,10.43764208984375,-0.018341712376475333,-0.024228140066564083,0.015787351718544958
1733700026002596900,10.447596923828126,-0.022998013749718663,-0.008310586097091436,0.00298632233440876
1733700026012551000,10.457551025390625,-0.02906885809600353,-0.013696663049608468,0.002529226216673851
1733700026022505700,10.467505615234375,-0.02756839040517807,-0.00879646991789341,0.01670271299779415
1733700026032460000,10.4774599609375,-0.029626491978764533,-0.0021668226450681687,0.01602466760575771
1733700026042413800,10.487413818359375,-0.02656827345192432,-0.013229337798804044,0.011012392401695251
1733700026052369000,10.497368896484375,-0.02770341496169567,-0.009314356312155722,0.008640987095236778
1733700026062323000,10.507322998046876,-0.02323299154937267,-0.010603811600804328,0.0054027358263731
1733700026072277800,10.51727783203125,-0.010568740287423134,-0.0010823884092271327,0.0036906712114810943
1733700026082231800,10.527231689453124,-0.007548515683412552,-0.007474573664367198,-0.013344050219655037
1733700026092187000,10.537186767578126,0.032144612279534336,-0.024410364765673875,-0.017432780838012696
1733700026102141000,10.547140869140625,0.05250935491621494,-0.03491144664436579,-0.019338906720280647
1733700026112095700,10.557095703125,0.13648293863236904,-0.10170900076255202,-0.02529927642941475
1733700026122049800,10.5670498046875,0.19205285016298293,-0.11568491914495825,-0.00032733225822448726
1733700026132004900,10.5770048828125,0.03834697405099868,-0.03669686875641346,-0.008391396248340606
1733700026141959000,10.586958984375,-0.04203472265303135,0.07624503529071808,-0.005882628297805786
1733700026151914000,10.5969140625,-0.003658522507548332,0.08293897997140884,-0.02838087583184242
1733700026161867800,10.60686767578125,0.06886427738964557,0.03173091691210866,-0.0491606290102005
1733700026171822800,10.61682275390625,0.13717793515920637,0.02029547679275274,-0.04873275898694992
1733700026181776600,10.626776611328125,0.12451485294103622,0.07780570873618126,-0.06142272921204567
1733700026191731000,10.63673095703125,0.09802841255366801,0.11866335043385624,-0.1087602344483137
1733700026201686000,10.64668603515625,0.05359539658725261,0.11209493182897567,-0.10150982492864132
1733700026211639800,10.656639892578125,-0.030212767434120175,0.0868583453722298,-0.04851707040965557
1733700026221595000,10.666594970703125,-0.003102057668566704,0.012444032640010119,0.031113515666127203
1733700026231548700,10.676548583984374,0.025006430962681767,-0.014657470905780791,0.031982115194201466
1733700026241504000,10.68650390625,0.047940731826424596,-0.0213267195366323,0.056200610649585724
1733700026251458000,10.6964580078125,0.06779401780962943,-0.013075900802761315,0.06548807895481586
1733700026261412900,10.706412841796874,0.039815877559781075,-0.015249883840978145,0.05445698185265064
1733700026271367000,10.716366943359375,0.024417232897877693,-0.025336393569409844,0.03377016765475273
1733700026281321700,10.72632177734375,-0.027298341292142866,-0.020002192934602498,0.016224574092030524
1733700026291276000,10.736276123046874,-0.05081774856746196,-0.009892302330583334,-0.0141167881578207
1733700026301230800,10.74623095703125,-0.07835223670303822,-0.003139467069506645,-0.035956279522180556
1733700026311185000,10.756184814453125,-0.10555880805850028,0.005244914916157722,-0.020021628287434576
1733700026321139000,10.766138916015626,-0.11304828703105449,-0.01812821575626731,0.017740823873877525
1733700026331093800,10.77609375,-0.06952127999365329,-0.02531286656334996,0.046024669072031975
1733700026341047800,10.7860478515625,-0.040671033084392544,-0.020067659386247397,0.03983049060702323
1733700026351003000,10.7960029296875,-0.011475918260216713,-0.021892975117266178,0.015101707541942596
1733700026360957000,10.80595703125,0.0087140523314476,-0.005689151552319526,0.0004898293435573578
1733700026370911700,10.815911865234375,0.01983458128273487,-0.016984744809567926,-0.008755553385615348
1733700026380865800,10.82586572265625,0.036490532529354094,-0.009833119489252567,-0.015386954224109649
1733700026390820900,10.83582080078125,0.04382569772303104,0.0033634850837290283,-0.022339257580041884
1733700026400775000,10.84577490234375,0.04409808492362499,0.0014697802916169166,-0.056660044854879375
1733700026410730000,10.85572998046875,0.04058277027904987,-0.011889029105752706,-0.0722924982726574
1733700026420683800,10.865683837890625,0.05370762479007244,0.0100331721059978,-0.041430327019095416
1733700026430638800,10.875638916015625,0.051425066810846326,0.023203911585360764,-0.024312018957734105
1733700026440592600,10.885592529296876,0.025576924327015874,0.011501637223362922,-0.007870002722740172
1733700026450548000,10.8955478515625,0.0015776245802640915,0.001828822862356901,0.013436989200115204
1733700026460502000,10.905501953125,0.007930792999267577,-0.010978051740676164,0.027977555727958677
1733700026470455800,10.915455810546876,-0.007102525481581688,-0.008961889612674712,0.016694529691338538
1733700026480411000,10.925410888671875,-0.016537293303012846,-0.008616144914925098,-0.004149520894885063
1733700026490364700,10.93536474609375,0.0028039515048265454,-0.0006172551155090331,-0.01275134502351284
1733700026500320000,10.945320068359376,0.000991933646798134,-0.009904723420739173,-0.0019008651852607725
1733700026510274000,10.955274169921875,-0.004815291327238082,-0.0026553368143737315,0.02559679807126522
1733700026520228900,10.965228759765624,-0.0070148471981286995,0.0017117723539471625,0.010955693778395652
1733700026530183000,10.975182861328125,0.01676467231810093,-0.022797961132973433,0.008559154030680655
1733700026540137700,10.9851376953125,0.017560791131854055,-0.005338730679452419,-0.0033329438149929044
1733700026550091800,10.995091796875,0.037005496314167975,0.00015592121407389639,-0.03239712573587894
1733700026560046800,11.005046875,0.06073240886032581,0.008516045541316271,-0.017610475492477417
1733700026570001000,11.0150009765625,0.06504618040621281,-0.007530395504832268,0.010695581537485122
1733700026579955700,11.024955810546874,0.06077332539260387,-0.010850918229669331,0.0045937575310468675
1733700026589909800,11.03490966796875,0.06503682805597782,-0.003810790459811687,-0.009606032735109328
1733700026599863800,11.04486376953125,0.05621639274060726,-0.04768953354433179,-0.037547932627797126
1733700026609819000,11.05481884765625,0.1571153922945261,-0.07512699104622006,-0.017395371437072753
1733700026619773000,11.06477294921875,-0.0037912089765071866,0.041622926981747146,0.004568623089790344
1733700026629727700,11.074727783203125,-0.0763788908034563,0.08910802399516105,-0.03523439498841762
1733700026639681800,11.084681884765626,-0.05173953958749771,0.11758929146155714,-0.07168693359494209
1733700026649636900,11.094636962890625,0.01279401512145996,0.056064124788343904,-0.08430676119327545
1733700026659591000,11.1045908203125,0.01540916605591774,0.0033601240828633307,-0.03536708145737648
1733700026669546000,11.1145458984375,-0.01660860497355461,-0.017015432208776472,0.023515315622091294
1733700026679499800,11.124499755859375,0.01893266400694847,-0.014988310295343399,0.020553543207049368
1733700026689454800,11.134454833984375,0.02193652199804783,-0.005033171861618757,0.012032383099198341
1733700026699409000,11.144408935546876,0.023103812211751937,-0.0016828385204076767,-0.003016132950782776
1733700026709364000,11.154364013671875,0.03110883949100971,-0.004365793994069099,-0.025939327898621557
1733700026719318000,11.164318115234375,0.011323942568898201,0.014262041847407817,0.0025169512569904328
1733700026729271800,11.174271728515626,-0.012616904988884925,0.006037380468100309,0.004819967502355575
1733700026739227000,11.184226806640625,-0.03795768247246742,0.0005061959564685822,0.009595511341094971
1733700026749180700,11.1941806640625,-0.027874095353484153,-0.0018918050959706306,0.013246435064077376
1733700026759136000,11.204135986328126,-0.02327741521298885,0.0031090719312429427,0.0006704466074705124
1733700026769090000,11.214090087890625,-0.015203998872637748,0.008216478072851896,-0.018569675913453102
1733700026779044900,11.224044921875,-0.0005243161350488662,0.007818418665975331,-0.030358313384652134
1733700026788999000,11.2339990234375,0.000765139153599739,-0.0039994448997080325,-0.012219430103898048
1733700026798953700,11.24395361328125,-0.0015600889235734938,0.007609305959939956,0.0032242227435111998
1733700026808907800,11.25390771484375,-0.0023626374781131744,0.01706497043892741,-0.011664134308695792
1733700026818862800,11.26386279296875,-0.002127075156569481,0.00898117883503437,-0.026927169892191884
1733700026828817000,11.27381689453125,-0.0015256021320819854,-0.001868570350855589,-0.007792261311411857
1733700026838771700,11.283771728515624,0.011806173127889633,-0.011082973419874905,-0.006104162093997001
1733700026848725800,11.293725830078126,0.022178514060378074,-0.014161357951909303,-0.003980009546875953
1733700026858681000,11.30368115234375,0.02996726824045181,0.0009824351660907267,-0.004321954852342606
1733700026868634000,11.313634033203124,0.037786417558789254,0.0016683716036379336,-0.017405308309197426
1733700026878588200,11.323588134765625,0.03412964861690998,0.017244857050478457,-0.01835924803316593
1733700026888543200,11.333543212890625,0.014288637593388557,-0.007493132234364748,-0.012492401826381682
1733700026898497000,11.3434970703125,0.015621932023763656,-0.01412380242049694,-0.005394552519917488
1733700026908452400,11.353452392578125,0.004167641073465347,-0.007561521295458078,0.011456044515967368
1733700026918406100,11.36340625,0.0023088614642620083,-0.0017651099763810634,0.03086275577545166
1733700026928361200,11.373361328125,0.01054185228049755,-0.0008289981700479984,0.02109948665201664
1733700026938315300,11.383315185546875,0.009495558097958564,0.016777385669201613,-0.022753099077939987
1733700026948270000,11.39327001953125,0.02862228337228298,0.01574585066437721,-0.022643208962678907
1733700026958224400,11.403224365234376,0.02578150698840618,0.00745513831153512,-0.015271218889951706
1733700026968179200,11.41317919921875,0.008997545447945595,0.00074658058360219,-0.025143793606758117
1733700026978133200,11.42313330078125,0.02781798125207424,-0.00267827929854393,-0.02127192060947418
1733700026988088000,11.433088134765624,0.037326983353495595,0.007824117754399776,-0.007893383598327636
1733700026998042000,11.4430419921875,0.028580197796225545,0.002698591434210539,-0.005574000740051269
1733700027007996200,11.45299609375,0.012073884153366089,-0.0008067863382399082,-0.029556933873891827
1733700027017951200,11.462951171875,0.016217559829354286,0.003996376159787178,-0.010087094250321388
1733700027027905300,11.4729052734375,0.004734042784571647,0.011101824250817299,-0.00833762023448944
1733700027037860000,11.482860107421875,0.0018313070803880691,0.01000920670852065,0.0012619827598333358
1733700027047814100,11.492814208984376,0.0026437925070524216,0.00512757214680314,-0.01161503446996212
1733700027057769200,11.502769287109375,-0.0074812956660985945,0.003063625354319811,-0.0033773674786090847
1733700027067723300,11.51272314453125,0.015368249523639677,-0.0022803660221397876,0.011951134556531906
1733700027077678000,11.522677978515626,0.0010807809740304947,-0.0034102468349039555,-0.0005459434449672699
1733700027087632100,11.532632080078125,-0.004586743268370628,-0.0003869534909725189,-0.011684008052945137
1733700027097587200,11.542587158203125,0.0037602293163537977,-0.00862710470035672,-0.013704115703701973
1733700027107541000,11.552541015625,0.008590718212723732,-0.0019410510651767252,-0.015230302357673644
1733700027117496300,11.562496337890625,0.024117373168468473,-0.005252659831196069,-0.0027530981004238128
1733700027127450000,11.5724501953125,0.030883798563480374,0.00468187420591712,-0.0005827683240175247
1733700027137404200,11.582404052734375,0.021929507735371587,0.013166209434717894,0.01311433311700821
1733700027147359200,11.592359130859375,-0.006346154156327247,-0.001227642098814249,-0.007406476864218712
1733700027157313000,11.60231298828125,0.0063923313856124875,0.005402881956845521,-0.010435469296574592
1733700027167268400,11.612268310546876,0.024663316613435744,0.012436726116389036,-0.012918518283963202
1733700027177222100,11.62222216796875,0.021326281145215033,0.0027370237484574318,0.0047393034815788266
1733700027187177200,11.63217724609375,0.03352992915809154,0.008793401177972554,0.0006008885025978088
1733700027197131300,11.64213134765625,0.03328735257387161,0.003963789064437151,-0.010606734210252761
1733700027207086000,11.652086181640625,0.015615502282977103,0.0028796470895409584,-0.01106207676231861
1733700027217040400,11.662040283203124,0.019053660038113592,0.001005085389316082,-0.019583236870169638
1733700027226995200,11.6719951171875,0.012480126866698265,0.005876198557019234,-0.00125613754093647
1733700027236949200,11.68194921875,0.0006236848562955855,-0.00791325734257698,0.01714461154639721
1733700027246904000,11.691904052734374,0.008417699733376503,-0.012766688723117113,0.012799860340356826
1733700027256858000,11.701858154296875,0.004070025917887687,-0.006361643986403941,-0.009471592700481415
1733700027266812200,11.711812255859375,0.009983049353957175,-0.006521072331815958,-0.04264145637452602
1733700027276767200,11.721767333984374,0.006504559588432312,0.007709843724966049,-0.08408172026574612
1733700027286721300,11.73172119140625,-0.01175882685482502,0.013413462194055318,-0.10054828642010688
1733700027296676000,11.741676025390625,-0.007358546069264412,0.020878829638659953,-0.07242576926350593
1733700027306630100,11.751630126953126,-0.010758125379681587,0.018647417324781417,-0.04223521366119384
1733700027316585200,11.761585205078125,-0.021949381479620934,0.013993161778151988,-0.023331191226840017
1733700027326539300,11.771539306640625,-0.030447160711884497,0.015990911466628312,-0.04413432528078556
1733700027336494000,11.781494140625,-0.031553076127171516,-0.008411123862117528,-0.06001929215490818
1733700027346448100,11.7914482421875,-0.022330489751696585,-0.00034969022050499913,-0.04930909757018089
1733700027356403200,11.8014033203125,-0.012190204009413718,-0.002298486200720072,-0.03199497467577457
1733700027366357000,11.81135693359375,-0.009060673812031746,-0.017379443215578792,0.009601941081881523
1733700027376312300,11.821312255859375,-0.017547347128391264,-0.017938830664008854,0.055773909670114516
1733700027386266000,11.83126611328125,-0.013155834171175955,-0.010336538966745138,0.05446633420288562
1733700027396220200,11.84122021484375,-0.014999416211247443,-0.0025786183163523674,0.023691256710886954
1733700027406175200,11.85117529296875,-0.002463759765028953,-0.0061722588941454885,0.010878536888957024
1733700027416129000,11.86112890625,0.011515081226825713,0.0021820202142000195,0.04495791662335395
