time,seconds_elapsed,z,y,x
1733862652192902400,0.01590234375,-0.20976737055182457,0.11697072117179631,-0.2381301262050867
1733862652202853000,0.02585302734375,0.12939955624267457,-0.030061668525636194,-0.1773316663712263
1733862652212805400,0.035805419921875,0.04862520695924759,-0.06844780554324388,-0.06535480796396732
1733862652222756400,0.04575634765625,-0.03793196350932121,-0.0095092943623662,-0.03669219258129597
1733862652232707300,0.055707275390625,-0.37684579232558607,0.03557867838144302,0.19399112474918365
1733862652242658300,0.065658203125,-0.5469103903032839,-0.033789164616167544,0.12938333576023578
1733862652252609300,0.075609375,-0.5772836089961231,0.02240910794585943,0.10132102435827255
1733862652262561300,0.085561279296875,-0.5922228194527328,-0.0362353887245059,0.1716238101184368
1733862652272512300,0.09551220703125,-0.5351175150483847,0.042506139557063574,0.09204349292516707
1733862652282463200,0.105463134765625,-0.5401451339520513,0.11049392637312412,0.16820201897621154
1733862652292414500,0.11541455078125,-0.309079977697134,-0.03958440689146518,-0.05089490545690059
1733862652302364700,0.12536474609375,0.2649560276798904,-0.07736556375324725,-0.19254501759409903
1733862652312316700,0.135316650390625,0.80608827297315,-0.0533475593060255,-0.1988292124301195
1733862652322267600,0.145267578125,0.8509136492580175,-0.013896131144464014,-0.03688040862977505
1733862652332218600,0.155218505859375,0.6862731952209026,-0.0012386018842458725,0.10340776750445366
1733862652342169600,0.165169677734375,0.5746956383295357,-0.04433656985461712,0.10995324362516402
1733862652352120600,0.17512060546875,0.11794891855418681,0.0036900866895914074,0.1666167956113815
1733862652362072600,0.185072509765625,-0.31950726368725296,-0.0026408698976039886,0.16399346137046814
1733862652372023600,0.1950234375,-0.5934205778699367,-0.03167436441928148,0.13269991296231745
1733862652381974500,0.204974609375,-0.7010503469835967,-0.040325872908532616,0.07146306171119213
1733862652391925500,0.214925537109375,-0.7137836448937654,-0.03753098149299621,0.015854571735858917
1733862652401876500,0.22487646484375,-0.818696556264162,-0.017489771722257137,-0.09419394895732403
1733862652411828500,0.234828369140625,-1.5975708052277564,0.08090688962191343,-0.35509997059404846
1733862652421779700,0.24477978515625,-1.3131430382281541,-0.1606704544275999,0.18030863635540006
1733862652431730400,0.25473046875,-0.30043723703622816,-0.22885960903465746,-0.025333763220906257
1733862652441681700,0.264681640625,0.7323493022192269,0.06077887835055589,-0.2661854233443737
1733862652451633400,0.27463330078125,1.7186317183226345,-0.0629001082882285,-0.1358043087184429
1733862652461584600,0.284584716796875,1.7689391792804001,-0.03744476451426744,0.1054448262900114
1733862652471535400,0.294535400390625,1.4867776036471128,0.035679508407413955,0.15297522374987602
1733862652481486600,0.304486572265625,0.9810720610439777,0.16443039148300886,0.0625888503819704
1733862652491437600,0.3144375,0.30403204665780065,0.033466508533060546,0.10022621485888958
1733862652501389600,0.3243896484375,-0.3349164297431707,-0.04719195928573608,0.0008633388310670852
1733862652511340500,0.334340576171875,-0.7399521053731442,-0.07833207069784402,-0.0034779052436351775
1733862652521291500,0.34429150390625,-0.7504787600845098,-0.10624854388833045,-0.0640612610220909
1733862652531242500,0.354242431640625,-0.4257440806051716,-0.023310732960700988,-0.011722001975774764
1733862652541193500,0.364193359375,-0.00039396775364875793,-0.052586804066598415,0.08532908997833728
1733862652551144700,0.374144775390625,0.30292434114422645,-0.063085693988204,0.0006797989577054977
1733862652561096700,0.3840966796875,0.5225315897196531,-0.02433539983332157,0.04448796102404594
1733862652571047400,0.39404736328125,0.5525490903099999,-0.006358136855065822,0.08443827861845493
1733862652580998700,0.40399853515625,0.3368044354468584,-0.006218143862485885,0.03569324467182159
1733862652590949600,0.41394970703125,0.020671653161384165,-0.023524667972326278,0.03523790211975574
1733862652600901600,0.423901611328125,-0.1693359183769673,-0.033473230534791946,0.026270167288184165
1733862652610852400,0.433852294921875,-0.25308508222009984,-0.046074645693600175,0.001284194591641426
1733862652620803600,0.443803466796875,-0.19236677495036272,-0.03630874622166157,0.053237669190764426
1733862652630754600,0.453754638671875,-0.06543021128773689,-0.03333440658599138,0.04235796325802803
1733862652640705500,0.46370556640625,0.030575134473107755,-0.021759411865472793,0.07581190457046032
1733862652650657500,0.473657470703125,0.10568681835234164,-0.024131109432876108,0.0670201108276844
1733862652660608500,0.4836083984375,0.12220423791110514,-0.020429040044546126,0.055474634462594985
1733862652670559700,0.493559814453125,0.08909985895501449,-0.03131488345712423,0.020883213552832604
1733862652680510500,0.503510498046875,0.02819793874667957,-0.014813538250327109,0.027823826470971105
1733862652690461700,0.513461669921875,-0.013096833992935717,-0.023131284740567207,0.015678046125173567
1733862652700413400,0.523413330078125,-0.006168459501862526,-0.018908114087581633,0.05557108057439327
1733862652710364700,0.53336474609375,0.010385200414061546,-0.02752951969951391,0.04195698124170303
1733862652720315400,0.5433154296875,0.017401801177859305,-0.010962123519182205,0.034795419049263
1733862652730266600,0.5532666015625,0.023988157298229635,-0.01268207917958498,0.028519407519698142
1733862652740217300,0.56321728515625,0.05232172338962555,-0.017703998994827268,0.04155015400648117
1733862652750169600,0.573169677734375,0.03851118816938251,-0.03596446282863617,0.039891865405440326
1733862652760120600,0.58312060546875,0.05868603425715118,-0.028244682231545446,0.052284313988685605
1733862652770071600,0.593071533203125,0.03933598508834839,-0.04446165753901005,0.043829789376258844
1733862652780022500,0.6030224609375,0.012661310386192053,-0.02055120511949062,0.0015840543210506439
1733862652789973500,0.612973388671875,-0.0025508535265922547,-0.03447977722883224,0.02828209163248539
1733862652799925500,0.622925537109375,-0.036534353404771534,-0.06864420489817857,0.12621347355246543
1733862652809876500,0.63287646484375,-0.058800582281220704,-0.059035834075510496,0.05097381591200828
1733862652819827500,0.642827392578125,-0.04564120444608852,-0.05615355663746595,0.07553425667285919
1733862652829778700,0.65277880859375,-0.017412888827454297,-0.05149404039382934,0.07307458856105804
1733862652839729700,0.662729736328125,-0.01754793165028095,-0.015257774886488914,0.04397533532679081
1733862652849681700,0.672681640625,-0.010768628507386892,-0.025776246291399,0.020609072786569593
1733862652859632400,0.68263232421875,-0.011670564049482345,-0.041859073825180525,0.06053484046161174
1733862652869583600,0.69258349609375,0.003951386240590364,-0.052173547090589995,0.07260697104930877
1733862652879534600,0.70253466796875,0.009442951127886772,-0.03860796307474375,0.059600189960002894
1733862652889485600,0.712485595703125,-0.0035001170754432676,-0.022825872053205964,0.034544074636697765
1733862652899437600,0.7224375,-0.0203319911445491,-0.033037177205085755,0.02088204450905323
1733862652909388500,0.732388427734375,-0.03702829266786575,-0.046970133228600025,0.0405856928884983
1733862652919339800,0.74233984375,-0.026790391770005223,0.0026809096470475197,0.04307400257289409
1733862652929290500,0.75229052734375,-0.0385357563550584,-0.061548401418328284,0.0368038362622261
1733862652939241700,0.76224169921875,-0.06354512819349765,-0.027490064471960066,0.008448679393529892
1733862652949193500,0.772193359375,-0.025496844828128813,-0.005467033234238625,0.005428454789519309
1733862652959144700,0.782144775390625,0.00201426243185997,-0.01920008277148008,0.04655366138219833
1733862652969095400,0.792095458984375,0.009753313985001295,-0.003868658126890659,0.012661328652501105
1733862652979046700,0.802046630859375,0.02581889812303707,-0.00028349311649799344,0.04690086738467216
1733862652988997400,0.811997314453125,0.02499766313433647,-0.030585692399740218,0.0371960504502058
1733862652998949600,0.82194970703125,-0.0023655600875616073,-0.01742898144572973,0.03927928646504879
1733862653008900600,0.831900634765625,0.0023082586760632693,-0.012401508672535418,0.055334349209070204
1733862653018851600,0.8418515625,-0.02422200258672237,-0.031362521991133686,0.051693946880102155
1733862653028802600,0.851802490234375,-0.028834446551930158,-0.03365121745020151,0.02359948677420616
1733862653038753500,0.86175341796875,-0.029219080221652982,0.0070262453749775884,0.005980243453383445
1733862653048705500,0.87170556640625,-0.016915478965640066,-0.0769938078314066,0.09636953943073749
1733862653058656500,0.881656494140625,0.00504325486421585,-0.04398118054568767,0.07259644965529441
1733862653068607500,0.891607421875,0.0037508769661188123,-0.018093582834303377,0.075128013959527
1733862653078558500,0.901558349609375,0.0063303903316147625,-0.08138648983240127,0.09899112010598182
1733862653088509400,0.911509521484375,0.0016471644188277422,-0.06367226170450449,0.08510054191946982
1733862653098461700,0.921461669921875,-0.005184709161520004,-0.06327011064440012,0.09464987603127956
1733862653108412400,0.931412353515625,-0.017563695474993438,-0.07942278854399919,0.08356208030581473
1733862653118363600,0.94136376953125,-0.03301554989516735,-0.014659516732394694,0.008171031495928764
1733862653128314400,0.951314453125,-0.008988759353291242,-0.02656447405964136,0.010568155765533447
1733862653138265600,0.961265625,0.00895313091748394,-0.029104806192219255,0.021093641433119772
1733862653148217600,0.971217529296875,0.025918303376901892,-0.003943184667825699,-0.002413490882515907
1733862653158168600,0.98116845703125,0.03576631904118694,-0.05562339528352022,0.04930500591695308
1733862653168119600,0.99111962890625,0.03607376842200756,-0.03364098831713199,0.03999123412668705
1733862653178070500,1.001070556640625,-0.004109170618187636,0.010834990008175373,-0.0020657003581523894
1733862653188021800,1.011021728515625,0.00187222361266613,-0.061468029658496376,0.05213000020980835
1733862653197973500,1.020973388671875,-0.03051321168541908,0.03293459361344576,-0.07988894475102425
1733862653207924500,1.030924560546875,0.028451018458604812,-0.03729571143239736,0.04515548502206802
1733862653217875500,1.04087548828125,0.01378828685581684,0.011635784997045992,-0.007537994289398193
1733862653227826700,1.05082666015625,0.017448581195343284,-0.030544483606517313,0.03898994812965393
1733862653237777400,1.06077734375,0.03704524380266666,-0.0243950210660696,0.052602293896675104
1733862653247729700,1.070729736328125,0.038925650721788406,-0.010383154587447643,0.04666121340990066
1733862653257680600,1.0806806640625,0.026547815185785292,-0.04389700939357281,0.027437457501888272
1733862653267631600,1.090631591796875,-0.015250166968768462,-0.020608780525624752,0.02673310862481594
1733862653277582600,1.10058251953125,-0.031828961325949055,-0.03582739244550466,0.037672435790300364
1733862653287533600,1.110533447265625,-0.031668802328174935,-0.018403379435837267,0.03350421019494533
1733862653297485600,1.120485595703125,-0.009030269540613516,-0.03992372184842825,0.032009003201127054
1733862653307436500,1.1304365234375,0.018594810354709623,-0.024262919119000432,0.04507014482617378
1733862653317387300,1.14038720703125,0.022953014697367324,-0.03985562504827976,0.037946576556563374
1733862653327338500,1.15033837890625,0.020797882490092887,-0.046212300598621366,0.04666238245368003
1733862653337289200,1.160289306640625,-0.002284311544895172,-0.02387918049842119,0.037328736919164655
1733862653347241500,1.170241455078125,-0.0011439093381166458,-0.020358020634949205,0.04029050933420658
1733862653357192200,1.180192138671875,-0.005374094253778458,-0.027104864546656608,0.037222353935241696
1733862653367143400,1.190143310546875,-0.0054833998471498484,-0.031068799741566178,0.02574234402179718
1733862653377094100,1.20009423828125,0.014191022437810896,-0.018556816431879997,0.033869536375999446
1733862653387045400,1.21004541015625,0.03467500753998756,-0.01842676031142473,0.036030513802170754
1733862653396997400,1.219997314453125,0.030857504211599007,-0.03672229545861482,0.04177285684645176
1733862653406948400,1.2299482421875,0.02722761414349079,-0.036434710688889024,0.0411696302562952
1733862653416899300,1.2398994140625,0.02042377934753895,-0.030822423765063285,0.0377799878180027
1733862653426850300,1.249850341796875,0.04108429919355549,-0.019092823004722596,0.05084580561816692
1733862653436801500,1.259801513671875,0.07237024881714023,-0.029144553680717944,0.06021218437850475
1733862653446753300,1.269753173828125,0.07789514058530331,-0.026351708091795444,0.07563362539410591
1733862653456704300,1.279704345703125,0.12106267579370178,-0.022032091327011585,0.07866437139213085
1733862653466655200,1.2896552734375,0.1526794556736946,-0.021760288648307324,0.07243453709185123
1733862653476606500,1.2996064453125,0.14534779761135577,-0.028210779961943624,0.04029226289987564
1733862653486557200,1.30955712890625,0.1298287231738679,-0.011126666431128978,0.02362169860601425
1733862653496509400,1.319509521484375,0.09177284102393314,-0.025717209580540655,0.02450666474699974
1733862653506460400,1.32946044921875,0.06026126595092937,-0.041027006915211675,0.033354572591185565
1733862653516411400,1.339411376953125,0.040184108083974567,-0.02778144863396883,0.050126259171962735
1733862653526362400,1.3493623046875,-0.036195933496952055,-0.022660744619369507,0.047642625662684436
1733862653536313300,1.359313232421875,-0.1140886994620785,-0.02995207067131996,0.01886778207719326
1733862653546265300,1.369265380859375,-0.17778465256942436,-0.03558481586128473,0.011672317615151405
1733862653556216300,1.37921630859375,-0.21111761611700056,-0.04719020572006702,0.011009469792246818
1733862653566167300,1.389167236328125,-0.1834761604756117,-0.05029284791052341,0.01597907489836216
1733862653576118500,1.399118408203125,-0.14042846138775347,-0.025218612408638,0.026695699223875997
1733862653586069200,1.4090693359375,-0.08780744452429935,-0.031132512627542016,0.030354806253314017
1733862653596021500,1.419021484375,-0.049687849488388745,-0.02925239796936512,0.054062429577112193
1733862653605972200,1.42897216796875,-0.03659223933815956,-0.03792962542176247,0.028341128343343732
1733862653615923500,1.43892333984375,-0.03941958998488262,-0.04550093745887279,0.03377250574231148
1733862653625874200,1.448874267578125,-0.06755377931296826,-0.03229483440518379,0.04187456365525722
1733862653635825400,1.458825439453125,-0.039548769322503355,-0.037949499166011806,0.04502981281578541
1733862653645777400,1.46877734375,-0.004393851044774055,-0.022186697366833687,0.0562713377982378
1733862653655728400,1.478728271484375,0.034473365754354744,-0.025213643972575663,0.040922962018847465
1733862653665679400,1.488679443359375,0.06161620595753192,-0.02796089685410261,0.043835050073266026
1733862653675630300,1.49863037109375,0.0748369220584631,-0.024865853448212145,0.05050736744403839
1733862653685581600,1.50858154296875,0.09347323346734046,-0.018408347871899603,0.043321255332231516
1733862653695533300,1.518533203125,0.0640659371972084,-0.004257072922587394,0.062064534246921536
1733862653705484300,1.528484375,0.019418986219167707,-0.02317600066512823,0.054767947497963904
1733862653715435300,1.538435302734375,-0.04616376701546833,-0.011670564049482345,0.046589317217469214
1733862653725386500,1.548386474609375,-0.06654487626506016,-0.018862229119241236,0.03780395321547985
1733862653735337200,1.558337158203125,-0.06400805126382038,-0.03444879756867886,0.03199205206632614
1733862653745289200,1.568289306640625,-0.05760402944041416,-0.04169569995701313,0.03460895656645298
1733862653755240400,1.578240478515625,-0.01816520503209904,-0.043890871913731096,0.05553834734857082
1733862653765191400,1.58819140625,-0.01296703360080719,-0.038841187308728695,0.041247956189513206
1733862653775142400,1.598142333984375,0.006535539248585701,-0.019643150363862515,0.03829436708092689
1733862653785093400,1.60809326171875,-0.01212473755776882,-0.03592734568864107,0.017146365112066266
1733862653795045400,1.61804541015625,0.000022193565499037502,-0.0247676537707448,0.009724106156826019
1733862653804996400,1.627996337890625,-0.0031079028874635693,-0.03140489982813596,0.02864800233542919
1733862653814947300,1.637947265625,-0.010995459533203392,-0.028117256459593773,0.02395370703935623
1733862653824898300,1.647898193359375,-0.004452303233742714,-0.039111236421763895,0.06942717196941375
1733862653834849300,1.657849365234375,-0.002745490182703361,-0.026634908947348594,0.05742693757414818
1733862653844801500,1.667801513671875,0.01363222864442505,-0.018362462903559206,0.04782148936092853
1733862653854752300,1.677752197265625,0.01455167244374752,-0.044760640485584736,0.056952890321612354
1733862653864703500,1.687703369140625,-0.009942114555370063,-0.04041121310442686,0.03604688041508198
1733862653874654200,1.697654296875,-0.07069323724932036,-0.03806377319544554,0.042270869496464726
1733862653884605400,1.70760546875,-0.07293373705195262,-0.030011984165012835,0.03592471534013748
1733862653894557200,1.71755712890625,-0.045277056441968305,-0.026090719068050383,0.019866145464777947
1733862653904508400,1.72750830078125,0.024853286227583885,-0.031216099257767197,0.0365513228058815
1733862653914459400,1.73745947265625,0.1313210258245468,-0.02928980737030506,0.015258359408378601
1733862653924410400,1.747410400390625,0.17352175269424913,-0.022320552879571912,0.03122515934705734
1733862653934361300,1.757361328125,0.19194646717905997,-0.002913257098197937,0.051344987311959266
1733862653944313300,1.767313232421875,0.13391631214790978,-0.01756634408980608,0.06312661052048206
1733862653954264300,1.777264404296875,0.05663258145921863,-0.04176818067133426,0.05173486341238021
1733862653964215300,1.78721533203125,-0.001233313787775114,-0.033870705419778824,0.053850248131155964
1733862653974166300,1.797166259765625,-0.017509937727451325,-0.028211656744778154,0.03852583774924278
1733862653984117200,1.8071171875,-0.046504561543464655,-0.036622049954533574,0.039055999103188514
1733862653994069200,1.8170693359375,-0.03736088562309742,-0.038675183092057704,0.03699614396393299
1733862654004020500,1.8270205078125,-0.013946107766032218,-0.034037878680229186,0.03948211556077003
1733862654013971500,1.836971435546875,-0.001961646328633651,-0.03562047169655561,0.050830023527145385
1733862654023922400,1.84692236328125,-0.000836441690986976,-0.028939678758382794,0.06817512608170509
1733862654033873400,1.856873291015625,-0.014406108226906507,-0.01926379565745592,0.05648819541931152
1733862654043825400,1.866825439453125,-0.020502087014447896,-0.014520985044538973,0.04465221167504787
1733862654053776400,1.8767763671875,-0.03896128829075023,-0.026363398529589174,0.027289573463797567
1733862654063727400,1.886727294921875,-0.03629763117260299,-0.026842998740077017,0.019048399341106415
1733862654073678300,1.89667822265625,-0.03329962753355503,-0.02393149520754814,0.021851766324043273
1733862654083629300,1.90662939453125,-0.01303599805063568,-0.03925385976284742,0.013965981510281562
1733862654093581300,1.916581298828125,-0.02449263622164726,-0.020809856055676937,0.02124620164632797
1733862654103532300,1.9265322265625,-0.017933716097474097,-0.02105009455233812,0.047391281250119204
1733862654113483500,1.9364833984375,-0.031608012051647524,-0.030393676958978176,0.04668751689493656
1733862654123434200,1.946434326171875,-0.05509528888934292,-0.02300999644845724,0.023001520881056784
1733862654133385500,1.956385498046875,-0.10494973624944687,-0.04406798204630613,0.013053542840480804
1733862654143337200,1.966337158203125,-0.13757424100041388,-0.05653612621426582,0.01845160249173641
1733862654153288400,1.976288330078125,-0.13817279141545294,-0.05609656575322151,0.0449561630576849
1733862654163239200,1.9862392578125,-0.13317337569296359,-0.04882102179229259,0.03371405355334282
1733862654173190400,1.9961904296875,-0.07817629561424255,-0.05241875402331352,0.048830958664417265
1733862654183141400,2.006141357421875,-0.03056171786910854,-0.039840135218203065,0.07637655271589755
1733862654193093400,2.01609326171875,0.006674646325176581,-0.02272942594140768,0.05360591798126697
1733862654203044400,2.02604443359375,0.07426174338585696,-0.015130641375482081,0.06747194624841213
1733862654212995300,2.035995361328125,0.12395078931748867,-0.0032458500534296034,0.0737730922192335
1733862654222946300,2.0459462890625,0.13627660240530967,-0.005387245996296405,0.05565116007328033
1733862654232897300,2.055897216796875,0.08714636853337288,-0.012805413298308848,0.0361024099946022
1733862654242849300,2.065849365234375,0.00029927977409679443,-0.023711130455136297,0.05872574521303177
1733862654252800500,2.075800537109375,-0.05918926650497596,-0.012721242146193981,0.05122749841213226
1733862654262751200,2.085751220703125,-0.07089490643441676,-0.0270157249584794,0.03385492332875729
1733862654272702500,2.095702392578125,-0.047613404134777375,-0.03237637520879507,0.030159575942158696
1733862654282654200,2.105654296875,-0.018594228116108568,-0.03958499141335487,0.02740530879795551
1733862654292605400,2.11560546875,-0.01836977171046892,-0.03998655795156956,0.014589081844687461
1733862654302556700,2.125556640625,0.009110941552900476,-0.044409050568938256,0.014723521879315376
1733862654312507600,2.135507568359375,0.018756722918152807,-0.03197188606113195,0.030316227808594703
1733862654322458600,2.145458740234375,0.028476152899861332,-0.03462181604802608,0.025346038180589673
1733862654332409600,2.15540966796875,0.02277764899730682,-0.04055851262062788,0.024868483796715735
1733862654342361600,2.165361572265625,0.03394318613409996,-0.028234453098475932,0.01623568000793457
1733862654352312800,2.175312744140625,0.061924248993396755,-0.036327450922131535,0.03001344546973705
1733862654362263600,2.185263671875,0.069503159815073,-0.0345686245560646,0.03824117558896541
1733862654372214800,2.19521484375,0.08680617679357529,-0.030379356172680852,0.030928222227096555
1733862654382165800,2.205165771484375,0.07427285843491553,-0.025796996818482874,0.029785481932759282
1733862654392117800,2.21511767578125,0.05439560705423355,-0.02539250767081976,0.03972235405743122
1733862654402068700,2.22506884765625,0.04924713824987411,-0.03978285207301378,0.042786417803168296
1733862654412019700,2.235019775390625,0.058383215385675424,-0.020569325298070908,0.03901215996146202
1733862654421970700,2.244970703125,0.07241290978193282,-0.018646540541946886,0.04865969375073909
1733862654431922700,2.254922607421875,0.0887877059996128,-0.033412147997319695,0.037761283117532726
1733862654441873700,2.264873779296875,0.0955412719130516,-0.028398996010422704,0.04707739299535751
1733862654451824600,2.27482470703125,0.07985036630630493,-0.035334640492498876,0.06164192492067813
1733862654461776000,2.28477587890625,0.055799628633260726,-0.0473000958353281,0.05738309843242168
1733862654471726600,2.2947265625,0.030389293044805525,-0.03824000654518604,0.0619961451858282
1733862654481678800,2.304678955078125,0.003398410266637802,-0.029568039789795875,0.06364917308986187
1733862654491629600,2.314629638671875,-0.012951837173319655,-0.04031622829735279,0.020648235753178597
1733862654501580800,2.324580810546875,-0.0344902986228466,-0.036275136213004586,0.029258243188261986
1733862654511531500,2.334531494140625,-0.05931026710271835,-0.03822685480266809,0.03876432268023491
1733862654521482800,2.344482666015625,-0.05878419740200042,-0.032554362124204636,0.016990882289409637
1733862654531434800,2.354434814453125,-0.03836334066390991,-0.030283786843717096,0.03825286602675915
1733862654541385700,2.3643857421875,-0.05834697502851486,-0.03272270442843437,0.02970014173686504
1733862654551336700,2.374336669921875,-0.05283844074010849,-0.024131401693820952,0.03025134587883949
1733862654561287700,2.38428759765625,-0.03346387818455696,-0.03683832305371761,0.01745733075737953
1733862654571238700,2.39423876953125,-0.034328970581293104,-0.037571605764329434,-0.0026660043388605117
1733862654581190700,2.404190673828125,-0.015351882910728453,-0.03128653414547443,0.028077508971095084
1733862654591141600,2.4141416015625,0.022253917384147642,-0.030256022053956985,0.03502045997679233
1733862654601092600,2.424092529296875,0.0448994644343853,-0.03169014651030302,0.05053483997285366
1733862654611043600,2.434043701171875,0.012664252403593854,-0.04415098415464162,0.035168344014883036
1733862654620994600,2.44399462890625,-0.008945521858119173,-0.0402852486371994,0.04494914879500866
1733862654630946600,2.453946533203125,-0.02131517522931099,-0.039351182657480235,0.05087327814698219
1733862654640897800,2.463897705078125,-0.028500116014049854,-0.02017038910835981,0.04183013999164104
1733862654650848500,2.4738486328125,0.008840309059619904,-0.017407354135811327,0.0492693500816822
1733862654660799700,2.4837998046875,0.02637128729181131,-0.02256196042001247,0.0540232666105032
1733862654670750700,2.493750732421875,0.0285328492398723,-0.02404050853997469,0.051858197531104086
1733862654680702700,2.50370263671875,0.017039980986498993,-0.020144962406158446,0.04998422035276889
1733862654690653700,2.51365380859375,-0.0027530981004238128,-0.02354249588996172,0.041996728730201716
1733862654700604700,2.523604736328125,-0.02045943746609846,-0.018851415464282036,0.035061961030960084
1733862654710556000,2.533555908203125,-0.01669745230078697,-0.033711715465784074,0.030631869629025456
1733862654720506600,2.543506591796875,-0.0011000724796787836,-0.024914661026000977,0.02956862431168556
1733862654730458600,2.553458740234375,0.029666821705864276,-0.035108722782135005,0.04227905280292034
1733862654740409600,2.56340966796875,0.10141104072928428,-0.01692804618626833,0.05877893670499324
1733862654750360800,2.57336083984375,0.17054595175385473,-0.02616232299953699,0.06247194600403309
1733862654760311600,2.5833115234375,0.16676760225892065,-0.04101473195552826,0.0716688134163618
1733862654770262800,2.5932626953125,0.09436521387100219,-0.04116816895157099,0.0491606290102005
1733862654780214800,2.60321484375,-0.03343348532958189,-0.05018178875148296,0.04309796797037124
1733862654790165800,2.613165771484375,-0.1492237622618675,-0.04446458014845848,0.039386253970861436
1733862654800116700,2.62311669921875,-0.22308044111132622,-0.04841039516478777,0.034732875207066534
1733862654810067700,2.633067626953125,-0.21539514730572698,-0.052632396773993964,0.031657705545425414
1733862654820018700,2.643018798828125,-0.18045593587160108,-0.04927987147569656,0.035438393127918244
1733862654829970700,2.652970703125,-0.10413725082278251,-0.03279021670669317,0.04841711716651916
1733862654839921700,2.662921630859375,-0.07280337040424346,-0.023156711442768572,0.03283551715314388
1733862654849872600,2.67287255859375,-0.10167758271098136,-0.017302432456612588,0.034898294901847836
1733862654859823600,2.68282373046875,-0.11615502087473868,-0.022625381045043465,0.018358663511276244
1733862654869774600,2.692774658203125,-0.10928922675848006,-0.030636253543198107,0.012308861953020096
1733862654879726600,2.7027265625,-0.04173603653397877,-0.014912322449684143,0.007730886512994766
1733862654889677800,2.712677734375,0.039804771643877024,-0.03162906397283077,0.0068944356888532635
1733862654899628500,2.722628662109375,0.08076689662933349,-0.010867138712108135,0.016186580169200895
1733862654909579800,2.732579833984375,0.1045031615257263,-0.0234910579636693,0.038486674782633776
1733862654919530800,2.74253076171875,0.10510170280761084,-0.02732698286473751,0.0494698410898447
1733862654929482800,2.752482666015625,0.12276129640513099,-0.003710544955730438,0.0591425093203783
1733862654939433500,2.76243359375,0.10601591330938973,-0.026658874344825743,0.07471300341784953
1733862654949384700,2.772384765625,0.10333762487769126,-0.04124561810195446,0.0709632954955101
1733862654959335700,2.782335693359375,0.1346761814713478,-0.047404725253582,0.060575756993889805
1733862654969286700,2.79228662109375,0.13206804479956627,-0.03539776885658502,0.07295534609556198
1733862654979238700,2.80223876953125,0.10074585481882095,-0.026831600563228128,0.036543139499425885
1733862654989189600,2.812189697265625,0.06771919900774956,-0.0274450562864542,0.042595279145240784
1733862654999140900,2.822140869140625,0.03322540238671936,-0.051449032208323475,0.033059973558783526
1733862655009091600,2.832091552734375,0.016474164938926696,-0.03964636621177196,0.037465515041351316
1733862655019043600,2.842043701171875,0.008387889117002487,-0.04586392555236816,0.04572890099585056
1733862655028994800,2.851994873046875,0.042803368937969204,-0.03561374969482422,0.025032149925827977
1733862655038945800,2.86194580078125,0.04880640874505043,-0.02714607333987951,0.010769231295585631
1733862655048896800,2.871896728515625,0.030395138263702392,-0.03159574622511863,0.007615735700726508
1733862655058847700,2.88184765625,-0.01328969881706871,-0.027849253173172474,0.018507132071256635
1733862655068799700,2.8917998046875,-0.06462708734446204,-0.02053600755035877,0.02917348751425743
1733862655078750700,2.901750732421875,-0.11319148576087318,-0.017147241894900796,0.051803252473473546
1733862655088701700,2.91170166015625,-0.10542202993631362,-0.017059855872392653,0.048099721780419345
1733862655098652700,2.921652587890625,-0.057250421096617356,-0.026917233020067214,0.046539048334956166
1733862655108603600,2.931603759765625,-0.0028606592612806705,-0.03672434128522873,0.041266076368093485
1733862655118556000,2.941555908203125,0.002214168918132782,-0.02231383087784052,0.013532850790023802
1733862655128506600,2.951506591796875,-0.032898060995340345,-0.04301701168864965,0.02135901437103748
1733862655138457900,2.961457763671875,-0.04455576556324958,-0.0475701449483633,0.023797055172920224
1733862655148408600,2.97140869140625,-0.028766669412190093,-0.05431786564290523,0.055146133160591124
1733862655158359800,2.98135986328125,0.012755436676740646,-0.033415655128657816,0.07570844419598578
1733862655168311600,2.9913115234375,0.04481996945738792,-0.03363455857634544,0.0854196908712387
1733862655178262800,3.0012626953125,0.03505844476646743,-0.033358371983468534,0.07076631161868571
1733862655188213500,3.011213623046875,0.023281497733062134,-0.03377922774404287,0.0379541753411293
1733862655198164700,3.021164794921875,0.023211355106299743,-0.02201952410638332,0.040189387047290796
1733862655208115500,3.031115478515625,0.039372234578663484,-0.019534137031435965,0.02685585822165012
1733862655218067700,3.041067626953125,0.0743453482823912,-0.021484394316375253,0.008667290580272675
1733862655228018700,3.051018798828125,0.06169044937067665,-0.04258008157610893,0.03521276767849922
1733862655237969700,3.0609697265625,0.08667876015477813,-0.02925707414448261,0.05157762702405452
1733862655247920600,3.070920654296875,0.0701613314628601,-0.035353345192968844,0.05224398197829723
1733862655257871600,3.08087158203125,0.02764088025265373,-0.025936405289173126,0.052368485140800475
1733862655267823600,3.09082373046875,-0.013359832310676573,-0.02437017888575792,0.040483986079692835
1733862655277774600,3.100774658203125,-0.0372515708965715,-0.040270343329012394,0.005502104547619819
1733862655287725600,3.1107255859375,-0.04931260470151901,-0.027319676341116428,0.023779519516229627
1733862655297676800,3.1206767578125,-0.06685059947967528,-0.03810059807449579,0.037756606942415234
1733862655307628300,3.130628173828125,-0.08667523475713096,-0.035927930210530756,0.04819616789221763
1733862655317580500,3.14058056640625,-0.06439326945543289,-0.04164046263843774,0.06704758335649967
1733862655327531500,3.150531494140625,-0.04499299706988968,-0.04733487488776445,0.04311842623651027
1733862655337482500,3.160482421875,-0.07151860042386687,-0.05365034164488315,0.03235211755037307
1733862655347433500,3.17043359375,-0.06628829855495132,-0.039032910488545895,0.03900748378634453
1733862655357384400,3.180384521484375,-0.010502698447043076,-0.02474544193893671,0.024698387926816938
1733862655367336400,3.19033642578125,0.013306056296825408,-0.03453647585213184,0.025274141988158225
1733862655377287400,3.200287353515625,0.033925650477409364,-0.03240092512816191,0.026951135289669036
1733862655387238400,3.21023828125,0.062437459212541575,-0.011080781462788581,0.03597439970076084
1733862655397189400,3.220189453125,0.05403203443884849,-0.005582476307451725,0.04681143553555012
1733862655407140600,3.230140625,0.03468201266950927,-0.03207826904505491,0.052422261154651636
1733862655417092600,3.240092529296875,0.008414767990773543,-0.022432488821446894,0.05448562342524528
1733862655427043300,3.250043212890625,0.009671490053599699,-0.019369886380434034,0.07683481787741184
1733862655436994600,3.25999462890625,0.009941548299789427,-0.021612112349271774,0.08247545411288738
1733862655446945500,3.269945556640625,0.029324312428105622,-0.03378244261443615,0.059058922690153115
1733862655456897500,3.2798974609375,-0.007575385424029081,-0.02795534389615059,0.04075403519272804
1733862655466848300,3.28984814453125,-0.04101354464543983,-0.029934242753684517,0.03097206136882305
1733862655476799500,3.299799560546875,-0.055500353425741195,-0.03871142344921827,0.044207975038886065
1733862655486750500,3.30975048828125,-0.05262801285982131,-0.03706599432975054,0.040894904968142506
1733862655496701400,3.319701416015625,-0.01866028593950905,-0.02154430781006813,0.04549567676186561
1733862655506653400,3.3296533203125,0.005654664760828018,-0.04101648552119732,0.03170037564337253
1733862655516604400,3.3396044921875,0.0061117517454084,-0.029432430711388586,0.024601357293128966
1733862655526555600,3.3495556640625,0.00011922419918701052,-0.03631692952811718,0.029140169766545293
1733862655536506400,3.35950634765625,-0.0034416466201655565,-0.029924305881559848,0.015253098711371421
1733862655546457600,3.36945751953125,-0.0023147158163134007,-0.04625964687168598,0.02666296599805355
1733862655556409300,3.379409423828125,0.0006289181538391858,-0.04560527461618185,0.05135141705274582
1733862655566360600,3.389360595703125,0.03745732260174118,-0.03693418464362621,0.030594460228085516
1733862655576311600,3.3993115234375,0.07254502999531105,-0.020353636720776558,0.05441255818903446
1733862655586262500,3.409262451171875,0.0889466776872985,-0.024480069001019,0.044294484278559684
1733862655596213500,3.419213623046875,0.09174772484898566,-0.0003603577449917793,0.007047580423951149
1733862655606165500,3.42916552734375,0.07036476334678009,-0.0199117381721735,0.0182820911437273
1733862655616116500,3.439116455078125,0.008564414727687835,-0.016424480578303337,0.017989245676994323
1733862655626067500,3.4490673828125,0.00921557211279869,-0.022012802104651927,0.03224105839133262
1733862655636018400,3.459018310546875,0.03123918787240982,-0.016879530869424342,0.04870704002380371
1733862655645969400,3.468969482421875,0.06491698280228302,-0.017055764219164847,0.053985272687673565
1733862655655921400,3.47892138671875,0.05324643701910972,-0.02418956162184477,0.05914777001738548
1733862655665872600,3.48887255859375,0.01764905393719673,-0.021945289826393127,0.03742927468419075
1733862655675823400,3.4988232421875,-0.022127678922284393,-0.018496318416297435,0.04026186776161193
1733862655685774600,3.508774658203125,-0.06072716642962768,-0.045884676079452034,0.031794483667612075
1733862655695725600,3.5187255859375,-0.06843580457819626,-0.02853343604505062,0.025430209332704543
1733862655705677600,3.528677490234375,-0.050603238167101515,-0.03466127127557993,0.02767301982343197
1733862655715628300,3.538628173828125,-0.01758359661870636,-0.040026889961957926,0.04444470640420913
1733862655725579500,3.54857958984375,-0.02837619965672493,-0.04420154529809951,0.05703063173294067
1733862655735530500,3.558530517578125,-0.022283143478631973,-0.04349368928968906,0.03966565543413162
1733862655745481500,3.5684814453125,-0.021274240430723873,-0.03112052992880344,0.04774257890582084
1733862655755433500,3.57843359375,-0.013650905945431441,-0.03406681251376867,0.03753273505866527
1733862655765384400,3.588384521484375,-0.004547580301761627,-0.03664075465500354,0.02009995422065258
1733862655775335400,3.59833544921875,0.02016132901906967,-0.0512736756414175,0.04414718476235866
1733862655785286400,3.608286376953125,0.07441897977418266,-0.028235329881310462,0.04063187011778355
1733862655795237600,3.618237548828125,0.12941431542038917,-0.04543371744155884,0.04279577015340328
1733862655805189400,3.628189453125,0.16755553776621818,-0.027461715160310266,0.05437105713486671
1733862655815140600,3.638140625,0.16062192084444685,-0.02976473140567541,0.059386839470267294
1733862655825091300,3.64809130859375,0.12147301929341628,-0.011227788718044758,0.05244213489890098
1733862655835042600,3.65804248046875,0.06699086646689102,-0.012053133626282214,0.0609551117002964
1733862655844994600,3.66799462890625,-0.017632705590594558,-0.026238310845196247,0.05829436805844307
1733862655854945500,3.677945556640625,-0.11545008747577666,-0.028521161085367203,0.03564297578930854
1733862655864896500,3.687896484375,-0.14258125550746917,-0.016169629034399984,0.03618775019049644
1733862655874847500,3.697847412109375,-0.14822771869553253,-0.029242168836295605,0.031522096467018125
1733862655884798500,3.707798583984375,-0.1151753713207785,-0.03282850289046764,0.031606267619132995
1733862655894750700,3.717750732421875,-0.06680266868472098,-0.03520896828621626,0.046750060737133024
1733862655904701400,3.727701416015625,-0.029146599507331845,-0.0478664975464344,0.020689152285456657
1733862655914652700,3.737652587890625,-0.011228665500879286,-0.015619009414315222,0.021869886502623555
1733862655924603400,3.747603271484375,0.005018704944849014,-0.027992753297090528,0.020788521006703375
1733862655934554600,3.7575546875,0.048424131429195404,-0.028747371056675908,0.020044424641132354
1733862655944506400,3.76750634765625,0.12397592375874518,-0.030138240893185137,0.038705285969376564
1733862655954457600,3.77745751953125,0.17234043395519255,-0.028284721980988976,0.03397299675047397
1733862655964408300,3.787408203125,0.1319265905022621,-0.026256723284721374,0.04592880748212337
1733862655974359600,3.797359619140625,0.08862986682308838,-0.018250526961684225,0.04874620299041271
1733862655984310300,3.807310302734375,0.041995559686422344,-0.027116847245395183,0.045450668576359744
1733862655994262500,3.817262451171875,0.0015045410777442157,-0.028722236615419387,0.04316869511902332
1733862656004213500,3.827213623046875,-0.022327567142248154,-0.02719926483184099,0.04425824392139911
1733862656014164500,3.83716455078125,-0.0035749267441686243,-0.028511808735132215,0.031657705545425414
1733862656024115500,3.847115478515625,0.01269113926887512,-0.02104834098666906,0.0241162041246891
1733862656034066400,3.85706640625,-0.01713702189498581,-0.036166707402467725,0.012394786670804023
1733862656044018400,3.867018310546875,-0.046769943614536895,-0.027876141180098055,0.019183423897624015
1733862656053969400,3.876969482421875,-0.08352350186109542,-0.03507365146875381,0.010523732101917265
1733862656063920400,3.88692041015625,-0.12272036160654387,-0.05673574043959379,0.018515899899601937
1733862656073871400,3.896871337890625,-0.12259879018664359,-0.04489186564981937,0.0467161584675312
1733862656083822600,3.906822509765625,-0.10966332076787948,-0.022563421724736688,0.07702887914478779
1733862656093774600,3.916774658203125,-0.06239069746136665,-0.029721769046783447,0.07068389403223992
1733862656103725300,3.926725341796875,-0.04009820163249969,-0.02587561501264572,0.05032090496122837
1733862656113676500,3.936676513671875,-0.05645780028104782,-0.01425795019418001,0.01357961254119873
1733862656123627500,3.94662744140625,-0.11036474703550338,-0.035385493896901606,0.03199497467577457
1733862656133578500,3.95657861328125,-0.13845452183312737,-0.049526247452199454,0.018828034588694573
1733862656143530500,3.966530517578125,-0.15224223330020903,-0.044103637881577014,0.03199263658821583
1733862656153481500,3.9764814453125,-0.14105564424223266,-0.05049041630923748,0.06201777249574661
1733862656163432400,3.986432373046875,-0.11944118467224761,-0.041430034758150575,0.051984454259276384
1733862656173383400,3.996383544921875,-0.061271922564506524,-0.02656798119097948,0.04344634301662445
1733862656183334700,4.006334716796875,0.032450308094685895,-0.04107727579772472,0.03219371211826801
1733862656193286400,4.016286376953125,0.09966215123534201,-0.026556875275075435,0.03649111705124378
1733862656203237600,4.026237548828125,0.1327180514072068,-0.02870587000250816,0.017990999242663383
1733862656213188400,4.036188232421875,0.11252280185222625,-0.032901568126678465,0.02553308518528938
1733862656223139600,4.0461396484375,0.08385432298434897,-0.018348142117261886,0.022823826226592063
1733862656233091600,4.056091552734375,0.07339724464416504,-0.031082536005973813,0.02045417448580265
1733862656243042600,4.06604248046875,0.06754148608697579,-0.032062194693088526,0.02507131289243698
1733862656252993500,4.07599365234375,0.0750584193220362,-0.019822598583996296,0.05065642052590847
1733862656262944500,4.085944580078125,0.12158756731748581,-0.009397358420491218,0.06357493880987167
1733862656272895500,4.0958955078125,0.18931379885422064,-0.020244915649294853,0.06126549282371997
1733862656282847500,4.105847412109375,0.20983283700346944,-0.029767069493234155,0.06482990730702877
1733862656292798500,4.115798583984375,0.15764436633838338,-0.024203590147197244,0.07322539520859718
1733862656302749400,4.12574951171875,0.11999997846563346,-0.019951485660672185,0.06756137809753418
1733862656312703000,4.135702880859375,0.07177461187839508,-0.010321195267140865,0.0617436317294836
1733862656322654000,4.145654052734375,0.001599251890182495,-0.019113281270861624,0.05083996039927006
1733862656332606000,4.15560595703125,-0.07527471068752929,-0.0293839153945446,0.028289690417051313
1733862656342557000,4.165556884765625,-0.11259175716890021,-0.03186521081626415,0.03845043442547321
1733862656352508000,4.1755078125,-0.1126513966679573,-0.039300621514022346,0.033059389036893844
1733862656362459000,4.185458984375,-0.08058920197486877,-0.046914311388134955,0.04861760817468166
1733862656372409900,4.195409912109375,-0.02527472651004791,-0.04185001373589039,0.04919920745491981
1733862656382361900,4.20536181640625,0.002584774062503129,-0.0316299407556653,0.06074819095134735
1733862656392313000,4.21531298828125,0.009909984117746353,-0.04362725254148245,0.04068389256596565
1733862656402263800,4.225263916015625,0.002951853809226304,-0.031060324174165724,0.029611294409632682
1733862656412215000,4.235215087890625,0.016650690549612043,-0.02040887403935194,0.037706338059902186
1733862656422165800,4.245165771484375,0.018908114087581633,-0.01355564714372158,0.04158054914474487
1733862656432118000,4.255117919921875,0.06618307548165321,-0.023323884703218934,0.047620998352766036
1733862656442069000,4.265069091796875,0.08660509213036857,-0.040976445771753786,0.045298692885041236
1733862656452020000,4.27502001953125,0.09157587541341781,-0.029114158542454242,0.041788638937473296
1733862656461971000,4.284970947265625,0.07023147408962249,-0.02030132201164961,0.02866144633889198
1733862656471922000,4.294921875,0.06461772586107253,-0.018728958128392696,0.0320417364269495
1733862656481874000,4.3048740234375,0.056665880940621714,-0.008439619304239749,0.04351999277472496
1733862656491825000,4.314824951171875,0.03402501919865608,-0.020822131015360353,0.03744564129710197
1733862656501776000,4.32477587890625,0.04646715214252472,-0.021358429849147795,0.046645431318879126
1733862656511726800,4.334726806640625,0.04462708636694587,-0.022066870379447937,0.05343991376459598
1733862656521678000,4.344677978515625,0.006176058286428451,-0.015207506003975867,0.05834288337528705
1733862656531630000,4.354630126953125,-0.01341127937012352,-0.011060907718539237,0.053366264006495474
1733862656541580800,4.364580810546875,-0.029717083738511427,-0.030506489683687684,0.06114625035822391
1733862656551532000,4.374531982421875,0.025239655196666717,-0.04282879564017057,0.06604980449080466
1733862656561483000,4.38448291015625,0.08833763327770866,-0.039651334647834297,0.06545943738222122
1733862656571435000,4.39443505859375,0.1387561533945147,-0.036601299427449704,0.04990063372254371
1733862656581385700,4.4043857421875,0.13780922793322242,-0.04115355590432882,0.0398801749676466
1733862656591337000,4.4143369140625,0.11335983719825744,-0.03844692729413509,0.025253099200129508
1733862656601288000,4.424287841796875,0.0296726783412043,-0.030252514922618864,0.021225158858299255
1733862656611239000,4.434239013671875,-0.06039396155304275,-0.029922260054945943,0.021797990310192108
1733862656621191000,4.44419091796875,-0.11403320641517639,-0.03345832522660493,0.010195230799913406
1733862656631142000,4.454141845703125,-0.15689619658589363,-0.0473196773186326,0.02374678629040718
1733862656641093000,4.464093017578125,-0.20332477028369902,-0.03313479236066341,0.027390695750713345
1733862656651043800,4.4740439453125,-0.22303134127259253,-0.03210398800820112,0.007332827106118202
1733862656660995000,4.4839951171875,-0.2269885544657707,-0.036541385933756824,0.002207154655456543
1733862656670946800,4.49394677734375,-0.19421791924238205,-0.05059270763993263,0.0106049806445837
1733862656680898000,4.50389794921875,-0.14348142835074104,-0.036678748577833174,0.015407412490248679
1733862656690848800,4.513848876953125,-0.03993102837204933,-0.038732466237246986,0.024424831682443617
1733862656700800000,4.523800048828125,0.04175357675724663,-0.02965805616080761,0.04678805465996265
1733862656710750700,4.533750732421875,0.060992511968081815,-0.036703883019089695,0.06393208168447018
1733862656720703000,4.543702880859375,0.06891278357333504,-0.036676118229329584,0.06433481726646423
1733862656730654000,4.553654052734375,0.0824327657486312,-0.02536971131712198,0.05877776766121387
1733862656740605000,4.56360498046875,0.07223053895235061,-0.03648088791817426,0.0629594372600317
1733862656750556000,4.573555908203125,0.059254153001308436,-0.03314940540790558,0.04443418501019478
1733862656760507000,4.5835068359375,0.04582416893071495,-0.011318681871891022,0.03260989170372486
1733862656770459000,4.593458984375,0.013896423405408859,-0.02586947753280401,0.03034896103441715
1733862656780410000,4.60341015625,-0.002631508414214477,-0.03038344782590866,0.03423193994760513
1733862656790360800,4.61336083984375,0.0032370822250843046,-0.035462650786340234,0.05758534300625324
1733862656800312000,4.62331201171875,0.03146599149876274,-0.02659019302278757,0.052229953452944754
1733862656810263800,4.633263916015625,0.0782078506631311,-0.022722703939676285,0.05260054033100605
1733862656820215000,4.643215087890625,0.07509352716803551,-0.015175941821932791,0.0412567240178585
1733862656830165800,4.653165771484375,0.058419455742835996,-0.02156914999037981,0.03647825756967067
1733862656840117000,4.663116943359375,0.03599952500886284,-0.04306786509305238,0.0240682733297348
1733862656850068000,4.67306787109375,0.02235562419295311,-0.026573241887986657,0.027514029869437216
1733862656860020000,4.68302001953125,-0.02033669471913017,-0.031299393627047534,0.04301613490581512
1733862656869971000,4.692970947265625,-0.039479786606365815,-0.032845746286213395,0.048069326642155644
1733862656879922000,4.702921875,-0.044553418342536316,-0.031799744364619256,0.04612053066194057
1733862656889873200,4.712873046875,-0.042064524136250836,-0.02320639580339193,0.034034371548891065
1733862656899823900,4.722823974609375,-0.041191257566213606,-0.026367782443761825,0.044730537608265876
1733862656909776000,4.73277587890625,-0.0570107488555368,-0.040169221042096616,0.038732758498191834
1733862656919726800,4.742726806640625,-0.047495919801527633,-0.025690321573615074,0.026001287218928335
1733862656929678000,4.752677978515625,-0.04178630998306907,-0.038293782559037204,0.031082536005973813
1733862656939628800,4.76262890625,-0.020702596288919448,-0.028724574702978133,0.03483282845020294
1733862656949580000,4.772580078125,-0.018306065674358978,-0.0242296013712883,0.04233107525110245
1733862656959532000,4.782531982421875,-0.025339033051067963,-0.02883972551524639,0.035032150414586065
1733862656969483000,4.79248291015625,-0.01478255859017372,-0.03758388072401285,0.03037760260701179
1733862656979434000,4.80243408203125,-0.002390703661972657,-0.03158113317787647,0.03137362790703773
1733862656989385000,4.812385009765625,-0.024835156915849074,-0.024525077186524868,0.030726562175154685
1733862656999336000,4.8223359375,-0.04083354843603447,-0.027653146079182622,0.033814006796479223
1733862657009288000,4.832287841796875,-0.028276830935478208,-0.024370471146702766,0.03382335914671421
1733862657019239000,4.842239013671875,0.016615628369385377,-0.018932956267893312,0.039331308913230896
1733862657029190000,4.85218994140625,0.018737424562638626,-0.020968261487782,0.050530163797736165
1733862657039140900,4.862140869140625,0.0365513228058815,-0.02437017888575792,0.033435236611962314
1733862657049092000,4.872092041015625,0.033657939451932906,-0.021902911989390848,0.03326572526395321
1733862657059043800,4.8820439453125,0.030064298874139785,-0.025592998678982258,0.06001929215490818
1733862657068995000,4.8919951171875,0.041933609499270094,-0.03579991991668939,0.04371054691076279
1733862657078945800,4.90194580078125,0.03590717968344688,-0.02512830377668142,0.012095511463284492
1733862657088897000,4.91189697265625,0.03580313478708267,-0.026478841602802276,0.028332360514998434
1733862657098848800,4.921848876953125,0.02843231375813484,-0.023874504323303698,0.04370294812619686
1733862657108800000,4.931800048828125,0.028594801710313183,-0.028348434866964815,0.046555999469757074
1733862657118751000,4.9417509765625,0.016976844630902634,-0.02454115153849125,0.05332943912744522
1733862657128702000,4.951701904296875,0.0037339258313179016,-0.041480595901608464,0.05175356811285019
1733862657138653000,4.96165283203125,0.0192798700094223,-0.05582067142128944,0.037706922581791875
1733862657148605000,4.97160498046875,0.029650457376241682,-0.017515198424458502,0.0495353075414896
1733862657158556000,4.981555908203125,0.00917698453492485,-0.020026012201607227,0.04552490285634994
1733862657168507000,4.9915068359375,-0.03239537217020988,-0.030605858404934405,0.0066606269329786295
1733862657178457900,5.001457763671875,-0.06475218416200951,-0.035737960596382616,0.039867315486073494
1733862657188408800,5.011408935546875,-0.06679332546764052,-0.025474632996320724,0.04778232639431953
1733862657198360800,5.02136083984375,-0.027910929365688935,-0.037549686193466186,0.03353285176753998
1733862657208312000,5.03131201171875,-0.023157606491912154,-0.04648702588677406,0.05534837773442268
1733862657218262800,5.0412626953125,-0.009827000275719911,-0.02368015079498291,0.05249123473763465
1733862657228214000,5.051214111328125,0.005970288314949721,-0.03242956670075655,0.05278817185759544
1733862657238165000,5.0611650390625,0.026884527193708343,-0.034113574264943596,0.04187456365525722
1733862657248117000,5.071116943359375,0.022546196595299987,-0.03234305746108293,0.027964111724495887
1733862657258068000,5.08106787109375,0.007429273217916488,-0.023335575141012668,0.020881459987163543
1733862657268019000,5.09101904296875,0.00412087932229042,-0.035655543009936806,0.03583177635967731
1733862657277970000,5.100969970703125,0.004229591260617598,-0.04606207847297191,0.039542905837297436
1733862657287921000,5.1109208984375,-0.000350722266966477,-0.02927899371534586,0.04091828584372997
1733862657297873000,5.120872802734375,-0.024811785173416135,-0.028008535388112068,0.047183191457390784
1733862657307820800,5.13082080078125,-0.025287585991621016,-0.029556933873891827,0.04987666832506656
1733862657317771800,5.140771728515625,-0.0036941783428192138,-0.02840659479498863,0.046592239826917646
1733862657327722800,5.15072265625,0.014310283169616012,-0.02100099471360445,0.040299861684441565
1733862657337674500,5.160674560546875,0.005906009173393249,-0.020692659416794774,0.03815817348062992
1733862657347625700,5.170625732421875,0.023467375693982467,-0.011932722117006777,0.03844634277224541
1733862657357576700,5.18057666015625,0.016347908210754394,-0.023436697427928446,0.04356909261345863
1733862657367527700,5.190527587890625,0.017218845826387403,-0.028904022923111915,0.04893266547322273
1733862657377478700,5.200478759765625,0.031052131734555587,-0.03800649005025625,0.04827800095677375
1733862657387430700,5.2104306640625,0.037879347406094895,-0.02442600072622299,0.04512450536191463
1733862657397382000,5.2203818359375,0.042771786489617075,-0.015055238051712511,0.03283201002180576
1733862657407332600,5.23033251953125,0.01932665002690628,-0.025104046118259428,0.0443459222048521
1733862657417283800,5.240283935546875,-0.005178845676314085,-0.02855740144252777,0.04195055150091648
1733862657427234600,5.250234619140625,-0.01293194402111694,-0.03280979818999767,0.03788578628003597
1733862657437186800,5.260186767578125,-0.012418752068281172,-0.03444382913261652,0.03506371459662914
1733862657447137500,5.270137451171875,-0.016769933015108106,-0.044618893927335736,0.027298341292142866
1733862657457088800,5.2800888671875,-0.018162282422650604,-0.03463993622660637,0.042560207831859584
1733862657467039500,5.29003955078125,0.010480477482080459,-0.03377338252514601,0.03643967912495136
1733862657476990700,5.29999072265625,0.03418284010887146,-0.013307809862494469,0.03704758189022541
1733862657486942700,5.309942626953125,0.026516251003742216,-0.029322248335182665,0.025157822132110593
1733862657496893700,5.319893798828125,0.024568605800997463,-0.030875907517969606,0.04113748155236244
1733862657506844700,5.3298447265625,0.042298342025279996,-0.03930442090630531,0.04005962318778038
1733862657516795600,5.339795654296875,0.04543253013147041,-0.033332360759377476,0.051266076856851577
1733862657526746600,5.34974658203125,0.04937922193063423,-0.04226765462607145,0.05732873789668083
1733862657536698600,5.35969873046875,0.04300329369055107,-0.035870062543451785,0.0489122072070837
1733862657546649600,5.369649658203125,0.05884617498861625,-0.02936462617218494,0.05012918178141117
1733862657556600600,5.3796005859375,0.03275076147913933,-0.03189356012791395,0.04015840738713741
1733862657566551800,5.3895517578125,0.018014955506986004,-0.0299698985889554,0.03174421478509903
1733862657576503800,5.39950390625,-0.015136797121632843,-0.031361060686409474,0.026463059511780736
1733862657586454500,5.40945458984375,-0.030487501855427396,-0.025939912420511243,0.03461538630723953
1733862657596405800,5.41940576171875,-0.03725158916288055,-0.0296910816475749,0.03990238679945469
1733862657606356700,5.429356689453125,-0.03018821751475334,-0.028717560440301892,0.043293198281526564
1733862657616307700,5.4393076171875,0.009501987838745117,-0.02905278374403715,0.040865678873658176
1733862657626259700,5.449259765625,0.011093038156162947,-0.034781975045800204,0.04411912771165371
1733862657636210700,5.459210693359375,0.02637127130879089,-0.028191198478639126,0.043054713350534436
1733862657646162000,5.469161865234375,0.01663432393670082,-0.02092559138983488,0.04044949928820133
1733862657656112600,5.479112548828125,0.0043242838067468255,-0.03868365865945816,0.02877250549793243
1733862657666064000,5.48906396484375,-0.007470171483885496,-0.04372369865328073,0.017691139513254163
1733862657676015600,5.499015625,-0.01816226415634155,-0.020388415773212907,0.044587914267182345
1733862657685966800,5.508966796875,-0.007313537883758545,-0.02162584861367941,0.042293081328272815
1733862657695917600,5.51891748046875,-0.016347908210754394,-0.017546470345556734,0.047532151025533674
1733862657705868800,5.528868896484375,-0.0235281751036644,-0.03922083427608013,0.03420972811579704
1733862657715819500,5.538819580078125,-0.021805013706022874,-0.03931523456126451,0.04336041829884052
1733862657725771800,5.548771728515625,-0.034030864417552945,-0.02014087075293064,0.0435182392090559
1733862657735722800,5.55872265625,-0.011801506085926667,-0.04097849159836769,0.03863981951773166
1733862657745673700,5.568673828125,0.02155247285021469,-0.035035073024034497,0.03001519903540611
1733862657755624700,5.578624755859375,0.04096797020435333,-0.0387710446819663,0.042212417307496065
1733862657765575700,5.58857568359375,0.049687867754697794,-0.04087035504877567,0.04093289889097213
1733862657775527700,5.598527587890625,0.03394551508850418,-0.03909019363373518,0.05176408950686454
1733862657785478700,5.608478759765625,-0.0008323591709136962,-0.04232084611803293,0.05455635057389736
1733862657795429600,5.6184296875,-0.021114099699258804,-0.024038462713360784,0.03578559913039207
1733862657805380600,5.628380615234375,-0.057684127205610274,-0.02105973916351795,0.04663081827163696
1733862657815332600,5.63833251953125,-0.05156068502240814,-0.020887889727950096,0.046581718432903284
1733862657825283800,5.648283935546875,-0.030339024162292477,-0.032552608558535576,0.03860124107301235
1733862657835234600,5.658234619140625,-0.039077608146797865,-0.014774667544662952,0.04182897094786167
1733862657845185800,5.668185791015625,-0.060230304557085036,-0.03553133210837841,0.03723930507004261
1733862657855136500,5.678136474609375,-0.061557178379828104,-0.03416092053800821,0.04117781356275081
1733862657865088800,5.6880888671875,-0.028956054504448547,-0.020333178454637526,0.03451601758599281
1733862657875039500,5.69803955078125,-0.03778934930139221,-0.03650777592509985,0.04218143764734268
1733862657884990700,5.70799072265625,-0.029816479859221725,-0.035523733323812486,0.0387514631986618
1733862657894941700,5.717941650390625,-0.01218609408987686,-0.01935965724736452,0.03954992009997368
1733862657904892700,5.727892578125,0.01288987671136856,-0.023067864115536213,0.03145253836214542
1733862657914844700,5.7378447265625,0.008724573725461959,-0.04183247807919979,0.050018707144260405
1733862657924795600,5.747795654296875,0.03568739945292473,-0.03533639405816793,0.04252513651847839
1733862657934746600,5.75774658203125,0.0432721737598069,-0.03093845136016607,0.04445405875444412
1733862657944697600,5.767697509765625,0.03930211935136467,-0.04201397212594747,0.06085983463227748
1733862657954648800,5.77764892578125,0.034062428599596024,-0.03178308549076318,0.041380058136582375
1733862657964600800,5.787600830078125,0.023069909942150114,-0.03132335902452469,0.045748190218210215
1733862657974551600,5.797551513671875,0.03488075924515724,-0.02560848850905895,0.037404140242934224
1733862657984502800,5.807502685546875,0.04741173951625824,-0.044103345620632166,0.040890228793025014
1733862657994453800,5.817453857421875,0.047672436279058455,-0.032759821568429465,0.03593991290926933
1733862658004404700,5.82740478515625,0.019631733920704574,-0.021455168221890926,0.027823826470971105
1733862658014356700,5.837356689453125,-0.003525836038589477,-0.023358663755655287,0.029198037433624265
1733862658024307700,5.8473076171875,-0.031129316023457792,-0.012920564110577105,0.03442775478065014
1733862658034258700,5.8572587890625,-0.04837389907930046,-0.022532734325528145,0.03727496090531349
1733862658044209700,5.867209716796875,-0.0384439864183776,-0.018308979150652886,0.05011164612472057
1733862658054161700,5.87716162109375,-0.020479308927059174,-0.019685820461809635,0.029928689795732495
1733862658064112600,5.887112548828125,-0.009523048893082886,-0.016069383530318736,0.02570142748951912
1733862658074064000,5.89706396484375,-0.00530862780213356,-0.02371668341308832,0.036194179931282995
1733862658084014600,5.9070146484375,0.008667290580272675,-0.02345306404083967,0.02721592370569706
1733862658093965800,5.9169658203125,0.004770867663621902,-0.028764614452421663,0.02727203780710697
1733862658103917600,5.92691748046875,0.008736282429564743,-0.025286709208786486,0.02266717436015606
1733862658113868800,5.936868896484375,0.004767360532283783,-0.02608516611009836,0.04479951119124889
1733862658123819500,5.946819580078125,0.003397241222858429,-0.045646775670349596,0.05343114593625068
1733862658133770800,5.956770751953125,0.0164870244204998,-0.026630525033175943,0.042380759611725806
1733862658143721500,5.966721435546875,0.027810400733817367,-0.030636838065087792,0.05349310525655746
1733862658153673700,5.976673828125,0.010004658397566526,-0.02687427066117525,0.03301613441705704
1733862658163624700,5.986624755859375,0.02737781800283119,-0.024449673862755296,0.03154197021126747
1733862658173575700,5.99657568359375,0.031083686783444135,-0.030412381659448144,0.041129298245906824
1733862658183526700,6.006526611328125,0.05261279702438041,-0.04252192164808512,0.037385435542464256
1733862658193477600,6.0164775390625,0.03599016352547332,-0.04258621905595064,0.04639233334064483
1733862658203429600,6.0264296875,0.02049799536122009,-0.03315963454097509,0.03185468942224979
1733862658213380600,6.036380615234375,0.025563480323553083,-0.031926585614681244,0.0460714308232069
1733862658223331600,6.04633154296875,0.008574917855393141,-0.02674742941111326,0.05360241084992885
1733862658233282600,6.056282470703125,0.0179705227102153,-0.03367226023823023,0.03210837192237377
1733862658243234600,6.066234619140625,0.0049134727383963765,-0.028304887986183164,0.04445405875444412
1733862658253185800,6.076185791015625,0.005550638130772859,-0.03412614148557186,0.048885903722047805
1733862658263136500,6.086136474609375,0.017190770509373395,-0.02170972750484943,0.041730771270394325
1733862658273087700,6.096087646484375,0.03441663059843704,-0.029733751745522022,0.034440029740333555
1733862658283038700,6.106038818359375,0.01359946801913902,-0.03636310675740242,0.030964462584257123
1733862658292990700,6.11599072265625,0.006831873580347746,-0.036092765383422376,0.030411504876613614
1733862658302941700,6.125941650390625,-0.0026700959920883177,-0.014633213247358797,0.049420741251111025
1733862658312893000,6.135892822265625,-0.013853168785572051,-0.016929507490992545,0.03314005305767059
1733862658322844000,6.145843994140625,-0.026766426372528074,-0.03299070771485567,0.05501870738863945
1733862658332795000,6.155794921875,-0.024808278042078018,-0.026258769111335276,0.04242752136290073
1733862658342746600,6.16574658203125,-0.006872808378934859,-0.03205079651623964,0.03704816641211509
1733862658352697900,6.17569775390625,-0.029866730475425717,-0.019704817423224448,0.04530687619149685
1733862658362648800,6.18564892578125,-0.020154333022702486,-0.03947627034187317,0.03728080612421036
1733862658372599800,6.195599853515625,-0.0005038761352188885,-0.03314852862507105,0.02681201907992363
1733862658382550800,6.20555078125,-0.033716391640901566,-0.03030453737080097,0.04700257419347763
1733862658392502800,6.215502685546875,-0.05681669672131538,-0.01115267765522003,0.03861351603269577
1733862658402454000,6.2254541015625,-0.03812485573291778,-0.018450141187012194,0.027855975174903867
1733862658412404700,6.23540478515625,-0.034464579659700394,-0.02840659479498863,0.029759178447723387
1733862658422356000,6.24535595703125,-0.03176293775187805,-0.02737783626914024,0.03468962058722973
1733862658432307700,6.2553076171875,-0.01348725808262825,-0.023584873726963995,0.03852992940247059
1733862658442259000,6.265259033203125,0.0048550388157367706,-0.029693711996078488,0.044078795701265334
1733862658452209700,6.275209716796875,0.008836820194590837,-0.033659400756657125,0.04501870689988136
1733862658462161000,6.285160888671875,0.0043289508487097915,-0.03151800481379032,0.038002690657973286
1733862658472111600,6.295111572265625,0.003088613665103912,-0.02903846295773983,0.05748948141634464
1733862658482064000,6.30506396484375,-0.009705437988974153,-0.013828326605260371,0.04601005602478981
1733862658492014800,6.315014892578125,-0.011663549786806105,-0.04074409832060337,0.04855623337626457
1733862658501965800,6.3249658203125,-0.009949749872554092,-0.012661328652501105,0.04471417099535465
1733862658511916800,6.334916748046875,0.01845684492243454,-0.02206277872622013,0.044722938823699945
1733862658521867800,6.34486767578125,0.010315642309188843,-0.04666384375840425,0.054041971310973165
1733862658531819800,6.35481982421875,0.0023170447707176207,-0.036088381469249725,0.036136312264204024
1733862658541770800,6.364770751953125,-0.011985018559824675,-0.032819150540232656,0.030736499047279355
1733862658551721700,6.3747216796875,-0.016969821235071868,-0.02172375603020191,0.038083939200639724
1733862658561673000,6.3846728515625,-0.0145873282790184,-0.030025135907530785,0.05060965877473354
1733862658571623700,6.394623779296875,-0.008593622555863111,-0.038350481182336804,0.022495909446477887
1733862658581576000,6.404575927734375,-0.023725743502378462,-0.025746435675024985,0.024748656809329986
1733862658591526700,6.414526611328125,0.00620413360344246,-0.0276104759812355,0.055175943776965136
1733862658601478000,6.424477783203125,0.025202245795726774,-0.020121581530570982,0.05010521638393402
1733862658611428900,6.434428955078125,0.02679683977710083,-0.022374913415312767,0.03491290794909
1733862658621379800,6.4443798828125,0.020586842688452452,-0.02074526638686657,0.034818215402960775
1733862658631331800,6.454331787109375,0.0001764890780672431,-0.03167728702872991,0.03090191874206066
1733862658641282800,6.46428271484375,-0.02232641636477783,-0.018175123637914656,0.049610710865259165
1733862658651233800,6.47423388671875,-0.03585457271337509,-0.029318741203844544,0.053093876805901524
1733862658661184800,6.484184814453125,-0.035564631589781494,-0.039025019443035124,0.04562953227460384
1733862658671136800,6.49413671875,-0.0177612638737075,-0.027410861755907533,0.027802199161052702
1733862658681087700,6.504087646484375,-0.03418048375500366,-0.03373071242719888,0.029141923332214353
1733862658691038700,6.514038818359375,-0.011681085443496704,-0.031547523169219494,0.03031856589615345
1733862658700989700,6.52398974609375,0.006468300964962691,-0.026278350594639777,0.025111060380935666
1733862658710941000,6.53394091796875,0.012011906566750257,-0.023393735069036484,0.027988077121973036
1733862658720893000,6.543892822265625,-0.012625654550921172,-0.027321137645840644,0.03560965804159641
1733862658730844000,6.553843994140625,-0.015827683728933332,-0.03647065878510475,0.03351122445762157
1733862658740795000,6.563794921875,-0.01839137847078964,-0.028570260924100876,0.028718729484081267
1733862658750745900,6.573745849609375,-0.014120861544739453,-0.03159428492039442,0.03769406310021877
1733862658760696800,6.58369677734375,-0.007550853770971298,-0.02220657111108303,0.047860067805647846
1733862658770648800,6.59364892578125,-0.0026408698976039886,-0.022011048538982867,0.049093993514776224
1733862658780599800,6.603599853515625,-0.0034790925537236035,-0.024657179133594033,0.043299628022313116
1733862658790550800,6.61355078125,-0.013296722212899476,-0.03159603848606348,0.03909866920113563
1733862658800501800,6.623501708984375,0.008880038281809537,-0.028675182603299616,0.039967268729209894
1733862658810452700,6.63345263671875,-0.00290976823316887,-0.01897971801906824,0.05170972897112369
1733862658820404700,6.64340478515625,0.007453804870974272,-0.03781564365327358,0.038702947881817815
1733862658830356000,6.65335595703125,0.02065581627143547,-0.027035306441783903,0.0461935958981514
1733862658840306700,6.663306640625,0.026206436135899274,-0.014542612354457378,0.05094517433941364
1733862658850258000,6.6732578125,0.01268059960855171,-0.02595014155358076,0.03836041805446148
1733862658860209700,6.683209716796875,-0.012466701129544526,-0.015154022251069545,0.024157120656967162
1733862658870161000,6.693160888671875,0.02080428483141586,-0.01614887850731611,0.04168985473811626
1733862658880111600,6.703111572265625,0.02386953588724136,-0.02842792984396219,0.03270516877174377
1733862658890062800,6.713062744140625,0.011627291163336485,-0.031005086855590343,0.051984454259276384
1733862658900013800,6.723013916015625,0.0006979374025948346,-0.03143412592262029,0.04840425768494606
1733862658909965800,6.7329658203125,-0.010867430973052978,-0.01794102262109518,0.04213993659317493
1733862658919916800,6.742916748046875,-0.01737199056148529,-0.029172902992367744,0.03645779930353164
1733862658929867800,6.75286767578125,-0.027618677554000166,-0.03580255026519298,0.029639351460337637
1733862658939818800,6.76281884765625,-0.028213684305083003,-0.03340396469086408,0.029947394496202467
1733862658949769700,6.772769775390625,-0.02356439719451591,-0.035628362742066384,0.027343349477648732
1733862658959721700,6.7827216796875,-0.021707992205489426,-0.032738194258511065,0.03822656254172325
1733862658969673000,6.7926728515625,-0.012271470818389207,-0.02141103681921959,0.02939092965722084
1733862658979623700,6.802623779296875,-0.010054945546388626,-0.02033259393274784,0.05052198049128055
1733862658989575000,6.812574951171875,-0.007663081973791122,-0.03408113330006599,0.04141629849374294
1733862658999526700,6.822526611328125,-0.007079747394192964,-0.017201017908751965,0.049636429828405375
1733862659009478000,6.832477783203125,-0.0022258776222355663,-0.02164046166092157,0.03110708592534065
1733862659019428600,6.8424287109375,0.02159574573636055,-0.03173047852069139,0.047615737655758855
1733862659029379800,6.8523798828125,0.018343465942144394,-0.03061082684099674,0.049151276659965513
1733862659039330800,6.862330810546875,0.016752379092108458,-0.023243220682442188,0.05485621030330658
1733862659049282800,6.87228271484375,0.0015571480478160083,-0.008676935191452503,0.05189034623503685
1733862659059233800,6.88223388671875,-0.013599486285448074,-0.01651362016648054,0.03988952731788158
1733862659069184800,6.892184814453125,0.0008078275178559125,-0.02580985630005598,0.04212356998026371
1733862659079136000,6.902135986328125,0.016615600969921797,-0.03119768681824207,0.04601122506856918
1733862659089086700,6.912086669921875,0.03466565518975258,-0.015626315937936307,0.038678982484340665
1733862659099038700,6.922038818359375,0.044316111588478084,-0.023804069435596466,0.03779927704036236
1733862659108989700,6.93198974609375,0.033376181634794916,-0.037059564588963985,0.03653729428052902
1733862659118941000,6.94194091796875,0.015588029754161833,-0.021614158175885675,0.04087444670200348
1733862659128891600,6.9518916015625,-0.0002770451094023883,-0.038489889653027055,0.03218786689937114
1733862659138843000,6.9618427734375,0.006698602589499205,-0.024623569124937055,0.03775076172351837
1733862659148795000,6.971794921875,-0.0006652041767723858,-0.009003682927787303,0.039403205105662344
1733862659158745900,6.981745849609375,-0.0066857796405442056,-0.03707359311431646,0.045189387291669846
1733862659168696800,6.99169677734375,-0.019386271259654312,-0.035035073024034497,0.03909282398223877
1733862659178647800,7.001647705078125,-0.033316596934664995,-0.02237199080586433,0.05035948340594768
1733862659188598800,7.011598876953125,-0.01958615947961807,-0.03114624889194965,0.04230360272228718
1733862659198550800,7.02155078125,-0.018046510555874556,-0.018629589407145975,0.03666764266192913
1733862659208501800,7.031501708984375,-0.01352817461490631,-0.018827157805860043,0.045996612021327016
1733862659218452700,7.04145263671875,-0.008974730827938765,-0.02680588160008192,0.0330307474642992
1733862659228403700,7.05140380859375,-0.00590250204205513,-0.02301438036262989,0.0391916081815958
1733862659238356000,7.06135595703125,-0.0022726211071014404,-0.0200447169020772,0.05264847112596035
1733862659248306700,7.071306640625,-0.016958130797278134,-0.019464871187508104,0.03528291030526161
1733862659258258000,7.0812578125,-0.017550872526038437,-0.019956746357679366,0.03346387818455696
1733862659268208600,7.091208740234375,-0.050307460957765573,-0.02382598900645971,0.039170565393567086
1733862659278160000,7.101159912109375,-0.031013562422990797,-0.0175806648761034,0.049335401055216783
1733862659288111900,7.11111181640625,0.024938041901588437,-0.022511399276554583,0.04620470181405544
1733862659298062800,7.121062744140625,0.025363555570971218,-0.025939327898621557,0.044350013858079906
1733862659308013800,7.131013916015625,0.022488876917492597,-0.0315361249923706,0.03916238208711147
1733862659317964800,7.14096484375,0.01092820298327133,-0.019665654456615448,0.04757248303592205
1733862659327916000,7.150916015625,0.00032382512688636776,-0.017798691540956497,0.04312485597729682
1733862659337867800,7.16086767578125,0.01660860497355461,-0.021175182236731052,0.020263620349764824
1733862659347818800,7.17081884765625,0.010702614066470413,-0.030701135472953316,0.01983282771706581
1733862659357769700,7.180769775390625,0.01028174003958702,-0.023005320273339746,0.0386252064704895
1733862659367721000,7.190720947265625,0.001767612460721284,-0.02569382870495319,0.03457973047196865
1733862659377673000,7.2006728515625,-0.02610708568096161,-0.02828764459043741,0.05393500380516052
1733862659387623700,7.210623779296875,-0.0002934299886226654,-0.033113165050745005,0.040833530169725414
1733862659397575000,7.220574951171875,0.019755689093936234,-0.022892507548630238,0.03143091105222702
1733862659407526000,7.23052587890625,0.00991935473429039,-0.036192134104669094,0.026495792737603188
1733862659417476900,7.240476806640625,-0.002091419321298599,-0.019172025720775126,0.020626023921370504
1733862659427428600,7.2504287109375,0.008389076427090912,-0.025441607509553432,0.03782967217862606
1733862659437379800,7.2603798828125,0.004489128112792969,-0.02109597952067852,0.049346506971120835
1733862659447330800,7.270330810546875,-0.007264438045024872,-0.03181406515091657,0.05640285522341728
1733862659457281800,7.28028173828125,-0.003903418913017958,-0.0327910934895277,0.04670563707351684
1733862659467232800,7.290232666015625,0.007629197970498353,-0.022996552444994448,0.04225333383977413
1733862659477184800,7.300184814453125,0.014224942973721772,-0.02724368849545717,0.04141220684051514
1733862659487136000,7.310135986328125,0.00485273726079613,-0.026693945658206937,0.038925650721788406
1733862659497086700,7.320086669921875,-0.004127911851275712,-0.023387889850139617,0.036084289816021915
1733862659507038000,7.330037841796875,-0.013880056792497633,-0.018413900829851625,0.027871172744035718
1733862659516988700,7.33998876953125,-0.0070423197269439694,-0.01858896513581276,0.03788111010491848
1733862659526941000,7.34994091796875,-0.01957797617316246,-0.02905629087537527,0.05658464153110981
1733862659536891600,7.3598916015625,0.014312566458247602,-0.028144144466519354,0.04206979396641254
1733862659546843000,7.3698427734375,0.015058434655796735,-0.025872692403197287,0.04462357010245323
1733862659556793900,7.3797939453125,0.011602777776587754,-0.0277913855060935,0.045832945892214774
1733862659566745900,7.389745849609375,-0.01898410193324089,-0.0375227981865406,0.027422844454646107
1733862659576696800,7.39969677734375,-0.014547562524210661,-0.0223690681964159,0.02026069774031639
1733862659586647800,7.409647705078125,-0.01787467938661575,-0.02854424970000982,0.03924070802032947
1733862659596598800,7.419598876953125,-0.02740591158615425,-0.022631518524885177,0.05027531225383281
1733862659606549800,7.4295498046875,0.020351864888798445,-0.025131226386129853,0.052905076235532755
1733862659616501800,7.439501708984375,0.03550617940081283,-0.024953531731665132,0.0561275454133749
1733862659626453000,7.449452880859375,0.007944803258311003,-0.022964403741061686,0.05569733730256557
1733862659636403700,7.45940380859375,-0.012260949424374848,-0.019096330136060713,0.06593991437554358
1733862659646355000,7.46935498046875,-0.0014858546435832975,-0.014373393267393111,0.046079029607772826
1733862659656305700,7.4793056640625,-0.0157376673579216,-0.008360416588187217,0.024693711751699446
1733862659666258000,7.4892578125,-0.04466686125490814,-0.03581044131070375,0.013282675421237945
1733862659676208600,7.499208740234375,-0.027322891211509704,-0.03675181381404399,0.02380114682614803
1733862659686160000,7.509159912109375,-0.02599133208049461,-0.03368687328547239,0.04291910427212715
1733862659696110800,7.51911083984375,-0.0007972695912234484,-0.028530513435602187,0.060092357391119
1733862659706061800,7.529061767578125,0.022386037597525863,-0.030235856048762798,0.050040334454178804
1733862659716013800,7.539013916015625,0.025224457627534867,-0.024250644159317016,0.056471244284510606
1733862659725964800,7.54896484375,0.045868619993794706,-0.029180209515988827,0.04404606247544288
1733862659735915800,7.558915771484375,0.03805473137246444,-0.020777122829854486,0.050477556827664374
1733862659745866800,7.56886669921875,0.027664270261395722,-0.026747137150168417,0.04792436521351337
1733862659755818800,7.57881884765625,0.019719430470466613,-0.030649697546660897,0.045055531778931616
1733862659765769700,7.588769775390625,0.002215356228221208,-0.017462883715331553,0.03060088996887207
1733862659775721000,7.598720947265625,0.002873509609699249,-0.018828034588694573,0.032736148431897164
1733862659785671700,7.608671630859375,0.010770391206210478,-0.02639233236312866,0.044943888098001476
1733862659795623000,7.618622802734375,0.02398175495690666,-0.02629734755605459,0.052371407750248906
1733862659805575000,7.628574951171875,0.04834579636282287,-0.03130845371633768,0.05723930604755878
1733862659815526000,7.63852587890625,0.043290860193967814,-0.022847499363124368,0.0517792870759964
1733862659825476900,7.648476806640625,0.020521394503116606,-0.02808335418999195,0.04934884505867958
1733862659835427800,7.658427734375,0.009296217867266386,-0.0135787357583642,0.04900689975321293
1733862659845378800,7.66837890625,0.0015349544823169707,-0.022713643850386142,0.038189737662672994
1733862659855330800,7.678330810546875,0.001047481492627412,-0.024207097278535365,0.033815760362148284
1733862659865281800,7.68828173828125,-0.007258592826128006,-0.017605799317359925,0.0529424856364727
1733862659875232800,7.698232666015625,-0.00539747512936592,-0.023989655135571955,0.05637830530405044
1733862659885183700,7.708183837890625,-0.014096311625372617,-0.024402619850635528,0.05427227293550968
1733862659895136000,7.718135986328125,0.010303942738240585,-0.019169979894161224,0.032389526951313016
1733862659905086700,7.728086669921875,-0.012176769139105453,-0.021572364860773085,0.013197335225343703
1733862659915038000,7.738037841796875,-0.030487501855427396,-0.034248598821461196,0.03892681976556778
1733862659924988700,7.74798876953125,-0.026235662230383604,-0.03572743920236826,0.040105800417065615
1733862659934940000,7.75793994140625,-0.016504560077190398,-0.022571020509302615,0.03393558734953403
1733862659944891600,7.7678916015625,-0.0018108488142490385,-0.02584288178682327,0.030774492970108983
1733862659954843000,7.7778427734375,0.011163208182388916,-0.021647183662652968,0.037782325905561444
1733862659964793900,7.7877939453125,0.0076209781314246355,-0.025266543203592298,0.042374914392828936
1733862659974744800,7.797744873046875,-0.003908113354444504,-0.019656594367325305,0.03146305975615978
1733862659984695800,7.80769580078125,0.008676652063662187,-0.01890051530301571,0.058819268715381616
1733862659994647800,7.817647705078125,0.038799384860461576,-0.017490356244146823,0.044001638811826706
1733862660004598800,7.827598876953125,0.03725273080719635,-0.027144612035155294,0.0481891536295414
1733862660014549800,7.8375498046875,0.019513678765296937,-0.03219546568393707,0.05475333445072174
1733862660024500700,7.847500732421875,0.020287594880396498,-0.03198737589120865,0.05535013130009174
1733862660034451700,7.85745166015625,0.014378078575665131,-0.0182908589720726,0.039948564028739926
1733862660044403700,7.86740380859375,-0.006665896763140335,-0.035382571287453174,0.04386895234286785
1733862660054355000,7.87735498046875,-0.028572608144814146,-0.019385960732400415,0.05737842225730419
1733862660064305700,7.8873056640625,-0.025492177786165846,-0.01573152987807989,0.04900689975321293
1733862660074257000,7.8972568359375,-0.015468787288665771,-0.02416238135397434,0.04649462467133999
1733862660084207900,7.907207763671875,-0.018031331253051758,-0.02579845812320709,0.0420715475320816
1733862660094160000,7.917159912109375,0.001093055933713913,-0.019065642736852167,0.03411912722289562
1733862660104110600,7.927110595703125,0.006315165363019332,-0.03177460992336273,0.030211598390340804
1733862660114061800,7.937061767578125,-0.02212766065597534,-0.012532149314880371,0.054549920833110804
1733862660124012800,7.9470126953125,-0.06329904904451686,-0.02226180842965841,0.05079261412620544
1733862660133964800,7.95696484375,-0.06813887659139,-0.027425767064094542,0.05247136099338531
1733862660143915800,7.966915771484375,-0.051346731744473795,-0.029344167906045913,0.041558921834826464
1733862660153866800,7.97686669921875,-0.0494914683997631,-0.03715250356942415,0.035187633237242694
1733862660163818000,7.98681787109375,-0.02035305219888687,-0.030127134977281093,0.03772504276037216
1733862660173768700,7.996768798828125,0.012633865256840363,-0.04101122482419014,0.040138533642888066
1733862660183720700,8.006720703125,0.022758944296836853,-0.023091244991123677,0.04864332713782787
1733862660193671700,8.016671630859374,0.005632443795865401,-0.032627427360415455,0.035491584619879724
1733862660203623000,8.026622802734375,-0.00005494962420780211,-0.036952889344096185,0.04941080437898636
1733862660213573600,8.03657373046875,-0.002050502789020538,-0.022456746479868887,0.05157295084893703
1733862660223526000,8.04652587890625,0.009053070460888556,-0.027034137398004532,0.04247428311407566
1733862660233476900,8.056476806640624,-0.009745153511431999,-0.011854980705678463,0.04415302998125553
1733862660243427800,8.066427734375,-0.0020107461673673243,-0.016193302170932292,0.045863341030478476
1733862660253378800,8.07637890625,0.013061726146936415,-0.021158815623819827,0.04389817843735218
1733862660263329800,8.086329833984376,0.011729016238451004,-0.03394406291693449,0.03846797008216381
1733862660273281800,8.09628173828125,0.012252747851610183,-0.03637771980464458,0.03335164998173713
1733862660283233000,8.10623291015625,-0.0019686742910416796,-0.02185322762876749,0.03918576296269893
1733862660293183700,8.116183837890626,-0.006945289093255996,-0.029388591569662094,0.048127778831124304
1733862660303135000,8.126135009765624,-0.034630579309794116,-0.03442366312742233,0.04911912795603275
1733862660313085200,8.136085205078125,-0.009920510078337974,-0.017627426627278328,0.04045592902898788
1733862660323037200,8.146037109375,-0.00821954681277275,-0.020339315934479234,0.046129883012175556
1733862660332988000,8.15598779296875,-0.011585219287010841,-0.03199117528349161,0.044643443846702574
1733862660342939100,8.165939208984375,-0.011414538895222358,-0.025656419304013252,0.04122808244526386
1733862660352890000,8.17589013671875,0.008461538875102996,-0.0201230428352952,0.043400750309228894
1733862660362841000,8.185841064453125,0.008602993172407149,-0.023037468977272508,0.036254385685920716
1733862660372793000,8.19579296875,0.012471359038352966,-0.03411883496195078,0.04754617955088615
1733862660382744000,8.205744140625,0.013108487898111343,-0.027432196804881095,0.05851590185463428
1733862660392695300,8.2156953125,0.000026883440348319708,-0.015602350540459156,0.04803893150389194
1733862660402646000,8.22564599609375,-0.02950082433905918,-0.027977555727958677,0.04760989243686199
1733862660412598000,8.235597900390625,-0.04472528147783596,-0.028263971453905103,0.028159342035651205
1733862660422549000,8.245549072265625,-0.032249241697788235,-0.02274462351053953,0.041165538603067396
1733862660432500200,8.255500244140626,-0.013453355813026428,-0.04498451236933469,0.03984802626371384
1733862660442451000,8.265450927734374,-0.013942020679381675,-0.03841623989492655,0.04208206892609596
1733862660452402200,8.275402099609375,0.005059612343972548,-0.02929331450164318,0.04282558076977729
1733862660462354200,8.285354248046875,0.014137241857382469,-0.02343698968887329,0.05136427653431892
1733862660472305200,8.29530517578125,0.016028754692408255,-0.02515197691321373,0.037190205231308934
1733862660482256100,8.305256103515624,0.005197573209670372,-0.014219956271350384,0.04227963732481003
1733862660492207000,8.31520703125,-0.003516483688354492,-0.0195674547791481,0.05127426016330719
1733862660502158000,8.325157958984375,-0.006347907721996307,-0.029846856731176374,0.05488602091968059
1733862660512110000,8.335110107421874,-0.018378532688948325,-0.026667642173171042,0.04846855509281158
1733862660522061000,8.34506103515625,-0.003207858413888607,-0.019038170208036897,0.042560207831859584
1733862660532012000,8.355011962890625,-0.004445875776244793,-0.023795301607251167,0.04481880041360855
1733862660541963000,8.364962890625,0.011121106623311061,-0.02903320226073265,0.04960428112447261
1733862660551914200,8.374914306640624,0.015184709650278091,-0.029222879613935944,0.04628828844428062
1733862660561866000,8.384865966796875,0.00457096117734909,-0.03415712114572525,0.04575695804655552
1733862660571817200,8.394817138671876,0.0005295745487674139,-0.019988895061612128,0.03166179719865322
1733862660581768000,8.404767822265624,-0.02198737540245056,-0.0256911983564496,0.03553951541483402
1733862660591719200,8.41471923828125,-0.004765024728013668,-0.025066344456374644,0.03195931884050369
1733862660601671200,8.424671142578125,-0.01671849737210432,-0.025996611043810843,0.04525719183087348
1733862660611622100,8.4346220703125,-0.006063830083608627,-0.03501110762655735,0.045234979999065394
1733862660621573000,8.444572998046874,-0.010898995155096054,-0.026357553310692308,0.038187399575114245
1733862660631524000,8.454524169921875,0.0049719431936740876,-0.019827274759113788,0.03958616045713424
1733862660641475300,8.464475341796875,-0.011152673088642769,-0.02049129162579775,0.03918225583136081
1733862660651427000,8.474427001953124,-0.02436287236213684,-0.03223375186771154,0.02612403681576252
1733862660661378000,8.4843779296875,-0.010417349117994308,-0.014467793552577496,0.04659925408959389
1733862660671329000,8.4943291015625,-0.024829323113395366,-0.017613690362870693,0.047345104020833965
1733862660681280300,8.5042802734375,-0.00703063157243887,-0.039349136830866334,0.05435761313140392
1733862660691231000,8.51423095703125,-0.0013280360166565515,-0.021887422159314156,0.05052373405694961
1733862660701183000,8.524182861328125,-0.011828387242986354,-0.021250001038610935,0.04036883526742458
1733862660711134200,8.53413427734375,-0.0029752187017933465,-0.030637130326032637,0.03709901981651783
1733862660721085200,8.544085205078124,-0.006090720373822842,-0.02198825218528509,0.021668226450681685
1733862660731036200,8.5540361328125,-0.023180969101190566,-0.024714170017838478,0.032954175096750256
1733862660740988000,8.56398779296875,-0.026318682605028152,-0.018381167604029178,0.04382335963547229
1733862660750939100,8.573939208984376,0.01052139401435852,-0.020054069252312182,0.04231237055063247
1733862660760890000,8.58389013671875,0.02625088034911314,-0.02804156087487936,0.05508358931839466
1733862660770841000,8.593841064453125,0.011372457885742187,-0.03001958294957876,0.04608721291422844
1733862660780792000,8.6037919921875,0.007076221996545791,-0.02226005486398935,0.04966507140100002
1733862660790744000,8.613744140625,0.020132105207873972,-0.015547113221883773,0.05189852954149246
1733862660800695300,8.6236953125,0.0035083026651875114,-0.033302257882058615,0.040104631373286244
1733862660810646000,8.63364599609375,0.009173486536741255,-0.03269172476828098,0.029184593430161474
1733862660820597200,8.64359716796875,0.022449147695302964,-0.018800854320824144,0.04682546406090259
1733862660830548000,8.6535478515625,0.010457096606492996,-0.014158873733878134,0.041887423136830325
1733862660840500200,8.663500244140625,0.01382277593059698,-0.030435762535035608,0.05701894129514694
1733862660850451000,8.673450927734375,-0.0036380665246979332,-0.041733693879842756,0.049426001948118206
1733862660860402200,8.683402099609374,-0.002875849980546627,-0.031167583940923213,0.05800444520115852
1733862660870353000,8.693352783203125,-0.0046188919723033905,-0.0005608487531542777,0.06358370663821697
1733862660880305200,8.70330517578125,-0.013648583840893114,-0.047560792598128315,0.0005786766707897186
1733862660890256100,8.713256103515626,-0.031841245418787,-0.02825461910367012,0.047265609043836594
1733862660900207000,8.72320703125,-0.03006663696169853,-0.005202829340100288,0.05340542697310447
1733862660910158000,8.733157958984375,-0.05197568643093109,-0.05181698873788118,0.03316284941136837
1733862660920109000,8.743109130859375,-0.025832360392808913,-0.03338087607622146,0.062360886844992636
1733862660930061000,8.75306103515625,0.008722237921191844,-0.016726970656216145,0.055205169871449467
1733862660940012300,8.76301220703125,0.018040683603286742,-0.008820727576315402,0.05190028310716152
1733862660949963000,8.772962890625,0.010236147332191466,-0.0269070038869977,0.03013210341334343
1733862660959914200,8.782914306640626,-0.00016483517289161682,-0.03323737595230341,0.02067979993522167
1733862660969865000,8.792864990234374,-0.010270049601793289,-0.025211890406906603,0.049829322052001954
1733862660979817200,8.802817138671875,-0.007617489266395569,-0.0338671982884407,0.03285188376605511
1733862660989768000,8.812767822265625,0.013082768934965133,-0.03258329595774412,0.040381110227108
1733862660999719200,8.82271923828125,0.021902035206556317,-0.028062311401963233,0.055361821737885474
1733862661009670100,8.832670166015625,0.011387655454874038,-0.023100305080413816,0.036221652460098265
1733862661019621000,8.84262109375,-0.023089785969688092,-0.026674948696792124,0.033088615131378174
1733862661029573000,8.852572998046876,-0.030086510705947873,-0.01767214255183935,0.03280395297110081
1733862661039524000,8.862524169921874,-0.030703765821456907,-0.02685205882936716,0.0317278481721878
1733862661049475000,8.87247509765625,-0.016460134130285586,-0.016411913357675074,0.030662849289178847
1733862661059426000,8.882426025390625,0.0028793571118847466,-0.019652210453152654,0.041167292168736457
1733862661069378000,8.8923779296875,0.04053308591842651,-0.03356909212470054,0.06510872424840927
1733862661079329000,8.9023291015625,0.04063128559589386,-0.03178337775170803,0.04609831883013248
1733862661089280300,8.9122802734375,0.015471125376224517,-0.011462766517698763,0.04862637600302696
1733862661099231000,8.92223095703125,-0.007732055556774139,-0.016463351283967493,0.049720600980520245
1733862661109182200,8.93218212890625,-0.016989715528918894,-0.03371785294562578,0.035114568001031875
1733862661119134200,8.94213427734375,-0.007867666918470058,-0.027966449812054633,0.0361982715845108
1733862661129085200,8.952085205078125,-0.002271452063322067,-0.034548458550870416,0.03245908505618572
1733862661139036200,8.9620361328125,0.02309796470956644,-0.03906885858476162,0.037678865531086916
1733862661148987100,8.971987060546875,0.04342530022859573,-0.03395750692039728,0.04547171136438846
1733862661158938000,8.981938232421875,0.03272971640782198,-0.0388169296503067,0.035787937217950816
1733862661168890000,8.99189013671875,0.012306523865461348,-0.013289981944859027,0.04196925620138645
1733862661178841000,9.001841064453124,0.00008534019589424133,-0.017581249397993087,0.04573533073663711
1733862661188792000,9.0117919921875,0.008652090727852191,-0.029509587600827215,0.037974633607268334
1733862661198743000,9.021742919921875,0.01316343295574188,-0.01977408326715231,0.04141863658130169
1733862661208695300,9.0316953125,0.012187281399965286,-0.017019231601059434,0.04548983154296875
1733862661218646000,9.04164599609375,0.017446811646653803,-0.027822949688136575,0.033283260920643806
1733862661228597200,9.05159716796875,-0.0015618447725311852,-0.039994741258025164,0.033333529803156854
1733862661238548000,9.0615478515625,-0.0034895933981402773,-0.026327158172428606,0.036651276049017904
1733862661248499200,9.071499267578124,-0.003738602006435394,-0.02440554246008396,0.025860417443513868
1733862661258451000,9.081450927734375,-0.03468552893400192,-0.01035977371186018,0.039762686067819596
1733862661268402200,9.091402099609375,-0.03324175986647606,-0.016666472640633583,0.056440849146246905
1733862661278353200,9.101353271484374,-0.014576806885004043,-0.030238486397266385,0.05392097527980804
1733862661288304000,9.11130419921875,-0.02105798559784889,-0.028266601802408694,0.05019406371116638
1733862661298255000,9.121255126953125,-0.014009821793652372,-0.03356412368863821,0.05323533110320568
1733862661308207000,9.13120703125,-0.00927987066230853,-0.01535246743261814,0.05261223076879978
1733862661318162200,9.141162109375,-0.017888706770323913,-0.027060148622095583,0.024461072039604185
1733862661328113200,9.151113037109376,-0.02918517795205116,-0.037761867639422415,0.031001871985197067
1733862661338064100,9.161064208984374,-0.031043957561254498,-0.03304302242398262,0.04862111530601978
1733862661348015000,9.17101513671875,-0.010024550408124923,-0.02296469600200653,0.048799979004263874
1733862661357967000,9.180967041015625,0.013299042034149168,-0.01684533633887768,0.05507599053382873
1733862661367918000,9.19091796875,0.010661680409527616,-0.021175182236731052,0.038920974546670914
1733862661377869000,9.200869140625,-0.0063315411090850825,-0.016694821952283383,0.03637187458574772
1733862661387820000,9.210820068359375,-0.009008652505493955,-0.019201544076204297,0.038405426239967344
1733862661397772000,9.22077197265625,-0.03653729428052902,-0.025923253546655176,0.024795418560504913
1733862661407723300,9.23072314453125,-0.02651391291618347,-0.020213935989141462,0.04276362144947052
1733862661417674000,9.240674072265625,-0.020977321577072144,-0.024549627105891703,0.043215456870198246
1733862661427625200,9.250625244140625,-0.006201778391218976,-0.033413901562988756,0.053670799911022186
1733862661437576000,9.260575927734376,0.011140987217426299,-0.01397387255579233,0.04693126252293586
1733862661447528200,9.270528076171875,0.009851531928777694,-0.02036211228817701,0.04762392096221447
1733862661457479000,9.28047900390625,-0.0058884746583469675,-0.03496697622388601,0.037997429960966105
1733862661467430100,9.29043017578125,-0.016693945169448852,-0.0246238613858819,0.030375264519453046
1733862661477380900,9.300380859375,-0.006178396373987197,-0.03539280042052269,0.05365326425433158
1733862661487332000,9.31033203125,-0.001304655141069088,-0.0168029585018754,0.03787877201735973
1733862661497284000,9.3202841796875,0.01289221365728299,-0.023944062428176403,0.044403789871931075
1733862661507235000,9.330235107421874,0.009720601308776531,-0.023303718698024747,0.037462592431902884
1733862661517186000,9.34018603515625,-0.00912321765422821,-0.02163578548580408,0.03410042252242565
1733862661527137000,9.350136962890625,0.003247605902387295,-0.018480536325275895,0.05116729265749454
1733862661537089000,9.360089111328126,-0.0020949275942810344,-0.02137391967922449,0.03745557816922664
1733862661547040000,9.3700400390625,-0.005458266547537641,-0.02301613392829895,0.028628713113069533
1733862661556991000,9.379990966796875,0.0032978713599673935,-0.04144260197877884,0.04657411964833736
1733862661566942200,9.389942138671875,-0.00490998387336731,-0.030246669703721998,0.04147182807326317
1733862661576893200,9.39989306640625,-0.021440260630415285,-0.03861556185930967,0.04409048613905906
1733862661586845200,9.40984521484375,-0.030699087363050784,-0.030665187376737593,0.050537178060412406
1733862661596796200,9.419796142578125,-0.008627540808485355,-0.036651276049017904,0.05637362912893295
1733862661606747100,9.4297470703125,0.013728081101179122,-0.016768763971328735,0.05157587345838546
1733862661616698000,9.439697998046874,0.019480945539474485,-0.032765666787326335,0.027791093245148658
1733862661626649000,9.449649169921875,0.008711714243888854,-0.024843641616404056,0.021052724900841712
1733862661636601000,9.45960107421875,-0.0025707272708415984,-0.01778057136237621,0.05458733023405075
1733862661646552000,9.469552001953126,-0.02077273891568184,-0.03251753724515438,0.046998482540249825
1733862661656503300,9.47950341796875,-0.006607436582661466,-0.021085750387609004,0.043588966357707974
1733862661666454000,9.4894541015625,0.011799158865213393,-0.03194529031515121,0.05364917260110378
1733862661676406300,9.49940625,0.012442130660580005,-0.02559679807126522,0.054582069537043566
1733862661686357000,9.50935693359375,-0.007659574842453002,-0.008444880001246928,0.04452595494687557
1733862661696308200,9.51930810546875,0.0032476013358100314,-0.022303601744771,0.04530746071338653
1733862661706259000,9.529259033203125,0.008228899163007735,-0.020642975056171416,0.02840659479498863
1733862661716210200,9.539210205078126,-0.010998363876342773,-0.015346037691831588,0.03149930011332035
1733862661726162200,9.549162109375,0.0083785367667675,-0.024631460170447823,0.038976504126191136
1733862661736113200,9.559113037109375,0.012220014625787734,-0.030212475173175334,0.04673310960233211
1733862661746064100,9.569064208984376,0.014503155985259216,-0.04763122748583555,0.05807166521847248
1733862661756015000,9.57901513671875,-0.0040963316862122155,-0.025127134732902047,0.054362289306521414
1733862661765966000,9.588966064453125,-0.00264671625814517,-0.024253859029710292,0.049559857460856435
1733862661775918000,9.59891796875,0.005679214680194855,-0.010621931779384612,0.050615503993630406
1733862661785869000,9.608869140625,-0.0025789082940085787,-0.014306173250079154,0.03433715388774872
1733862661795820000,9.618820068359375,-0.007141688448190689,-0.017241349919140336,0.02972761426568031
1733862661805771000,9.62877099609375,-0.004780217730568256,-0.02021978120803833,0.025545944666862486
1733862661815723300,9.63872314453125,-0.0058592519887955856,-0.03248860341161489,0.020907178950309753
1733862661825674000,9.648674072265624,0.011623802298307418,-0.02391805120408535,0.04023322618901729
1733862661835625200,9.658625244140625,-0.004826981765031814,-0.014104805459082126,0.04932663322687149
1733862661845576000,9.668575927734375,-0.010286418497993145,-0.013550094185769556,0.05229483538269997
1733862661855527200,9.678527099609376,-0.029244801468087823,-0.019088439090549945,0.04667524193525314
1733862661865479000,9.68847900390625,-0.03709843529462814,-0.018498948764801026,0.0438274512887001
1733862661875430100,9.69843017578125,-0.04417699537873268,-0.025077450372278688,0.030962124496698377
1733862661885380900,9.708380859375,-0.05377718289494514,-0.025179157181084155,0.03509820138812065
1733862661895332000,9.71833203125,-0.014749827647639904,-0.026735738973319528,0.041352001085877416
1733862661905283300,9.728283447265625,-0.00435586168852169,-0.028101766629517078,0.04508475787341595
1733862661915235000,9.738235107421875,0.006877482270763721,-0.028154373599588868,0.03413490931391716
1733862661925186000,9.74818603515625,0.0000678045392036438,-0.029870822128653524,0.0471171404838562
1733862661935137000,9.758136962890624,-0.008165773082210215,-0.012112462598085403,0.04873860420584678
1733862661945088300,9.768088134765625,0.0008779541615978814,-0.019054829081892967,0.060679801890254015
1733862661955040300,9.778040283203126,0.0055693222816451445,-0.028072540535032747,0.04120703965723514
1733862661964991000,9.787990966796874,0.00026420617742696777,-0.007110124266147613,0.046005964371562
1733862661974942200,9.797942138671875,0.00368482827587286,-0.021471534834802148,0.047806291791796685
1733862661984893200,9.80789306640625,-0.0033154104415909387,-0.03544336156398058,0.04119418017566204
1733862661994844200,9.81784423828125,0.0044470425367355345,-0.01331599316895008,0.04432955559194088
1733862662004796000,9.8277958984375,0.0018996915749041362,-0.027798107507824896,0.05213116925358772
1733862662014747100,9.8377470703125,0.006624971097707748,-0.025939620159566402,0.0403460389137268
1733862662024698000,9.847697998046876,0.018119007253216114,-0.026188626484572885,0.05384323386847972
1733862662034649000,9.857649169921874,0.012774136810633352,-0.013835048606991767,0.029049568873643874
1733862662044600000,9.86760009765625,0.016999061029287985,-0.02418956162184477,0.04459609757363796
1733862662054552000,9.877552001953125,0.012002570199535694,-0.025034195752441882,0.03990530940890312
1733862662064503300,9.88750341796875,0.003737432962656021,-0.02485737788081169,0.03393383378386497
1733862662074454000,9.8974541015625,-0.01999181767106056,-0.028145021249353884,0.05240998619496822
1733862662084405200,9.9074052734375,-0.007792848116590176,-0.03594195873588323,0.031900866651535034
1733862662094357000,9.91735693359375,0.006184241592884063,-0.0193453364610672,0.04843582186698913
1733862662104308200,9.92730810546875,0.004678513205051422,-0.011570318545401095,0.05426993484795093
1733862662114259000,9.937259033203125,-0.0004641149469884112,-0.019800971274077893,0.04873392803072929
1733862662124210200,9.947210205078125,-0.008173954105377197,-0.0328302564561367,0.0174544081479311
1733862662134161000,9.957160888671876,-0.019679682981967924,-0.021660335405170917,0.05686404299437999
1733862662144113200,9.967113037109375,-0.01695931810736656,-0.02385229249149561,0.03729249656200409
1733862662154064100,9.977064208984375,-0.022796355981065424,-0.03164250797629356,0.020830022060871124
1733862662164015000,9.98701513671875,-0.034975451791286465,-0.02510784551054239,0.045048517516255375
1733862662173966000,9.996966064453124,-0.02407879472374916,-0.04021948992460966,0.04347556911110878
1733862662183917000,10.0069169921875,-0.012547342317434958,-0.025660218696296214,0.04028174150586128
1733862662193869000,10.016869140625,-0.0005377601385116576,-0.026763211502134798,0.0640484015405178
1733862662203820000,10.026820068359376,-0.007421085344883613,-0.02154518459290266,0.04114858746826648
1733862662213771000,10.03677099609375,-0.003864854168030433,-0.02088496711850166,0.055171267601847644
1733862662223722200,10.04672216796875,-0.007181435936689376,-0.02568827574700117,0.046188919723033905
1733862662233673200,10.056673095703125,0.01815642350402195,-0.03657821081280708,0.03259410961270332
1733862662243625200,10.066625244140624,0.015125092984107321,-0.031800621147453786,0.04366553872525692
1733862662253576000,10.076575927734375,0.027601123631000517,-0.021060323685407636,0.0461935958981514
1733862662263527200,10.086527099609375,0.04159341319289524,-0.016118775629997254,0.05592471631765365
1733862662273478100,10.09647802734375,0.030398649961617775,-0.024451427428424356,0.053107905331254
1733862662283430100,10.10643017578125,0.015889647615817376,-0.022926409818232057,0.0559662173718214
1733862662293381000,10.116381103515625,-0.003219542001816444,-0.021892975117266178,0.041891514790058135
1733862662303332000,10.12633203125,0.013168109130859374,-0.03242138339430094,0.04231003246307373
1733862662313279700,10.13627978515625,-0.006079032219317742,-0.030918285354971885,0.053387891316413874
1733862662323231000,10.14623095703125,-0.026872809356451033,-0.024545243191719055,0.047750762212276456
1733862662333183000,10.156182861328125,-0.026836568999290464,-0.031148586979508397,0.054708910787105554
1733862662343134000,10.166134033203125,-0.005026883684727363,-0.02396627425998449,0.03645663025975227
1733862662353085000,10.1760849609375,-0.006076694131758995,-0.020110475614666938,0.03314765184223652
1733862662363036000,10.186035888671874,0.01901098994016647,-0.014604571674764156,0.032682956939935684
1733862662372987100,10.195987060546875,0.03646013282451313,-0.017329904985427854,0.037602877685427666
1733862662382939000,10.20593896484375,0.023854333751532248,-0.025074235501885412,0.04427402601242065
1733862662392889900,10.215889892578126,-0.007404723298549651,-0.022834055359661577,0.049209144327044485
1733862662402840800,10.2258408203125,-0.02133154184222221,-0.01864507923722267,0.03304711407721042
1733862662412792000,10.2357919921875,-0.013323591953516005,-0.01862374418824911,0.06268763458132744
1733862662422744000,10.245744140625,0.00670329703092575,-0.020403905603289602,0.052371992272138596
1733862662432694800,10.25569482421875,0.00530512067079544,-0.024703356362879274,0.06361760890781878
1733862662442646000,10.26564599609375,0.021704471374419516,-0.011470949824154376,0.043451603713631624
1733862662452597000,10.275596923828125,0.02708206819295883,-0.0193453364610672,0.026420973935723305
1733862662462548000,10.2855478515625,0.014800089680287055,-0.01220452479571104,0.040839959910511967
1733862662472500000,10.2955,-0.0024397989341290666,-0.0373223071783781,0.0339630598783493
1733862662482451000,10.305450927734375,-0.011913729722169227,-0.03504530215710401,0.05103519071042537
1733862662492402000,10.31540185546875,-0.01597614772233646,-0.03089841161072254,0.04292962566614151
1733862662502353000,10.325352783203124,-0.018584288960695267,-0.025721593494713306,0.061682841452956196
1733862662512303900,10.335303955078125,-0.0022796308032004163,-0.0139338328063488,0.053366848528385157
1733862662522256000,10.345255859375,0.008840309059619904,-0.026657120779156683,0.03555529750585556
1733862662532207000,10.35520703125,0.009386252504587174,-0.03135287737995386,0.035223289072513576
1733862662542157800,10.36515771484375,0.015953940457105634,-0.01723608922213316,0.03734334996640682
1733862662552109000,10.375109130859375,0.01158405480980873,-0.02715834829956293,0.048768999344110484
1733862662562060800,10.385060791015626,-0.005275894576311111,-0.027571897536516187,0.040106384938955304
1733862662572012000,10.395011962890624,-0.01223170963015873,-0.02363835747987032,0.05269581739902496
1733862662581962800,10.404962646484375,-0.01657821211857954,-0.030154607506096363,0.06500117222070693
1733862662591914000,10.4149140625,-0.01287117429418722,-0.031954642665386196,0.05138005862534046
1733862662601865000,10.424864990234376,-0.014009820652008056,-0.02225625547170639,0.062220601591467854
1733862662611817000,10.43481689453125,-0.01764203967452049,-0.01025426751077175,0.049369887846708295
1733862662621768000,10.444767822265625,0.0002700536796124652,-0.023878595976531504,0.04712357022464275
1733862662631719000,10.454718994140626,0.006007715982198715,-0.025614041467010972,0.049020343756675716
1733862662641670000,10.464669921875,0.009828146486612968,-0.013978548730909824,0.03942366337180137
1733862662651620900,10.474620849609375,-0.010953942496015223,-0.019565408952534197,0.04792378069162369
1733862662661572900,10.48457275390625,0.00678045392036438,-0.02465133391469717,0.044181087031960484
1733862662671524000,10.494524169921876,0.014164129864308051,-0.02992021422833204,0.03122515934705734
1733862662681474800,10.504474853515624,-0.021534955459833145,-0.03787701845169067,0.04452712399065494
1733862662691426000,10.514426025390625,-0.004464578193426132,-0.022957389478385447,0.03163257110416889
1733862662701377800,10.524377685546876,-0.0036205308680073356,-0.015077449883520602,0.037889877933263774
1733862662711329000,10.5343291015625,0.0022270238331286237,-0.02904401591569185,0.05327332502603531
1733862662721279700,10.54427978515625,0.0243254629611969,-0.017380758389830588,0.05611059427857399
1733862662731231000,10.55423095703125,0.016897358787059783,-0.02124795521199703,0.04025836063027382
1733862662741182000,10.564181884765626,-0.006470661885407753,-0.025848434744775294,0.0402764808088541
1733862662751134000,10.574134033203125,0.002509941560891457,-0.031633155626058576,0.04404430890977382
1733862662761085000,10.5840849609375,-0.01404138483405113,-0.026644553558528423,0.04646306048929691
1733862662771036000,10.594035888671876,-0.02209258477601688,-0.030071020875871178,0.029410803401470183
1733862662780987100,10.603987060546874,-0.016857611298561094,-0.028897300921380518,0.03493278169333935
1733862662790937900,10.613937744140625,-0.014189855677320156,-0.02138181072473526,0.04826923312842846
1733862662800889900,10.623889892578125,-0.006523259722325019,-0.017099603360891343,0.03581891687810421
1733862662810840800,10.6338408203125,-0.01516600494980812,-0.032112463575601574,0.049558688417077064
1733862662820792000,10.6437919921875,-0.009042553633451461,-0.024605448946356773,0.044185763207077976
1733862662830742800,10.65374267578125,0.013005612045526504,-0.0270136791318655,0.050613750427961346
1733862662840694800,10.66369482421875,0.0002583586752414703,-0.026089842285215853,0.03626198447048664
1733862662850646000,10.67364599609375,0.014956746113300322,-0.029070319400727747,0.05236147087812423
1733862662860597000,10.683596923828125,0.011888003909157122,-0.029905601181089876,0.054040217745304105
1733862662870548000,10.6935478515625,0.019155955935386007,-0.022216215722262858,0.05212590855658054
1733862662880499000,10.7034990234375,0.014537063963082618,-0.022172376580536363,0.04930500591695308
1733862662890451000,10.713450927734375,0.0034311480590375138,-0.023881518585979936,0.04037175787687301
1733862662900402000,10.72340185546875,-0.003397241222858429,-0.014434183543920516,0.03334755832850933
1733862662910353000,10.733352783203125,0.01699906559586525,-0.027402093927562234,0.04160451454222202
1733862662920303900,10.743303955078124,0.029573305053380315,-0.014542027832567691,0.030755203747749326
1733862662930254800,10.7532548828125,0.02413139941053232,-0.03272241216748953,0.036031098324060436
1733862662940207000,10.76320703125,0.008111990218493155,-0.025277064597606657,0.048210196417570114
1733862662950157800,10.77315771484375,0.002664250773191452,-0.01922843208312988,0.05108545959293842
1733862662960109000,10.783109130859375,-0.024290391647815702,-0.01582037720531225,0.041570027750730515
1733862662970059800,10.793059814453125,-0.034278701698780056,-0.029855624559521673,0.03006196078658104
1733862662980012000,10.803011962890626,-0.027032968354225157,-0.02494885555654764,0.033334114325046536
1733862662989962800,10.812962646484374,-0.020167174237966535,-0.030680384945869443,0.03974222780168056
1733862662999914000,10.8229140625,-0.00209843586726347,-0.034271395175158974,0.04438040899634361
1733862663009865000,10.832864990234375,-0.012430444789363537,-0.02193389164954424,0.04097498446702957
1733862663019816000,10.84281591796875,0.0033083916123374363,-0.02717325360774994,0.04935352123379707
1733862663029768000,10.852767822265625,-0.005991351652576122,-0.023172785794734953,0.038489597392082214
1733862663039719000,10.862718994140625,-0.004255317073629703,-0.036188919234275814,0.01873743369579315
1733862663049670000,10.872669921875,0.002003743321134243,-0.023283844953775404,0.024741642546653748
1733862663059620900,10.882620849609374,-0.010779754972888621,-0.016634908458590506,0.03172492556273937
1733862663069572000,10.892572021484375,-0.00969137293100357,-0.0267827929854393,0.034282793352007866
1733862663079524000,10.902524169921875,-0.009781389302015305,-0.02179740578830242,0.04717676171660423
1733862663089474800,10.912474853515626,0.0015361223844520282,-0.03644201721251011,0.05877718313932419
1733862663099426000,10.922426025390624,0.0059200376987457275,-0.01564268255084753,0.051743046718835825
1733862663109377000,10.932376953125,0.008431142595194977,-0.009453180260956286,0.03995207116007805
1733862663119329000,10.9423291015625,0.01120762271285057,-0.014374854572117329,0.03869651814103126
1733862663129279700,10.95227978515625,-0.0034089316606521606,-0.012241057413816451,0.03767009770274162
1733862663139231000,10.96223095703125,-0.02059972043633461,-0.021728432205319403,0.052748424369096755
1733862663149182000,10.972181884765625,0.006524433332681655,-0.031471535323560236,0.03627893560528755
1733862663159133000,10.9821328125,0.01647299361185869,-0.01827858401238918,0.052152212041616436
1733862663169085000,10.9920849609375,0.009247138578130398,-0.03537146537154913,0.05760229414105415
1733862663179036000,11.002035888671875,0.005251346940232906,-0.04386895234286785,0.054476271075010296
1733862663188987100,11.011987060546875,-0.0011830700214370154,-0.02725800928175449,0.04938800802528858
1733862663198937900,11.021937744140626,-0.009244795923994388,-0.02607873636931181,0.04428980810344219
1733862663208889000,11.03188916015625,-0.018811082312249344,-0.02493921094536781,0.03782324243783951
1733862663218840800,11.0418408203125,-0.015458265894651413,-0.017515782946348188,0.05784136359393596
1733862663228792000,11.0517919921875,0.012347441539383726,-0.018858721987903115,0.04632102167010307
1733862663238742800,11.06174267578125,0.0314098682641983,-0.029686113211512564,0.03491758412420749
1733862663248694000,11.071694091796875,0.01460135680437088,-0.019433014744520187,0.04528407983779907
1733862663258646000,11.08164599609375,0.013094459372758865,-0.020877368333935737,0.052127077600359915
1733862663268597000,11.091596923828124,-0.005502689069509506,-0.0272162159666419,0.06130582483410835
1733862663278548000,11.1015478515625,-0.01480477042198181,-0.021060323685407636,0.04882803605496883
1733862663288499000,11.1114990234375,-0.03582534661889076,-0.020748481257259845,0.04128536559045314
1733862663298450000,11.121449951171876,-0.061898530030250545,-0.031920740395784374,0.035327918490767475
1733862663308402000,11.13140185546875,-0.06989946565628051,-0.020877660594880578,0.027978724771738052
1733862663318352400,11.141352294921875,-0.04763853400945663,-0.026441432201862333,0.031257308050990106
1733862663328303400,11.151303466796875,-0.00944119813303987,-0.03110182522833347,0.05428980859220028
1733862663338254300,11.16125439453125,0.008801729473256272,-0.023346388795971867,0.052929626154899594
1733862663348205300,11.171205322265624,0.0031868122009269424,-0.03257715847790241,0.02938040826320648
1733862663358157300,11.1811572265625,0.014189852252387208,-0.025527239966392515,0.02002981159389019
1733862663368108300,11.1911083984375,0.01778232492804527,-0.022507307623326776,0.04210778788924217
1733862663378059300,11.201059326171874,0.08927753534317016,-0.03261807501018047,0.0354752180069685
1733862663388010200,11.21101025390625,0.0664753364264965,-0.02492664372473955,0.05083762231171131
1733862663397962200,11.220962158203125,-0.04296118984818458,-0.01730623184889555,0.06055705229341984
1733862663407913500,11.23091357421875,-0.06545476120710372,-0.0038829789131879806,0.056044543305039406
1733862663417864400,11.240864501953125,-0.034867899763584134,-0.012133213125169276,0.04436053525209427
1733862663427815400,11.2508154296875,0.0032476036190986633,-0.025461481253802775,0.05213584542870521
1733862663437766400,11.260766357421875,0.038189153140783305,-0.024869360579550265,0.08101181130111217
1733862663447718400,11.270718505859374,0.03546995730996132,-0.028364509218931196,0.051885670059919356
1733862663457669400,11.28066943359375,0.005549450820684433,-0.03180617410540581,0.054960839721560475
1733862663467620400,11.290620361328125,-0.011752981635928153,-0.01489712488055229,0.05713759923875331
1733862663477571300,11.3005712890625,-0.025763386809825897,-0.024437106642127036,0.052069794455170626
1733862663487522300,11.310522216796874,-0.035894320201873775,-0.021334756712615487,0.037765374770760536
1733862663497474300,11.320474365234375,-0.04851531684398651,-0.014582359842956066,0.025953940945863722
1733862663507425300,11.33042529296875,-0.04017243591248989,-0.022826456575095654,0.033278584745526314
1733862663517376500,11.34037646484375,-0.021227496945858,-0.03429039213657379,0.04139057953059673
1733862663527327200,11.3503271484375,0.007416413736343383,-0.02759498615115881,0.049831660139560696
1733862663537279500,11.360279541015625,0.02276595855951309,-0.02557897015362978,0.03954582844674587
1733862663547230200,11.370230224609376,0.013677812218666076,-0.028536650915443895,0.04629880983829498
1733862663557181400,11.380181396484375,-0.0007797522008419036,-0.02904050878435373,0.04919394675791263
1733862663567132200,11.390132080078125,-0.012140519648790359,-0.010791443127393722,0.04867313775420189
1733862663577083400,11.40008349609375,-0.019226093995571136,-0.037863282187283034,0.04404255534410476
1733862663587035400,11.410035400390624,-0.01626958227753639,-0.01668488508015871,0.04348725954890251
1733862663596986400,11.419986328125,-0.021996727752685546,-0.028763153147697448,0.045755789002776145
1733862663606937300,11.429937255859375,-0.021841244930028914,-0.01910509796440601,0.03868599674701691
1733862663616888300,11.439888427734376,-0.0012310030996799469,-0.009249182121455668,0.033437574699521064
1733862663626839300,11.44983935546875,0.009701894325017928,-0.030489538548886773,0.04316986416280269
1733862663636791600,11.45979150390625,0.018233575826883314,-0.028533143784105777,0.047665422016382214
1733862663646742300,11.4697421875,0.018456864330387904,-0.034680560497939585,0.04691138877868652
1733862663656693500,11.479693603515624,0.01804652882218361,-0.030098785665631293,0.049123804131150244
1733862663666644200,11.489644287109375,0.016033436575747326,-0.023088614642620086,0.04088263000845909
1733862663676596500,11.499596435546875,0.011907879936695098,-0.01542611719071865,0.02713175255358219
1733862663686547200,11.509547119140626,0.027077392017841338,-0.01815408084988594,0.037137598261237144
1733862663696498400,11.51949853515625,0.012757774764299392,-0.02458031450510025,0.03496434587538242
1733862663706449200,11.52944921875,-0.013604162460565566,-0.032359131813049315,0.056064417049288745
1733862663716400400,11.539400390625,-0.022301850462390575,-0.03433627710491419,0.053203182399272915
1733862663726352400,11.549352294921874,-0.016786299628019332,-0.018781272837519646,0.05499591103494167
1733862663736303400,11.559303466796875,-0.02085807911157608,-0.023145313265919683,0.04533902489542961
1733862663746254300,11.56925439453125,0.010289924487686949,-0.030282617799937725,0.03728372873365879
1733862663756205300,11.579205322265626,0.030385785913467404,-0.019487667541205882,0.05121054727733135
1733862663766156500,11.589156494140624,0.021981530183553696,-0.019854747287929058,0.04084814321696758
1733862663776108300,11.5991083984375,0.029765023666620254,-0.030026304951310156,0.039952655681967736
1733862663786059300,11.609059326171876,-0.018308394628763196,-0.022827625618875025,0.04684416876137256
1733862663796010200,11.61901025390625,-0.04278934041261673,-0.019797171881794928,0.04304126934707164
1733862663805961500,11.62896142578125,-0.033574937343597414,-0.011552490627765654,0.03182663237154484
1733862663815913500,11.63891357421875,-0.0183563254237175,-0.02437777767032385,0.035060207465291024
1733862663825864200,11.6488642578125,-0.008783026485252777,-0.02521247492879629,0.04399170193970203
1733862663835815400,11.6588154296875,0.015319149684906004,-0.02420475919097662,0.04112696015834808
1733862663845766400,11.668766357421875,0.01219663375020027,-0.02734305721670389,0.04097966064214706
1733862663855717400,11.67871728515625,0.010806640696525573,-0.02150806745290756,0.0391828403532505
1733862663865669400,11.68866943359375,-0.0008335287855152273,-0.023740064288675783,0.0354489145219326
1733862663875620400,11.698620361328125,-0.027256255716085434,-0.027291034768521783,0.0257458511531353
1733862663885571300,11.7085712890625,-0.06786883661150932,-0.03255494664609432,0.047727381336688995
1733862663895522300,11.718522216796876,-0.03419803767800331,-0.04119739504605532,0.043625206714868546
1733862663905473500,11.7284736328125,-0.015649987932824298,-0.041699791610240934,0.05571838009059429
1733862663915425300,11.73842529296875,0.022094927430152893,-0.03748012808859348,0.03957388549745083
1733862663925376500,11.74837646484375,0.03366729180216789,-0.01837444560229778,0.03768646431565285
1733862663935327200,11.7583271484375,0.035761049211025235,-0.018330314199626444,0.03307224851846695
1733862663945278500,11.768278564453125,0.024848025530576703,-0.027611645025014876,0.030974399456381797
1733862663955229200,11.778229248046875,0.00637479572892189,-0.026839199347794055,0.029939795711636543
1733862663965181400,11.788181396484376,0.0005190548672195291,-0.024243629896640775,0.03003565730154514
1733862663975132400,11.79813232421875,0.01078793371276697,-0.026884207533299922,0.05497077659368515
1733862663985083400,11.80808349609375,0.00791442752800067,-0.020719255162775514,0.07279460257589816
1733862663995034400,11.818034423828125,-0.0014203870502940844,-0.020071020387113093,0.05456511840224266
1733862664004986400,11.827986328125,0.01288636958003044,-0.029809739591181276,0.039594343763589855
1733862664014937300,11.837937255859375,-0.003545709212016663,-0.010196399843692779,0.04738017533421516
1733862664024888300,11.847888427734375,-0.010509703576564788,-0.013283844465017318,0.04217266981899738
1733862664034839300,11.85783935546875,-0.007771803045272827,-0.019096330136060713,0.04577683179080486
1733862664044790300,11.867790283203124,-0.017138181805610657,-0.014229600882530212,0.04035013056695461
1733862664054742300,11.8777421875,-0.022930793732404708,-0.03205138103812933,0.02881926724910736
1733862664064693500,11.887693603515626,-0.018502455896139143,-0.026118191596865653,0.040762218499183656
1733862664074644200,11.897644287109374,-0.030178865164518353,-0.030448914277553557,0.044507834768295285
1733862664084595500,11.907595458984375,-0.021378303593397138,-0.014726736749708652,0.04406418265402317
1733862664094547200,11.917547119140625,-0.03450082001686096,-0.020069266821444033,0.041246202623844146
