time,seconds_elapsed,z,y,x
1733861814742918700,0.016918701171875,-0.05778232688307762,-0.157102532812953,-0.11331541353464127
1733861814752871000,0.026870849609375,-0.18832170081064104,0.008690086933970451,0.01466623873412609
1733861814762821600,0.036821533203125,-0.16145312923789024,0.20077976197600364,0.34562837789356704
1733861814772772900,0.04677294921875,0.005907324347645044,0.024522446838021277,0.025861586487293243
1733861814782723600,0.0567236328125,-0.018914397697895765,0.012065700846910476,0.06909750162363051
1733861814792674800,0.0666748046875,0.01890343791246414,-0.013552724534273147,0.06532733543515205
1733861814802625500,0.07662548828125,0.042312516681104896,-0.12316343833208084,0.014985387685894965
1733861814812576800,0.08657666015625,-0.001152823296934366,-0.14557050045132636,0.019817045626044274
1733861814822527700,0.09652783203125,-0.04580854210332036,-0.05067863235771656,0.022510522493720053
1733861814832479700,0.106479736328125,0.09220847422853112,0.20183248589932917,-0.0653776043176651
1733861814842430700,0.1164306640625,0.11596578191295265,-0.15901567295789718,-0.013851415219902992
1733861814852381700,0.126381591796875,-0.04712181665897369,-0.02010112326443195,0.11196107631623745
1733861814862333000,0.1363330078125,-0.08654416485652328,-0.03683832305371761,-0.00229834007024765
1733861814872283600,0.14628369140625,-0.030138971545547247,-0.10594400798380374,-0.027350363740324974
1733861814882235000,0.15623486328125,-0.0031673779897391794,-0.08642039234638213,0.0031231004565954205
1733861814892185600,0.166185546875,0.0026660043388605117,-0.06668108813166618,0.021674071669578552
1733861814902136800,0.17613671875,0.034846272453665735,0.006806172883510589,0.07355681912004947
1733861814912087600,0.186087646484375,0.08706497386023401,-0.006554828470945358,0.07065934411287307
1733861814922039800,0.196039794921875,0.045030835729092354,-0.05280512299239635,0.05580255124270916
1733861814931990500,0.205990478515625,0.00997735026553273,-0.04279752371907234,0.04674363099634647
1733861814941941800,0.215941650390625,-0.022416414469480513,-0.016636662024259567,0.051964580515027045
1733861814951892700,0.225892822265625,-0.04560805109515786,-0.04196224193871021,0.021433248651027678
1733861814961843700,0.23584375,-0.06939151613414288,-0.03432604797184467,0.02632745043337345
1733861814971794700,0.245794677734375,-0.051097150030732154,-0.04105857109725475,0.04231646220386028
1733861814981745700,0.25574560546875,-0.04405190769433975,-0.0515612604111433,0.022125322568416594
1733861814991696600,0.265696533203125,-0.05301964252591133,-0.03162555684149265,0.03377542835175991
1733861815001647600,0.275647705078125,-0.04733633619248867,-0.037009003445506096,0.024510756400227544
1733861815011600000,0.285599853515625,-0.0355805780775845,-0.03844049755334854,0.039817046603560446
1733861815021550600,0.295550537109375,-0.04187047200202942,-0.029042554610967636,0.03184650611579418
1733861815031501800,0.305501708984375,-0.05940262156128883,-0.0138379712164402,0.03998538890779018
1733861815041452500,0.31545263671875,-0.03455269633457064,-0.017836685463786126,0.03358019804060459
1733861815051403800,0.32540380859375,-0.01892915687561035,-0.024570377632975576,0.05421382074654102
1733861815061354800,0.335354736328125,-0.01730886219739914,-0.025191724401712415,0.06758534349501133
1733861815071305700,0.3453056640625,-0.026544746445864437,-0.03131225310862064,0.04553074807524681
1733861815081256700,0.355256591796875,-0.012994506129622458,-0.04068798421919346,0.030720716956257818
1733861815091207700,0.365207763671875,0.0009792202956974505,-0.04700140514969826,0.033031331986188885
1733861815101160000,0.375159912109375,-0.020407412734627723,-0.028650340422987936,0.04809095395207405
1733861815111110700,0.385110595703125,-0.02368307340443134,-0.01640460683405399,0.05687164177894592
1733861815121062000,0.395061767578125,-0.03247428262531757,-0.015030395871400832,0.04118015165030956
1733861815131012600,0.4050126953125,-0.01070785649716854,-0.013992869517207145,0.04986614693105221
1733861815140963800,0.4149638671875,-0.0032515491418540475,-0.028646833291649815,0.041730186748504636
1733861815150914600,0.42491455078125,-0.002593523624539375,-0.021046879681944845,0.036976854741573334
1733861815160865800,0.43486572265625,0.009908230552077292,-0.022760113340616225,0.05376666150093078
1733861815170816800,0.444816650390625,0.002344078908115625,-0.029845687687397003,0.06631693099439144
1733861815180767700,0.454767822265625,-0.01594093484506011,-0.02906535096466541,0.06988309904336928
1733861815190719500,0.464719482421875,-0.02910626749694347,-0.026159108129143713,0.05586801769435405
1733861815200670700,0.474670654296875,-0.0386981255762279,-0.039083471632003784,0.04590893373787403
1733861815210622000,0.4846220703125,-0.040136780077219006,-0.0430564669162035,0.029759762969613072
1733861815220572700,0.49457275390625,-0.0350742359906435,-0.06117664549648762,0.05446399611532688
1733861815230524000,0.50452392578125,-0.013973434164375065,-0.04298632428944111,0.0663268678665161
1733861815240474600,0.514474609375,0.01745265458226204,-0.028764906713366508,0.07876374011337757
1733861815250425900,0.52442578125,0.01221869945153594,-0.0376449632614851,0.056036944520473475
1733861815260376600,0.53437646484375,-0.03303936916217208,-0.044860885989665984,0.05613865132927894
1733861815270327800,0.544327880859375,-0.06361921634301543,-0.05341244123578071,0.04505670082271099
1733861815280279600,0.554279541015625,-0.07942541889250278,-0.05221826301515102,0.04934709149301052
1733861815290230800,0.564230712890625,-0.06885828604027629,-0.06382920583188534,0.0475701449483633
1733861815300181500,0.574181396484375,-0.05957783199772238,-0.02702420052587986,0.02837269252538681
1733861815310132700,0.5841328125,-0.02423603111207485,-0.035216859331727024,0.05542027392685413
1733861815320083700,0.594083740234375,-0.013524667483568191,-0.039542905837297436,0.05910042374432087
1733861815330034700,0.60403466796875,-0.023471476480364798,-0.036329789009690285,0.032629765447974204
1733861815339985700,0.613985595703125,-0.023752777639776467,-0.02643032628595829,0.0327910934895277
1733861815349936600,0.6239365234375,-0.02813932216092944,-0.017964695757627488,0.014455226331949234
1733861815359887600,0.6338876953125,-0.028839579384773967,-0.03876198459267616,-0.010429624077677726
1733861815369839600,0.643839599609375,-0.04876023151576519,-0.03768237266242504,-0.00030161329507827757
1733861815379790800,0.653790771484375,-0.05020400058329105,-0.02307400159537792,0.014642857858538626
1733861815389741600,0.663741455078125,-0.05920490703210234,-0.03944236807227135,0.03262041309773922
1733861815399692800,0.67369287109375,-0.07229644379541278,-0.030958617365360257,0.03723462889492511
1733861815409643800,0.683643798828125,-0.08040390853583812,-0.04360884010195732,0.03942132528424263
1733861815419594800,0.6935947265625,-0.05935235267877578,-0.10036474654674529,0.10160510199666023
1733861815429545700,0.703545654296875,-0.0492956535667181,-0.004592003965377807,0.07442892577946186
1733861815439496700,0.71349658203125,-0.05097381591200828,0.023698855495452878,0.0029220249265432354
1733861815449447700,0.72344775390625,-0.034780952132493256,0.00015548282265663146,-0.019328969848155974
1733861815459398700,0.733398681640625,-0.037347295489162206,-0.010009937360882758,-0.053420624542236325
1733861815469351000,0.743350830078125,-0.03911912746727467,-0.010101707297563552,-0.041213469398021695
1733861815479301600,0.753301513671875,-0.03156418204307556,-0.07901157739460468,0.14249182365834712
1733861815489252900,0.7632529296875,-0.01133987079039216,-0.08757190046906471,0.09402385308742522
1733861815499203600,0.77320361328125,-0.03322524712309241,-0.026818448820710182,0.037891631498932835
1733861815509155600,0.783155517578125,-0.07911196902915835,-0.04573065456151962,0.027308862686157225
1733861815519106300,0.793106201171875,-0.12163725167810917,-0.00258241770863533,-0.05180675960481167
1733861815529057500,0.8030576171875,-0.09715148358866572,-0.04849427405595779,0.03256371447443962
1733861815539008500,0.813008544921875,-0.02322480824291706,-0.010220365241169928,0.04014028720855713
1733861815548959500,0.82295947265625,0.04179448415637016,-0.013531097224354744,0.059358782419562335
1733861815558911500,0.832911376953125,0.05789397056400775,-0.028370354437828062,0.03169628399014473
1733861815568862500,0.842862548828125,-0.046911973300576205,-0.013778349983692168,0.0011304653346538543
1733861815578813400,0.8528134765625,-0.10639365144744514,-0.051968087646365166,0.03463116839826107
1733861815588764400,0.862764404296875,-0.14423559858575463,-0.05053834710419178,0.0168704707801342
1733861815598715600,0.872715576171875,-0.074009969715029,-0.03418926984965801,0.019919921478629112
1733861815608666400,0.882666259765625,0.024911884547024962,-0.022930209210515022,0.058061728346347805
1733861815618617600,0.89261767578125,0.07046878997683524,-0.022523381975293157,0.042565468528866765
1733861815628568300,0.902568359375,0.00402677129805088,-0.037655484655499456,0.049780806735157966
1733861815638519600,0.91251953125,-0.06600128917396068,-0.04684650684893131,0.02955459578633308
1733861815648471600,0.922471435546875,-0.08864289070144295,-0.03547580252885818,0.015907763227820396
1733861815658422500,0.932422607421875,-0.07691431285440921,-0.02865150946676731,0.0269090497136116
1733861815668373500,0.94237353515625,-0.07064648463129997,-0.040862756264209744,0.04060673567652702
1733861815678324500,0.952324462890625,-0.04751052371561527,-0.05294891537725925,0.03952946183383465
1733861815688275500,0.962275390625,-0.023736703287810086,-0.033898177948594094,0.04741992282271385
1733861815698226400,0.972226318359375,-0.02718669761121273,-0.02685410465598106,0.03604278876185417
1733861815708177700,0.982177734375,-0.041918402796983716,-0.028308395117521284,0.015678630647063256
1733861815718128400,0.99212841796875,-0.05606456317976117,-0.035814240702986715,0.031106501403450965
1733861815728079600,1.00207958984375,-0.00897942526936531,-0.025111060380935666,0.05705810426175594
1733861815738031600,1.012031494140625,0.02513502577841282,-0.020573416951298714,0.03247662071287632
1733861815747982600,1.021982666015625,-0.01627835010588169,-0.03909282398223877,0.009773205995559692
1733861815757933600,1.03193359375,-0.05027706581950187,-0.03315057445168495,0.04247369859218597
1733861815767884500,1.041884521484375,-0.05736833925470709,-0.021822540229558943,0.046558337557315824
1733861815777835500,1.05183544921875,-0.07053951712548732,-0.030800796455144882,0.01591360844671726
1733861815787786500,1.061786376953125,-0.043888241565227505,-0.04149403990507126,0.023982348611950872
1733861815797737500,1.071737548828125,-0.016285364368557927,-0.03907996450066566,0.05935644433200359
1733861815807688400,1.0816884765625,0.011192717404663563,-0.029345336949825284,0.03866904561221599
1733861815817639700,1.0916396484375,0.01993935683146119,-0.025590368330478667,0.031109424012899397
1733861815827591400,1.10159130859375,0.015594459494948386,-0.02354278815090656,0.044508419290184974
1733861815837542700,1.111542724609375,-0.01577916841208935,-0.026518589091300962,0.028761984103918073
1733861815847493400,1.121493408203125,-0.022013240496069193,-0.037491234004497526,0.02541851889491081
1733861815857444600,1.131444580078125,-0.03190042826011777,-0.02984744125306606,0.042428690406680104
1733861815867395300,1.141395263671875,-0.04121653813794255,-0.03231003197431564,0.045537177816033364
1733861815877346600,1.1513466796875,-0.05330488920807838,-0.04521919790804386,0.050613750427961346
1733861815887297300,1.16129736328125,-0.040369858180731535,-0.027254502150416374,0.043460371541976926
1733861815897248500,1.17124853515625,-0.03541325868666172,-0.031631402060389516,0.04030746046900749
1733861815907199700,1.18119970703125,-0.019778467181324956,-0.02837269252538681,0.027318215036392212
1733861815917151500,1.1911513671875,-0.016879676999896762,-0.02740413975417614,0.038518238964676856
1733861815927102500,1.2011025390625,-0.026080343804508445,-0.041866964870691296,0.02666471956372261
1733861815937053400,1.211053466796875,-0.0569119737893343,-0.027745500537753105,0.030957448321580885
1733861815947004700,1.221004638671875,-0.06167685010358691,-0.018047113344073294,0.04651683650314808
1733861815956955400,1.230955322265625,-0.04453063112199306,-0.02346621578335762,0.0458972433000803
1733861815966906600,1.24090673828125,-0.0507335774153471,-0.03244797914028168,0.04047989442646503
1733861815976857300,1.250857421875,-0.06129238083064556,-0.05597732328772544,0.02393675590455532
1733861815986808600,1.26080859375,-0.052974195948988195,-0.04535422246456146,0.029745734444260596
1733861815996759300,1.27075927734375,-0.013112433420866727,-0.0322942498832941,0.04380056328177452
1733861816006710500,1.28071044921875,0.005881166993081569,-0.017167407900094984,0.04421440477967262
1733861816016662500,1.29066259765625,-0.011403875937312841,-0.021317513316869735,0.027657822254300114
1733861816026613500,1.300613525390625,-0.03278685570582747,-0.02910802106261253,0.05058920050859451
1733861816036564500,1.310564453125,-0.04289090109094977,-0.03220423351228237,0.03782441148161888
1733861816046515500,1.320515380859375,-0.0654687897324562,-0.03345627939999103,0.025953940945863722
1733861816056466700,1.330466796875,-0.05097366978153586,-0.029637597894668577,0.04995031808316707
1733861816066417400,1.34041748046875,-0.034477877532690764,-0.019431845700740812,0.0542757800668478
1733861816076368600,1.35036865234375,-0.010624123736470937,-0.024160043266415594,0.038697687184810634
1733861816086319400,1.3603193359375,-0.03949190630242228,-0.03998772699534893,0.03862696003615856
1733861816096270600,1.3702705078125,-0.03796571964845061,-0.026871640312671658,0.0378758494079113
1733861816106222300,1.380222412109375,-0.02570595753416419,-0.02635609200596809,0.032932547786831856
1733861816116173600,1.390173583984375,-0.029980712243914603,-0.024731705674529075,0.03091711631119251
1733861816126124500,1.40012451171875,-0.016046733307093382,-0.04432838654816151,0.023632804521918297
1733861816136075500,1.410075439453125,-0.0235052326194942,-0.04182195668518543,0.03517418923377991
1733861816146026500,1.420026611328125,-0.028527006304264066,-0.03466331710219383,0.038352819269895554
1733861816155977500,1.4299775390625,-0.023307956481724977,-0.04840425768494606,0.035090018081665036
1733861816165928700,1.4399287109375,-0.0035398645639419554,-0.035865094107389445,0.04848492170572281
1733861816175879400,1.44987939453125,-0.021376111636310816,-0.03977846815884113,0.0385334365338087
1733861816185830700,1.45983056640625,-0.013381898012012243,-0.03233049024045467,0.04068447708785534
1733861816195782400,1.469782470703125,-0.0019620938532054423,-0.0365250193208456,0.03871756092905998
1733861816205733600,1.479733642578125,0.018798954624682663,-0.028015549650788306,0.042567806616425514
1733861816215684400,1.489684326171875,0.001037672484666109,-0.027329320952296256,0.03463701361715794
1733861816225635600,1.499635498046875,-0.028221885877847668,-0.022847207102179527,0.03261222979128361
1733861816235586300,1.50958642578125,-0.04084448995515704,-0.03576864799559116,0.030329087290167808
1733861816245537500,1.51953759765625,-0.047991585230827326,-0.04943418525457382,0.016332126119732854
1733861816255488500,1.529488525390625,-0.05172375749647617,-0.026111177334189415,0.03721475515067577
1733861816265439500,1.539439453125,-0.02932473255321383,-0.02415419804751873,0.05284428595900535
1733861816275390700,1.549390625,-0.005148468804359436,-0.022476035702228545,0.04112871372401714
1733861816285341400,1.559341552734375,0.010771130991727114,-0.029461656805872916,0.05386369213461876
1733861816295293700,1.569293701171875,0.01066518639922142,-0.026444939333200454,0.03987666783630848
1733861816305244400,1.579244384765625,-0.0017716858476400374,-0.036029929280281064,0.037010757011175156
1733861816315195600,1.589195556640625,-0.029781390279531476,-0.04496376184225082,0.030765140619874
1733861816325146400,1.599146484375,-0.0588778670348227,-0.04978197577893734,0.03563011630773544
1733861816335097600,1.60909765625,-0.0796564511694014,-0.03582885375022888,0.030694413471221923
1733861816345048300,1.61904833984375,-0.06742474610581993,-0.02622866623401642,0.03882394391298294
1733861816354999600,1.62899951171875,-0.04396525232419372,-0.036983284482359886,0.032682956939935684
1733861816364950500,1.638950439453125,-0.04768704932630062,-0.0361287134796381,0.014809446597099303
1733861816374901500,1.648901611328125,-0.040871524092555046,-0.03320376594364643,0.02608253576159477
1733861816384853500,1.658853515625,-0.007322744103521108,-0.0321551336735487,0.03405366077125072
1733861816394804500,1.668804443359375,0.0010948094993829727,-0.020699673679471016,0.043483167895674704
1733861816404755700,1.678755615234375,-0.0035093232952058315,-0.02100713219344616,0.03789280054271221
1733861816414706400,1.68870654296875,-0.033630466923117636,-0.04233808951377868,0.050175359010696405
1733861816424657700,1.69865771484375,-0.04200418138429522,-0.02397591887116432,0.04363046741187572
1733861816434608400,1.7086083984375,-0.055336687296628946,-0.042758945274353026,0.030718963390588758
1733861816444559600,1.7185595703125,-0.0670329703092575,-0.03320551950931549,0.03574760520756244
1733861816454510300,1.72851025390625,-0.07227043257132172,-0.032575989434123036,0.03594868073761463
1733861816464461600,1.738461669921875,-0.047978579618781804,-0.030815409502387044,0.04279109397828579
1733861816474413300,1.748413330078125,-0.021909633991122245,-0.02463701312839985,0.02788637031316757
1733861816484364500,1.758364501953125,-0.010551935283094643,-0.04307049544155597,0.048395489856600755
1733861816494315500,1.7683154296875,-0.004436959534138441,-0.019814707538485524,0.04106324727237224
1733861816504266500,1.7782666015625,-0.009428338080644607,-0.029019758257269858,0.04500993907153606
1733861816514217200,1.78821728515625,-0.024940818380564448,-0.0378495459228754,0.05356266336143017
1733861816524168200,1.798168212890625,-0.012623919251561163,-0.026187749701738355,0.05465396572947502
1733861816534119200,1.808119140625,0.0365904857724905,-0.023308394873142242,0.05210428124666214
1733861816544070100,1.818070068359375,0.03488543542027473,-0.026140403428673742,0.03871580736339092
1733861816554021000,1.828021240234375,0.005004676419496536,-0.019050152906775475,0.04667874906659126
1733861816563972400,1.837972412109375,-0.01927636287808418,-0.03482289157807827,0.050212183889746666
1733861816573924400,1.84792431640625,-0.013943185156583784,-0.026493454650044438,0.044078795701265334
1733861816583875000,1.857875,-0.017581395528465507,-0.045074236479401585,0.03048223202526569
1733861816593826300,1.867826416015625,-0.044213820257782935,-0.042969373154640195,0.037813305565714835
1733861816603777300,1.87777734375,-0.02390752981007099,-0.03107318365573883,0.04702303245961666
1733861816613728300,1.887728271484375,-0.01091375433281064,-0.025419687938690184,0.04339782769978046
1733861816623679200,1.89767919921875,-0.016152093377709387,-0.03202946146726608,0.046963411226868625
1733861816633630200,1.907630126953125,-0.034775399174541234,-0.05073533098101616,0.039461072772741315
1733861816643581200,1.917581298828125,-0.07136442364230751,-0.043244682964682576,0.04792261164784431
1733861816653532200,1.9275322265625,-0.07429857739806175,-0.043538697475194926,0.02746200742125511
1733861816663484200,1.937484130859375,-0.07525295551344752,-0.029212065958976744,0.02288227841556072
1733861816673435100,1.94743505859375,-0.10964914611205458,-0.03606850772500038,0.013178046002984046
1733861816683386400,1.957386474609375,-0.14388766193091868,-0.0494219102948904,0.02698971373438835
1733861816693337000,1.967337158203125,-0.1283195059210062,-0.043209027129411694,0.028490181425213812
1733861816703288300,1.977288330078125,-0.11176467696130275,-0.03386018402576446,0.03044190001487732
1733861816713239300,1.9872392578125,-0.07693959342613815,-0.029983634853363035,0.04876958386600017
1733861816723190300,1.997190185546875,-0.07215235914960504,-0.02114507935941219,0.042080315360426904
1733861816733141200,2.007141357421875,-0.047206572332978244,-0.016164368337392807,0.028852000474929806
1733861816743092200,2.01709228515625,-0.005939326921105385,-0.027048165923357008,0.04126724541187286
1733861816753044200,2.027044189453125,0.030214374869316815,-0.007650222492218017,0.034624738657474514
1733861816762995200,2.0369951171875,0.042958121108263726,-0.018739771783351896,0.03954992009997368
1733861816772946200,2.0469462890625,0.025441753640025853,-0.020634207227826117,0.056442602711915965
1733861816782897200,2.056897216796875,0.025416034676879643,-0.03316226488947868,0.047694063588976855
1733861816792848100,2.06684814453125,0.01426759480535984,-0.05663198780417442,0.049451720911264416
1733861816802799000,2.076799072265625,0.002295417460799217,-0.05171674323379993,0.04750175588726997
1733861816812750000,2.08675,0.0186013862259686,-0.03661912734508514,0.04994856451749801
1733861816822701300,2.096701416015625,0.042663229814916846,-0.048373862546682356,0.05499357294738293
1733861816832652300,2.10665234375,0.0525577241025865,-0.02120353154838085,0.04492810600697994
1733861816842603300,2.116603271484375,0.039732875451445576,-0.01601122360229492,0.028301380854845046
1733861816852555300,2.12655517578125,0.01730608571842313,-0.022330489751696585,0.057870005166530604
1733861816862506200,2.13650634765625,0.010337415749579668,-0.013843816435337065,0.025395138019323346
1733861816872457200,2.146457275390625,-0.03654065528139472,-0.02535012983381748,0.037410569983720776
1733861816882408200,2.156408203125,-0.09169336431324482,-0.051284781557321545,0.03715571843981743
1733861816892359200,2.166359130859375,-0.10366334970071911,-0.029980127722024914,0.032713352078199386
1733861816902310100,2.17631005859375,-0.08296937510967255,-0.021627309918403625,0.04557692530453205
1733861816912261000,2.18626123046875,-0.05346621724963188,-0.022946575823426244,0.04034253178238868
1733861816922212000,2.196212158203125,-0.05157353537082672,-0.03707797702848911,0.04276479049324989
1733861816932163300,2.206163330078125,-0.09501344864666461,-0.05374152705967426,0.013843816435337065
1733861816942114000,2.216114013671875,-0.17331366290152073,-0.04651099128425121,-0.03524199377298355
1733861816952066300,2.22606640625,-0.31016660389006134,-0.04871697689592838,-0.06383563557267188
1733861816962017300,2.236017333984375,-0.35043490139245986,-0.03629588674008846,-0.01734802516400814
1733861816971968300,2.24596826171875,-0.24423414216861128,-0.009207973328232765,0.04730301844477653
1733861816981919200,2.255919189453125,-0.06009864100143313,-0.009507833057641982,0.07626607807874679
1733861816991870200,2.2658701171875,0.17386486704349516,-0.023768413600325583,0.08177519688904285
1733861817001821200,2.2758212890625,0.29238267152681946,-0.023444003951549528,0.07304886959791183
1733861817011772200,2.285772216796875,0.23224574434161185,-0.03715279583036899,0.10539046575427055
1733861817021723400,2.295723388671875,0.04306830348446965,-0.03405541433691978,0.08114742037951946
1733861817031674000,2.305674072265625,-0.14331073882579803,-0.028557985964417457,0.04682195692956447
1733861817041626000,2.315626220703125,-0.20502733641788362,-0.04795066869854927,-0.005175941333174706
1733861817051577300,2.325577392578125,-0.18469854187741874,-0.06494856525063514,-0.02911737341284752
1733861817061528300,2.3355283203125,-0.057623190798610446,-0.048942017823457716,0.0010708441019058226
1733861817071479300,2.345479248046875,0.08861644108593464,-0.04222469226717949,0.03412672600746155
1733861817081430300,2.35543017578125,0.1452015210084617,-0.017665420550107953,0.041942368194460865
1733861817091381200,2.36538134765625,0.14884206946790218,-0.01683598398864269,0.0632733255147934
1733861817101332200,2.375332275390625,0.12473054151833057,-0.01934007576406002,0.08728957639634609
1733861817111283200,2.385283203125,0.06603621435686946,-0.019849194329977036,0.10353519327640533
1733861817121234200,2.395234130859375,0.0223299052298069,-0.02906885809600353,0.09435410795509815
1733861817131185400,2.405185302734375,-0.027459084811806676,-0.032063363736867904,0.06878419789075851
1733861817141137200,2.41513720703125,-0.005569470695406198,-0.03395136944055557,0.051709144449234
1733861817151088000,2.425088134765625,0.06921966669857502,-0.03077683105766773,0.04735153376162052
1733861817161039000,2.4350390625,0.16950725635588168,-0.008256371691823005,0.04820493572056293
1733861817170990300,2.444990234375,0.22916195298209785,0.00856675281524658,0.06581658025681972
1733861817180941000,2.454941162109375,0.2173854443401098,-0.013042436924576758,0.05972235503494739
1733861817190892300,2.464892333984375,0.1488428001202643,0.0060059624165296555,0.09534428803622721
1733861817200843300,2.47484326171875,0.07764511134698987,-0.03823240776062011,0.1035538979768753
1733861817210794200,2.484794189453125,0.011076689809560775,-0.055634793460369106,0.03398644075393677
1733861817220745200,2.4947451171875,-0.05839607486724853,-0.03724222767949104,0.05391162292957306
1733861817230697200,2.504697265625,-0.07999459708258509,-0.036599838122725485,0.04401274472773075
1733861817240648200,2.514648193359375,-0.07513517435267567,-0.03823006967306137,0.04163549420237541
1733861817250599200,2.52459912109375,-0.09588613982796669,-0.012566051584482192,0.037680034574866295
1733861817260550100,2.534550048828125,-0.10622983918786048,-0.0267436300188303,0.021146832925081252
1733861817270501000,2.544501220703125,-0.13707038313150405,-0.03459025186598301,0.0039127895295619965
1733861817280452400,2.554452392578125,-0.14487725749015806,-0.04363046741187572,0.0006727846950292587
1733861817290403000,2.564403076171875,-0.18181392635181545,-0.05079144508242607,-0.015579261925816535
1733861817300354300,2.574354248046875,-0.23883389056026935,-0.05597849233150482,-0.014254150801897049
1733861817310305000,2.584304931640625,-0.2940045736402273,-0.07899521078169346,-0.034065351209044456
1733861817320257300,2.59425732421875,-0.31673502249494195,-0.0705190588593483,-0.01993044287264347
1733861817330208300,2.604208251953125,-0.2595376558929682,-0.06243512112498283,0.022401216900348662
1733861817340159200,2.6141591796875,-0.15125322226285934,-0.023743863680958748,0.0641448476523161
1733861817350110200,2.624110107421875,-0.0960476139999926,-0.01705050352215767,0.07996200998723506
1733861817360061200,2.634061279296875,-0.035964024437218904,-0.02557283267378807,0.034600188738107676
1733861817370012200,2.64401220703125,-0.042263855233788485,-0.024969021561741828,0.032522213420271874
1733861817379963100,2.653963134765625,-0.045900896561890836,-0.027760113584995267,0.0045125089883804315
1733861817389914400,2.663914306640625,-0.04231295507252216,-0.055655251726508134,0.003966565543413162
1733861817399865000,2.673864990234375,0.011174889487028121,-0.04943360073268413,0.03658814768493175
1733861817409816300,2.68381640625,0.06281915200650692,-0.04171732726693153,0.03482990584075451
1733861817419768300,2.693768310546875,0.07832461804375052,-0.026543723532557486,0.04511398396790027
1733861817429719300,2.70371923828125,0.09387772261500359,-0.025994857478141783,0.07265840897560119
1733861817439670300,2.713670166015625,0.10543430489599705,-0.019005144721269608,0.06118775141239166
1733861817449621200,2.723621337890625,0.15470423949956894,-0.022808628657460212,0.0702402419179678
1733861817459572200,2.733572265625,0.168743870767951,-0.01557341670691967,0.04653144955039024
1733861817469523200,2.743523193359375,0.1459502935491502,-0.009162965142726898,0.06433364822268485
1733861817479474400,2.753474365234375,0.0702443335711956,-0.00758650960624218,0.04954524441361427
1733861817489425200,2.763425048828125,-0.01110284716412425,-0.007689385458827018,0.03199322111010551
1733861817499376400,2.77337646484375,-0.10984876033738254,-0.01370119309425354,0.060844052541255945
1733861817509327000,2.7833271484375,-0.1511322262316942,0.009919920989871024,0.10698211885988712
1733861817519279000,2.793279052734375,-0.13338453422561286,0.008100888869166373,0.1293137776553631
1733861817529230000,2.80322998046875,-0.1350596278309822,-0.009000468057394026,0.08797989674806594
1733861817539181000,2.81318115234375,-0.15667583183348177,-0.011561258456110954,0.05637830530405044
1733861817549132000,2.823132080078125,-0.1657721614807844,-0.01525485227704048,0.045185295638442036
1733861817559083000,2.8330830078125,-0.20057590996697544,-0.017920272094011307,0.06188917768001556
1733861817569034000,2.843033935546875,-0.19941548788547514,-0.0345949280411005,0.023107903864979743
1733861817578985000,2.85298486328125,-0.1497778890132904,-0.09944763170182705,-0.06032441258132457
1733861817588936200,2.862936279296875,-0.1214700784176588,-0.11349369271099567,-0.08851707236468792
1733861817598887200,2.87288720703125,-0.06763268976807595,-0.10045768552720546,-0.06596037264168263
1733861817608839000,2.8828388671875,-0.009815291571617125,-0.05613982037305831,0.017300678890943527
1733861817618790100,2.8927900390625,0.03298690832257271,-0.02845452558994293,0.0511211154282093
1733861817628741000,2.9027412109375,0.02476955346688628,-0.04138590335547924,0.0589595539689064
1733861817638692000,2.912692138671875,-0.00767082688882947,-0.03919803792238235,0.03798223239183426
1733861817648643000,2.92264306640625,-0.04145911472216248,-0.04935118314623833,0.028152327772974967
1733861817658594000,2.932593994140625,-0.047641456618905065,-0.04905366150438785,0.03415361401438713
1733861817668545000,2.942544921875,-0.04090717992782592,-0.021622633743286133,0.02764730086028576
1733861817678496000,2.95249609375,-0.015272241803258656,-0.01525485227704048,0.03018295681774616
1733861817688447000,2.962447021484375,0.02677329450473189,-0.029735797572135923,0.027728549402952194
1733861817698398200,2.972398193359375,0.04931070500537753,-0.027236966493725773,0.019092238482832907
1733861817708350200,2.98235009765625,0.017824264373630286,-0.01622691217958927,0.014023264655470847
1733861817718301200,2.99230126953125,-0.00854176450446248,-0.016221066960692403,0.04784779284596443
1733861817728252200,3.002252197265625,-0.03841287889406085,-0.011668810483813285,0.07602350149452686
1733861817738203100,3.012203125,-0.06610752602741121,-0.015765724408626555,0.052958267727494235
1733861817748154000,3.022154052734375,-0.08212707906663418,-0.04627367539703846,0.05826631100773811
1733861817758105000,3.03210498046875,-0.08374196691736578,-0.05858662900328636,0.05863865145146847
1733861817768056000,3.04205615234375,-0.04418912420794367,-0.04488134425580501,0.03276011382937431
1733861817778007000,3.052007080078125,-0.04355491795763373,-0.036327450922131535,0.034818215402960775
1733861817787958300,3.061958251953125,-0.03239303408265114,-0.04273439535498619,0.047213586595654486
1733861817797910000,3.071909912109375,-0.03396773605346679,-0.05034779296815395,0.03358078256249428
1733861817807861000,3.081861083984375,-0.04644494031071662,-0.05482815325260162,0.021337971583008764
1733861817817812200,3.091812255859375,-0.03709069037958979,-0.03830488847494125,0.026488778474926946
1733861817827763200,3.10176318359375,-0.06516133121848106,-0.035005262407660484,0.023818097960948942
1733861817837714200,3.111714111328125,-0.059791913139820095,-0.03606850772500038,0.04996960730552673
1733861817847665200,3.1216650390625,-0.046852352067828174,-0.02695756503045559,0.04408697900772095
1733861817857616100,3.1316162109375,-0.034123072745651004,-0.02656009014546871,0.049991819137334824
1733861817867567000,3.141567138671875,-0.04014788599312305,-0.0291050984531641,0.030635376760363577
1733861817877518000,3.15151806640625,-0.04963292269706726,-0.0141167881578207,0.04403554108142853
1733861817887469000,3.161468994140625,-0.04797156535610556,-0.03743395085930824,0.03677519468963146
1733861817897421000,3.171421142578125,-0.04337371617183089,-0.032433950614929194,0.028501871863007545
1733861817907372000,3.1813720703125,-0.06672142014205455,-0.013723989447951316,0.02318330718874931
1733861817917323000,3.191322998046875,-0.06501520074605942,-0.01976736126542091,0.020362989071011542
1733861817927274000,3.20127392578125,-0.07797463556230068,-0.021329203754663465,0.048500119274854654
1733861817937225200,3.21122509765625,-0.056540363997966046,-0.02392097381353378,0.019497896674275397
1733861817947176000,3.221176025390625,-0.04059694493487477,-0.0312748437076807,0.043000352814793585
1733861817957127200,3.231127197265625,-0.028595979887247085,-0.022189035454392433,0.05632043763697147
1733861817967078100,3.241078125,-0.00341243879199028,-0.012855389919877051,0.04361351627707481
1733861817977029000,3.251029052734375,0.015439999585598706,-0.04203706074059009,0.04732932192981243
1733861817986980000,3.26097998046875,-0.005410188480466604,-0.024445874470472334,0.035164252361655234
1733861817996932000,3.27093212890625,-0.06337503232359885,-0.0406119963735342,0.04578852222859859
1733861818006883000,3.280883056640625,-0.08508417530655861,-0.024043723410367965,0.06986147173345089
1733861818016834000,3.290833984375,-0.0835462982147932,-0.0199421333104372,0.07293488782942295
1733861818026785000,3.300784912109375,-0.06176818164885044,-0.022951836520433425,0.0630202275365591
1733861818036736000,3.310736083984375,-0.038203912318497894,-0.02213935109376907,0.05872691425681114
1733861818046687200,3.320687255859375,-0.024522885229438542,-0.018687164813280106,0.06258242064118386
1733861818056638000,3.330637939453125,-0.019823475366830826,-0.008334697625041007,0.04565349767208099
1733861818066589200,3.340589111328125,-0.028352964911609886,-0.020543606334924698,0.016523849299550055
1733861818076540000,3.350539794921875,-0.07277005265653133,-0.031658874589204786,0.005983750584721565
1733861818086492200,3.3604921875,-0.10739508357495069,-0.04648351875543594,-0.0007616320222616196
1733861818096443100,3.370443115234375,-0.0731195967465639,-0.04117898260653019,0.021534955459833145
1733861818106394000,3.38039404296875,-0.05357902997434139,-0.04197627046406269,0.030551790130138395
1733861818116345000,3.390344970703125,-0.002014993084222078,-0.04025426897704601,0.024171149182319638
1733861818126296000,3.400296142578125,0.010343699359893798,-0.03350421019494533,0.03623509646356106
1733861818136247000,3.4102470703125,0.013859598526358603,-0.031326866155862804,0.0409866749048233
1733861818146198000,3.420197998046875,0.014236030623316765,-0.045564065822958945,0.044649873587489126
1733861818156149200,3.430149169921875,0.0063366556756198405,-0.029980712243914603,0.033795302096009255
1733861818166100000,3.440099853515625,0.00006619710400700569,-0.027453824114799498,0.02256020685434341
1733861818176051200,3.45005126953125,-0.03568959141001105,-0.03441723338663578,0.022357962280511855
1733861818186003200,3.460003173828125,-0.024550650019198653,-0.03509118712544441,0.03716156365871429
1733861818195954200,3.4699541015625,0.01857479047998786,-0.03817570913732052,0.051448447686433786
1733861818205905200,3.4799052734375,0.0669634122043848,-0.014814122772216796,0.07476853299736977
1733861818215856000,3.489856201171875,0.06401084600910543,-0.007846621847152709,0.06416238330900668
1733861818225807000,3.49980712890625,0.053034401703625916,-0.014706570744514464,0.06302665727734566
1733861818235758000,3.509758056640625,0.03732055361270904,-0.02618716517984867,0.04236088586747646
1733861818245709000,3.519708984375,0.0016406068138778208,-0.03151975837945938,0.02894903110861778
1733861818255660000,3.529659912109375,-0.013934855719655751,-0.03151215959489345,0.039707741010189056
1733861818265611300,3.539611328125,-0.011924100419133901,-0.03668517831861973,0.050069560548663135
1733861818275562000,3.54956201171875,0.002484218031167984,-0.02099485723376274,0.06351356401145458
1733861818285514200,3.55951416015625,0.021486878534406423,-0.01851122372448444,0.06423194141387939
1733861818295465000,3.56946484375,0.045666357153654094,-0.016484686332941055,0.065756374502182
1733861818305416200,3.579416259765625,0.039361557921022174,-0.00036240357160568235,0.06930559141635895
1733861818315367000,3.589366943359375,-0.04120923161432147,-0.003243511965870857,0.09684650929272175
1733861818325318100,3.599318115234375,-0.07058057978823781,-0.00045008185505867004,0.09484510634243488
1733861818335268900,3.609268798828125,-0.08375731061697006,-0.015372341176867484,0.09145195677280425
1733861818345220000,3.61922021484375,-0.10089373885691165,-0.05661620571315288,0.040049686315655704
1733861818355171300,3.62917138671875,-0.07813362551629544,-0.07299684714972972,-0.0038210195928812026
1733861818365122000,3.6391220703125,-0.07878945907652378,-0.055745268097519875,-0.0051864627271890635
1733861818375074000,3.649073974609375,-0.07318681676387787,-0.05867489180862903,-0.002908580923080444
1733861818385025000,3.65902490234375,-0.050190410449355835,-0.06346738678216934,0.0023906945288181304
1733861818394976300,3.668976318359375,-0.019286153619736433,-0.05964110649228096,-0.005602057790756225
1733861818404927000,3.678927001953125,-0.022929478558152912,-0.04497252967059612,-0.0009843348622322083
1733861818414878200,3.688878173828125,-0.017767565750330686,-0.02813654568195343,0.024897125369310377
1733861818424829000,3.698828857421875,-0.023892770632356404,-0.01591594653427601,0.024670330876111982
1733861818434780200,3.7087802734375,-0.04611117831170559,-0.026861118918657303,0.0005786766707897186
1733861818444731000,3.71873095703125,-0.06489771184623241,-0.030757541835308072,0.005376432341337204
1733861818454682000,3.72868212890625,-0.024815292304754256,-0.030437223839759824,0.009328969359397888
1733861818464633000,3.738633056640625,0.012010609658807516,-0.022217677026987074,0.04511632205545902
1733861818474585000,3.748585205078125,0.056077714922279115,-0.010147884526848793,0.08390227204561233
1733861818484536000,3.7585361328125,0.06951426573097705,-0.0049503158837556835,0.0729454092234373
1733861818494487000,3.768487060546875,0.0763207308754325,-0.02106499986052513,0.04017769660949707
1733861818504438300,3.778438232421875,0.06359525094553828,-0.029914076748490333,0.03515665357708931
1733861818514389500,3.788389404296875,0.014888357052206992,-0.030613164928555488,0.036702129453420634
1733861818524340500,3.798340576171875,-0.042514030602574346,-0.03118716542422771,0.03925298298001289
1733861818534291500,3.80829150390625,-0.09054068714678287,-0.05151157605051994,0.01862286740541458
1733861818544242400,3.818242431640625,-0.07538461906909942,-0.06810322988927364,0.018570260435342788
1733861818554193400,3.828193359375,-0.057849546900391575,-0.04428337836265564,0.015825345641374586
1733861818564144400,3.838144287109375,0.009561024549603461,-0.038621114817261694,0.014873159483075141
1733861818574096400,3.848096435546875,0.04412321936488151,-0.05483925916850566,0.029396190354228018
1733861818584047600,3.858047607421875,0.05388824205398559,-0.04101590099930763,0.027012510088086125
1733861818593998300,3.867998291015625,0.0575958644002676,-0.017689385947585106,0.030099954709410667
1733861818603949600,3.877949462890625,0.046005964371562,-0.026666473129391667,0.05708733035624027
1733861818613900500,3.887900634765625,0.04469882729575038,-0.013091536763310431,0.06439151588976383
1733861818623851500,3.8978515625,0.07010097957774997,-0.004561024305224418,0.07224106034636497
1733861818633802500,3.907802490234375,0.07736497923135757,-0.018152911806106568,0.08332710250616072
1733861818643753500,3.91775341796875,0.056424044141918414,-0.03121639151871204,0.07314122405648231
1733861818653704400,3.927704345703125,0.02211436278298497,-0.014909984362125395,0.05799626189470291
1733861818663655400,3.937655517578125,-0.010254998163133858,-0.01308335345685482,0.039940965244174
1733861818673607400,3.947607421875,-0.04425254483297467,-0.021644261053204536,0.04530161549448967
1733861818683558400,3.957558349609375,-0.0629986002266407,-0.01864040306210518,0.06080196696519851
1733861818693509600,3.967509521484375,-0.036163784793019293,-0.020737083080410956,0.06260989316999913
1733861818703460400,3.97746044921875,-0.008701192849874495,-0.03297054170966148,0.06309270825088024
1733861818713411600,3.98741162109375,0.00022080314382910728,-0.03898001125752926,0.05916121402084827
1733861818723362600,3.997362548828125,-0.05271057657673955,-0.03625321664214134,0.04489186564981937
1733861818733313500,4.0073134765625,-0.10982114167809486,-0.051504561787843704,0.024819968479871748
1733861818743264500,4.017264404296875,-0.18353475879505277,-0.06427578055560589,-0.005679799202084541
1733861818753215500,4.027215576171875,-0.20962840047255157,-0.06517360617816448,-0.0019441198050975798
1733861818763167500,4.03716748046875,-0.20633330444991588,-0.04874620299041271,0.004677344161272049
1733861818773118500,4.047118408203125,-0.18866189255043864,-0.0380588047593832,0.009847440275549887
1733861818783069400,4.0570693359375,-0.14734671634361146,-0.050129766303300856,0.02976034749150276
1733861818793020400,4.0670205078125,-0.1257259822964668,-0.04937456402182579,0.03961071037650108
1733861818802971400,4.076971435546875,-0.09125555741786956,-0.04639233334064483,0.042702246651053426
1733861818812922400,4.08692236328125,-0.06286123758256434,-0.030685061120986935,0.05650339298844337
1733861818822873300,4.096873291015625,-0.030856764426082373,-0.018221300867199898,0.03051321168541908
1733861818832824600,4.106824462890625,-0.044788259144872423,-0.01428279237449169,0.01677110205888748
1733861818842775600,4.116775634765625,-0.05819572998955846,-0.019860884767770766,0.028048282876610754
1733861818852726500,4.1267265625,-0.056357262516021724,-0.020960954964160918,0.03674421502947807
1733861818862678500,4.136678466796875,-0.04614858771264553,-0.02402735679745674,0.03612345278263092
1733861818872629500,4.14662939453125,0.004162380376458168,-0.028811083942651746,0.04460778801143169
1733861818882580500,4.15658056640625,0.03759308694377541,-0.018543372428417203,0.0567243422627449
1733861818892531500,4.166531494140625,0.06596680238246917,-0.01800678133368492,0.04336684803962707
1733861818902482400,4.176482421875,0.0509894518725574,-0.015436638584733008,0.03698854517936706
1733861818912433400,4.186433349609375,0.033059973558783526,-0.01695581097602844,0.06221358732879161
1733861818922384400,4.19638427734375,0.011807926693558693,-0.015804887375235558,0.06175707573294639
1733861818932335400,4.20633544921875,-0.015389876833558082,-0.016931261056661605,0.04951660284101963
1733861818942286600,4.21628662109375,-0.039989334430545566,-0.03274199365079403,0.030661095723509786
1733861818952237300,4.2262373046875,-0.04810308278128504,-0.03686228845119476,0.06067687928080558
1733861818962189300,4.236189208984375,-0.03136354490444064,-0.014931027150154113,0.0305254866451025
1733861818972140500,4.246140625,-0.014182254609465598,-0.039434184765815734,0.02744973246157169
1733861818982091500,4.256091552734375,-0.007960165224224328,-0.03280044583976269,0.02742225993275642
1733861818992042500,4.26604248046875,-0.024953677862137556,-0.029110359150171277,0.03944645972549915
1733861819001993500,4.275993408203125,-0.038634412690252064,-0.026158523607254028,0.042803368937969204
1733861819011944400,4.2859443359375,-0.052833764564991,-0.046665889585018154,0.04225508740544319
1733861819021895400,4.2958955078125,-0.07519450332447886,-0.04935469027757644,0.04361293175518512
1733861819031846400,4.305846435546875,-0.0941587315134704,-0.043351650470495225,0.04412088127732277
1733861819041797400,4.31579736328125,-0.08652955180928111,-0.03285772898495197,0.04065349742770195
1733861819051748600,4.32574853515625,-0.07077741753458976,-0.04031739734113216,0.03367605963051319
1733861819061700600,4.33570068359375,-0.06605798779726028,-0.030594460228085516,0.01723521243929863
1733861819071651600,4.345651611328125,-0.04185936608612537,-0.044047816041111944,0.023407179072499274
1733861819081602600,4.3556025390625,-0.029072803618758917,-0.03924129254221916,0.037382512933015824
1733861819091553500,4.365553466796875,-0.03724558868035674,-0.02185585797727108,0.04323708418011665
1733861819101504500,4.37550439453125,-0.04179331511259079,-0.016202362260222435,0.044267596271634096
1733861819111455500,4.38545556640625,-0.030602059012651443,-0.02272504202723503,0.045862171986699105
1733861819121406500,4.395406494140625,-0.010215250674635171,-0.03733282857239246,0.053901686057448384
1733861819131357400,4.405357421875,-0.007167991933226585,-0.026318682605028152,0.05388590396642685
1733861819141308700,4.41530859375,0.003355886299163103,-0.03204699712395668,0.04256079235374927
1733861819151259400,4.42525927734375,-0.015240093099325894,-0.03807750945985317,0.03560965804159641
1733861819161211400,4.43521142578125,-0.026041034707427024,-0.026177228307723996,0.045700843945145606
1733861819171162400,4.445162353515625,-0.0023521160840988156,-0.03215864080488682,0.046053310644626616
1733861819181113600,4.455113525390625,0.007554360902309418,-0.025195231533050536,0.04638239646852016
1733861819191064300,4.465064208984375,-0.01617430520951748,-0.017221183913946152,0.037867666101455685
1733861819201015600,4.475015625,-0.01714285798072815,-0.0286345583319664,0.04770400046110153
1733861819210966300,4.48496630859375,-0.018437573966383933,-0.024861469534039497,0.047584757995605464
1733861819220917500,4.49491748046875,-0.006331687239557504,-0.03156593560874462,0.025658172869682312
1733861819230868500,4.504868408203125,-0.01368891813457012,-0.03041618105173111,0.023632804521918297
1733861819240819500,4.5148193359375,-0.04843348377943039,-0.019874328771233556,0.040139118164777755
1733861819250770700,4.524770751953125,-0.04558861574232578,-0.03604045067429543,0.04135843082666397
1733861819260722400,4.534722412109375,-0.045009500680118796,-0.027243396234512326,0.043104397711157795
1733861819270673400,4.54467333984375,-0.03697875443771481,-0.03234568780958652,0.03493219717144966
1733861819280624400,4.554624267578125,-0.02809036845266819,-0.02424655250608921,0.04563011679649353
1733861819290575600,4.56457568359375,-0.03976210154592991,-0.028490181425213812,0.06671732848882675
1733861819300526300,4.5745263671875,-0.04217164690569043,-0.007821487405896187,0.03316401845514774
1733861819310477600,4.5844775390625,-0.05089256736934185,-0.03130056267082691,0.032443302965164185
1733861819320428300,4.59442822265625,-0.04954699797928333,-0.04474281256794929,0.02966799303293228
1733861819330379500,4.604379638671875,-0.05053498610332608,-0.025883213797211646,0.01756196017563343
1733861819340330200,4.614330322265625,-0.06395955421328545,-0.0287041164368391,0.03660919047296047
1733861819350282500,4.624282470703125,-0.05071881823763251,-0.03120996177792549,0.04484627294242382
1733861819360233500,4.6342333984375,-0.028874650698155164,-0.031980361628532405,0.043128363108634944
1733861819370184400,4.644184326171875,-0.018003712593764067,-0.022744331249594688,0.035303953093290326
1733861819380135400,4.654135498046875,-0.02627951963841915,-0.03555179037451744,0.046105917614698406
1733861819390086400,4.66408642578125,-0.027055034055560825,-0.027841362127661702,0.03942074076235294
1733861819400037600,4.67403759765625,-0.0009282207608222961,-0.02941781766414642,0.04746610005199909
1733861819409988400,4.68398828125,-0.0050350715577602385,-0.020961539486050604,0.048178632235527034
1733861819419939600,4.693939697265625,-0.011895458846539258,-0.03705576519668102,0.05114332726001739
1733861819429890300,4.703890380859375,-0.005007452898472547,-0.021055647510290144,0.04425239870250225
1733861819439841500,4.713841552734375,-0.008565437640994787,-0.01963409027457237,0.034031448939442634
1733861819449792500,4.72379248046875,-0.014740911405533552,-0.039729368320107455,0.04761106148064136
1733861819459744500,4.73374462890625,-0.03345788683518767,-0.020870938593149185,0.04446925632357597
1733861819469695500,4.743695556640625,-0.027970979856699704,-0.02608779645860195,0.034299744486808774
1733861819479646500,4.753646484375,-0.028337621212005615,-0.03309913652539253,0.039788405030965805
1733861819489597400,4.763597412109375,-0.008118424525856972,-0.039328970825672147,0.032193127596378324
1733861819499548400,4.77354833984375,0.009277531433105468,-0.0317541516572237,0.04325812696814537
1733861819509499600,4.783499755859375,0.003446341061592102,-0.045697336813807485,0.05154197118878364
1733861819519453700,4.79345361328125,-0.026757804674655196,-0.04077507798075676,0.038543373405933376
1733861819529404700,4.80340478515625,-0.03608019816279411,-0.030811902371048926,0.04208791414499283
1733861819539355600,4.813355712890625,-0.0286257905036211,-0.02653846283555031,0.03780044608414173
1733861819549308000,4.823307861328125,-0.027835955300182104,-0.04189794453084469,0.028318916511535643
1733861819559258600,4.833258544921875,-0.036866964626312254,-0.03250876941680908,0.03043079409897327
1733861819569209900,4.8432099609375,-0.007302870359271765,-0.034595512562990184,0.04222060061395168
1733861819579160600,4.85316064453125,-0.019958353792876003,-0.033873628029227255,0.041785716328024865
1733861819589111800,4.86311181640625,-0.0326648367613554,-0.033659693017601966,0.03529518526494503
1733861819599062800,4.873062744140625,-0.027445786938816306,-0.04012976581454277,0.03798749308884144
1733861819609013800,4.883013671875,-0.03093655166402459,-0.036623218998312945,0.040938744109869
1733861819618964700,4.89296484375,-0.021938129433244465,-0.030423779836297033,0.04055705131590366
1733861819628915700,4.902915771484375,-0.003988192853331566,-0.03943652285337448,0.053179801523685455
1733861819638866700,4.91286669921875,-0.026548399707674978,-0.03314005305767059,0.0470125110656023
1733861819648818700,4.922818603515625,-0.020787351962924003,-0.02793956180512905,0.037249826464056966
1733861819658769700,4.932769775390625,-0.02503667997047305,-0.024458149430155753,0.03347439957857132
1733861819668720600,4.942720703125,-0.02626534498259425,-0.038164018699526785,0.0381242712110281
1733861819678671600,4.952671630859375,-0.0341189810924232,-0.040537762093544004,0.025030980882048606
1733861819688622600,4.96262255859375,-0.02567790048345923,-0.0398059406876564,0.04408113378882408
1733861819698573800,4.97257373046875,0.00031871056035161015,-0.022549100938439367,0.036894437155127524
1733861819708524800,4.98252490234375,-0.006649374886602163,-0.025903672063350675,0.049154199269413945
1733861819718475800,4.992475830078125,-0.017131021412461995,-0.04161269784867763,0.05177168829143047
1733861819728426800,5.0024267578125,-0.012925970938056707,-0.02586217100918293,0.048432314735651016
1733861819738377700,5.012377685546875,0.015488807163387536,-0.02264087087512016,0.03793137898743153
1733861819748329700,5.022329833984375,-0.008635726398229598,-0.03535246841013431,0.03798223239183426
1733861819758280700,5.03228076171875,-0.030989597025513647,-0.029916999357938765,0.057633858323097226
1733861819768231700,5.042231689453125,-0.008810936834663153,-0.033547464814782144,0.04247369859218597
1733861819778182700,5.0521826171875,0.01055076623931527,-0.028569676402211187,0.021979776617884635
1733861819788133600,5.062133544921875,0.0019466040231287478,-0.04265022420287132,0.04187923983037471
1733861819798084600,5.072084716796875,-0.029843934121727943,-0.027706337571144102,0.036467736175656316
1733861819808035600,5.08203564453125,-0.03071472560688853,-0.024383915150165556,0.03992927480638027
1733861819817986800,5.09198681640625,-0.046302755361050364,-0.024544658669829366,0.04906710550785064
1733861819827937500,5.1019375,-0.05425064562559127,-0.03547638705074787,0.03990121775567532
1733861819837888800,5.111888671875,-0.052743163672089574,-0.02946925559043884,0.054203299352526664
1733861819847840800,5.1218408203125,-0.03078033818900585,-0.03034428485929966,0.02929331450164318
1733861819857791700,5.131791748046875,-0.005634791016578674,-0.027171500042080878,0.04302899438738823
1733861819867742700,5.14174267578125,-0.0005634791016578674,-0.040213936966657635,0.03791793498396873
1733861819877693700,5.151693603515625,-0.0028365386001765725,-0.033657939451932906,0.030284663626551626
1733861819887644700,5.161644775390625,-0.042795039501041174,-0.0457967055350542,0.028622867894172666
1733861819897595600,5.171595703125,-0.04603811307549476,-0.03256546804010868,0.037542087408900256
1733861819907547000,5.181546875,-0.049487815137952564,-0.023252280771732328,0.04678513205051422
1733861819917497600,5.19149755859375,-0.04476137113794684,-0.026581717455387115,0.03634089492559433
1733861819927448800,5.20144873046875,-0.01665989676937461,-0.043221302089095116,0.026181319960951802
1733861819937399600,5.211399658203125,0.01929229109957814,-0.0349392114341259,0.05050736744403839
1733861819947351800,5.221351806640625,0.021906857512146233,-0.0168880064368248,0.04603928211927414
1733861819957302800,5.231302734375,0.003034983781725168,-0.011705050840973853,0.03143208009600639
1733861819967253800,5.241253662109375,-0.006153700324147939,-0.012062193715572357,0.0346469504892826
1733861819977204700,5.251204833984375,-0.05362520720362663,-0.03171908034384251,0.044377486386895176
1733861819987155700,5.26115576171875,-0.06405790002122522,-0.04104161996245384,0.038836218872666355
1733861819997106700,5.271106689453125,-0.06796469820141791,-0.040821255210042,0.03194236770570278
1733861820007057700,5.2810576171875,-0.037852322401851414,-0.03664601535201072,0.03692074064016342
1733861820017009000,5.2910087890625,-0.014086831410974263,-0.04282850337922573,0.025980244430899618
1733861820026959600,5.300959716796875,0.006499883413314819,-0.04954232180416584,0.046805005794763564
1733861820036910800,5.310910888671875,0.027450755374878642,-0.017870587733387944,0.04904021750092506
1733861820046862600,5.320862548828125,0.048638650962710375,-0.01243453415930271,0.030007600250840184
1733861820056813800,5.330813720703125,0.05304901475086808,-0.02207154655456543,0.035839375144243235
1733861820066764800,5.340764892578125,0.07149301845803857,-0.041135143464803695,0.05947159514427185
1733861820076715800,5.3507158203125,0.09563348024114966,-0.019164719197154043,0.06193009421229362
1733861820086666800,5.360666748046875,0.11662190773412584,-0.025840543699264525,0.07352233232855797
1733861820096617700,5.37061767578125,0.1541518663138151,-0.011932429856061934,0.10498889921605586
1733861820106568700,5.380568603515625,0.12368600090146065,-0.024193945536017416,0.06695347533226013
1733861820116519700,5.390519775390625,0.035181934148818254,-0.008401917642354964,0.025712533405423163
1733861820126471000,5.400470947265625,-0.07280000940337776,-0.034092823737859726,0.009812368962168694
1733861820136421600,5.410421630859375,-0.177829240629822,-0.047400633600354194,0.011760580420494078
1733861820146373600,5.42037353515625,-0.18899229354858396,-0.05184183091819286,0.00397884050309658
1733861820156324600,5.43032470703125,-0.1632135630391538,-0.05056231250166893,0.016238018095493315
1733861820166275800,5.44027587890625,-0.08676292217373847,-0.051609775727987285,0.02189502094388008
1733861820176226600,5.4502265625,-0.026910218757390976,-0.043513563033938406,0.039185178440809244
1733861820186177800,5.460177734375,-0.0005437514878809451,-0.027506431084871292,0.06367547657489776
1733861820196128500,5.47012841796875,0.006131196231395006,-0.016440262669324874,0.05957213290929794
1733861820206079700,5.480079833984375,-0.0030294308237731457,-0.02596621590554714,0.03952829279005527
1733861820216030700,5.49003076171875,-0.038394758715480565,-0.032492987325787544,0.04060965828597545
1733861820225981700,5.499981689453125,-0.07429711609333753,-0.03528875552415848,0.03293956204950809
1733861820235933000,5.509932861328125,-0.08252572299540042,-0.035191724890470504,0.04058803097605705
1733861820245883600,5.519883544921875,-0.07556874346435069,-0.02975391775071621,0.03073065382838249
1733861820255835600,5.529835693359375,-0.08664894040524959,-0.03639467093944549,0.03594692717194557
1733861820265786600,5.53978662109375,-0.06209156838431954,-0.041381811702251435,0.030493337941169738
1733861820275737900,5.54973779296875,-0.02955357287302613,-0.021312252619862554,0.03970832553207874
1733861820285688600,5.5596884765625,0.012563567366451023,-0.014386837270855903,0.03744388773143291
1733861820295639800,5.569639892578125,0.06531915212869643,-0.004219078999757766,0.04619885659515857
1733861820305590500,5.579590576171875,0.08750716466978192,-0.013592472022771834,0.05651274533867836
1733861820315541800,5.589541748046875,0.04388838769569993,-0.02268178740739822,0.043155835637450214
1733861820325492700,5.59949267578125,0.0031144787587225435,-0.01853402007818222,0.06264379543960094
1733861820335443700,5.609443603515625,-0.04916121353209019,-0.021672902625799177,0.05782850411236286
1733861820345394700,5.619394775390625,-0.06336334188580513,-0.025361235749721527,0.027139935860037802
1733861820355346700,5.6293466796875,-0.02129939313828945,-0.026186580657958983,0.0621574732273817
1733861820365298000,5.6392978515625,0.09911430809423327,-0.014302081596851347,0.08653729672431945
1733861820375248600,5.64924853515625,0.1973096016474068,-0.01771101325750351,0.05445230567753315
1733861820385199900,5.659199951171875,0.20105799439549446,-0.04279460110962391,0.043158173725008964
1733861820395150600,5.669150634765625,0.14077274478077886,-0.04702303245961666,0.021608605217933653
1733861820405101800,5.679101806640625,-0.046854105633497234,-0.034058336946368215,0.004888941085338592
1733861820415052500,5.689052490234375,-0.2400840367518365,-0.04012333607375622,-0.012463175731897353
1733861820425003800,5.699003662109375,-0.3787861127384007,-0.058957215881347655,-0.04813888474702835
1733861820434954800,5.708954833984375,-0.41332887220084663,-0.07134265020191669,-0.04312894763052463
1733861820444905700,5.71890576171875,-0.36211379487887024,-0.07666822913885116,-0.015368834045529365
1733861820454857700,5.728857666015625,-0.24984584457054732,-0.04907470429241657,0.025352467921376225
1733861820464808700,5.73880859375,-0.1349158354461193,-0.038080432069301604,0.0616653057962656
1733861820474760000,5.748760009765625,-0.0463185374520719,-0.02767243530154228,0.06959317618608474
1733861820484710700,5.758710693359375,-0.03170154468715191,-0.045318566629290576,0.02851590038836002
1733861820494662000,5.768661865234375,-0.1010965679526329,-0.06887479878365993,-0.007650807014107704
1733861820504612600,5.778612548828125,-0.22837036421298978,-0.08108253844976425,-0.05130231721401214
1733861820514561000,5.78856103515625,-0.294034968778491,-0.10202654227912425,-0.11409458121359348
1733861820524511700,5.79851171875,-0.24895839421153068,-0.08722235637903213,-0.07784253361523151
1733861820534463000,5.808462890625,-0.09672916652336716,-0.044750411352515215,0.012427519896626472
1733861820544413700,5.81841357421875,0.10309680185914039,0.025896657800674436,0.1427156955420971
1733861820554366000,5.828365966796875,0.3213420778989792,0.0812637402355671,0.24832301891744135
1733861820564316700,5.838316650390625,0.46743514091968535,0.09031330813169479,0.23490005824267862
1733861820574268000,5.848267822265625,0.4536497766733169,0.07585106753706931,0.20017302825450897
1733861820584218600,5.858218505859375,0.33318785238489507,0.016742460486292837,0.14292670794427395
1733861820594169900,5.868169921875,0.17238310405313967,-0.04466039498150348,0.042832010510563845
1733861820604120800,5.878120849609375,0.005063566999882459,-0.03349661141037941,-0.005042085820436477
1733861820614071800,5.88807177734375,-0.08645707109495997,-0.028852584996819496,0.02151157458424568
1733861820624022800,5.898022705078125,-0.03691489542126655,-0.05664952346086502,0.04030044620633125
1733861820633973800,5.907973876953125,0.028898177704215048,-0.05056991128623485,0.039890111839771265
1733861820643925000,5.917925048828125,0.0949580651976168,-0.047070963254570955,0.043429976403713225
1733861820653876700,5.927876708984375,0.1401619194060564,-0.013988193342089653,0.06520049418509007
1733861820663828000,5.937827880859375,0.13068521213904022,0.001242109015583992,0.06007949790954589
1733861820673778700,5.94777880859375,0.0707135585181415,-0.00935059666931629,0.057901569348573684
1733861820683730000,5.95772998046875,-0.03818389244377613,-0.02114391031563282,0.048268064084649086
1733861820693680600,5.9676806640625,-0.07376096339002251,-0.043994040027260775,0.03237549842596054
1733861820703632000,5.9776318359375,-0.11491598059907555,-0.03685001349151134,0.03728489777743816
1733861820713582800,5.987582763671875,-0.1696376047372818,-0.03693009299039841,0.03161211283802986
1733861820723533800,5.997533935546875,-0.1477836464561522,-0.0433569111675024,0.042909167400002474
1733861820733484800,6.00748486328125,-0.08154957143962382,-0.044482700327038764,0.028831542208790778
1733861820743435800,6.017435791015625,-0.02682297886535525,-0.051341480180621145,0.014275193589925765
1733861820753388000,6.027387939453125,-0.012760112851858138,-0.03993979620039463,0.019172902503609656
1733861820763338800,6.0373388671875,0.00998261096253991,-0.010742343288660049,0.023459786042571068
1733861820773290000,6.0472900390625,0.0031027883209288117,-0.012774725899100304,0.03481178566217422
1733861820783240700,6.05724072265625,-0.09240297388732432,-0.0037304186999797817,0.028211364483833313
1733861820793192000,6.06719189453125,-0.1578250018686056,-0.0331266090542078,0.01741173804998398
1733861820803143000,6.077142822265625,-0.11243863070011138,-0.037194296884536744,0.032495325413346286
1733861820813094000,6.087093994140625,-0.01973155929967761,-0.019693711507320404,0.06324176133275032
1733861820823044900,6.097044921875,0.010568155765533447,-0.027657822254300114,0.07501227862536906
1733861820832995800,6.106995849609375,0.026976854252815246,-0.040702597266435624,0.0316711495488882
1733861820842946800,6.11694677734375,-0.009755670338869094,-0.04795008417665958,0.01874795508980751
1733861820852898800,6.12689892578125,-0.04068374643549323,-0.062412324771285055,0.03512684296071529
1733861820862850000,6.13685009765625,-0.04380509332641959,-0.03714168991446495,0.06796703628897667
1733861820872800800,6.14680078125,-0.001828822862356901,-0.022744915771484374,0.07301847445964812
1733861820882752000,6.156751953125,0.03817176361456513,-0.02521978145241737,0.05334580574035644
1733861820892702700,6.16670263671875,0.04376373840272426,-0.009284545695781707,0.06096154144108295
1733861820902654000,6.176654052734375,0.04903042675927281,-0.023831541964411736,0.05059329216182232
1733861820912605000,6.18660498046875,0.052924511588364836,-0.024710662886500357,0.06763561237752437
1733861820922556000,6.196555908203125,0.07064926111027597,-0.011446692165732382,0.06660860741734505
1733861820932507000,6.2065068359375,0.048502457362413404,-0.02520283031761646,0.06349193670153618
1733861820942457900,6.216457763671875,0.014454641810059546,-0.028948446586728096,0.04825988077819347
1733861820952409900,6.226409912109375,-0.008571428990364074,-0.03386135306954384,0.046210547032952305
1733861820962360800,6.23636083984375,-0.005104045140743255,-0.0354793096601963,0.06586451105177402
1733861820972311800,6.246311767578125,0.008231967902928591,-0.007846037325263023,0.06708674632310867
1733861820982262800,6.2562626953125,0.0063958385169506065,-0.03933890769779682,0.02796118911504745
1733861820992213800,6.2662138671875,-0.006198854640126228,-0.05153378788232803,0.011828969481587409
1733861821002164700,6.276164794921875,-0.0402535383246839,-0.04246434624195099,-0.006647182929515838
1733861821012116000,6.286115966796875,-0.07232055532336235,-0.03857786019742489,0.004400280785560607
1733861821022067000,6.29606689453125,-0.08574760765135288,-0.03474456564486027,0.012957681250572204
1733861821032018000,6.306017822265625,-0.10063596470355987,-0.022107786911725998,0.03771627493202686
1733861821041969000,6.315968994140625,-0.10542071476206183,-0.02067979993522167,0.07147592119276523
1733861821051920000,6.325919921875,-0.08038812644481659,-0.03286240516006946,0.06764145759642123
1733861821061871900,6.335871826171875,-0.06931333633139729,-0.03649930035769939,0.06939560778737068
1733861821071822800,6.34582275390625,-0.06391746863722801,-0.018608254358172416,0.06024257951676845
1733861821081773800,6.35577392578125,-0.05619491156116128,-0.024459902995824814,0.06048924775421619
1733861821091724800,6.365724853515625,-0.05569441469311714,-0.041942952716350554,0.020673954716324806
1733861821101675800,6.37567578125,-0.057361471122503276,-0.051146249869465824,-0.010243161594867706
1733861821111626800,6.385626708984375,-0.07399813314676285,-0.06074293025434017,-0.007363806766271591
1733861821121577700,6.39557763671875,-0.047045244291424745,-0.055094110712409015,-0.0007768295913934707
1733861821131529000,6.405529052734375,-0.02373334228694439,-0.05431318946778774,0.04118541234731674
1733861821141479700,6.415479736328125,-0.0016518588602542877,-0.018308394628763196,0.04597381566762924
1733861821151431000,6.425430908203125,0.0004701017297804355,-0.018355740901827813,0.05559855310320854
1733861821161383000,6.4353828125,0.01591594653427601,-0.004729366609454154,0.05618716664612293
1733861821171334000,6.445333984375,0.010213935500383376,-0.020398060384392736,0.04576806396245956
1733861821181284900,6.455284912109375,-0.026426234632730482,-0.021266075390577316,0.02362871286869049
1733861821191235800,6.46523583984375,-0.06102452367469668,-0.029251813447475433,0.03341828547716141
1733861821201186800,6.475186767578125,-0.06374941859394312,-0.030476971328258513,0.042401802399754523
1733861821211137800,6.4851376953125,-0.0366425082206726,-0.04136076891422272,0.05053951614797115
1733861821221088800,6.4950888671875,-0.017631518280506134,-0.04158171818852424,0.04049041582047939
1733861821231039700,6.505039794921875,-0.002046849527209997,-0.03580547287464142,0.032847207590937615
1733861821240991000,6.514990966796875,-0.02159501508399844,-0.02947451628744602,0.04007131362557411
1733861821250941700,6.524941650390625,-0.040783845809102055,-0.008617021697759629,0.0361111778229475
1733861821260893700,6.534893798828125,-0.04009864002391696,-0.024047230541706082,0.022620412608981132
1733861821270845000,6.544844970703125,-0.05898395775780081,-0.025741174978017804,0.040838206344842906
1733861821280796000,6.5547958984375,-0.049728638156503434,-0.033983518144488335,0.03823065419495106
1733861821290747000,6.564746826171875,-0.03564589839875698,-0.018082769179344177,0.06255027193725109
1733861821300697900,6.57469775390625,-0.01859875587746501,-0.01981061588525772,0.05114566534757614
1733861821310648800,6.58464892578125,-0.018354133466631173,-0.028008535388112068,0.03434884432554245
1733861821320599800,6.594599853515625,-0.041333442515879865,-0.03004267156422138,0.0396142175078392
1733861821330550800,6.60455078125,-0.08452610303238034,-0.021305822879076,0.03045885114967823
1733861821340501800,6.614501708984375,-0.12192834357917308,-0.03323591464757919,0.022452070304751395
1733861821350453000,6.624452880859375,-0.1326508131235838,-0.033406010517477984,0.026927169892191884
1733861821360404700,6.63440478515625,-0.13700900833308696,-0.04525310017764568,0.03804769884347915
1733861821370356000,6.64435595703125,-0.1127121869444847,-0.026455460727214813,0.05794190135896206
1733861821380307000,6.654306884765625,-0.06816285112202167,-0.01670972726047039,0.07042085918188094
1733861821390258000,6.6642578125,-0.06945873615145683,-0.027789339679479597,0.05133095878660678
1733861821400209000,6.674208984375,-0.055364159825444216,-0.024308511826395988,0.027082652714848516
1733861821410159900,6.684159912109375,-0.009553425765037536,-0.017950082710385323,0.03161561996936798
1733861821420110800,6.69411083984375,0.024258389074355364,-0.026654782691597937,0.04271569065451622
1733861821430061800,6.704061767578125,0.04058393932282924,-0.025258359897136685,0.020999533408880233
1733861821440013000,6.714012939453125,-0.008054565509408713,-0.03344692704975605,0.03465980997085571
1733861821449963800,6.7239638671875,-0.04959098325148224,-0.035330256578326225,0.050370589321851726
1733861821459915000,6.7339150390625,-0.06665478464663029,-0.04520107772946357,0.05370996287763118
1733861821469866800,6.74386669921875,-0.07195230653285979,-0.05781155297756195,0.04297521837353706
1733861821479818000,6.75381787109375,-0.062213441198319196,-0.06069558398127556,0.03806464997828007
1733861821489768700,6.763768798828125,-0.038424715462327,-0.05445639733076095,0.026786884638667106
1733861821499720000,6.773719970703125,0.0299449102781713,-0.048555064332485194,0.024584406158328055
1733861821509670700,6.783670654296875,0.12717033588588236,-0.014150690427422523,0.06326981838345527
1733861821519622000,6.793621826171875,0.19101342411264777,0.006532616639137268,0.06878010623753071
1733861821529572600,6.803572509765625,0.1701844249650836,-0.009266425517201422,0.03138064216971397
1733861821539523800,6.81352392578125,0.07002440721020102,-0.025384616625308987,0.012189034965634345
1733861821549475000,6.82347509765625,-0.057048021259158845,-0.03231996884644031,0.05182137265205383
1733861821559425800,6.83342578125,-0.10145181113108992,-0.04142448180019855,0.03248655758500099
1733861821569377800,6.843377685546875,-0.07210837387740611,-0.05083411518037319,0.01768646333813667
1733861821579328800,6.853328857421875,-0.06277896612659097,-0.048100306302309034,0.028346389040350913
1733861821589280000,6.863280029296875,-0.05087795432209968,-0.04120937774479389,0.02983399724960327
1733861821599230700,6.873230712890625,-0.025699527793377638,-0.040729485273361205,0.03148176445662975
1733861821609182000,6.883181884765625,0.014982757337391376,-0.033871874463558195,0.04614800319075584
1733861821619132700,6.893132568359375,0.014753917017579077,-0.009864391410350799,0.06091477968990802
1733861821629084000,6.903083984375,0.008404401860386133,-0.0194803610175848,0.03855097219049931
1733861821639034600,6.91303466796875,-0.008978694617003203,-0.030854572468996047,0.041083705538511275
1733861821648985900,6.92298583984375,-0.04372559834942221,-0.007783493483066559,0.046454292660951614
1733861821658936800,6.932936767578125,-0.050814972088485955,-0.015522563302516936,0.041782793718576426
1733861821668888800,6.942888916015625,-0.0496690169237554,-0.0163999306589365,0.038867198532819745
1733861821678839800,6.95283984375,-0.02990399374589324,-0.023802315869927405,0.03704875093400478
1733861821688790800,6.962790771484375,-0.04335851860269904,-0.0338935017734766,0.026830139258503912
1733861821698742000,6.972741943359375,-0.05211933268532157,-0.03533960892856121,0.0407908600717783
1733861821708692700,6.982692626953125,-0.03645999126061797,-0.032143443235754965,0.02974456540048122
1733861821718644000,6.99264404296875,-0.03811126559898257,-0.038228900629282,0.04663724801242351
1733861821728594700,7.0025947265625,-0.03538856263682246,-0.04712064761519432,0.02679799055457115
1733861821738546000,7.0125458984375,-0.01524228505641222,-0.04413607884645462,0.02593231363594532
1733861821748497000,7.022496826171875,-0.0008434650868177413,-0.0435223308622837,0.04280161537230014
1733861821758447900,7.03244775390625,0.02332958379164338,-0.046446693876385683,0.05854162081778049
1733861821768400000,7.04239990234375,-0.006523848810791969,-0.03001052286028862,0.047504678496718404
1733861821778350800,7.052350830078125,-0.044564533391594885,-0.03718786714375019,0.02524725398123264
1733861821788301800,7.0623017578125,-0.06448562391400336,-0.03779693895280361,0.05468377634584903
1733861821798252800,7.072252685546875,-0.07615151178836822,-0.033113749572634694,0.049075288814306256
1733861821808204000,7.0822041015625,-0.051690439748764035,-0.03275017695724964,0.05032616565823555
1733861821818154800,7.09215478515625,-0.029073534271121023,-0.010265373426675797,0.044943888098001476
1733861821828106000,7.10210595703125,-0.015062544575333594,-0.021219898161292074,0.045488662499189376
1733861821838056700,7.112056640625,0.0032487726628780363,-0.02097615253329277,0.04244271893203258
1733861821848008000,7.122008056640625,0.014518500826507805,-0.02507131289243698,0.044105683708190915
1733861821857959000,7.131958984375,-0.0001746259145438671,-0.02204582759141922,0.03691138828992843
1733861821867910000,7.141909912109375,-0.050611996862292286,-0.023539281019568443,0.029227263528108595
1733861821877861600,7.151861572265625,-0.050941082686185836,-0.031069676524400708,0.02868599625825882
1733861821887812900,7.161812744140625,-0.025310528475791214,-0.04050444434583187,0.047016602718830104
1733861821897763800,7.171763916015625,0.007885638683289288,-0.028085107755661008,0.05251929178833961
1733861821907714800,7.18171484375,-0.001995703861862421,-0.038898178192973136,0.056904375004768366
1733861821917666000,7.191666015625,-0.0465332031160593,-0.01925064391493797,0.04848725979328155
1733861821927616800,7.20161669921875,-0.06622516105771065,-0.019974282014369963,0.038386721539497376
1733861821937568000,7.211568115234375,-0.06844459067285061,-0.03146013714671135,0.036943536993861194
1733861821947518700,7.221518798828125,-0.08878609856441616,-0.027868250134587286,0.0364729968726635
1733861821957470000,7.231469970703125,-0.0857113672941923,-0.032256255960464476,0.043190322428941726
1733861821967421000,7.2414208984375,-0.06367664561867714,-0.025197569620609282,0.04965221191942692
1733861821977373000,7.251373046875,-0.03923135567009449,-0.02414718378484249,0.04959668233990669
1733861821987323600,7.26132373046875,0.0032061025649309156,-0.019047814819216725,0.058036009383201595
1733861821997275000,7.27127490234375,0.027303163597732782,-0.020689152285456657,0.055629532763361925
1733861822007225900,7.281225830078125,0.009610124388337134,-0.0197767136156559,0.021895605465769765
1733861822017176800,7.2911767578125,0.010271803167462349,-0.03020867578089237,0.025952771902084348
1733861822027127800,7.3011279296875,-0.025700112315267323,-0.03912847981750965,0.03757774324417114
1733861822037078800,7.311078857421875,-0.062039399805665016,-0.023308979395031928,0.02525952894091606
1733861822047029800,7.32102978515625,-0.07116086389422416,-0.03137362790703773,0.03043956192731857
1733861822056980700,7.330980712890625,-0.058332654242217535,-0.03539455398619175,0.044244215396046636
1733861822066931700,7.340931640625,-0.034718700551241634,-0.04940320559442043,0.04702653959095478
1733861822076883700,7.3508837890625,-0.04733209840878844,-0.03747428286969662,0.042885786524415014
1733861822086835000,7.3608349609375,-0.08430661506280303,-0.028656185641884803,0.03388824107646942
1733861822096785700,7.37078564453125,-0.11836626718342304,-0.0351309346139431,0.01601122360229492
1733861822106737000,7.38073681640625,-0.1756634408980608,-0.033283260920643806,0.018998130458593367
1733861822116688000,7.39068798828125,-0.20055355200469493,-0.04865735566318035,0.0007803367227315903
1733861822126638800,7.400638916015625,-0.28037410769462584,-0.053479076731204986,0.030724808609485624
1733861822136589800,7.41058984375,-0.3105132253706455,-0.04216916268765926,0.07625789477229118
1733861822146540800,7.420540771484375,-0.3147042473196983,-0.017096096229553222,0.11475625999271868
1733861822156491800,7.43049169921875,-0.23070026846528052,-0.014186930784583092,0.1057891096830368
1733861822166442800,7.44044287109375,-0.1143998477704823,-0.02703063026666641,0.036470074263215066
1733861822176395000,7.45039501953125,-0.048511225190758706,-0.02161269687116146,0.023013795840740203
1733861822186345700,7.460345703125,-0.021517346737906336,0.015379355439543723,0.05758826561570167
1733861822196297000,7.470296875,0.01257291971668601,0.03940028249621391,0.056899698829650874
1733861822206247700,7.48024755859375,0.07826572746336459,0.056932432055473325,0.05175181454718113
1733861822216199000,7.490198974609375,0.1486788417302072,-0.01181844808757305,0.0313531696408987
1733861822226150000,7.50014990234375,0.20936879968829453,-0.09388356783390045,-0.035405075380206104
1733861822236100900,7.510100830078125,0.2125010332994163,-0.07417056710422039,-0.05092705416083335
1733861822246051800,7.5200517578125,0.26038353213258086,-0.0501017092525959,0.02868541173636913
1733861822256002800,7.5300029296875,0.28638715743906795,-0.021010639324784277,0.09394903428554534
1733861822265953800,7.539953857421875,0.2991812456257641,-0.005990764847397804,0.11003390764594077
1733861822275905800,7.54990576171875,0.28863581314869224,-0.019382161340117453,0.08068681713044643
1733861822285856800,7.559856689453125,0.20930559825897216,-0.038650925433635706,0.08046236072480678
1733861822295807700,7.569807861328125,0.10994272223114966,-0.04091477871239185,0.07620119614899158
1733861822305759000,7.579759033203125,0.04446384949609637,-0.028563246661424634,0.05945639757514
1733861822315710000,7.5897099609375,0.004067760895565152,-0.024220833542943,0.048511225190758706
1733861822325661000,7.599660888671875,-0.05583572285994887,-0.03333995954394341,0.03757598967850208
1733861822335612000,7.60961181640625,-0.06597279373183847,-0.040485739645361896,0.033955461093783376
1733861822345563000,7.61956298828125,-0.07623392937481403,-0.03261281431317329,0.04513736484348774
1733861822355513900,7.629513916015625,-0.04446297271326184,-0.03216448602378368,0.04986731597483158
1733861822365464800,7.63946484375,-0.018003858724236488,-0.018690087422728537,0.06180325296223163
1733861822375416800,7.649416748046875,0.023051059111207722,-0.0027758944541215894,0.08676350669562816
1733861822385367800,7.659367919921875,0.06984284009821713,0.03179682175517082,0.13502280295193195
1733861822395318800,7.66931884765625,0.09449380868673324,0.022916765207052228,0.1127519344329834
1733861822405269800,7.679269775390625,0.058823360368609426,-0.0106225163012743,0.05751403133571147
1733861822415220700,7.689220703125,-0.02708908245563507,-0.04033551751971245,0.026369536009430882
1733861822425172000,7.699171875,-0.12135010529980063,-0.04563011679649353,0.010288169780373573
1733861822435122700,7.709122802734375,-0.19554303036630152,-0.04887362876236438,-0.01834697307348251
1733861822445074000,7.719073974609375,-0.19171382746696472,-0.06156126089990139,-0.01334521926343441
1733861822455025000,7.72902490234375,-0.14024141438305376,-0.047915597385168075,-0.027880525094270706
1733861822464976000,7.738975830078125,-0.11994462241604924,-0.061436173215508455,-0.015693828216195107
1733861822474927900,7.748927978515625,-0.08773965825140476,-0.054472763943672176,-0.001631400594115257
1733861822484878800,7.75887890625,-0.06553484070599079,-0.029773206973075866,0.03359071943461895
1733861822494829800,7.768829833984375,-0.04134089516997337,-0.028068741142749785,0.047158641538023946
1733861822504780800,7.77878076171875,-0.024827713394910095,-0.029853870993852612,0.06047463470697403
1733861822514731000,7.78873095703125,-0.03589914250746369,-0.023061142113804816,0.0892103153258562
1733861822524682000,7.798681884765625,-0.050745852375030515,-0.025106968727707863,0.08325637535750866
1733861822534633000,7.808633056640625,-0.0464319346986711,-0.047862405893206596,0.06193301682174206
1733861822544584000,7.818583984375,-0.014359803133457898,-0.06883212868571281,0.02732172216773033
1733861822554535000,7.828534912109375,0.03523439498841762,-0.0398497798293829,0.06115501818656921
1733861822564486100,7.838486083984375,0.06504676492810249,-0.023038930281996727,0.062108957910537714
1733861822574438000,7.84843798828125,0.1253599254630506,-0.007041735205054283,0.06564005464613437
1733861822584388900,7.858388916015625,0.1316403209067881,-0.004527706557512283,0.015045008918642997
1733861822594339800,7.86833984375,0.13122414132133126,-0.030014614513516426,-0.03744797938466072
1733861822604291000,7.878291015625,0.109157855463773,-0.046524435287714,-0.07503565950095653
1733861822614242000,7.888241943359375,0.002679448342323303,-0.038272155249118804,-0.056200026127696034
1733861822624193000,7.898193115234375,-0.1015975032120943,-0.034546412724256514,0.011299392649531365
1733861822634144000,7.90814404296875,-0.1485864872716367,-0.017788754668831824,0.06384907957613468
1733861822644095000,7.918094970703125,-0.14109467021152378,-0.027870588222146032,0.06968494612276553
1733861822654046000,7.9280458984375,-0.07796995938718318,-0.03559387595057487,0.05569792182445526
1733861822663997000,7.937996826171875,-0.0810835613630712,-0.03155249160528183,0.093929160541296
1733861822673949000,7.947948974609375,-0.09071721275746822,-0.021656536012887955,0.11911796233355998
1733861822683900000,7.95789990234375,-0.0557974366761744,0.01706511656939983,0.12587795798778534
1733861822693851000,7.967850830078125,-0.05211655620634555,0.015502105036377906,0.12416530885100364
1733861822703801900,7.9778017578125,-0.06984218251109123,0.015840543210506437,0.11698445743620395
1733861822713753000,7.987753173828125,-0.08544248722493648,0.007523965764045715,0.03916062852144241
1733861822723703800,7.997703857421875,-0.08285524721071123,-0.030813655936717987,-0.0694470457136631
1733861822733655000,8.007655029296876,-0.10959317814111709,-0.06846095728576183,-0.14230010047852992
1733861822743605800,8.017605712890624,-0.1343359897315502,-0.08799334075152873,-0.14542027832567692
1733861822753557000,8.027556884765625,-0.19913199476897717,-0.06315057591795921,-0.07175415361225605
1733861822763508000,8.037508056640625,-0.19559490668401122,-0.05237082322835922,-0.0005167173504829406
1733861822773460000,8.0474599609375,-0.10179492548033595,-0.059655135017633434,0.04398351863324642
1733861822783411000,8.057410888671875,-0.021150778447836638,-0.035703181543946264,0.07422726572751999
1733861822793362000,8.06736181640625,0.0018454817362129688,-0.03506839077174664,0.07070435229837894
1733861822803313000,8.07731298828125,-0.017499270202964542,-0.04808393968939781,0.06627192280888557
1733861822813264000,8.087263916015624,-0.03524827738329768,-0.04454992034435272,0.036537878802418704
1733861822823215000,8.097215087890625,-0.10591770449876785,-0.062140522092580794,-0.004261749097704887
1733861822833165800,8.107165771484375,-0.17751286815702913,-0.10703238774240016,-0.039217911666631695
1733861822843117000,8.117116943359376,-0.19760332389697433,-0.07666822913885116,0.002944236758351326
1733861822853067800,8.12706787109375,-0.22229411303922533,-0.08327917171120643,-0.030554712739586827
1733861822863019000,8.13701904296875,-0.2954674857996404,-0.12099252403378485,-0.10502163244187832
1733861822872971000,8.146970947265626,-0.28753727732226253,-0.11840835275948047,-0.1257487786501646
1733861822882922000,8.156921875,-0.17473039783164857,-0.11719196270704269,-0.06412438938617705
1733861822892873000,8.166873046875,0.03562003330513835,-0.05872574521303177,0.047528059372305864
1733861822902824000,8.176823974609375,0.2647792098082602,0.026478841602802276,0.25940730751156804
1733861822912775000,8.18677490234375,0.4491284998565912,0.1444096399784088,0.40854397601187226
1733861822922726000,8.196725830078124,0.4819095103435218,0.2161795756816864,0.44035190368294713
1733861822932677000,8.206677001953125,0.4499811711631715,0.14373276363015175,0.25000527291595936
1733861822942627800,8.2166279296875,0.3254642723955214,0.02957739214003086,0.09522679913640021
1733861822952579000,8.2265791015625,0.1264994508869946,-0.02990589344203472,0.018096797704696653
1733861822962529800,8.23652978515625,-0.07828019438013434,-0.034604280391335486,-0.09311316798329353
1733861822972482000,8.24648193359375,-0.23062559579387307,-0.10313830291330814,-0.24193887083828447
1733861822982433000,8.25643310546875,-0.3252788328260183,-0.11695289325416088,-0.24959260046184062
1733861822992384000,8.266384033203124,-0.2561217099696398,-0.09311316798329353,-0.07866144878268241
1733861823002335000,8.2763349609375,0.0047393034815788266,-0.053122518378496165,0.10145078821778297
1733861823012286000,8.286285888671875,0.22188436319455504,-0.02264437800645828,0.12997194930315017
1733861823022237200,8.2962373046875,0.2214163072913885,-0.004147182807326316,0.1528799466818571
1733861823032188000,8.30618798828125,0.09133461400344968,0.0157288995295763,0.15331015479266644
1733861823042139100,8.31613916015625,-0.05266469160839915,0.016775193712115288,0.1465226866096258
1733861823052089900,8.32608984375,-0.15302549263238907,-0.010368249279260635,0.04656944347321987
1733861823062041000,8.336041015625,-0.2267683358438313,-0.04603519046604633,0.012199556359648703
1733861823071992800,8.345992919921875,-0.24420988451018927,-0.06800736829936505,0.003940262058377266
1733861823081944000,8.355944091796875,-0.2510737789303064,-0.022352701583504674,0.04109656502008438
1733861823091894800,8.365894775390625,-0.30670389621555805,0.022695231410861015,0.06815349877178668
1733861823101846000,8.375845947265624,-0.43067806640863415,0.05632160668075084,0.07689560815393924
1733861823111796700,8.385796630859375,-0.49577495408877725,0.0465899017393589,0.1162415301144123
1733861823121748000,8.395748046875,-0.5054949685923755,0.029971944415569305,0.08922200576364994
1733861823131699000,8.405698974609376,-0.4325771780282259,-0.01883154172003269,0.07071721177995205
1733861823141650000,8.41564990234375,-0.27701646782979367,-0.018619944795966147,0.08173603392243385
1733861823151601200,8.42560107421875,-0.16975275554955005,0.015509703820943832,0.15118307963609695
1733861823161552000,8.4355517578125,-0.10326061411872506,0.015911270359158514,0.19304186120033262
1733861823171503000,8.445503173828126,-0.006857464679330587,0.0019026187509298324,0.21359248179793355
1733861823181454800,8.455454833984374,0.12291048648431896,-0.00940904885828495,0.20656886677145958
1733861823191406000,8.465406005859375,0.19145839140117168,-0.03660860595107078,0.10703823296129703
1733861823201356800,8.475356689453125,0.17987725920081138,-0.0868359874099493,-0.012709259447455405
1733861823211308000,8.48530810546875,0.11027429227307438,-0.08323124091625213,-0.05956862577795982
1733861823221258800,8.4952587890625,0.020352906068414448,-0.07783493483066559,-0.0797118346184492
1733861823231210000,8.5052099609375,-0.011809680259227752,-0.08594108439683913,-0.08300327737927436
1733861823241161000,8.515160888671875,0.053282092854380604,-0.07571370489299296,-0.10059621721506118
1733861823251112000,8.52511181640625,0.14516191965043543,-0.06788461870253086,-0.13922376177310944
1733861823261063000,8.53506298828125,0.24174948574602603,-0.08104220643937587,-0.1455126327842474
1733861823271014000,8.545013916015625,0.2777618793696165,-0.0647848991215229,-0.054799511680006976
1733861823280966100,8.554966064453126,0.2675869607053697,-0.03944295259416103,0.045243747827410696
1733861823290916900,8.564916748046874,0.20581994810029863,-0.029207389783859252,0.057745502004027366
1733861823300868000,8.5748681640625,0.136480162153393,-0.03690495854914188,0.046994390887022015
1733861823310818800,8.58481884765625,0.13264803664460778,-0.04567863211333752,-0.009791326174139976
1733861823320770000,8.59477001953125,0.11804697210118174,-0.03779635443091392,-0.01764379324018955
1733861823330721000,8.604720947265625,0.0796428610354662,-0.035116321566700935,0.014624737679958342
1733861823340672000,8.614672119140625,0.00488251134455204,-0.034382162073254584,0.04481821589171886
1733861823350623000,8.624623046875,-0.03614464170113206,-0.06759469584524631,0.05385667787194252
1733861823360574000,8.634573974609374,-0.04395663062632084,-0.08469488372802735,0.03374444869160652
1733861823370525000,8.64452490234375,-0.06713657681420446,-0.03796761934459209,0.007447393396496772
1733861823380477000,8.654476806640625,-0.11790449489057063,0.036354923450946805,0.049183425363898275
1733861823390428200,8.66442822265625,-0.1239098727852106,0.020226795470714567,0.1510463015139103
1733861823400379000,8.67437890625,-0.11093056422471999,-0.04903963297903537,0.12377777083814144
1733861823410330000,8.684330078125,-0.10004428242072462,-0.07444178526103497,0.08012099994122981
1733861823420280800,8.69428076171875,-0.11412789896130561,-0.03309095321893692,0.14402970075011254
1733861823430232000,8.704232177734376,-0.17042451733127234,0.07351122641265392,0.20353169103264807
1733861823440183000,8.71418310546875,-0.11194412518143654,0.013428805893659591,0.026019991919398307
1733861823450134000,8.724134033203125,-0.0032370822250843046,-0.08006313227415085,-0.2134083574026823
1733861823460085000,8.7340849609375,0.021404022556543348,-0.13047931430339813,-0.277757203194499
1733861823470036000,8.744035888671876,-0.06609773528575896,-0.11081892054378986,-0.1492898132354021
1733861823479987000,8.753987060546875,-0.15551789397001264,-0.06391337698400021,-0.06596680238246917
1733861823489939000,8.76393896484375,-0.19551190457567572,-0.05435118339061737,-0.03389057916402816
1733861823499890000,8.773889892578126,-0.20373627369403838,-0.031065000349283216,0.006704466074705123
1733861823509841000,8.7838408203125,-0.1546177302598953,-0.0076648355394601814,0.058687751290202136
1733861823519792400,8.79379248046875,-0.10700433069169521,0.013493103301525115,0.09417816686630248
1733861823529743000,8.8037431640625,-0.13312427585422992,0.03752805888354778,0.12851006005704402
1733861823539694300,8.8136943359375,-0.2001923174768686,0.01736322273313999,0.16792670916616917
1733861823549645300,8.823645263671875,-0.2210930666863918,-0.008109072175621986,0.13875146808624267
1733861823559596300,8.83359619140625,-0.1642868913590908,-0.01180149695277214,0.08399111937284469
1733861823569547300,8.84354736328125,-0.09127470050975679,-0.027101357415318487,0.03936638022661209
1733861823579498200,8.853498291015624,-0.020851649370789527,-0.046236850517988204,0.03166004363298416
1733861823589450200,8.8634501953125,0.04122749792337417,-0.05482815325260162,-0.01320844114124775
1733861823599401200,8.873401123046875,0.10746654137596487,-0.05126198520362377,-0.062329907184839245
1733861823609352400,8.8833525390625,0.14833061281442642,-0.05549041655361652,-0.0678133070319891
1733861823619303200,8.89330322265625,0.14271876428201793,-0.02357376781105995,-0.0018254618614912033
1733861823629254400,8.90325439453125,0.09927695131003857,0.008129530441761016,0.0991051018744707
1733861823639205000,8.913205078125,0.08809110203757882,-0.005347790768742561,0.11580489226281643
1733861823649156400,8.92315625,0.06149360249117016,-0.021606851652264593,0.09819149416089057
1733861823659107300,8.933107421875,0.07741817072331905,-0.0314186360925436,0.08897241491675377
1733861823669058300,8.943058349609375,0.10650924065113067,-0.03156359752118587,0.061355509194731706
1733861823679009300,8.95300927734375,0.10623626892864703,0.010529577320814132,0.0703267511576414
1733861823688960300,8.962960205078126,0.10522899158224464,-0.012388941451907156,0.059254153001308436
1733861823698912300,8.972912353515625,0.11341536677777767,-0.05267945078611374,-0.01877367405295372
1733861823708863200,8.98286328125,0.0173052089355886,-0.05983925941288471,-0.04174713788330555
1733861823718814500,8.992814453125,-0.08343056288063526,-0.04177694849967956,0.008752630776166915
1733861823728765200,9.00276513671875,-0.14226853629648684,-0.041644846552610394,-0.025412089154124257
1733861823738716400,9.01271630859375,-0.14282105561271308,-0.0669067135810852,-0.028308395117521284
1733861823748667100,9.022667236328125,-0.06456570341289043,-0.07507657603323459,0.04585515772402286
1733861823758618400,9.032618408203126,0.04775894551873207,-0.03642097442448139,0.07497779183387755
1733861823768569300,9.0425693359375,0.14576616915389895,0.003063479223847389,0.14311433947086333
1733861823778520300,9.052520263671875,0.16577493795976042,0.04058043219149112,0.21722645438611507
1733861823788471300,9.06247119140625,0.09696180623546242,0.02782791812419891,0.14822598339617252
1733861823798423300,9.07242333984375,-0.045991351324319835,-0.0032002573460340497,0.03883388078510761
1733861823808374300,9.082374267578125,-0.24352774746492503,-0.060468204966187475,-0.02771218279004097
1733861823818325200,9.0923251953125,-0.3732328625254333,-0.06785773069560527,-0.0644277562469244
1733861823828276200,9.102276123046876,-0.4084280945472419,-0.06678104137480259,-0.04381751441657543
1733861823838227200,9.112227294921874,-0.3193441820800304,-0.08012099994122981,-0.018413024047017095
1733861823848178200,9.12217822265625,-0.21286650561094284,-0.06540273875892162,0.01706570109128952
1733861823858129200,9.132129150390625,-0.1549322030365467,-0.03030921354591846,0.08343348549008368
1733861823868080000,9.142080078125,-0.13279884329214692,-0.007328735452890396,0.09091828828752041
1733861823878031400,9.15203125,-0.12497545619010925,-0.014134323814511298,0.04730594105422496
1733861823887982300,9.161982421875,-0.10710077680349349,-0.015393968486785889,0.006093640699982643
1733861823897933300,9.171933349609375,-0.05866553945839405,-0.040655835515260696,-0.043776597884297365
1733861823907885300,9.18188525390625,0.02704831205382943,-0.02419336101412773,-0.01360182437300682
1733861823917836300,9.191836181640625,0.09241218010708689,0.05534954677820205,0.09240648101866245
1733861823927787300,9.201787353515625,0.06170373811051249,0.030638883891701697,0.03700841892361641
1733861823937738200,9.21173828125,0.013107464984804392,0.0029278701454401013,-0.011940613162517547
1733861823947689200,9.221689208984374,-0.018567922347784042,-0.011689268749952316,0.018380290821194648
1733861823957640200,9.23164013671875,-0.00012640285864472389,-0.011405191111564636,0.017758359530568122
1733861823967591200,9.241591064453125,0.05714271380528807,-0.019891864427924157,-0.028391981747746466
1733861823977542100,9.251542236328126,0.08179054058864713,0.0006359598159790038,-0.030521394991874694
1733861823987493400,9.261493408203124,0.05608312174975872,-0.03192190943956375,-0.02461246320903301
1733861823997444000,9.271444091796875,0.01974924108684063,-0.04646247596740723,0.019422493350505828
1733861824007395300,9.281395263671875,-0.028062749793380498,-0.059658057627081866,0.06859072114527225
1733861824017347300,9.291347412109374,-0.09506839370429515,-0.05861468605399132,0.11366788023412228
1733861824027298300,9.30129833984375,-0.18857962109446524,-0.06937573404312133,0.1879191113591194
1733861824037249300,9.311249267578125,-0.21676643565893172,-0.05268120435178279,0.16992811211645603
1733861824047200300,9.3212001953125,-0.15741539815440772,-0.049509004056453705,0.12401099507212639
1733861824057151200,9.331151123046874,-0.07759981090053915,-0.04418167155385017,0.10237667089104652
1733861824067102200,9.341102294921875,-0.04246303106769919,-0.04001110787093639,0.06018120471835136
1733861824077053200,9.35105322265625,-0.06443754698857665,-0.050939329120516776,0.004627659800648689
1733861824087004200,9.361004150390626,-0.06491130198016762,-0.03829027542769909,0.02659574598073959
1733861824096955400,9.370955322265624,-0.02931201920211315,-0.036658290311694146,0.037361470144987106
1733861824106906000,9.380906005859375,0.021188918501138687,-0.03453647585213184,0.018677227941155432
1733861824116858400,9.3908583984375,0.03529401622116565,-0.05036474410295486,0.017122399714589117
1733861824126809300,9.400809326171874,0.04074000666737556,-0.0658785395771265,0.00973404302895069
1733861824136760300,9.41076025390625,0.040674540215730665,-0.04903203419446945,0.03258417274057865
1733861824146711300,9.420711181640625,0.017136428239941597,-0.027639702075719832,0.062763037905097
1733861824156662300,9.430662353515626,0.05083528422415256,-0.011641337954998016,0.05384615647792816
1733861824166613200,9.44061328125,0.08766717753708363,-0.015640636724233627,0.029921675533056257
1733861824176564200,9.450564208984375,0.16092720566764473,-0.009214987590909003,0.01741641422510147
1733861824186515500,9.460515380859375,0.21099194391071796,0.0014595511585474012,0.005030395382642746
1733861824196466200,9.470466064453126,0.19444076821282505,0.011126958692073821,-0.024582652592658995
1733861824206417400,9.48041748046875,0.11634966666400431,-0.018382044386863708,-0.0681926617383957
1733861824216368000,9.4903681640625,-0.0399848043859005,-0.037226445588469506,-0.08303601060509681
1733861824226320400,9.5003203125,-0.1858290072120726,-0.06066635788679123,-0.055039750176668165
1733861824236271000,9.51027099609375,-0.2601509654857218,-0.05792027404904365,-0.00815115775167942
1733861824246222300,9.520222412109375,-0.24956921958625314,-0.04457330121994018,0.05802841059863567
1733861824256173300,9.53017333984375,-0.20616627731993795,-0.024024434188008308,0.1052004961401224
1733861824266124300,9.540124267578125,-0.12137772395908832,0.006115268009901046,0.1540910760372877
1733861824276075300,9.5500751953125,-0.09541048514023423,-0.0016980360895395277,0.15323416694700717
1733861824286026200,9.560026123046875,-0.11165946302115917,-0.012613982379436492,0.09203180248737335
1733861824295977500,9.5699775390625,-0.13427066941037774,-0.032949498921632764,0.03992576767504215
1733861824305928200,9.57992822265625,-0.1674848106175661,-0.03736263918876648,0.01381049868762493
1733861824315879400,9.58987939453125,-0.16824761168360708,-0.045480479192733764,-0.009691957452893257
1733861824325831200,9.5998310546875,-0.16403218594565985,-0.046186581635475156,0.00872106659412384
1733861824335782400,9.609782470703125,-0.13253975396454334,-0.04458031548261642,0.0029810616374015804
1733861824345733000,9.619733154296876,-0.10862710958793759,-0.04312017980217933,-0.016575287225842474
1733861824355684400,9.629684326171875,-0.0984469302266836,-0.04371113143265247,0.012950082466006279
1733861824365635000,9.639635009765625,-0.06829787567853927,-0.03145429192781448,0.02733750425875187
1733861824375586300,9.64958642578125,-0.06023249651417136,-0.011595160725712775,0.02225041025280952
1733861824385537000,9.659537109375,-0.08424421735107898,-0.022620412608981132,0.011850012269616126
1733861824395488300,9.66948828125,-0.11189224886372685,-0.031366613644361496,0.030598551881313323
1733861824405439200,9.679439208984375,-0.09409165762662887,-0.02384381692409515,0.03787351132035255
1733861824415390200,9.68939013671875,-0.06392740550935268,-0.03312427096664906,0.025059622454643247
1733861824425341400,9.699341552734374,-0.07877557668164371,-0.028173370561003684,0.04199439064264297
1733861824435293200,9.709293212890625,-0.0767507928557694,-0.01867372080981731,0.0712462040901184
1733861824445244400,9.719244384765625,-0.05082008665502071,0.005300444495677948,0.0737251614242792
1733861824455195100,9.729195068359376,-0.0203168118417263,-0.018913374784588814,0.02063186914026737
1733861824465146400,9.739146484375,0.020993542059510945,-0.03313713044822216,0.021892098334431648
1733861824475097000,9.74909716796875,0.09498203059509396,-0.033900516036152836,0.04008651119470596
1733861824485048300,9.75904833984375,0.13848214962556957,-0.04508651143908501,0.05639817904829979
1733861824494999300,9.768999267578126,0.1022381392031908,-0.043187399819493294,0.09884791224300861
1733861824504950300,9.7789501953125,0.09122647745385766,-0.021812603357434273,0.12056348496675491
1733861824514901000,9.78890087890625,0.07530746217966079,-0.0006856441766023635,0.12869769158363342
1733861824524852000,9.79885205078125,0.05539470109418034,0.013024901267886161,0.10081599744558334
1733861824534804000,9.808803955078124,0.01971314686015248,0.006793897923827171,0.059463411837816234
1733861824544755000,9.8187548828125,-0.05196151177510619,-0.023889994153380393,0.011070260068774223
1733861824554706000,9.828705810546875,-0.09772036951780319,-0.03083645229041576,-0.0037631519258022306
1733861824564657000,9.838656982421876,-0.12595789135619997,-0.05065115982890129,-0.013975333860516548
1733861824574608000,9.84860791015625,-0.16277458709999917,-0.0662403586268425,-0.030604981622099875
1733861824584558800,9.858558837890625,-0.16665698149129748,-0.043266894796490665,0.005530746120214462
1733861824594510000,9.868510009765625,-0.10693638002201915,-0.05463000033199787,0.02105798559784889
1733861824604461000,9.8784609375,-0.03513195752725005,-0.023430559948086738,0.046070261779427524
1733861824614412000,9.888412109375,0.022226444855332372,-0.013598317241668701,0.058681321549415584
1733861824624363000,9.898363037109375,0.026970424512028694,-0.027616905722022054,0.029693711996078488
1733861824634314000,9.90831396484375,-0.012341010656952858,-0.00886836611032486,0.018625790014863013
1733861824644266000,9.918265869140624,-0.034925475169718265,-0.02174655238389969,0.016741291442513465
1733861824654217000,9.928217041015625,-0.035322219402343036,-0.03730243343412876,-0.014435937109589576
1733861824664168000,9.93816796875,-0.001322188514471054,-0.06279051043391227,-0.024916414591670034
1733861824674119000,9.948118896484376,0.014016104262322186,-0.0440630136102438,0.01872691230177879
1733861824684070000,9.95806982421875,0.00863587252870202,-0.003805237501859665,0.08652151463329792
1733861824694020900,9.968020751953125,0.04635039389505982,-0.028242928665876386,0.09598258593976497
1733861824703971800,9.977971923828125,0.05535363843142986,-0.023571429723501205,0.10748656125068663
1733861824713923000,9.987923095703126,0.047374330115318296,-0.013894085317850111,0.10948971776664257
1733861824723873800,9.997873779296874,-0.005473462975025177,-0.03876198459267616,0.06123626672923565
1733861824733825000,10.007824951171875,-0.003469721937179565,-0.04018003469705581,0.015281155762076377
1733861824743777000,10.017777099609376,-0.023786533778905865,-0.06858662949204444,-0.012473697125911712
1733861824753728000,10.02772802734375,-0.03843333716019988,-0.07803542583882808,-0.03741699972450733
1733861824763679000,10.037678955078125,-0.05848375315070152,-0.06435761362016201,-0.04953823015093803
1733861824773630000,10.0476298828125,-0.07657923568114638,-0.06921265243589877,-0.0751157389998436
1733861824783581000,10.057580810546876,-0.10845160689055919,-0.08541793730556964,-0.07922609692811966
1733861824793532000,10.067531982421874,-0.10478212459757924,-0.06753741270005703,-0.03681085052490234
1733861824803483100,10.077483154296875,-0.05996785422861576,-0.016904957571625707,0.014544073659181594
1733861824813433900,10.087433837890625,-0.059108168659359216,0.018007365855574605,0.08863748387396335
1733861824823385000,10.097385009765626,-0.1363705642990768,0.037275545427203176,0.13964052588045597
1733861824833335800,10.107335693359374,-0.168460377651453,0.04768880289196968,0.16540332816839218
1733861824843288000,10.1172880859375,-0.14444529581367968,0.03325345030426979,0.13236498191952706
1733861824853239000,10.127239013671876,-0.11340250729620456,-0.001298223116993904,0.056901452395319935
1733861824863190000,10.13718994140625,-0.06741042531952261,-0.051012394356727594,-0.017376082214713096
1733861824873141000,10.14714111328125,-0.036402708115428686,-0.04383095842003822,0.01605097109079361
1733861824883092000,10.157092041015625,-0.027733810099959372,-0.06130056413710117,0.022755437165498733
1733861824893043000,10.16704296875,-0.07477160173729061,-0.056634325891733166,0.04031622829735279
1733861824902994000,10.176993896484374,-0.1276309391349554,-0.047374330115318296,0.05383388151824474
1733861824912945200,10.186945068359375,-0.12968041901066898,-0.04812134909033775,0.04287175799906254
1733861824922896000,10.196895751953125,-0.09256357127651571,-0.04476151726841926,0.04071545674800873
1733861824932847000,10.20684716796875,-0.08383490589782595,-0.03202653885781765,0.0001432078629732132
1733861824942797800,10.2167978515625,-0.09271277048885822,-0.02521510527729988,0.0015139116942882538
1733861824952750000,10.22675,-0.15336626889407634,-0.03393617187142372,0.005060790520906448
1733861824962701000,10.236701171875,-0.18417934030890465,-0.013209025663137435,0.009286883783340454
1733861824972652000,10.246652099609374,-0.1915051531523466,-0.02140051542520523,0.007616904744505882
1733861824982603000,10.25660302734375,-0.14094532486870884,-0.016705051085352897,0.05646130741238594
1733861824992554000,10.266553955078125,0.03605959376618266,0.004351180946826934,0.09610416649281978
1733861825002505000,10.2765048828125,0.24854528336599468,0.012381927189230918,0.12395605001449585
1733861825012456000,10.2864560546875,0.29314897972419857,0.018213117560744285,0.09546528406739234
1733861825022407200,10.2964072265625,0.14725699223354458,-0.002573065358400345,0.04072364005446434
1733861825032358000,10.30635791015625,-0.0885467368505895,-0.018933833050727843,0.031062077739834784
1733861825042309000,10.31630908203125,-0.23862989242076874,-0.04892740477621555,0.01837269203662872
1733861825052260900,10.3262607421875,-0.1864507923722267,-0.051253801897168154,-0.00852758984863758
1733861825062212000,10.336212158203125,-0.01339139649271965,-0.04927344173491001,0.007584756040573119
1733861825072162800,10.346162841796875,0.13013210830092428,-0.039080549022555346,0.06313830095827579
1733861825082114000,10.356114013671874,0.19053601585924623,-0.0027367314875125885,0.09322188905477523
1733861825092064800,10.366064697265625,0.15329685691967607,-0.011225742891430855,0.05614391202628612
1733861825102016000,10.37601611328125,0.008902414510399102,-0.012698738053441046,0.0620224486708641
1733861825111967000,10.385967041015626,-0.20113558967635034,-0.03020049247443676,0.030008184772729873
1733861825121918000,10.39591796875,-0.33816111075282096,-0.061248541688919064,-0.0024836335092782973
1733861825131869200,10.405869140625,-0.3866284968018532,-0.06371580858528614,0.028843817168474197
1733861825141820000,10.41581982421875,-0.2891799299627542,-0.0597089110314846,0.06576163519918918
1733861825151771100,10.425771240234376,-0.11033391350582242,-0.052560208320617675,0.054739890447258945
1733861825161723000,10.435722900390624,0.06562120381519199,-0.050504444834589955,0.0032826749324798583
1733861825171674000,10.445674072265625,0.20115224855020641,-0.035870354804396626,0.011239186894893645
1733861825181624800,10.455624755859375,0.21976284099593757,-0.037577158722281456,0.03840425719618797
1733861825191576000,10.465576171875,0.14369418518543242,-0.01650982077419758,0.049043140110373494
1733861825201526800,10.47552685546875,0.06331131943762303,-0.020687398719787597,0.043486090505123136
1733861825211478000,10.48547802734375,0.020715455770492552,-0.03105915513038635,0.04673077151477337
1733861825221429000,10.495428955078125,0.010541267758607864,-0.059499067673087117,0.022026538369059562
1733861825231380000,10.5053798828125,0.08036006939411162,-0.03925941272079944,0.03879004164338112
1733861825241331000,10.5153310546875,0.13455007087364793,-0.030611995884776113,0.027176760739088056
1733861825251282000,10.525281982421875,0.1688794798463583,-0.06260463247299194,0.015019289955496787
1733861825261234000,10.53523388671875,0.1315444593168795,-0.06148702661991119,0.03318155411183834
1733861825271185000,10.545184814453124,0.036530426148325204,0.03785714470744133,0.06734452047646046
1733861825281136000,10.55513623046875,-0.03301014306768775,0.08595803553164005,0.10098667783737182
1733861825291086800,10.5650869140625,-0.05701017346680164,0.03728372873365879,0.07878712098896502
1733861825301038000,10.5750380859375,-0.03630392391607165,-0.022356208714842795,0.031280104404687877
1733861825310988800,10.58498876953125,-0.026463059511780736,-0.04277472736537456,0.03383621862828731
1733861825320940000,10.59493994140625,-0.04935410575568676,-0.06488894401788711,0.008711714243888854
1733861825330891000,10.60489111328125,-0.12185630125626921,-0.06055588324964046,0.05335223548114299
1733861825340842000,10.614842041015624,-0.21820976633504033,-0.009180500799417495,0.12074760936200618
1733861825350793000,10.62479296875,-0.2306529221922159,0.015268296280503272,0.1207861878067255
1733861825360745000,10.634744873046875,-0.17075915611311793,0.008964812222123145,0.08365443476438522
1733861825370696200,10.6446962890625,-0.09796002349257468,-0.03096738519370556,0.04946808752417564
1733861825380647000,10.65464697265625,-0.06650456252098083,-0.06419453201293945,0.0013046528577804564
1733861825390598100,10.66459814453125,-0.0621237170882523,-0.0848188023686409,-0.0034556934118270873
1733861825400548900,10.674548828125,-0.13127148759439586,-0.12544774987697602,0.0668196198195219
1733861825410500000,10.6845,-0.16198738224506376,-0.17324702740609646,0.1740992603212595
1733861825420450800,10.694450927734374,-0.18641455201506613,-0.054604281368851655,0.21606267130374907
1733861825430402000,10.704402099609375,-0.19544994525536893,0.05876257009208202,0.1314905371725559
1733861825440353000,10.71435302734375,-0.19199615153968333,0.08682546601593494,0.017104279536008835
1733861825450304000,10.724303955078126,-0.2142062297821045,0.07616261770427227,-0.15159166043698788
1733861825460255000,10.7342548828125,-0.2183271091043949,-0.022036475241184232,-0.29782851584255693
1733861825470207000,10.74420703125,-0.20192191774845122,-0.11792495315670966,-0.294338920161128
1733861825480158000,10.754157958984376,-0.1854185267150402,-0.10778349837064742,-0.11343348695635795
1733861825490109000,10.76410888671875,-0.10458616363406181,-0.045207507470250125,0.08710720556676388
1733861825500060200,10.77406005859375,0.06357669237554073,-0.004037292692065239,0.18419161526858804
1733861825510011000,10.784010986328125,0.20025719940662381,0.04824000703394413,0.20704466758966444
1733861825519962000,10.793962158203126,0.23735914183259008,0.04458908331096172,0.12980886769592762
1733861825529912800,10.803912841796874,0.16394041600897907,0.014230185404419898,0.04466331759095192
1733861825539864000,10.813864013671875,0.016615180844813584,-0.022203648501634598,-0.03921148192584514
1733861825549815000,10.82381494140625,-0.09346899568364024,-0.0554389786273241,-0.05891454578340053
1733861825559766000,10.83376611328125,-0.13411547884866595,-0.07013035180270671,-0.04695522792041301
1733861825569717800,10.8437177734375,-0.08664367970824241,-0.08859832090735435,0.0029939211189746857
1733861825579669000,10.8536689453125,0.03811813373118639,-0.0434440049290657,0.10697919625043868
1733861825589620000,10.863619873046876,0.13428089854344724,0.014351765957474708,0.16240122374296187
1733861825599571000,10.873571044921874,0.16445523366332054,0.06152618958652019,0.1536725583642721
1733861825609522000,10.88352197265625,0.06861001036763191,0.04435644359886646,0.09532616785764694
1733861825619473000,10.893472900390625,-0.07817103491723537,-0.008263385954499243,-0.007115384963154793
1733861825629423900,10.903423828125,-0.18708835962340234,-0.05807166521847248,-0.047179684326052664
1733861825639374800,10.913374755859374,-0.21426468197107315,-0.09597849428653717,-0.05596972450315952
1733861825649325800,10.923325927734375,-0.17112638199031352,-0.0901210004299879,-0.0025724808365106583
1733861825659277000,10.933277099609375,-0.06361512468978762,-0.05583645351231098,0.06837970874309539
1733861825669229000,10.94322900390625,0.018989947152137754,0.004010989207029343,0.12199907072782516
1733861825679180000,10.953179931640625,0.04847162383273244,0.026255554240942,0.1270557695955038
1733861825689131000,10.963131103515625,0.0002947451628744602,0.03958499141335487,0.11604279267191886
1733861825699082000,10.97308203125,-0.10612988594472407,0.016760580664873122,0.071185413813591
1733861825709033000,10.983032958984374,-0.2493083766929805,-0.0251139829903841,0.025928221982717513
1733861825718984000,10.99298388671875,-0.3444983509503305,-0.06465805787146091,-0.02778700159192085
1733861825728935000,11.002934814453125,-0.36123452782630916,-0.0833066442400217,-0.042325814554095266
1733861825738886000,11.012885986328126,-0.28246085084080697,-0.12100889064669608,-0.047858898761868475
1733861825748837000,11.022837158203124,-0.07658917255327105,-0.11515198131203651,-0.03299626067280769
1733861825758787800,11.032787841796875,0.08165186277031898,-0.0697737934499979,0.015226210704445837
1733861825768739800,11.04273974609375,0.12858604790270328,-0.04093406793475151,0.010462941825389862
1733861825778691000,11.052691162109374,0.08433657180964946,-0.01696983950138092,0.006228665256500244
1733861825788642000,11.06264208984375,0.014798925203084946,0.02284136188328266,0.02346621578335762
1733861825798593000,11.072593017578125,-0.02882379729375243,0.030818916633725164,0.011389993542432784
1733861825808544000,11.0825439453125,-0.05864917284548282,0.013459201031923293,-0.0032920272827148436
1733861825818495000,11.092494873046874,-0.062307695353031156,-0.008544540983438492,0.0010205752193927764
1733861825828446000,11.102446044921875,-0.08001476308777927,-0.013459201031923293,0.026195348486304282
1733861825838397000,11.11239697265625,-0.07519464945495129,-0.0076315177917480465,0.022695231410861015
1733861825848348000,11.122347900390626,-0.0633766397587955,-0.02918868508338928,0.014877251136302947
1733861825858299100,11.132299072265624,0.003893500307202339,-0.049749242553114886,0.006667056673765182
1733861825868251000,11.1422509765625,0.14424655837118625,-0.0518704724907875,0.027079730105400084
1733861825878201900,11.152201904296875,0.24963117890655992,-0.024752748462557792,0.06946048971712589
1733861825888153000,11.162153076171874,0.19174422260522841,-0.055417351317405696,0.07394727974236011
1733861825898104000,11.17210400390625,0.01255436114668846,-0.042564299485087394,0.06239420459270477
1733861825908055000,11.182054931640625,-0.19793255585134029,-0.01376607502400875,0.08994739742875099
1733861825918006000,11.192006103515626,-0.34394027867615223,-0.01149345391690731,0.07196282792687415
1733861825927957000,11.20195703125,-0.39038638803064823,-0.029841596034169197,-0.0012742577195167541
1733861825937908000,11.211907958984375,-0.33888474885225295,-0.06737783822417259,-0.0665361267030239
1733861825947859000,11.22185888671875,-0.19854864192306995,-0.09797463653981685,-0.09769874220788478
1733861825957810000,11.231809814453126,-0.025089579201489687,-0.10736848782896995,-0.07520458632707595
1733861825967761200,11.24176123046875,0.07494915026128292,-0.059337155109643935,-0.002715104177594185
1733861825977713000,11.251712890625,0.0916851810067892,-0.0240858089864254,0.08405307869315147
1733861825987664000,11.261663818359375,0.04460764188095927,0.0037602293163537977,0.11633505361676215
1733861825997614800,11.27161474609375,-0.01180778056308627,-0.012646131083369254,0.10063128852844237
1733861826007566000,11.281566162109375,-0.07295870709642767,-0.03137713503837585,0.050801966476440426
1733861826017516800,11.291516845703125,-0.11934577974006533,-0.02374795533418655,0.016864041039347646
1733861826027468000,11.301468017578125,-0.14646715703010557,-0.029503742381930348,0.034192192459106444
1733861826037419000,11.3114189453125,-0.12183657364249229,-0.012115969729423522,0.040102877807617184
1733861826047370000,11.321369873046875,-0.07885551005005836,-0.022943653213977813,0.057367316341400146
1733861826057321000,11.331321044921875,-0.03903539470657706,-0.03531739709675312,0.06976444109976292
1733861826067272000,11.34127197265625,-0.02017462689206004,-0.02391805120408535,0.07061199783980845
1733861826077224000,11.351223876953124,-0.001748743363469839,-0.004666238245368003,0.061980363094806666
1733861826087175000,11.3611748046875,-0.00872998055294156,-0.03013502602279186,0.04416355137526989
1733861826097126000,11.3711259765625,-0.021811434313654898,-0.025847557961940763,0.048988195052742954
1733861826107076900,11.381076904296876,-0.05426394349858164,-0.02065934166908264,0.038539866274595255
1733861826117028000,11.391028076171875,-0.0677566084086895,-0.03193184631168842,0.015514379996061324
1733861826126978800,11.400978759765625,-0.06713584616184234,-0.04514262554049492,0.014963760375976562
1733861826136930000,11.410929931640625,-0.043815176329016686,-0.05067220261693001,0.027528058394789695
1733861826146880800,11.420880859375,-0.00941430955529213,-0.046746553605794904,0.04381751441657543
1733861826156832000,11.43083203125,0.02811974067762494,-0.030249007791280744,0.06518354305028914
1733861826166783000,11.440782958984375,0.051082683113962406,-0.019891279906034467,0.0541886863052845
1733861826176735000,11.45073486328125,0.0020512334413826465,-0.007521043154597282,0.059333063456416126
1733861826186686000,11.46068603515625,-0.05896481466591358,-0.010748773029446601,0.034957331612706186
1733861826196637000,11.470636962890625,-0.0871357010088861,-0.04303717769384384,0.025628946775197982
1733861826206588000,11.480587890625,-0.11697788156494497,-0.03712064712643623,0.01326981593966484
1733861826216539000,11.490538818359376,-0.08485212011635303,-0.04255144000351429,0.02245148578286171
1733861826226490000,11.500489990234374,-0.02418123218491673,-0.03308335443437099,0.03353986603021621
1733861826236440800,11.51044091796875,-0.0032576866216957566,-0.04171206656992435,0.04921674311161041
1733861826246392000,11.52039208984375,-0.008703530937433243,-0.05172551106214523,0.052317047214508056
1733861826256342800,11.5303427734375,-0.04258183514177799,-0.04210252719223499,0.06112988374531269
1733861826266294000,11.5402939453125,-0.0718652127712965,-0.028073417317867277,0.023186814320087432
1733861826276246000,11.55024609375,-0.09107903180718421,-0.03324585151970386,0.008328267884254455
1733861826286197000,11.560197021484376,-0.12430150245130062,-0.03428513143956661,0.008250526472926139
1733861826296148000,11.57014794921875,-0.1292052027143538,-0.03194178318381309,-0.011752981635928153
1733861826306099000,11.580098876953125,-0.12263152341246604,-0.02916822681725025,0.009207973328232765
1733861826316050200,11.59005029296875,-0.0657515521965921,-0.04494564166367054,0.043290860193967814
1733861826326001000,11.6000009765625,-0.046454877182841296,-0.033760815304517744,0.06209960556030273
1733861826335952100,11.6099521484375,-0.04158113366663456,-0.028963644155859947,0.049861470755934716
1733861826345902800,11.61990283203125,-0.042916766184568404,-0.041536710003018375,0.04561433470547199
1733861826355854000,11.62985400390625,-0.07975216662883758,-0.030693828949332234,0.027211832052469253
1733861826365804800,11.6398046875,-0.12557517564892767,-0.021531448328495024,0.022169161710143086
1733861826375757000,11.649757080078125,-0.10803075112998485,-0.011409867286682128,0.021713234636187552
1733861826385707800,11.659707763671875,-0.08328092527687549,-0.02633972539305687,0.02717442265152931
1733861826395659000,11.669658935546876,-0.07554010189175606,-0.04103811283111572,0.014764438411593436
1733861826405610000,11.67960986328125,-0.046147564799338577,-0.027419921845197676,0.037414661636948586
1733861826415561000,11.68956103515625,0.029681437036395072,-0.022566052073240278,0.05229717347025871
1733861826425512200,11.69951220703125,0.061016924890130754,-0.024621815559267995,0.04832593175172806
1733861826435463000,11.709462890625,0.028515315866470336,-0.02650514508783817,0.05798398693501949
1733861826445414100,11.7194140625,-0.011542407625168562,-0.028627544069290158,0.05186462727189064
1733861826455364900,11.72936474609375,-0.08227262501716613,-0.03281096723377704,0.03853226749002933
1733861826465316000,11.739316162109375,-0.10669394956827163,-0.029881343522667882,0.02657937936782837
1733861826475267800,11.749267822265624,-0.08611468739807605,-0.03288520151376724,0.011650690305233
1733861826485219000,11.759218994140625,-0.0544891305565834,-0.04172024987637996,0.015916531056165695
1733861826495169800,11.769169677734375,-0.02506663671731949,-0.047290743485093115,0.03186871794760227
1733861826505121000,11.77912109375,-0.008528905022889376,-0.046990883755683895,0.039112113204598425
1733861826515071700,11.78907177734375,0.0023376491673290727,-0.032925533524155615,0.030275895798206328
1733861826525023500,11.7990234375,0.012292641470581293,-0.04544365431368351,0.03431903370916843
1733861826534974500,11.808974365234375,0.023790625432133672,-0.022687048104405402,0.04787818798422813
1733861826544925400,11.818925537109376,0.03417538745477795,-0.013765490502119063,0.04356792356967926
1733861826554876400,11.82887646484375,0.04965455000698566,-0.022715105155110358,0.05280220038294792
1733861826564827400,11.838827392578125,0.05289163223206997,-0.01695581097602844,0.03447568557560444
1733861826574779400,11.848779296875,0.04460939544662833,-0.019162965631484983,0.03544540739059448
1733861826584730400,11.85873046875,-0.029424685796350238,-0.012560790887475012,0.027945407024025915
1733861826594681300,11.868681396484375,-0.12467223545983433,-0.02261515191197395,0.04049976817071438
1733861826604632300,11.87863232421875,-0.21821824190244077,-0.02358253563940525,0.03121171534359455
1733861826614583600,11.88858349609375,-0.26105375954434273,-0.0322334596067667,0.02175298212468624
1733861826624534300,11.8985341796875,-0.2600665020726621,-0.0451958170324564,0.03597089256942272
1733861826634485500,11.908485595703125,-0.17963395196422932,-0.04377484431862831,0.035408582511544225
1733861826644436500,11.9184365234375,-0.12117898651659488,-0.020609657308459282,0.032037060251832006
1733861826654387500,11.928387451171876,-0.08125365723297,-0.004178162467479705,0.02552840901017189
1733861826664338400,11.93833837890625,-0.046482349711656566,-0.018836217895150182,0.021305822879076
1733861826674290400,11.94829052734375,-0.04206979396641254,-0.0317716873139143,0.03377952000498771
1733861826684241400,11.958241455078126,-0.070874886559695,-0.018165186765789983,0.04999357270300388
