time,seconds_elapsed,z,y,x
1733862530493797000,0.012797119140625,-0.3722913438916206,-0.008988485358655452,0.14131342752873896
1733862530503747800,0.022747802734375,-0.5232547894276678,-0.10408259802609682,-0.11567805101275444
1733862530513699000,0.032698974609375,-3.043680298399925,-1.0349968357160686,-1.0521791489243506
1733862530523651000,0.042651123046875,-3.2183038748562334,-0.22040888381451368,0.2956172695338726
1733862530533602000,0.05260205078125,-0.7833492754857987,0.4950865334331989,0.5421569121658801
1733862530543553000,0.062552978515625,2.3174907609194517,0.06576280424296856,-1.220170740020275
1733862530553504000,0.07250390625,2.103049553337693,-0.39214989057183264,-0.37249884916245934
1733862530563455200,0.082455322265625,0.8874368419479578,0.14994915392696856,0.3080950583130121
1733862530573406000,0.092406005859375,-0.018623451927304267,0.21270751565694807,0.038810499909520145
1733862530583357200,0.102357177734375,-0.1789688756516203,0.10472001914680004,0.008182137411832808
1733862530593308000,0.112307861328125,0.0933539910018444,0.06109627373665571,0.01872691230177879
1733862530603260200,0.12226025390625,0.23241174855828284,0.06009937165379524,-0.019178163200616834
1733862530613211100,0.132211181640625,0.46931963949203487,-0.21389321831017732,-0.11758242332935333
1733862530623162000,0.142162109375,0.8492898474484681,-0.08773702790290117,-0.061796238699555396
1733862530633113000,0.152113037109375,0.812083275604248,0.01282324121594429,0.052045244535803795
1733862530643064000,0.16206396484375,0.4556476359596476,-0.025094109246134755,0.0735948130428791
1733862530653015000,0.17201513671875,0.07304130734596401,-0.01735679299235344,0.06278349617123603
1733862530662966000,0.181966064453125,-0.13298691321015357,-0.018826573283970353,0.026136896297335625
1733862530672918000,0.19191796875,-0.2211679220208898,-0.036188042451441284,0.0321855288118124
1733862530682869000,0.201868896484375,-0.20590254834983496,-0.045079204915463925,0.02415419804751873
1733862530692820000,0.211820068359375,-0.10528642085790633,-0.04090981027632951,0.04836158758699894
1733862530702771000,0.22177099609375,-0.024441782817244528,-0.033270985960960384,0.06152443602085113
1733862530712722200,0.23172216796875,0.08683364932239056,-0.03509644782245159,0.05383621960580349
1733862530722673000,0.2416728515625,0.12043426909651607,-0.04376081579327583,0.057743163916468616
1733862530732624100,0.2516240234375,0.09298219854738562,-0.027680034086108207,0.07399053436219692
1733862530742576000,0.261576171875,0.04007365171313285,-0.036708851455152035,0.057356794947385784
1733862530752527000,0.271527099609375,-0.009744564422965049,-0.041994682903587814,0.05516542238295078
1733862530762478000,0.28147802734375,-0.034789573830366134,-0.0287716287150979,0.06063771631419658
1733862530772429000,0.291428955078125,-0.04885375501811504,-0.020125380922853944,0.05720891090929508
1733862530782380000,0.301380126953125,-0.021816695010662076,-0.039359658224880696,0.09188742558062075
1733862530792331000,0.3113310546875,-0.018418284744024276,-0.02206803942322731,0.0448468574643135
1733862530802282000,0.321281982421875,0.028503040906786917,-0.036761750686168666,0.06007423721253872
1733862530812234000,0.33123388671875,0.06417465826869011,-0.028842355863749978,0.07712532525658607
1733862530822185000,0.34118505859375,0.06170213067531585,-0.003894669350981712,0.003353402081131935
1733862530832136200,0.35113623046875,0.03795479639563709,-0.0296323371976614,0.07598433852791786
1733862530842087000,0.3610869140625,-0.01154719339814037,-0.03522796524763107,0.030638299369812008
1733862530852038100,0.3710380859375,-0.05654485750999301,-0.09727525609880686,0.0977940192759037
1733862530861989000,0.380989013671875,-0.08523907360732555,-0.03272884190827608,0.030966216149926184
1733862530871940000,0.390940185546875,-0.04581657927930355,0.05534282477647066,0.042105449801683424
1733862530881891000,0.40089111328125,-0.016089549535512924,-0.021160276928544042,0.07341244221329689
1733862530891843000,0.410843017578125,-0.06397358273863792,-0.04970452662855387,0.050986675393581385
1733862530901794000,0.4207939453125,-0.07124390253517776,-0.016274842974543572,0.02582300804257393
1733862530911745000,0.4307451171875,-0.06090013011004775,-0.0019119711011648178,0.03476443938910961
1733862530921696000,0.440696044921875,-0.0913455372562632,-0.04190729688107967,0.03321428733766079
1733862530931647000,0.45064697265625,-0.09824406459834426,-0.08204115434885025,0.028002105647325515
1733862530941598000,0.460597900390625,-0.0928442879140377,-0.03767711196541786,0.09789923321604728
1733862530951549000,0.470548828125,-0.06309679990410805,0.06311755043119192,-0.012395955714583396
1733862530961501200,0.480501220703125,-0.11110822234656662,-0.08741495634168386,0.0621183102607727
1733862530971452000,0.490451904296875,-0.13040445896890013,-0.0020730068817734716,-0.0077186115533113475
1733862530981403100,0.500403076171875,-0.0380500003984198,0.04293196375370025,-0.12623743894994258
1733862530991354000,0.51035400390625,-0.008943732901476324,-0.044452012927830215,0.05342471619546413
1733862531001305000,0.52030517578125,-0.03473050058688968,-0.15665858843773603,0.18974691130816934
1733862531011256000,0.530256103515625,-0.06994915001690387,-0.033655016842484474,0.0678740973085165
1733862531021207000,0.54020703125,-0.14691018808986991,0.0025616671815514563,-0.012903320714831351
1733862531031159000,0.550158935546875,-0.17277645075228065,-0.013401917886734008,-0.009418985730409621
1733862531041110000,0.560110107421875,-0.11575111624896525,0.0033346973806619644,-0.004952069449424743
1733862531051061200,0.570061279296875,-0.06642276598904281,-0.035678339363634584,0.06261047769188881
1733862531061012000,0.580011962890625,-0.013360380299948155,0.02389496258944273,-0.05651566794812679
1733862531070963200,0.589963134765625,0.05216101640257984,0.014601649065315723,-0.031738954088091846
1733862531080914000,0.599913818359375,0.058790627142786975,-0.03237842103540897,0.04053133235275745
1733862531090865200,0.609865234375,0.018327099329233168,-0.029379823741316792,0.045780923444032666
1733862531100817000,0.61981689453125,0.015091186147928237,-0.020947510960698128,0.055993105378746987
1733862531110768000,0.62976806640625,-0.006096015320159494,-0.03408259460479021,0.038812253475189205
1733862531120718800,0.63971875,0.019902933811210093,-0.025413550458848477,0.04586275650858879
1733862531130670000,0.649670166015625,0.013302585698105393,-0.028619068501889704,0.03763911804258823
1733862531140621000,0.65962109375,-0.03479245990719646,-0.0331461905375123,0.025547698232531547
1733862531150572000,0.669572021484375,-0.03683068773653358,-0.03634615562260151,0.040972646379470824
1733862531160523000,0.67952294921875,-0.036117571031115944,-0.017495909202098845,0.029870237606763838
1733862531170475000,0.68947509765625,-0.030904256829619406,-0.02419073066562414,0.061276014217734334
1733862531180426200,0.69942626953125,-0.05639934809207916,-0.03383855671584606,0.047504678496718404
1733862531190376400,0.70937646484375,-0.03577336070332676,-0.026988252429664135,0.044973698714375496
1733862531200327700,0.71932763671875,-0.05707333836350589,-0.029435645581781862,0.045865094596147536
1733862531210278400,0.7292783203125,-0.06175590668916702,-0.033247020563483234,0.019514847809076308
1733862531220229600,0.739229736328125,-0.08352759351432323,-0.03372837433964014,0.03852817583680153
1733862531230180600,0.7491806640625,-0.07788114859256894,-0.023422376641631125,0.01960311061441898
1733862531240131600,0.759131591796875,-0.08512041566371917,-0.015532207913696765,0.02497369773685932
1733862531250083600,0.76908349609375,-0.09313242067303508,-0.02158990051746368,0.035247838991880415
1733862531260034600,0.77903466796875,-0.05480188630018383,-0.021593407648801802,0.04801671967208385
1733862531269985800,0.78898583984375,-0.04727203878462315,-0.012535071924328803,0.03471300146281719
1733862531279936500,0.7989365234375,-0.05810673653185367,-0.03807663267701864,0.026273089897632596
1733862531289887700,0.8088876953125,-0.06096099345181137,-0.05053747032135725,0.03142389678955078
1733862531299838500,0.81883837890625,-0.02489654084742069,-0.028570260924100876,0.06906243031024932
1733862531309789700,0.828789794921875,0.009894202026724815,-0.031905250565707685,0.043975919848680496
1733862531319741700,0.83874169921875,0.006219312906265258,-0.044944472619891165,0.038808746343851085
1733862531329692700,0.848692626953125,0.003966565543413162,-0.03415419853627682,0.05453998396098613
1733862531339643600,0.8586435546875,-0.006249744577147066,-0.025011107137799263,0.027928455889225004
1733862531349594600,0.8685947265625,-0.01764258766379207,-0.026313714168965815,0.05580605837404728
1733862531359545600,0.878545654296875,0.0077495912134647365,-0.03230038736313581,0.027849545434117315
1733862531369496600,0.88849658203125,0.002957717294432223,-0.00862432822138071,0.04915010761618614
1733862531379447800,0.89844775390625,0.0021457798570394516,-0.03634498657882213,0.05111351664364338
1733862531389399600,0.908399658203125,0.02185823259744793,-0.03969195891916752,0.03362111457288265
1733862531399350500,0.9183505859375,0.02562489165458828,-0.025453005686402318,0.06078267774283885
1733862531409301500,0.928301513671875,0.02788406875822693,-0.03509820138812065,0.04227379210591316
1733862531419252700,0.938252685546875,0.01814293840136379,-0.03199205206632614,0.04963292269706726
1733862531429203500,0.948203369140625,0.04444821353554725,-0.04889350250661373,0.0457359152585268
1733862531439154700,0.95815478515625,0.007174421674013137,-0.05561755006462335,0.07809855420291423
1733862531449105400,0.96810546875,0.004687865555286407,-0.037710137452185155,0.06706161188185214
1733862531459056600,0.978056640625,0.028990495630167423,-0.011949380990862846,0.05974632043242454
1733862531469008600,0.988008544921875,-0.002923193970322609,-0.005418810178339481,0.05723346082866192
1733862531478959600,0.997959716796875,-0.0598311126390472,0.004458440713584423,0.024849194574356078
1733862531488910600,1.00791064453125,-0.08822422689795494,-0.002614274151623249,0.019921090522408483
1733862531498861600,1.017861572265625,-0.1295090444991365,0.0028723405659198758,0.032928456133604046
1733862531508812500,1.0278125,-0.1400228397289291,-0.029736674354970453,0.037328152397274966
1733862531518763500,1.037763427734375,-0.10422671920452266,-0.04114098868370056,0.04563830010294914
1733862531528714800,1.04771484375,-0.08353932048473507,-0.04449409850388765,0.03550327505767345
1733862531538666800,1.057666748046875,-0.07157474192474036,-0.04580255075395107,0.010819500178098677
1733862531548617700,1.06761767578125,-0.05772157313916832,-0.03598433657288551,0.0219376910418272
1733862531558568700,1.077568603515625,-0.0787321759313345,-0.022094342908263204,0.027158056038618088
1733862531568519700,1.087519775390625,-0.12105269325580448,-0.0441717346817255,0.01826221739947796
1733862531578470700,1.097470703125,-0.1774497032603249,-0.03270020033568144,0.029901801788806914
1733862531588421600,1.107421630859375,-0.2054091753423214,-0.022863281454145908,0.03892623524367809
1733862531598372600,1.11737255859375,-0.2496417368331924,-0.04465571880638599,0.028674305820465085
1733862531608324600,1.12732470703125,-0.26131522349212316,-0.041716450484097,0.011256138029694556
1733862531618275600,1.137275634765625,-0.19728611117396502,-0.02767506565004587,0.013780103549361229
1733862531628226600,1.1472265625,-0.10425181711316107,-0.027750176712870597,0.025248423025012016
1733862531638177500,1.157177490234375,0.006150960377790033,-0.02214285822510719,0.055444823846220966
1733862531648128500,1.16712841796875,0.11905370145831257,-0.00698737466931343,0.06033376493155956
1733862531658079700,1.177079833984375,0.2022235310435295,-0.0030260698229074476,0.06668167265355586
1733862531668030500,1.187030517578125,0.21695227708723394,-0.006209376034140586,0.0651379503428936
1733862531677981700,1.196981689453125,0.16139175443947315,-0.019867606769502163,0.06875088014304638
1733862531687933700,1.20693359375,0.0878776419499889,-0.014054244315624236,0.07076397353112697
1733862531697884700,1.216884765625,0.02291555963065475,-0.012072715109586714,0.06682955669164657
1733862531707835600,1.226835693359375,-0.027559038054943082,-0.017004618553817272,0.07102525481581687
1733862531717786600,1.23678662109375,-0.01943305127713829,-0.02642068167477846,0.052771220722794526
1733862531727737600,1.246737548828125,-0.003918634748458862,-0.01520692148208618,0.06967851638197899
1733862531737688600,1.2566884765625,0.005219159420393407,-0.017578619049489496,0.03694470603764057
1733862531747639600,1.2666396484375,-0.004967888073064386,-0.02548836926072836,0.023530513191223144
1733862531757591800,1.276591796875,-0.06419920818805694,-0.04306201987415552,0.02084580415189266
1733862531767542500,1.28654248046875,-0.14290095244850962,-0.03313596140444278,0.0119862058699131
1733862531777493800,1.29649365234375,-0.19023849421739578,-0.040787060679495335,0.024130817171931267
1733862531787444500,1.306444580078125,-0.24648298054132609,-0.030508243249356744,0.025417934373021124
1733862531797395700,1.316395751953125,-0.2325788852861151,-0.059957040573656556,0.05428045624196529
1733862531807346700,1.3263466796875,-0.1575595923980698,-0.035945758128166194,0.05476093323528766
1733862531817297700,1.336297607421875,-0.10142912437524645,-0.040159576430916784,0.045286417925357814
1733862531827249400,1.34624951171875,-0.057074434342049056,-0.05473462975025176,0.0387123002320528
1733862531837200600,1.35620068359375,-0.024077625679969787,-0.044126141974329944,0.007041735205054283
1733862531847151600,1.366151611328125,0.005987257716059685,-0.03084405107498169,0.016987959679961202
1733862531857102600,1.3761025390625,0.028028957121632992,-0.0508969512835145,0.029455227065086364
1733862531867053600,1.386053466796875,0.05017824508752674,-0.03984773400276899,0.03394084804654121
1733862531877004500,1.396004638671875,0.01964165252652019,-0.020693536199629305,0.04788344868123531
1733862531886955800,1.405955810546875,-0.04132982578668743,-0.018151742762327193,0.03825695767998695
1733862531896907500,1.415907470703125,-0.058209575851820405,-0.023571429723501205,0.029737551137804984
1733862531906858800,1.425858642578125,-0.06105210580136627,-0.016514789210259912,0.035762218254804606
1733862531916809500,1.4358095703125,-0.05288754057884216,-0.015294892026484012,0.044184009641408915
1733862531926760700,1.4457607421875,-0.051858745520375664,-0.0279047827526927,0.03971066361963749
1733862531936711400,1.45571142578125,-0.07109594543185084,-0.03212999923229217,0.038010289442539216
1733862531946662700,1.46566259765625,-0.07975680627133697,-0.018719021256268023,0.07339607560038566
1733862531956613600,1.475613525390625,-0.08885430496241897,-0.02008767926096916,0.07293313426375389
1733862531966564600,1.485564697265625,-0.03439904014281928,-0.0207002582013607,0.06229308230578899
1733862531976516600,1.4955166015625,-0.00396243735756725,-0.026207331185042856,0.03559446047246456
1733862531986467600,1.505467529296875,-0.004278700232505798,-0.023409224899113176,-0.003163432466983795
1733862531996418800,1.515418701171875,0.002147533422708511,-0.04480652545392513,0.015213351222872732
1733862532006369500,1.52536962890625,0.0358890595048666,-0.036059447635710236,0.03588964402675628
1733862532016320800,1.53532080078125,0.06880118555817753,-0.023309563916921613,0.06188567054867744
1733862532026271500,1.545271484375,0.0939379649022594,-0.02260083112567663,0.059900049689412115
1733862532036222700,1.55522265625,0.06290394421312957,-0.02371580663025379,0.05158522580862045
1733862532046174500,1.565174560546875,0.00901453311536461,-0.03240647808611393,0.0558878914386034
1733862532056125700,1.575125732421875,0.024108057350851593,-0.02128507235199213,0.072349196895957
1733862532066076400,1.585076416015625,0.07036470854785293,-0.01770312221199274,0.08394143501222133
1733862532076027600,1.595027587890625,0.10074176316559313,-0.010160744008421898,0.0759346541672945
1733862532085978600,1.604978515625,0.10554770214259623,-0.02873071218281984,0.06615794104039668
1733862532095929600,1.6149296875,0.06597736030910163,-0.03231324684470892,0.049994741746783256
1733862532105880800,1.624880859375,0.00940904885828495,-0.031817864543199535,0.053318333211541176
1733862532115832600,1.63483251953125,-0.0354927901962772,-0.040997488559782504,0.0593693038135767
1733862532125783800,1.64478369140625,-0.05783376480937004,-0.01862812810242176,0.03030512189269066
1733862532135734500,1.654734619140625,-0.08237787548992782,-0.021837445537745952,0.01395429107248783
1733862532145685800,1.664685791015625,-0.10957388891875743,-0.025465280646085737,0.01218494331240654
1733862532155636500,1.674636474609375,-0.11395488048195838,-0.027775018893182277,0.0033498949497938156
1733862532165587700,1.684587646484375,-0.12016421998348087,-0.03483633558154106,0.021593407648801802
1733862532175538400,1.694538330078125,-0.15764964530169964,-0.03792991768270731,0.030340193206071852
1733862532185489700,1.70448974609375,-0.13468381678853183,-0.04484042772352695,0.024644027391076087
1733862532195446000,1.714446044921875,-0.1344885134121403,-0.03615998540073633,0.04113748155236244
1733862532205397000,1.72439697265625,-0.1518166648318991,-0.05256079284250736,0.010250175857543944
1733862532215348000,1.734347900390625,-0.2175865564027801,-0.06979834336936473,0.012397709280252456
1733862532225299000,1.744298828125,-0.2341249822169542,-0.05194909068495035,0.0077723875671625135
1733862532235250000,1.75425,-0.1773579698562622,-0.045228257997334,0.03283551715314388
1733862532245201200,1.764201171875,-0.1395551856845617,-0.047339843323826784,0.0451391184091568
1733862532255151900,1.77415185546875,-0.06247720670104026,-0.022307401137053966,0.016992635855078698
1733862532265104100,1.784104248046875,0.008804653224349021,-0.013871873486042022,0.015831190860271453
1733862532275054800,1.794054931640625,0.02171907985508442,-0.02011164465844631,0.028931495451927185
1733862532285006000,1.804006103515625,0.005433715486526489,-0.015988719509541987,0.04447159441113472
1733862532294956800,1.813956787109375,-0.014024981688521801,-0.01031271969974041,0.05751695394515991
1733862532304908000,1.823907958984375,-0.036526736353896555,-0.007530980026721954,0.06305705241560935
1733862532314859000,1.83385888671875,-0.029751543130539355,-0.01435994926393032,0.04876783030033111
1733862532324810000,1.84381005859375,-0.030436602785252034,-0.018699732033908366,0.045751697349548336
1733862532334762000,1.853761962890625,-0.04013791258838027,-0.01028437038809061,0.02907061166167259
1733862532344713000,1.863712890625,-0.04159048601686954,-0.025829730044305322,0.027643209207057953
1733862532354664200,1.873664306640625,-0.07214223961438983,-0.033759353999793525,0.02739478740394115
1733862532364615000,1.883614990234375,-0.09719371529519558,-0.035822131748497486,0.026393501406908035
1733862532374566100,1.893566162109375,-0.09907236864864825,-0.043860769036412235,0.04512392084002494
1733862532384516900,1.903516845703125,-0.07691259582135826,-0.02724105814695358,0.05184475352764129
1733862532394468000,1.913468017578125,-0.017853052076697348,-0.029327216771245,0.058412441480159755
1733862532404419800,1.923419921875,0.03973283891882747,-0.039186932006478305,0.06972352456748485
1733862532414371000,1.93337109375,0.07001925611104816,-0.03526128299534321,0.08183364907801151
1733862532424321800,1.94332177734375,0.11942304622735828,-0.026682547481358048,0.085711951816082
1733862532434273000,1.95327294921875,0.14618892461061478,-0.020960662703216074,0.06742635354101657
1733862532444224000,1.96322412109375,0.1025999582529068,-0.009368716847896575,0.05341185671389102
1733862532454175000,1.973175048828125,0.017166823378205298,-0.017172668597102165,0.026367782443761825
1733862532464126200,1.983126220703125,-0.0644148967653513,-0.0362570160344243,-0.006548398730158805
1733862532474077000,1.993076904296875,-0.15304306482169777,-0.024211481192708013,0.006496960803866386
1733862532484029000,2.00302880859375,-0.16114512273464351,-0.021518296585977075,0.01930909610390663
1733862532493980000,2.01297998046875,-0.12612930240035056,-0.05277472785413265,0.015936404800415038
1733862532503931100,2.02293115234375,-0.12445168804433196,-0.03844400468468666,0.033240006300807
1733862532513881900,2.0328818359375,-0.07883501525130122,-0.027558161272108552,0.04334346716403961
1733862532523833000,2.0428330078125,-0.05263966676499694,-0.005927636483311653,0.05597673876583576
1733862532533783800,2.05278369140625,-0.030793197670578955,-0.01771393586695194,0.0445855761796236
1733862532543735000,2.062735107421875,-0.055514345418475566,-0.02594488085657358,0.022412907338142395
1733862532553687000,2.07268701171875,-0.09523786851968616,-0.03313303879499435,0.025440730726718902
1733862532563638000,2.082637939453125,-0.1239706265291199,-0.024740765763819218,0.0287391877502203
1733862532573589000,2.092589111328125,-0.10968608058895915,-0.021339432887732983,0.04499123437106609
1733862532583540000,2.1025400390625,-0.09423892061021179,-0.03870879310071468,0.06212064834833145
1733862532593491200,2.1124912109375,-0.05227901675906032,-0.03685001349151134,0.04771101472377777
1733862532603442000,2.12244189453125,-0.02004906428363174,-0.02446224108338356,0.0670113429993391
1733862532613393200,2.13239306640625,0.012159224349260329,-0.017197510777413844,0.0489034393787384
1733862532623345000,2.142344970703125,0.01556815600991249,-0.028680735561251638,0.04695639696419239
1733862532633296100,2.152296142578125,-0.014016286925412713,-0.019269933137297628,0.02974281183481216
1733862532643246800,2.162246826171875,-0.030996647820807993,-0.025564357106387613,0.012915595674514769
1733862532653198000,2.172197998046875,-0.07536945803258567,-0.021605390347540377,0.030233810222148893
1733862532663148800,2.182148681640625,-0.08928688769340515,-0.017504969291388988,0.030921792486310003
1733862532673100000,2.19210009765625,-0.07775894698500632,-0.02168985376060009,0.04854921911358833
1733862532683051000,2.202051025390625,-0.04310381318926811,-0.03677957860380411,0.05092588511705398
1733862532693002000,2.212001953125,-0.018419453787803648,-0.037168577921390535,0.05032616565823555
1733862532702954000,2.2219541015625,-0.007426935130357742,-0.021430618302524088,0.04104512709379196
1733862532712905000,2.231905029296875,-0.029440577485226094,-0.03162234197109937,0.015298106896877288
1733862532722856000,2.24185595703125,-0.060099335121177135,-0.03299421484619379,0.03265022371411323
1733862532732807000,2.251806884765625,-0.07711710541751235,-0.03137128981947899,0.046406946387887
1733862532742758100,2.261758056640625,-0.07865501904189587,-0.026879239097237585,0.043563831916451454
1733862532752708900,2.271708984375,-0.0676384984543547,-0.021588146951794625,0.04006254579722881
1733862532762660000,2.28166015625,-0.06361406524386257,-0.020975568011403083,0.040491584864258766
1733862532772612000,2.291612060546875,-0.0706236882776022,-0.026129589773714542,0.05545359167456627
1733862532782563000,2.30156298828125,-0.06489716385696083,-0.03018646394908428,0.04888298111259937
1733862532792514000,2.31151416015625,-0.05428045624196529,-0.0197591779589653,0.04260521601736545
1733862532802465000,2.321465087890625,-0.042704000216722486,-0.026655367213487623,0.04571721055805683
1733862532812416000,2.331416015625,-0.01678103893101215,-0.02088935103267431,0.05157645798027515
1733862532822367000,2.341366943359375,-0.029227263528108595,-0.02115092457830906,0.05421732787787914
1733862532832318000,2.35131787109375,0.0021598083823919294,-0.010587737248837947,0.03682663261592388
1733862532842270000,2.36127001953125,-0.008082184168696403,-0.04283405633717775,0.030357144340872763
1733862532852221000,2.371220947265625,-0.0315489479413256,-0.02456687050163746,0.023716975674033164
1733862532862172000,2.381171875,-0.00759988054446876,-0.033550387424230575,0.023882979890704155
1733862532872123000,2.391122802734375,0.02419632015619427,-0.01584755747318268,0.02888064204752445
1733862532882073900,2.401073974609375,0.016076142064668238,-0.017555238173902032,0.024715923583507535
1733862532892025000,2.411025146484375,-0.005009352594614029,-0.03312222514003515,0.024942718076705932
1733862532901976000,2.42097607421875,-0.04193243132233619,-0.006402852779626846,0.030076573833823204
1733862532911928000,2.430927978515625,-0.11249591384530067,-0.008172785061597824,0.012410568761825561
1733862532921879000,2.440879150390625,-0.17768997828960417,-0.03724485802799463,0.007602291697263717
1733862532931830000,2.450830078125,-0.21238014686610548,-0.04383358876854181,0.017787585625052452
1733862532941781000,2.460781005859375,-0.19930676681399345,-0.05651654473096132,0.03412964861690998
1733862532951732000,2.47073193359375,-0.16598901910185812,-0.061492579577863214,0.02262275069653988
1733862532961683000,2.480682861328125,-0.08850830453634262,-0.04051262765228748,0.040679800912737846
1733862532971634000,2.490634033203125,-0.035871523848176,-0.04405278447717428,0.03727846803665161
1733862532981586000,2.5005859375,-0.03690324151609093,-0.01624386331439018,0.03236731511950493
1733862532991537200,2.510537109375,-0.05662139334492385,-0.033033085551857945,0.04138356526792049
1733862533001488000,2.52048779296875,-0.0315536606490612,-0.033846740022301675,0.04065875812470913
1733862533011439000,2.530439208984375,-0.0337631899246946,-0.021764088040590285,0.06623275984227657
1733862533021390000,2.54039013671875,-0.08426646571550518,-0.02580897951722145,0.061436757737398144
1733862533031341000,2.550341064453125,-0.10000585010647774,-0.00935848771482706,0.08415303193628787
1733862533041292000,2.5602919921875,-0.09800682177636771,-0.030974983978271482,0.05362170007228851
1733862533051243000,2.570242919921875,-0.06762626002728939,-0.02964139728695154,0.024819383957982062
1733862533061195000,2.580195068359375,-0.04143851032555103,-0.027425767064094542,0.0393961908429861
1733862533071146000,2.59014599609375,-0.00263210206925869,-0.03200286572128534,0.02882569698989391
1733862533081097000,2.600096923828125,0.042158056771755215,-0.03801525787860155,0.04017009782493114
1733862533091048000,2.6100478515625,0.09097670394387096,-0.020574585995078085,0.051772857335209845
1733862533100999000,2.6199990234375,0.10356792650222778,-0.020915362256765366,0.0661357292085886
1733862533110950000,2.629949951171875,0.12789923468232153,-0.023437281949818135,0.07055705278217791
1733862533120901000,2.639901123046875,0.10702829608917236,-0.02314940491914749,0.07268354341685772
1733862533130852900,2.649852783203125,0.08575403739213942,-0.02722936770915985,0.07430325357317924
1733862533140804000,2.65980419921875,0.06831252525839954,-0.03715542617887258,0.048105566999316215
1733862533150754800,2.6697548828125,0.005375263297557831,-0.02664806068986654,0.02622866623401642
1733862533160706000,2.6797060546875,-0.027668343648314473,-0.03921235870867967,0.020509119543433187
1733862533170657000,2.689656982421875,-0.0396270404567942,-0.0390653514534235,0.03574117546677589
1733862533180608000,2.69960791015625,-0.04671787550058216,-0.035298692396283145,0.0345253699362278
1733862533190557000,2.709556884765625,-0.06979012353029102,-0.030515257512032982,0.04301145873069763
1733862533200509000,2.719509033203125,-0.07977204037308692,-0.029746611227095127,0.04326631027460098
1733862533210460000,2.7294599609375,-0.10377134011983871,-0.032444472008943556,0.040645314121246334
1733862533220411000,2.739410888671875,-0.13024546901490539,-0.03239128051698208,0.027254502150416374
1733862533230361900,2.74936181640625,-0.16314645261969415,-0.03689326811134815,0.020897826600074765
1733862533240312800,2.759312744140625,-0.17409337856974452,-0.03730769413113594,0.02140752968788147
1733862533250263800,2.769263916015625,-0.14223693558182565,-0.03382628175616264,0.020311551144719123
1733862533260214800,2.77921484375,-0.10883969289269298,-0.03586450958549976,0.022052257332205772
1733862533270166000,2.789166015625,-0.07511979412045329,-0.030721593739092348,0.02057224790751934
1733862533280118000,2.799117919921875,-0.05929039335846901,-0.031000410680472847,0.028433482801914215
1733862533290069000,2.809069091796875,-0.057117140972614285,-0.02095510974526405,0.0397404742360115
1733862533300020000,2.81902001953125,-0.055508500199578696,-0.01721767678260803,0.04924129303097725
1733862533309971000,2.828970947265625,-0.05352930908109992,-0.02566606391519308,0.031920740395784374
1733862533319922000,2.838921875,-0.04989829563498497,-0.028003859212994572,0.05020107797384262
1733862533329873000,2.848872802734375,-0.06646368252132087,-0.028953999544680118,0.019866729986667633
1733862533339823900,2.858823974609375,-0.07882328828088939,-0.028354572346806526,0.043645080459117885
1733862533349776100,2.868776123046875,-0.08391922318041324,-0.019959084445238112,0.04077916963398456
1733862533359726800,2.878726806640625,-0.06433423274457455,-0.048802024830877776,0.036117607563734055
1733862533369678000,2.888677978515625,-0.007094926697015762,-0.03614303426593542,0.050502691268920895
1733862533379628800,2.89862890625,0.008462141663301736,0.02389700841605663,0.10670622452795504
1733862533389580000,2.908580078125,0.02811610568212345,-0.02336070958226919,0.05413257220387459
1733862533399531000,2.918531005859375,0.012760112851858138,-0.08640840964764356,0.02098141323029995
1733862533409482000,2.92848193359375,0.006297602306865155,-0.014776128849387168,0.044193361991643906
1733862533419433700,2.938433837890625,-0.034697255904413755,-0.009034954848885536,0.062008420145511625
1733862533429385000,2.948385009765625,-0.054687283477187154,-0.06325958925038576,0.020660510712862012
1733862533439336000,2.9583359375,-0.0778127595314756,-0.04723199903517961,0.006197685596346855
1733862533449287000,2.968286865234375,-0.05517943264199421,-0.020742636038362978,0.046184243547916407
1733862533459238000,2.97823779296875,0.0016536124259233474,0.0024745734199881552,0.0555915388405323
1733862533469188900,2.98818896484375,0.0259288065046072,-0.03063040832430124,0.05788228012621403
1733862533479139800,2.998139892578125,0.0013192841713316739,-0.03615823183506727,0.03507365146875381
1733862533489091800,3.008091796875,-0.031633685349021105,-0.014976327596604824,0.015079495710134505
1733862533499043000,3.01804296875,-0.043888241565227505,-0.024251520942151546,0.02467909870445728
1733862533508993800,3.027993896484375,-0.059756823560129846,-0.02601151635199785,0.009824643921852111
1733862533518945000,3.037945068359375,-0.06756019078744575,-0.024794249516725538,0.04217734599411487
1733862533528895700,3.047895751953125,-0.0664905157293193,-0.01847732145488262,0.045940497919917105
1733862533538847000,3.057846923828125,-0.052981630336772646,-0.022706045065820215,0.05025134685635566
1733862533548798000,3.0677978515625,-0.06670094360960648,-0.02053513076752424,0.0589507861405611
1733862533558749000,3.0777490234375,-0.044299708442948754,-0.02840191861987114,0.04804419220089912
1733862533568701000,3.087700927734375,-0.02640110019147396,-0.034924890647828576,0.05195464364290237
1733862533578652000,3.09765185546875,-0.05110823768032714,-0.03664747665673494,0.03627016777694225
1733862533588603100,3.10760302734375,-0.05574057365609333,-0.017329612724483013,0.03177344087958336
1733862533598553900,3.117553955078125,-0.061532016539108,-0.036891806806623934,0.02638940975368023
1733862533608505000,3.127505126953125,-0.06901506577087566,-0.04076835597902536,0.029440029495954513
1733862533618455800,3.137455810546875,-0.058816327839624136,-0.028771920976042746,0.03773556415438652
1733862533628407000,3.147406982421875,-0.0716927605475299,-0.027059564100205897,0.05327390954792499
1733862533638358800,3.15735888671875,-0.04827975452244281,-0.023686580535769462,0.05786299090385437
1733862533648310000,3.16731005859375,-0.015394516476057468,-0.023639818784594535,0.052804538470506666
1733862533658260700,3.1772607421875,0.016589936805702744,-0.028761691842973232,0.041780455631017684
1733862533668212000,3.1872119140625,0.00737845634613186,-0.03247136001586914,0.0389607220351696
1733862533678162700,3.19716259765625,-0.004835128538869321,-0.022391572289168833,0.031978608062863345
1733862533688114000,3.207114013671875,-0.005141454541683197,-0.04074439058154821,0.02649988439083099
1733862533698065000,3.21706494140625,-0.010513758697174488,-0.040702597266435624,0.03059329118430614
1733862533708017000,3.227016845703125,-0.03208380373669788,-0.026897943797707557,0.04239186552762985
1733862533717968000,3.2369677734375,-0.05403261896073818,-0.02951367925405502,0.052256841459870335
1733862533727918800,3.2469189453125,-0.04172258796393871,-0.021352292369306088,0.04932429513931274
1733862533737870000,3.2568701171875,-0.017173837640881536,-0.03006488339602947,0.045211014601588245
1733862533747820800,3.26682080078125,-0.006072049922682345,-0.04917524205744266,0.055664019554853436
1733862533757772000,3.27677197265625,-0.01414426068663597,-0.03720101888626814,0.03348433645069599
1733862533767722800,3.28672265625,-0.016608641506172715,-0.04688303946703672,0.04095861785411835
1733862533777675000,3.296675048828125,-0.04624910721136257,-0.033166356542706485,0.044189270338416096
1733862533787626000,3.3066259765625,-0.08304008399201557,-0.029864684648811816,0.04870470193624496
1733862533797577000,3.316576904296875,-0.09237608588039875,-0.03709346685856581,0.03132569711208343
1733862533807528000,3.32652783203125,-0.07439564456436783,-0.04079816659539938,0.03971533979475498
1733862533817479000,3.33647900390625,-0.05186343996180221,-0.018098843531310558,0.03279460062086582
1733862533827430000,3.346429931640625,-0.01929680287791416,-0.037839316789805885,0.031901451173424716
1733862533837380900,3.356380859375,-0.0022246903121471403,-0.01988689599186182,0.040295770031213755
1733862533847332000,3.36633203125,0.015839374166727066,-0.0185980252251029,0.031849428725242615
1733862533857283800,3.376283935546875,-0.0004821940263733267,-0.025236732587218282,0.05499591103494167
1733862533867235000,3.386235107421875,-0.05461239161007106,-0.03850771757066249,0.043402503874897955
1733862533877185800,3.396185791015625,-0.07721764318253845,-0.018742402131855487,0.04374620274603366
1733862533887137000,3.406136962890625,-0.06693418610990047,-0.027346856608986853,0.050234395721554755
1733862533897087700,3.416087646484375,-0.054135458280704915,-0.031104747837781905,0.036844752794504165
1733862533907039000,3.4260390625,-0.02979951045811176,-0.024727321760356424,0.030163667595386502
1733862533916991000,3.435990966796875,-0.02106324629485607,-0.03336509398519993,0.03931494230031967
1733862533926942000,3.44594189453125,-0.02591422998998314,-0.03159457718133926,0.030854572468996047
1733862533936893000,3.455892822265625,-0.03966390186846256,-0.02726853067576885,0.03280336844921112
1733862533946844000,3.465843994140625,-0.027250995019078253,-0.02174772142767906,0.02945873419642448
1733862533956795000,3.475794921875,-0.031244485102035105,-0.028749709144234657,0.03444762852489948
1733862533966745900,3.485745849609375,-0.029100422278046607,-0.02651566648185253,0.03582710018455982
1733862533976697000,3.495697021484375,-0.04024371105041355,-0.018991408456861973,0.04516308380663395
1733862533986647800,3.505647705078125,-0.03843172972500324,-0.03186871794760227,0.04952069449424743
1733862533996599800,3.515599853515625,-0.032371954762004315,-0.031929215963184834,0.02804360670149326
1733862534006551000,3.525551025390625,-0.049731085841916496,-0.03275719121992588,0.02916647325158119
1733862534016502000,3.535501953125,-0.049214368491433555,-0.031491116806864734,0.03810439746677875
1733862534026453000,3.545452880859375,-0.053161060290597376,-0.037602000902593136,0.04174538431763649
1733862534036404000,3.555404052734375,-0.036795068433880807,-0.036544893065094945,0.052121816903352734
1733862534046355000,3.56535498046875,-0.047186114066839216,-0.0331812618508935,0.044403789871931075
1733862534056306000,3.575305908203125,-0.03329904301166534,-0.029208266566693782,0.0445551810413599
1733862534066258000,3.5852578125,-0.006865757583640515,-0.0212950092241168,0.05289221675395965
1733862534076209000,3.595208984375,0.0014110358417034148,-0.03285948255062103,0.036684009274840355
1733862534086160000,3.605159912109375,0.00011862141098827124,-0.028139760552346706,0.03620937750041485
1733862534096110800,3.61511083984375,0.003911657018400729,-0.025522856052219867,0.05801496659517288
1733862534106061800,3.625061767578125,0.0017424962857738135,-0.03490940081775188,0.049428340035676956
1733862534116012800,3.6350126953125,-0.006303447525762021,-0.024722353324294087,0.044106268230080604
1733862534125964000,3.644964111328125,-0.019627076011896134,-0.019264380179345605,0.054231940925121305
1733862534135916000,3.654916015625,-0.03119713882897049,-0.03300152136981487,0.04673953934311866
1733862534145866800,3.66486669921875,-0.003212532305717468,-0.027632103291153905,0.045185295638442036
1733862534155818000,3.67481787109375,-0.019648082267306743,-0.032925533524155615,0.03298866188824177
1733862534165769000,3.68476904296875,-0.010611373852752149,-0.03509206390827894,0.0341027606099844
1733862534175720000,3.694719970703125,-0.04325750591363758,-0.02525602180957794,0.04077273989319801
1733862534185671000,3.7046708984375,-0.030713118171691894,-0.03458031499385834,0.038161680611968035
1733862534195623000,3.714622802734375,-0.03593987637665123,-0.033870120897889135,0.03720248019099235
1733862534205575000,3.724574951171875,-0.0347346653053537,-0.033254911608994006,0.04830839609503746
1733862534215526000,3.73452587890625,-0.016174889731407165,-0.030485154634714125,0.038352234748005865
1733862534225476900,3.744476806640625,-0.005649988585710525,-0.031043665300309657,0.045880292165279384
1733862534235427800,3.754427734375,-0.011737784066796302,-0.034629122571647165,0.03798983117640018
1733862534245379000,3.764379150390625,-0.010910685592889786,-0.01695405741035938,0.04865560209751129
1733862534255329800,3.774329833984375,0.003736848440766334,-0.022102526214718816,0.045050855603814124
1733862534265281000,3.784281005859375,-0.022043489503860474,-0.023386720806360242,0.05480827950835228
1733862534275231700,3.794231689453125,-0.028419454276561736,-0.016403145529329775,0.04258826488256454
1733862534285184000,3.80418408203125,-0.02787880806121975,-0.0463131306245923,0.025837621089816094
1733862534295135000,3.814135009765625,-0.0308346987247467,-0.051669981482625006,0.038005028745532035
1733862534305086000,3.8240859375,-0.08141633698139339,-0.023529928669333455,0.04233165977299213
1733862534315037000,3.834036865234375,-0.08078910846114158,-0.040735622753202916,0.03525836038589477
1733862534324988000,3.84398779296875,-0.017663666984438896,-0.02264174765795469,0.030497429594397545
1733862534334939000,3.85393896484375,0.006493453672528266,-0.020108137527108192,0.035335517275333406
1733862534344889900,3.863889892578125,0.014713000485301017,-0.021174013192951677,0.04670972872674465
1733862534354841900,3.873841796875,0.019870200585387646,-0.0358019657433033,0.05648936446309089
1733862534364792800,3.883792724609375,0.027453203060291705,-0.025924714851379392,0.05886018524765968
1733862534374744000,3.893744140625,-0.01723934062514454,-0.029076164619624614,0.0610726006001234
1733862534384694800,3.90369482421875,-0.0234978164980188,-0.03236906868517399,0.062086161556839936
1733862534394646000,3.91364599609375,-0.04090191923081875,-0.02368102757781744,0.03526362108290195
1733862534404596700,3.9235966796875,-0.042375498914718625,-0.0235018716186285,0.034549335333704946
1733862534414548000,3.9335478515625,-0.04492755801770836,-0.030418519139289855,0.032150457498431206
1733862534424500000,3.9435,-0.05392331336736679,-0.025032149925827977,0.0287128842651844
1733862534434451000,3.953450927734375,-0.05316405596528202,-0.030566987699270246,0.03574175998866558
1733862534444402000,3.96340185546875,-0.03842003928720951,-0.030144378373026845,0.04873158994317055
1733862534454353000,3.973352783203125,-0.041967539168335496,-0.023436697427928446,0.03388122681379318
1733862534464303900,3.983303955078125,-0.030801380977034568,-0.03289689195156097,0.04850128831863403
1733862534474254800,3.9932548828125,-0.021888591203093527,-0.031070553307235238,0.04190671235918998
1733862534484206000,4.0032060546875,-0.0038677813440561293,-0.03248012784421444,0.042001404905319215
1733862534494158000,4.013157958984375,-0.007433949393033981,-0.022904197986423968,0.031209377256035804
1733862534504108800,4.02310888671875,-0.01693012854550034,-0.036138065829873084,0.04358019852936268
1733862534514060000,4.03306005859375,-0.01881985128223896,-0.023711714977025983,0.056442602711915965
1733862534524011000,4.043010986328125,-0.019131985971331596,-0.028715222352743146,0.045191140857338906
1733862534533962000,4.0529619140625,-0.02482815178632736,-0.028624621459841727,0.05429390024542808
1733862534543913000,4.062912841796875,-0.003677775197289884,-0.013623451682925223,0.03730886317491531
1733862534553864000,4.072864013671875,-0.003684278003312647,-0.022215923461318014,0.03464344335794449
1733862534563816000,4.08281591796875,-0.010787935996055603,-0.01831219402104616,0.04046469685733318
1733862534573767000,4.092766845703125,-0.013363339442014694,-0.038055589888989924,0.04000701621770859
1733862534583718000,4.1027177734375,-0.015614917761087416,-0.0305363003000617,0.03195814979672432
1733862534593668900,4.1126689453125,-0.009674421796202658,-0.023488135354220865,0.02472059975862503
1733862534603619800,4.122619873046875,-0.019263503396511075,-0.014731412924826144,0.04938508541584015
1733862534613570800,4.13257080078125,-0.015979659420251844,-0.02197948435693979,0.04577683179080486
1733862534623521800,4.142521728515625,-0.010527239233255386,-0.023374445846676827,0.052176761960983274
1733862534633473000,4.15247314453125,-0.010201624008081852,-0.02781009020656347,0.045017537856101984
1733862534643425000,4.162425048828125,-0.011546645408868789,-0.02979424976110458,0.045295770275592805
1733862534653375700,4.172375732421875,-0.031317550338245924,-0.025075112284719942,0.040106384938955304
1733862534663327000,4.182326904296875,-0.037401838687993585,-0.04254939417690039,0.022924363991618155
1733862534673278000,4.19227783203125,-0.013884184978343546,-0.02817220151722431,0.03371756068468094
1733862534683229000,4.20222900390625,-0.019717092382907867,-0.029252982491254804,0.04793254851996898
1733862534693180000,4.212179931640625,-0.020827683973312378,-0.025861878748238084,0.05060965877473354
1733862534703131000,4.222130859375,-0.012926080535911023,-0.00932107831388712,0.052367900618910786
1733862534713083100,4.232083251953125,-0.028251111972332,-0.03021305969506502,0.02426350364089012
1733862534723033900,4.242033935546875,-0.04520224677324295,-0.034818507663905617,0.038781858336925504
1733862534732985000,4.251985107421875,-0.045074821001291274,-0.02403203297257423,0.04865735566318035
1733862534742935800,4.261935791015625,-0.004900668055750429,-0.033601533089578146,0.03886135331392288
1733862534752887000,4.271886962890625,-0.012225896377302705,-0.029539690478146075,0.04319499860405922
1733862534762837800,4.281837646484375,-0.003093289840221405,-0.03628215047568083,0.036444355300068856
1733862534772789000,4.2917890625,-0.013613478278182446,-0.02524813076406717,0.03447627009749412
1733862534782740700,4.30174072265625,-0.012519289833307266,-0.037699908319115634,0.04230769437551498
1733862534792692000,4.31169189453125,-0.012284348566271364,-0.028904022923111915,0.05090250424146652
1733862534802643000,4.321642822265625,-0.010533668974041939,-0.02670388253033161,0.05051788883805275
1733862534812594000,4.331593994140625,-0.016619089834950862,-0.02605330966711044,0.04590893373787403
1733862534822545000,4.341544921875,-0.018251074950955806,-0.027046120096743106,0.03917465704679489
1733862534832495900,4.351495849609375,-0.005880838199518621,-0.01655365991592407,0.0439583841919899
1733862534842446800,4.36144677734375,0.020543642867542802,-0.031140403673052788,0.026333295652270317
1733862534852398800,4.37139892578125,0.01667293891403824,-0.02831950103342533,0.03381634488403797
1733862534862350000,4.38135009765625,0.033652678754925724,-0.02104366481155157,0.03888882584273815
1733862534872300800,4.39130078125,0.0056313204178586596,-0.02735299408882856,0.05235387209355831
1733862534882252000,4.401251953125,-0.019620025216601788,-0.023074293856322765,0.059285717183351516
1733862534892202800,4.41120263671875,-0.02484272830095142,-0.024128186823427676,0.0422241077452898
1733862534902154000,4.421154052734375,-0.017885164248012005,-0.013276537941396235,0.04660159217715263
1733862534912105000,4.43110498046875,0.014951485416293143,-0.02425824294388294,0.04724456625580788
1733862534922057000,4.441056884765625,0.004517769685387611,-0.04603109881281853,0.029172902992367744
1733862534932008000,4.451008056640625,0.0033182942351326346,-0.02357552137672901,0.0382417601108551
1733862534941959000,4.460958984375,-0.005913023436069489,-0.030920038920640942,0.057761868616938584
1733862534951910100,4.47091015625,-0.02293484885301441,-0.03387771968245506,0.036539632368087764
1733862534961860900,4.48086083984375,-0.03633388066291809,-0.027503216214478016,0.043699440994858736
1733862534971812000,4.49081201171875,-0.01486431858949363,-0.022092004820704458,0.05388415040075779
1733862534981762800,4.5007626953125,-0.022820940149761736,-0.029374563044309614,0.061523851498961446
1733862534991715000,4.510715087890625,-0.013198540801741182,-0.0185784437417984,0.03651157531738281
1733862535001665800,4.520665771484375,-0.008346388062834739,-0.03004793226122856,0.03412263435423374
1733862535011617000,4.530616943359375,-0.021415676461718974,-0.0198442258939147,0.022751930034160612
1733862535021567700,4.540567626953125,-0.01163198560476303,-0.03510083173662424,0.044292730712890624
1733862535031519000,4.55051904296875,0.01844221360888332,-0.024699849231541154,0.04913374100327492
1733862535041469700,4.5604697265625,0.0291442614197731,-0.03755523915141821,0.05289630840718746
1733862535051421000,4.5704208984375,0.0014549115160480141,-0.019832243195176125,0.041570027750730515
1733862535061373000,4.580373046875,-0.003057012950442731,-0.03061784110367298,0.0520493361890316
1733862535071324000,4.590323974609375,-0.03237959007918834,-0.01770838290899992,0.03815525087118148
1733862535081275000,4.60027490234375,-0.025178828387521206,-0.02642243524044752,0.03498889579474926
1733862535091225900,4.610225830078125,-0.016897906776331365,-0.024236615633964537,0.040270051068067546
1733862535101177000,4.620177001953125,-0.0072702832639217375,-0.029021219561994074,0.03876549172401428
1733862535111127800,4.6301279296875,-0.016523301310278474,-0.03470511041730642,0.045478141105175014
1733862535121079000,4.6400791015625,0.007202478724718094,-0.018298750017583368,0.04430442115068436
1733862535131030800,4.65003076171875,0.006481178712844848,-0.02707768427878618,0.052854222831130025
1733862535140982000,4.65998193359375,-0.007969407976604998,-0.03213496766835451,0.04090250375270843
1733862535150933000,4.66993310546875,-0.024312018957734105,-0.023087737859785556,0.039673254218697544
1733862535160884000,4.679884033203125,-0.027044658792018887,-0.02134177097529173,0.042488896161317825
1733862535170835000,4.6898349609375,-0.018154701904393732,-0.024734336023032665,0.04676642735004425
1733862535180786000,4.699785888671875,-0.014567491067387162,-0.026843875522911547,0.0516787493109703
1733862535190737000,4.70973681640625,-0.0041190892240032554,-0.02772124287933111,0.04583996015489101
1733862535200685300,4.719685302734375,0.0004904138654470443,-0.017607552883028982,0.04263444211184978
1733862535210637300,4.72963720703125,-0.0024911957612261176,-0.01371639066338539,0.03482990584075451
1733862535220588500,4.739588623046875,-0.006415675728581845,-0.03539718433469534,0.0397755455493927
1733862535230539300,4.749539306640625,-0.018224186944030225,-0.029988895550370216,0.02886369091272354
1733862535240490500,4.759490478515625,-0.0210573645433411,-0.019947686268389223,0.04757072947025299
1733862535250441200,4.769441162109375,-0.019481493528746067,-0.014359657002985476,0.04159808480143547
1733862535260392400,4.779392333984375,-0.02693009250164032,-0.017848375901579856,0.029734628528356552
1733862535270343400,4.789343505859375,-0.022877054251171647,-0.016484686332941055,0.030164836639165877
1733862535280295400,4.79929541015625,-0.020770985350012778,-0.014435644848644732,0.04716974745392799
1733862535290246400,4.809246337890625,-0.0009808277308940886,-0.03346066331416368,0.041748891448974604
1733862535300197400,4.819197265625,0.010897789578698575,-0.02579670455753803,0.042050504744052884
1733862535310148400,4.8291484375,-0.005523695324920117,-0.025152853696048257,0.04221884704828262
1733862535320099300,4.839099365234375,-0.0023696152081713077,-0.03939385275542736,0.04295476010739803
1733862535330050600,4.849050537109375,-0.020178828143142164,-0.027082360453903675,0.05105038827955723
1733862535340001300,4.859001220703125,-0.03947798737492412,-0.03181377288997173,0.03011982845366001
1733862535349953500,4.86895361328125,-0.03294244812633842,-0.03147942636907101,0.04500350933074951
1733862535359904300,4.878904296875,-0.022553192591667173,-0.028025194261968134,0.04475508752763271
1733862535369855500,4.88885546875,-0.008396656945347785,-0.03631692952811718,0.04438040899634361
1733862535379806200,4.89880615234375,-0.00019464578926563263,-0.024668869571387766,0.043565585482120514
1733862535389757400,4.90875732421875,-0.0010124284455552697,-0.016678163078427313,0.040782676765322684
1733862535399708200,4.918708251953125,-0.0010883797585964203,-0.03420826681107282,0.04266600629389286
1733862535409659400,4.928659423828125,-0.00880761236641556,-0.025037702883780003,0.04317629390358925
1733862535419611400,4.938611328125,-0.007781155395507812,-0.010862754797935486,0.03229717249274253
1733862535429562400,4.948562255859375,-0.016174889731407165,-0.014746902754902839,0.037226445588469506
1733862535439513300,4.958513427734375,-0.02747490343544632,-0.0177244572609663,0.03503624206781387
1733862535449464300,4.96846435546875,-0.020074271790124474,-0.04239069648385048,0.04488134425580501
1733862535459415600,4.97841552734375,-0.014547580790519713,-0.03185790429264307,0.05076572611927986
1733862535469366300,4.9883662109375,-0.008805822268128394,-0.023384382718801496,0.04709025247693061
1733862535479317500,4.9983173828125,0.01573821534719318,-0.036085166598856445,0.059171150892972944
1733862535489269200,5.008269287109375,0.046008265926502645,-0.029976328329741952,0.045806642407178876
1733862535499220500,5.018220458984375,0.035116321566700935,-0.019058920735120773,0.034869653329253195
1733862535509171500,5.02817138671875,0.009291559958457946,-0.025106968727707863,0.02107844386398792
1733862535519122400,5.038122314453125,-0.025144926117919384,-0.033117256703972815,0.03465805640518665
1733862535529073400,5.048073486328125,-0.026677542512677607,-0.030907763960957527,0.048399581509828565
1733862535539024400,5.0580244140625,-0.021056232032179833,-0.028386428789794443,0.03879705590605736
1733862535548975400,5.067975341796875,-0.010636508294008671,-0.024468963085114953,0.04268295742869377
1733862535558927400,5.07792724609375,-0.008595942377112805,-0.023323884703218934,0.046970425489544866
1733862535568878300,5.08787841796875,-0.006928885947726666,-0.023951661212742326,0.0419844537705183
1733862535578829300,5.097829345703125,-0.022488310661911964,-0.030791151843965053,0.03785480661988258
1733862535588780300,5.1077802734375,-0.00797934484872967,-0.03291705795675516,0.029879589956998822
1733862535598731300,5.117731201171875,-0.0058078460285440085,-0.020955402006208896,0.05095511121153831
1733862535608682500,5.1276826171875,-0.001432078629732132,-0.03861410055458545,0.05631985311508178
1733862535618633200,5.13763330078125,-0.0018452990731224416,-0.029004268427193163,0.05033084183335304
1733862535628585200,5.147585205078125,-0.0037414880832657214,-0.03167728702872991,0.05510463210642338
1733862535638536400,5.157536376953125,-0.0005611044814810156,-0.026946751375496385,0.04419745364487171
1733862535648487400,5.1674873046875,-0.0353875031908974,-0.019504618676006794,0.03665770578980446
1733862535658438400,5.1774384765625,-0.04718081683721393,-0.029692250691354272,0.03587678454518318
1733862535668389400,5.187389404296875,-0.026329167466424403,-0.025370295839011667,0.03238368173241615
1733862535678340400,5.19734033203125,-0.03045183688700199,-0.023592472511529922,0.048936757126450535
1733862535688291300,5.207291259765625,-0.002014883486367762,-0.019648118799924848,0.04816927988529205
1733862535698243300,5.217243408203125,0.014623568636178969,-0.038026363794505594,0.055094695234298705
1733862535708194300,5.2271943359375,0.00921381854712963,-0.018932079485058782,0.05053659353852272
1733862535718145300,5.237145263671875,0.01108779572546482,-0.036706805628538126,0.04392857357561588
1733862535728096500,5.247096435546875,0.005458265405893325,-0.03209901957213879,0.044182840597629544
1733862535738047500,5.257047607421875,0.008102094445563852,-0.04233604368716478,0.04980711022019386
1733862535747998500,5.26699853515625,0.013660824551247059,-0.028901392574608324,0.043031332474946976
1733862535757949400,5.276949462890625,-0.010265994481183588,-0.03723988959193229,0.04265431585609913
1733862535767900400,5.286900390625,-0.023787739355303344,-0.02402560323178768,0.045564065822958945
1733862535777852400,5.296852294921875,0.007252765873540192,-0.016986498375236986,0.03895370777249336
1733862535787803400,5.306803466796875,0.028473814812302586,-0.01639642352759838,0.04626958374381065
1733862535797754400,5.31675439453125,0.03143324913978576,-0.0367255103290081,0.04598082993030548
1733862535807705300,5.326705322265625,0.012360318145621567,-0.026036066271364688,0.06831891846656798
1733862535817656300,5.33665625,-0.001559467869065702,-0.02232464453279972,0.05334463669657707
1733862535827607300,5.346607177734375,-0.030645898154377935,-0.03427957848161459,0.03958499141335487
1733862535837558300,5.356558349609375,-0.053555064576864236,-0.02006459064632654,0.04166822742819786
1733862535847510300,5.36651025390625,-0.04889120095167309,-0.019207389295101164,0.03758592655062675
1733862535857461500,5.37646142578125,-0.035205789948441084,-0.021463059267401694,0.047727381336688995
1733862535867412200,5.386412109375,-0.03205808477355167,-0.03249181828200817,0.04943593882024288
1733862535877363500,5.396363525390625,-0.00644493835568428,-0.022131460048258302,0.05472761548757553
1733862535887314400,5.406314453125,-0.004441763573419302,-0.026362229485809803,0.05542436558008194
1733862535897265400,5.416265380859375,-0.010051968138013035,-0.02535802087932825,0.0468383235424757
1733862535907216400,5.42621630859375,-0.006100654962658882,-0.027143150730431078,0.05219780474901199
1733862535917168400,5.43616845703125,-0.023614099821448326,-0.037649347175657745,0.03867138369977474
1733862535927119400,5.446119384765625,-0.03228782014250755,-0.0332616336107254,0.02720014161467552
1733862535937070300,5.4560703125,-0.03563950519058853,-0.02045066735446453,0.029964930152893064
1733862535947021600,5.466021484375,-0.014146050784923135,-0.026874855183064934,0.05019464823305607
1733862535956972300,5.47597216796875,0.009973715270031243,-0.032823534454405306,0.046643677753210065
1733862535966923500,5.485923583984375,0.011149170523881912,-0.029608079539239406,0.04214695085585117
1733862535976874200,5.495874267578125,0.023370372459758072,-0.035945758128166194,0.04582359354197979
1733862535986826500,5.505826416015625,0.026934202421177177,-0.031155308981239794,0.040407413712143896
1733862535996777200,5.515777099609375,0.010884984896052628,-0.02537058809995651,0.03601414718925953
1733862536006728400,5.525728515625,-0.02172375603020191,-0.021639000356197355,0.0273012639015913
1733862536016679200,5.53567919921875,-0.03066752546429634,-0.02449877370148897,0.032501170632243156
1733862536026630400,5.54563037109375,-0.013277999246120453,-0.0201034613519907,0.044544075125455856
1733862536036581400,5.555581298828125,-0.0009077624946832656,-0.026996143475174903,0.04929623808860779
1733862536046532400,5.565532470703125,0.021284780091047287,-0.028820728553831575,0.04925765964388847
1733862536056484400,5.575484375,0.017199008614756164,-0.03246288444846868,0.04427694862186909
1733862536066435300,5.585435302734375,0.008115501916408538,-0.027050211749970913,0.05078326177597046
1733862536076386600,5.595386474609375,-0.020624891410209237,-0.03839695067256689,0.04450198954939842
1733862536086337300,5.605337158203125,-0.019672120730020105,-0.029864684648811816,0.04704349072575569
1733862536096288500,5.61528857421875,0.00490998387336731,-0.02180617361664772,0.03820961140692234
1733862536106239200,5.6252392578125,-0.013330021694302557,-0.02947626985311508,0.02800970443189144
1733862536116190500,5.6351904296875,-0.033880021237395704,-0.027670973996818064,0.044836336070299146
1733862536126142200,5.64514208984375,-0.03340250338613987,-0.02570171975046396,0.03988251305520534
1733862536136093400,5.655093505859375,-0.014583857680298387,-0.027901860143244264,0.04706394899189472
1733862536146044200,5.665044189453125,0.006025251638889313,-0.02582943778336048,0.04986848501861095
1733862536155995400,5.674995361328125,0.02205163627769798,-0.02559241415709257,0.04040098397135734
1733862536165946400,5.6849462890625,0.02345750275393948,-0.029381869567930697,0.037383681976795195
1733862536175897300,5.6948974609375,0.012194898450840264,-0.016321312464773655,0.03531915066242218
1733862536185848600,5.7048486328125,-0.022175627983547747,-0.02810644280463457,0.04328092332184314
1733862536195804200,5.71480419921875,-0.010783880875445902,-0.02539250767081976,0.047341596889495845
1733862536205755100,5.724755126953125,0.006339103361032903,-0.023269816428422928,0.04691898756325245
1733862536215706000,5.7347060546875,0.0004161795854568481,-0.030691490861773488,0.03872749780118465
1733862536225657300,5.7446572265625,0.003715221130847931,-0.025294015732407568,0.05048866274356842
1733862536235608000,5.754608154296875,0.007657236754894256,-0.022414953164756297,0.040188802525401114
1733862536245559300,5.764559326171875,0.005874444991350173,-0.016835399466753005,0.03858487446010112
1733862536255510000,5.774510009765625,-0.006922474473249167,-0.03272241216748953,0.0285778597086668
1733862536265462300,5.784462158203125,-0.023366810529492795,-0.026402269235253333,0.026840076130628585
1733862536275413000,5.7944130859375,-0.01346208710875362,-0.03783054896146059,0.04981470900475979
1733862536285364200,5.8043642578125,-0.01059559176173061,-0.03755377784669399,0.04443184692263603
1733862536295315000,5.81431494140625,-0.022878753017913547,-0.02550181326419115,0.05915303071439266
1733862536305266200,5.82426611328125,-0.022331037740968167,-0.020493921974301336,0.03480184879004955
1733862536315217000,5.834216796875,-0.03542027294933796,-0.016328326727449893,0.031191257077455518
1733862536325168000,5.844168212890625,-0.03032324207127094,-0.031147417935729026,0.0386602777838707
1733862536335119000,5.854119140625,-0.010999514653813094,-0.03940057475715875,0.030264205360412594
1733862536345071000,5.864071044921875,0.0006102591191418468,-0.029418986707925796,0.034144261664152145
1733862536355022000,5.87402197265625,0.00599195215748623,-0.03262362796813249,0.03733750474750996
1733862536364973000,5.88397314453125,0.014100421544909477,-0.03250292419791222,0.04555763608217239
1733862536374924300,5.89392431640625,0.015845237651932985,-0.03435702763199806,0.04913140291571617
1733862536384875000,5.903875,0.014521277305483818,-0.02764671633839607,0.03873977276086807
1733862536394826200,5.913826171875,0.0015267711758613586,-0.020513795718550682,0.05991641630232334
1733862536404777000,5.92377685546875,-0.010731858427263796,-0.029134909069538115,0.04695873505175113
1733862536414729200,5.933729248046875,-0.00574764027390629,-0.022558453288674354,0.04166822742819786
1733862536424680200,5.94368017578125,-0.003929137876164168,-0.015890812093019485,0.037387773630023
1733862536434631200,5.953631103515625,0.005546528211235999,-0.024401743067800997,0.04549450771808624
1733862536444582100,5.96358203125,-0.000083002108335495,-0.029519232212007043,0.055444823846220966
1733862536454533000,5.973533203125,-0.0169727438445203,-0.023835925878584383,0.044160628765821455
1733862536464484000,5.983484130859375,-0.003670742668304592,-0.031896774998307224,0.040434301719069476
1733862536474435000,5.99343505859375,-0.014186967317201196,-0.03390314638465643,0.039891865405440326
1733862536484387000,6.003386962890625,-0.02549216865301132,-0.018745909263193607,0.04291910427212715
1733862536494338000,6.013338134765625,0.004504910203814506,-0.025751111850142477,0.04863222122192382
1733862536504289000,6.0232890625,0.010616634549759328,-0.025150807869434355,0.03758475750684738
1733862536514240000,6.033239990234375,0.004281622841954231,-0.024250059637427327,0.03836275614202022
1733862536524191200,6.043191162109375,0.00016076178597286341,-0.01170388179719448,0.02746025385558605
1733862536534142000,6.053141845703125,-0.014281623330712317,-0.044290392625331874,0.04128887272179126
1733862536544093200,6.06309326171875,-0.009283376652002334,-0.031605390836298465,0.05365209521055221
1733862536554045200,6.073045166015625,-0.024624774701334534,-0.013387012578547,0.03953472253084182
1733862536563996200,6.08299609375,-0.024943266065977514,-0.029888650046288965,0.039481531038880344
1733862536573947100,6.092947021484375,-0.014442366850376129,-0.027528935177624225,0.038815760606527326
1733862536583898000,6.102898193359375,-0.025153767011500894,-0.02246668335199356,0.04263502663373947
1733862536593849000,6.11284912109375,-0.03246438228581101,-0.03280746010243892,0.035305706658959386
1733862536603800000,6.122800048828125,-0.03355510013196617,-0.025779168900847433,0.03680792791545391
1733862536613751300,6.132751220703125,-0.01185583922220394,-0.0102194884583354,0.044831659895181654
1733862536623703000,6.142703125,-0.019715338817238807,-0.019781974312663077,0.050233811199665065
1733862536633654000,6.152654052734375,-0.015153766522742806,-0.04118628913015127,0.038268063595890994
1733862536643605200,6.162605224609375,-0.011619126123189926,-0.006145663148164749,0.04636427628993988
1733862536653556200,6.17255615234375,0.007265607088804245,-0.016437632320821283,0.03336977016031742
1733862536663507200,6.182507080078125,0.011302899780869484,-0.03383767993301153,0.029627076500654218
1733862536673458200,6.192458251953125,0.010462941825389862,-0.015703472827374935,0.04792611877918243
1733862536683409200,6.2024091796875,0.0010819500178098679,-0.02818623004257679,0.040821255210042
1733862536693361200,6.212361083984375,0.010487491744756699,-0.026565058581531045,0.05309972202479839
1733862536703312100,6.22231201171875,0.006937105786800384,-0.021536124503612517,0.04710486552417278
1733862536713263000,6.23226318359375,-0.003276245191693306,-0.025621347990632055,0.06408873355090618
1733862536723214000,6.242214111328125,0.00040974984467029567,-0.0217743171736598,0.03400806806385517
1733862536733165000,6.2521650390625,-0.008854374117590486,-0.01454728852957487,0.03434299910664558
1733862536743116000,6.262115966796875,-0.014319617253541946,-0.005134440279006958,0.04773907177448272
1733862536753067000,6.27206689453125,-0.023013211318850518,-0.03131546797901392,0.04235971682369709
1733862536763019000,6.28201904296875,-0.030307423447631297,-0.03882277486920357,0.045424949613213535
1733862536772970200,6.29197021484375,-0.01742865265216678,-0.02351239301264286,0.03639291737377643
1733862536782921000,6.3019208984375,-0.01011398225724697,-0.013851999741792678,0.030910102048516273
1733862536792872200,6.3118720703125,0.03370002502799034,-0.030317981374263763,0.04813537761569023
1733862536802823200,6.3218232421875,0.0192670470604673,-0.020496552322804926,0.04222995296418667
1733862536812774100,6.331774169921875,0.024778467425704002,-0.024906769980490205,0.041864042261242865
1733862536822725000,6.34172509765625,0.0002548880765214562,-0.031055355738103387,0.02844400419592857
1733862536832677000,6.351677001953125,-0.007391242762468755,-0.021557167291641234,0.041564182531833645
1733862536842628000,6.361628173828125,-0.024911153894662856,-0.02991290770471096,0.03648293374478817
1733862536852579000,6.3715791015625,-0.0313531696408987,-0.02937690113186836,0.03209317435324192
1733862536862530300,6.3815302734375,-0.03485796289145946,-0.025657296086847782,0.04282674981355667
1733862536872481000,6.39148095703125,-0.050431927587650714,-0.03285889802873134,0.060651160317659374
1733862536882432300,6.401432373046875,-0.03935995048582554,-0.030171558640897274,0.05003448923528194
1733862536892383000,6.411383056640625,-0.04847147770226001,-0.02908200983852148,0.038978257691860196
1733862536902335200,6.421335205078125,-0.023369185149669645,-0.033659400756657125,0.032408231651782984
1733862536912286000,6.431285888671875,-0.011289419244788587,-0.03780599904209375,0.037656069177389145
1733862536922237200,6.4412373046875,0.013822152592800558,-0.03161737353503704,0.03865267899930477
1733862536932188200,6.451188232421875,-0.012087912678718567,-0.021132804399728772,0.037459085300564764
1733862536942139100,6.46113916015625,0.008765526790358125,-0.03507189790308475,0.05375964723825454
1733862536952090000,6.471090087890625,0.005567534466646611,-0.030501813508570192,0.044079964745044706
1733862536962041000,6.481041015625,-0.04044369060192257,-0.03678162443041801,0.05515314742326736
1733862536971993000,6.4909931640625,-0.042619829064607616,-0.021145663881301877,0.047096682217717165
1733862536981944000,6.500944091796875,-0.025308044257760048,-0.016959025846421717,0.036003625795245166
1733862536991895300,6.510895263671875,0.00814940418601036,-0.023624913476407525,0.05674713861644268
1733862537001846000,6.520845947265625,0.009935739613510668,-0.023764321947097777,0.03969371248483657
1733862537011797200,6.53079736328125,0.012657821521162986,-0.022350655756890773,0.026578210324048994
1733862537021748000,6.540748046875,0.022538616077043116,-0.027654899644851683,0.037194881406426426
1733862537031699200,6.55069921875,-0.019043138644099233,-0.019434768310189247,0.052181438136100766
1733862537041650200,6.560650146484375,-0.030694376938603815,-0.03987929818481207,0.05253858101069927
1733862537051602200,6.570602294921875,-0.015461188504099844,-0.03243950357288122,0.058302551364898675
1733862537061553000,6.580552978515625,0.0027940146327018736,-0.0218026664853096,0.05683481689989566
1733862537071504100,6.590504150390625,0.0046153483083471655,-0.02240034011751413,0.05281330629885196
1733862537081455000,6.600455078125,-0.012765410081483424,-0.03388765655457973,0.029204467174410817
1733862537091406000,6.610406005859375,-0.03016951281428337,-0.01956657799631357,0.023958383214473723
1733862537101357300,6.620357421875,-0.023795922661758957,-0.030756665052473542,0.04179156154692173
1733862537111308000,6.63030810546875,-0.02377601238489151,-0.033577275431156156,0.034333646756410596
1733862537121260300,6.64026025390625,-0.019185725452564657,-0.023900223286449907,0.056092474099993704
1733862537131211000,6.6502109375,-0.0040261502435430885,-0.022468729178607462,0.040432548153400416
1733862537141162200,6.660162353515625,-0.006821406985260546,-0.026504852826893327,0.057795186364650725
1733862537151113000,6.670113037109375,-0.014467464759014547,-0.0260159002661705,0.04225274931788444
1733862537161064200,6.680064208984375,-0.010611958374641834,-0.034359365719556806,0.02476853055357933
1733862537171015000,6.690014892578125,-0.01839895898904651,-0.033061142602562904,0.040626609420776366
1733862537180966100,6.699966064453125,-0.037135187108442186,-0.01386105983108282,0.04754968668222427
1733862537190918100,6.709918212890625,-0.03311254399623722,-0.023167817358672616,0.044481531283259386
1733862537200865000,6.719864990234375,-0.028877719438076016,-0.026601298938691613,0.04493628931343555
1733862537210816300,6.729816162109375,-0.030081797998212277,-0.03461772439479828,0.059174073502421376
1733862537220767000,6.73976708984375,-0.004916413614153862,-0.04071750257462263,0.04406359813213348
1733862537230718200,6.74971826171875,0.00016136457417160273,-0.03098550537228584,0.044509588333964345
1733862537240669000,6.7596689453125,0.03168229199741036,-0.019283961662650107,0.03898644099831581
1733862537250620200,6.7696201171875,0.02588262927532196,-0.02586509361863136,0.0349608387440443
1733862537260572200,6.779572265625,0.0015817162334918974,-0.02624240249842405,0.03897942673563957
1733862537270523100,6.789523193359375,-0.006233341431617736,-0.033842940630018706,0.03588087619841099
1733862537280474000,6.79947412109375,0.01084989531636238,-0.02568652218133211,0.04409457779228687
1733862537290425000,6.809425048828125,0.0023918635725975034,-0.0275496857047081,0.05022036719620228
1733862537300376000,6.8193759765625,-0.0053237888386473056,-0.026756489500403404,0.06103168406784534
1733862537310327000,6.8293271484375,-0.010960954475402832,-0.031016485032439232,0.05554419256746768
1733862537320278300,6.8392783203125,-0.013976502904295921,-0.02365297052711248,0.0447860671877861
1733862537330230300,6.849230224609375,-0.02689092953503132,-0.02553045483678579,0.03644552434384823
1733862537340181000,6.859180908203125,-0.029255941633321344,-0.01936082629114389,0.03901508257091045
1733862537350132200,6.86913232421875,-0.0313794731259346,-0.026439094114303587,0.038240591067075724
1733862537360083200,6.879083251953125,-0.00008007949888706206,-0.02803630017787218,0.031000702941417692
1733862537370034200,6.8890341796875,-0.016051555612683295,-0.032789632184803484,0.037898645761609076
1733862537379985200,6.898985107421875,-0.021163784059882163,-0.01591419296860695,0.060548284465074535
1733862537389936000,6.90893603515625,-0.009234313345886766,-0.02460895607769489,0.036596915513277053
1733862537399888100,6.91888818359375,-0.016460099880956112,-0.009257949949800968,0.043296120890974996
1733862537409839000,6.928839111328125,-0.0037490868678316473,-0.02851414682269096,0.05216039534807205
1733862537419790000,6.9387900390625,-0.013550349914096295,-0.02496668347418308,0.03913315599262714
1733862537429741000,6.948740966796875,-0.017690518458746373,-0.01748100389391184,0.04468436037898063
1733862537439692000,6.958692138671875,-0.004130231672525406,-0.01585837112814188,0.035765140864253045
1733862537449643000,6.96864306640625,-0.016859912853501736,-0.023889994153380393,0.03474865729808807
1733862537459594000,6.978593994140625,0.0034702699264511465,-0.029774083755910393,0.03907411928176879
1733862537469546000,6.9885458984375,-0.005498633948899805,-0.028370062176883218,0.0525718987584114
1733862537479497200,6.998497314453125,-0.028299079299904405,-0.012088497200608252,0.04477320770621299
1733862537489448200,7.0084482421875,-0.022309483496285972,-0.02631692903935909,0.046395255950093264
1733862537499399200,7.018399169921875,0.0010602861752733587,-0.02006166803687811,0.047865913024544716
1733862537509350100,7.02835009765625,0.000481682569719851,-0.025662849044799804,0.03241992208957672
1733862537519301000,7.038301025390625,0.014091069194674491,-0.030111645147204397,0.0438841499119997
1733862537529252000,7.048252197265625,-0.004916413614153862,-0.01836801586151123,0.052013680353760715
1733862537539204000,7.0582041015625,-0.0194411980509758,-0.03376139982640743,0.02971592382788658
1733862537549155300,7.0681552734375,-0.03600132424030453,-0.00878857887238264,0.04360357940495014
1733862537559106000,7.07810595703125,-0.030765177152492103,-0.01859013417959213,0.04295359106361866
1733862537569057300,7.088057373046875,-0.027885201269388198,-0.04034107047766447,0.03587736906707287
1733862537579008000,7.098008056640625,-0.014121464332938193,-0.020310966622829437,0.06292202785909176
1733862537588959200,7.107959228515625,-0.013341091077588497,-0.026640754166245458,0.058975336059927934
1733862537598910200,7.11791015625,-0.01853632163312286,-0.027075053930282592,0.04830956513881683
1733862537608862200,7.1278623046875,-0.004800130290724337,-0.029652503202855587,0.03463526005148888
1733862537618813000,7.13781298828125,0.025302783560752867,-0.02625906137228012,0.04385433929562568
1733862537628764200,7.14776416015625,0.023785364735126494,-0.03594458908438682,0.031055063477158546
1733862537638715100,7.157715087890625,0.0021778920283541084,-0.024155659352242946,0.037299510824680325
1733862537648666000,7.167666015625,-0.0016284779846668243,-0.019053660038113592,0.046264907568693156
1733862537658617000,7.1776171875,0.0007330269822850823,-0.01776274344474077,0.04389759391546249
1733862537668568000,7.187568115234375,0.014279869765043259,-0.01175181259214878,0.042400633355975145
1733862537678520300,7.197520263671875,0.013610628733970224,-0.023403671941161153,0.054529462566971776
1733862537688471000,7.207470947265625,0.01731879906952381,-0.034867022980749604,0.03975099563002586
1733862537698422300,7.21742236328125,-0.0023579247703775764,-0.017545593562722204,0.04333119220435619
1733862537708373000,7.227373046875,-0.013998130214214324,-0.03475917869210243,0.03704991997778415
1733862537718324200,7.23732421875,-0.014765607455372809,-0.034592882214486594,0.040804304075241084
1733862537728275000,7.24727490234375,-0.023180421111918984,-0.030696459297835824,0.05038344880342483
1733862537738226200,7.25722607421875,-0.02162208575401455,-0.043621699583530425,0.04106733892560005
1733862537748178000,7.267177978515625,-0.035876200023293496,-0.03617839784026146,0.04267418960034847
1733862537758129200,7.277129150390625,-0.05198916696701199,-0.015241992795467375,0.03276712809205055
1733862537768080100,7.287080078125,-0.046187166157364845,-0.03463467552959919,0.038809330865740774
1733862537778031000,7.297031005859375,-0.02821257006023079,-0.029390637396275995,0.05327449406981468
1733862537787982300,7.306982421875,-0.012069207978248595,-0.022048165678977966,0.05906009173393249
1733862537797933000,7.31693310546875,-0.002661328163743019,-0.021588439212739466,0.04509001857042312
1733862537807884300,7.32688427734375,0.004738170970417559,-0.013282675421237945,0.04903963297903537
1733862537817836000,7.3368359375,0.014243665940500794,-0.006650982321798801,0.041992052555084224
1733862537827787300,7.346787353515625,0.004127930117584765,-0.019919629217684268,0.019618308183550835
1733862537837738000,7.356738037109375,-0.005063713130354881,-0.016766133622825145,0.022453823870420456
1733862537847689200,7.366689208984375,-0.011803835040330887,-0.01759293983578682,0.03534954580068588
1733862537857640000,7.376639892578125,-0.017159845648147164,-0.027791093245148658,0.06374912633299827
1733862537867591200,7.386591064453125,-0.010226246992684901,-0.02208499055802822,0.06013268940150737
1733862537877542100,7.396542236328125,0.016902053228486327,-0.03331336379796267,0.06502221500873566
1733862537887493000,7.4064931640625,0.016593425670731812,-0.03226297796219587,0.0492740262567997
1733862537897445000,7.416445068359375,0.020980792175792157,-0.02616583013087511,0.029328385815024373
1733862537907396000,7.42639599609375,0.012288403686881064,-0.026198271095752713,0.02435118192434311
1733862537917347000,7.43634716796875,-0.03472527642250061,-0.028059388792514798,0.0190577516913414
1733862537927298000,7.446298095703125,-0.02414893735051155,-0.03366495371460915,0.049525370669364924
1733862537937249300,7.456249267578125,-0.014017419436573982,-0.027240473625063894,0.04320727356374263
1733862537947200000,7.466199951171875,-0.0023748941714875397,-0.03170738990604877,0.04609598074257373
1733862537957151200,7.476151123046875,-0.01423073339369148,-0.009378361459076404,0.055414428707957264
1733862537967103000,7.48610302734375,-0.0022159224838018414,-0.024357903926074502,0.05102700740396976
1733862537977054200,7.49605419921875,-0.012549684971570968,-0.03136602912247181,0.04067863186895847
1733862537987005200,7.506005126953125,-0.01531392552051693,-0.02377338203638792,0.03607143033444881
1733862537996956200,7.5159560546875,-0.015801361977588385,-0.018715806385874747,0.029918752923607825
1733862538006907100,7.5259072265625,-0.00775306181218475,-0.03017389672845602,0.037194296884536744
1733862538016858000,7.535858154296875,-0.011948759936355054,-0.023666414530575275,0.04626140043735504
1733862538026809000,7.54580908203125,-0.015146131205558777,-0.03185235133469105,0.04774842412471771
1733862538036761000,7.555760986328125,-0.013697101441025733,-0.023094752122461794,0.04828326165378093
1733862538046712000,7.565712158203125,-0.020259528696537018,-0.03300590528398752,0.04014496338367462
1733862538056663000,7.5756630859375,-0.017835552952624855,-0.02588204475343227,0.0458446363300085
1733862538066614300,7.5856142578125,0.019271686702966688,-0.02943301523327827,0.0401543157339096
1733862538076565000,7.59556494140625,0.02679448342323303,-0.02209843456149101,0.030261282750964163
1733862538086516200,7.60551611328125,0.008588380125164986,-0.016999650117754936,0.025315058520436286
1733862538096467000,7.615467041015625,-0.006760561909805983,-0.027100188371539113,0.044949733316898347
1733862538106419200,7.625419189453125,-0.0032499417066574094,-0.03545943591594696,0.034926351952552795
1733862538116370200,7.6353701171875,-0.0004295870563015342,-0.027823826470971105,0.045696752291917796
1733862538126321200,7.645321044921875,-0.025746417408715933,-0.024053368021547793,0.03807517137229442
1733862538136272100,7.655272216796875,-0.020864472319744524,-0.022097850039601324,0.047640287575125694
1733862538146223000,7.66522314453125,-0.03008532339585945,-0.017852175293862817,0.0554085834890604
1733862538156174000,7.675174072265625,-0.04442307909429073,-0.022019816367328165,0.039360535007715226
1733862538166125000,7.685125,-0.028464462462067602,-0.019074410565197465,0.040786183896660805
1733862538176077000,7.6950771484375,-0.017535053902398793,-0.025817455084621906,0.041706221351027487
1733862538186028000,7.705028076171875,-0.012414660415053368,-0.024929566334187983,0.05362462268173694
1733862538195979300,7.714979248046875,0.004662694581411778,-0.03304273016303778,0.04727554591596126
1733862538205930500,7.724930419921875,0.007977554750442505,-0.03589811959415674,0.04019757035374641
1733862538215881500,7.734881591796875,0.009448175292275846,-0.026953473377227782,0.02982172228991985
1733862538225832400,7.74483251953125,0.007690517969988286,-0.028431729236245155,0.05554126995801925
1733862538235783400,7.754783447265625,0.0058282677620649335,-0.03435352050065994,0.05338029253184795
1733862538245735400,7.7647353515625,-0.008108487653732298,-0.02353314353972673,0.042836102163791655
1733862538255686400,7.774686279296875,0.013811083209514618,-0.014344459433853625,0.04651859006881714
1733862538265637400,7.784637451171875,0.0025070143848657605,-0.028019349043071268,0.03750292444229126
1733862538275588400,7.79458837890625,-0.03391922073662281,-0.024438860207796096,0.027526304829120635
1733862538285539300,7.804539306640625,-0.054321336241625245,-0.02827858450114727,0.04659750052392483
1733862538295490300,7.814490234375,-0.05138064314723015,-0.026636954773962496,0.04759937104284763
1733862538305441300,7.824441162109375,-0.028912827284075317,-0.023306641307473182,0.05990589490830898
1733862538315393500,7.8343935546875,-0.015003544397093355,-0.021818156315386295,0.05026888251304626
1733862538325344300,7.84434423828125,0.008922744912374764,-0.01588964304924011,0.034109774872660634
1733862538335295500,7.85429541015625,0.014142525387275963,-0.029383038611710068,0.047072716820240015
1733862538345246200,7.86424609375,0.015268880802392958,-0.032739655563235284,0.05283610265254974
1733862538355197400,7.874197509765625,0.014175788336060941,-0.028588381102681158,0.04231295507252216
1733862538365148400,7.8841484375,-0.0042120647370815275,-0.030888182477653025,0.04420739051699638
1733862538375099400,7.894099365234375,0.008341163898445665,-0.043049160392582414,0.051045712104439735
1733862538385051100,7.904051025390625,0.005467051500547677,-0.042217093482613564,0.05891454578340053
1733862538395002400,7.91400244140625,0.004811784195899963,-0.01719020425379276,0.05755845499932766
1733862538404953600,7.92395361328125,0.006516213493607938,-0.026966332858800887,0.0588549245506525
1733862538414904300,7.933904296875,-0.001409282276034355,-0.02812251715660095,0.040000001955032345
1733862538424855600,7.94385546875,0.01109130285680294,-0.022492110054194926,0.05177168829143047
1733862538434806300,7.95380615234375,0.003274491626024246,-0.032333705110847946,0.042722704917192454
1733862538444757500,7.963757568359375,-0.008880056548118591,-0.0058066404521465295,0.04498772723972797
1733862538454709200,7.973709228515625,0.005502104547619819,-0.006630524055659771,0.04667348836958408
1733862538464660500,7.983660400390625,0.0037941315859556196,-0.02679506794512272,0.030688568252325056
1733862538474611200,7.993611083984375,-0.0008761983126401901,-0.03207973034977913,0.041595162191987035
1733862538484562400,8.0035625,0.004297423199284821,-0.016394377700984477,0.04278524875938892
1733862538494513200,8.01351318359375,-0.017067984379921106,-0.03386076854765415,0.03428688500523567
1733862538504464400,8.02346435546875,-0.011010054314136505,-0.015729484051465986,0.034601357781887054
1733862538514415400,8.033415283203125,-0.014200374788045882,-0.025225042149424552,0.04662321948707104
1733862538524367400,8.043367431640625,-0.01063596030473709,-0.021676409757137298,0.050802550998330115
1733862538534318300,8.053318359375,0.003827997322939336,-0.02721680048853159,0.04608721291422844
1733862538544269300,8.063269287109375,-0.007197802549600601,-0.020636545315384863,0.04863397478759288
1733862538554220500,8.073220458984375,-0.004199241788126528,-0.027587095105648038,0.04973872115910053
1733862538564171300,8.083171142578125,-0.011597535345889627,-0.02177957787066698,0.04943593882024288
1733862538574122500,8.09312255859375,-0.018939093747735024,-0.021759704126417635,0.04542378056943416
1733862538584073200,8.1030732421875,-0.005820705510117113,-0.027076807495951653,0.05310907437503338
1733862538594025500,8.113025390625,0.005056698867678642,-0.020170681369304656,0.04820318215489387
1733862538603976400,8.1229765625,-0.005627776753902435,-0.020141163013875484,0.05437982496321201
1733862538613927400,8.132927490234374,-0.0048643911659717555,-0.01884820059388876,0.04112579111456871
1733862538623878400,8.14287841796875,0.02073123786151409,-0.023051789763569832,0.04727203878462315
1733862538633829400,8.152829345703125,0.013108506164420395,-0.016216683046519756,0.048999300968647
1733862538643780400,8.1627802734375,0.012820355139113962,-0.024565409196913243,0.03933072439134121
1733862538653731300,8.1727314453125,0.006677578067779541,-0.02565992643535137,0.044671500897407526
1733862538663683300,8.182683349609375,-0.0021446473458781837,-0.02267448088377714,0.042245150533318516
1733862538673634300,8.19263427734375,-0.022176760494709014,-0.027594693890213965,0.05784487072527408
1733862538683585300,8.202585205078124,-0.029379239219427106,-0.02524988432973623,0.03106090869605541
1733862538693536300,8.212536376953125,-0.056577627268433565,-0.02486263857781887,0.031871056035161015
1733862538703487500,8.222487548828125,-0.04290737730171531,-0.02504179453700781,0.04480009571313858
1733862538713438200,8.232438232421876,-0.029477438896894453,-0.021365444111824033,0.026503976044058797
1733862538723389400,8.242389404296874,-0.016163747282885013,-0.024667116005718706,0.03727320733964443
1733862538733341400,8.252341552734375,0.01571600351538509,-0.019892156688868998,0.051641339910030365
1733862538743292400,8.26229248046875,0.021264340091217308,-0.02652823370248079,0.048264556953310965
1733862538753243400,8.272243408203124,-0.005490450642444193,-0.028739772272109984,0.042162148424983024
1733862538763194400,8.2821943359375,-0.006264321091771125,-0.027230829013884066,0.050261283728480335
1733862538773145300,8.292145263671875,-0.027219430837035177,-0.026135142731666564,0.04700432775914669
1733862538783096300,8.302096435546876,-0.02775660645365715,-0.02458937459439039,0.05556231274604797
1733862538793047600,8.312047607421874,-0.021296452262531965,-0.026702713486552235,0.04956745624542236
1733862538802999300,8.321999267578125,0.0094850001713261,-0.02099310366809368,0.051529111707210536
1733862538812950300,8.3319501953125,0.014858509903214872,-0.02462649173438549,0.04964928930997848
1733862538822901500,8.341901611328124,0.013866064799763262,-0.02481587682664394,0.05091477920114994
1733862538832852500,8.3518525390625,-0.0025777415335178373,-0.006069675302505493,0.0326952318996191
1733862538842803500,8.361803466796875,-0.02059621330499649,-0.026351708091795444,0.03798573952317238
1733862538852754400,8.37175439453125,-0.020180070252157747,-0.017664543767273427,0.044297991409897805
1733862538862705400,8.381705322265624,-0.022213621906377375,-0.04711217204779386,0.05211188003122806
1733862538872657400,8.391657470703125,-0.014740509546734391,-0.041302901247143746,0.049857379102706906
1733862538882608400,8.4016083984375,0.008259878823161124,-0.021079320646822452,0.05869593459665775
1733862538892559400,8.411559326171876,0.0032417584002017974,-0.02827858450114727,0.0573474425971508
1733862538902510300,8.42151025390625,0.007300641869567334,-0.01784253068268299,0.040732992404699325
1733862538912461300,8.43146142578125,0.010258322631381451,-0.021310791315138338,0.04269640143215656
1733862538922412300,8.441412353515625,0.02957856118381023,-0.021491408579051494,0.04168050238788128
1733862538932363300,8.45136328125,0.042995092117786404,-0.0313490779876709,0.04833119244873523
1733862538942315300,8.461315185546875,0.02330488774180412,-0.031178105334937572,0.056416883748769756
1733862538952266500,8.4712666015625,-0.005872691425681114,-0.021797698049247263,0.051746553850173946
1733862538962217200,8.48121728515625,-0.026382395491003987,-0.023216624936461448,0.037031799799203874
1733862538972168400,8.49116845703125,-0.060721960531547665,-0.022739655074477193,0.030444238102436065
1733862538982119400,8.501119384765625,-0.05126845147702842,-0.035728315985202784,0.048834465795755386
1733862538992070400,8.5110703125,-0.04578559961915016,-0.013768997633457182,0.041888007658720014
1733862539002021400,8.521021484375,-0.025274763042666015,-0.02809592141062021,0.039833997738361354
1733862539011972400,8.530972412109374,-0.027950064932834355,-0.01812310118973255,0.04902794254124164
1733862539021924400,8.54092431640625,-0.024623569124937055,-0.02659486919790506,0.05864683475792408
1733862539031875300,8.550875244140625,-0.020507932233344763,-0.030102585057914254,0.04268704908192158
1733862539041826600,8.56082666015625,-0.04999587425794452,-0.02415361352562904,0.042512277036905285
1733862539051777300,8.57077734375,-0.03855446105552837,-0.021300562182068824,0.05372808305621147
1733862539061728500,8.580728515625,-0.014449929102323948,-0.033523207156360146,0.04176701162755489
1733862539071679200,8.59067919921875,-0.013009667166136205,-0.030345746164023874,0.04685644372105598
1733862539081631500,8.600631591796875,0.014880192012060433,-0.027964111724495887,0.05267769722044468
1733862539091582200,8.610582275390625,0.03464574491288513,-0.026142156994342802,0.048802317091822624
1733862539101533400,8.620533447265625,0.034131438715197145,-0.02201046401709318,0.057690556946396826
1733862539111484400,8.630484375,-0.003601805617939681,-0.0351417482689023,0.0387210680603981
1733862539121435400,8.640435302734375,-0.02101997340871021,-0.03332622327953577,0.036195348975062366
1733862539131386400,8.650386474609375,-0.027430443239212034,-0.0220619019433856,0.03157937961220741
1733862539141337300,8.66033740234375,-0.027971125987172125,-0.035575171250104905,0.03917874870002269
1733862539151288300,8.670288330078124,-0.01598433559536934,-0.024091946466267108,0.03885375452935695
1733862539161240300,8.680240234375,0.01077799912393093,-0.026339433132112025,0.039899464190006256
1733862539171191600,8.690191650390625,0.019549882589839397,-0.01718202094733715,0.049799511435627934
1733862539181142300,8.700142333984376,-0.005702011033892631,-0.01926262661367655,0.04084463608562946
1733862539191093500,8.710093505859374,0.01319150827275589,-0.028469138637185094,0.04778641804754734
1733862539201045000,8.720044921875,0.011412132309004664,-0.021976269486546515,0.0453004464507103
1733862539210996000,8.729995849609375,0.0018131503691896796,-0.018528174859285353,0.040698505613207814
1733862539220947000,8.739947021484374,-0.007083820781111717,-0.023744448202848434,0.03132102093696594
1733862539230899200,8.749899169921875,-0.0024386070574633776,-0.018422084136307238,0.049208559805154796
1733862539240850000,8.759849853515625,-0.02310322768986225,-0.009669745621085166,0.0467336941242218
1733862539250801200,8.76980126953125,-0.005151391413807869,-0.029882512566447257,0.04473638282716274
1733862539260752000,8.779751953125,-0.008770166432857513,-0.034626492223143575,0.03551730358302593
1733862539270703000,8.789703125,-0.0042716859698295594,-0.024487375524640084,0.036195933496952055
1733862539280654000,8.799654052734375,-0.0072165072500705715,-0.031167583940923213,0.03385258524119854
1733862539290605000,8.80960498046875,-0.028528759869933126,-0.02976385462284088,0.03570201250016689
1733862539300556800,8.819556884765625,-0.06763268976807595,-0.039351767179369924,0.044538814428448675
1733862539310508000,8.829508056640625,-0.07921263465834781,-0.030417057834565636,0.043161680856347084
1733862539320459000,8.839458984375,-0.06106153121683746,-0.031873978644609446,0.0302946004986763
1733862539330410000,8.849409912109374,-0.057217715270258485,-0.02796002007126808,0.044939211922883984
1733862539340361000,8.85936083984375,-0.04557926339209079,-0.028234745359420773,0.054036710613965984
1733862539350312000,8.86931201171875,-0.022364355488680304,-0.02769377035051584,0.04692833991348743
1733862539360263200,8.87926318359375,-0.03183887079861015,-0.02052431711256504,0.04956687172353268
1733862539370215000,8.88921484375,-0.029690771120321004,-0.010930851598083973,0.04929916069805622
1733862539380166100,8.899166259765625,-0.017298907058965415,-0.024792203690111637,0.03947100964486599
1733862539390116900,8.909116943359376,0.00028057050704956055,-0.020218612164258954,0.023981764090061187
1733862539400068000,8.919068115234374,0.02725335137294605,-0.027123276986181735,0.0432347460925579
1733862539410018800,8.929018798828125,0.03044190001487732,-0.028842355863749978,0.043920974791049956
1733862539419970000,8.938969970703125,0.01992693574130535,-0.023476737177371976,0.036869887235760686
1733862539429921000,8.948921142578126,0.012642039430141448,-0.018058511520922183,0.04503974968791008
1733862539439873000,8.958873046875,0.011542517223022878,-0.025185294660925863,0.05367313799858093
1733862539449824000,8.968823974609375,-0.02168229150865227,-0.025531916141510007,0.05664075563251972
1733862539459775000,8.97877490234375,-0.033998167724348605,-0.026866671876609325,0.049154199269413945
1733862539469726200,8.988726318359374,-0.03709317459762096,-0.029087270535528658,0.0670984367609024
1733862539479677000,8.998677001953125,-0.021182488760352135,-0.02559884389787912,0.038215456625819204
1733862539489628200,9.008628173828125,-0.022835516664385793,-0.015251929667592048,0.04688040911853313
1733862539499579000,9.018578857421875,-0.024285130950808524,-0.019343875156342984,0.028425299495458602
1733862539509531100,9.02853125,-0.004704798423778266,-0.019734628039598464,0.04556991104185581
1733862539519481900,9.03848193359375,-0.00623275690972805,-0.02469225044697523,0.04599778106510639
1733862539529433000,9.04843310546875,-0.0013321071202866733,-0.02561462598890066,0.052496495434641834
1733862539539383800,9.0583837890625,-0.02040914803398773,-0.030060499481856823,0.04952420162558555
1733862539549335000,9.0683349609375,-0.01539163039922714,-0.011325988395512103,0.04998655844032764
1733862539559285800,9.07828564453125,-0.01416647251844406,-0.03232026110738516,0.05332417843043804
1733862539569237000,9.088237060546875,-0.011629647517204285,-0.02192512382119894,0.0476747743666172
1733862539579189000,9.09818896484375,-0.010432546687126159,-0.015303952115774153,0.040821255210042
1733862539589140000,9.108139892578125,-0.006616787791252136,-0.014516601130366324,0.03575111233890056
1733862539599091000,9.118091064453125,-0.016850578769575804,-0.03671586571782827,0.03871463831961155
1733862539609042000,9.1280419921875,-0.03818855035258457,-0.020827683973312378,0.03788929341137409
1733862539618993200,9.1379931640625,-0.03534311605989933,-0.029009529124200344,0.04673837029933929
1733862539628944000,9.14794384765625,-0.0283142220701091,-0.028687457562983035,0.04994388834238052
1733862539638895000,9.15789501953125,-0.025931144592165944,-0.038503041395545,0.05645137054026127
1733862539648847000,9.16784716796875,-0.005092354702949524,-0.030923838312923908,0.045916532522439955
1733862539658798000,9.177798095703125,0.0076876318931579585,-0.0225412098929286,0.048887657287716865
1733862539668749000,9.1877490234375,0.00860880185868591,-0.01883212624192238,0.026711481314897537
1733862539678700000,9.197699951171876,0.0050888110389932985,-0.027269991980493066,0.04673427864611149
1733862539688651000,9.207651123046874,0.028140052813291547,-0.027365853570401666,0.04354688078165054
1733862539698602000,9.21760205078125,0.019457582930196074,-0.01815320406705141,0.0457622187435627
1733862539708553000,9.227552978515625,-0.005629493786953389,-0.024164427180588244,0.052039399316906924
1733862539718505000,9.2375048828125,-0.009227847072482108,-0.027962358158826826,0.04138941048681736
1733862539728456000,9.2474560546875,-0.024691958186030386,-0.026006840176880357,0.044831075373291965
1733862539738407000,9.257406982421875,-0.042668326115142555,-0.01422755505591631,0.04614040440618992
1733862539748358000,9.26735791015625,-0.025434337518550454,-0.020302783316373824,0.04906301385462284
1733862539758308900,9.277308837890626,-0.006781038442254066,-0.03239741799682379,0.036406361377239224
1733862539768260000,9.287260009765625,-0.003363338953256607,-0.019781097529828547,0.0381283628642559
1733862539778210800,9.2972109375,-0.020321488016843796,-0.01869534811973572,0.04830255087614059
1733862539788163000,9.3071630859375,-0.05191957232952118,-0.034924013864994045,0.0446510426312685
1733862539798114000,9.317114013671874,-0.06325169820487499,-0.02439326750040054,0.03513268817961216
1733862539808065000,9.32706494140625,-0.05821545760333538,-0.016168459990620613,0.03604103519618511
1733862539818016000,9.33701611328125,-0.042784079715609546,-0.016364859345555306,0.05286065257191658
1733862539827967000,9.346967041015626,-0.025523184845782816,-0.017363807255029676,0.0473567944586277
1733862539837918000,9.35691796875,-0.00004734627306461334,-0.028803485158085822,0.0450169533342123
1733862539847869000,9.366868896484375,0.017183737980388105,-0.03216448602378368,0.041190088522434234
1733862539857821000,9.376821044921876,0.004978975722659379,-0.01111176112294197,0.05294833085536956
1733862539867772200,9.386772216796874,0.030792065159417688,-0.018861352336406706,0.05083996039927006
1733862539877723000,9.396722900390625,0.014804825220908969,-0.017655483677983284,0.04079670529067516
1733862539887674000,9.406674072265625,-0.0022498247534036633,-0.018571137218177318,0.03911912746727467
1733862539897625000,9.416625,-0.01371058197710663,-0.024943887120485304,0.04233925855755806
1733862539907576000,9.426576171875,-0.004701291292440146,-0.017786708842217922,0.04349719642102718
1733862539917527000,9.436527099609375,-0.005447744011878967,-0.022315584443509576,0.04165419890284538
1733862539927479000,9.44647900390625,0.0006628478229045867,-0.032520459854602814,0.02769815426468849
1733862539937430000,9.456429931640624,0.007300093880295753,-0.03211392488032579,0.03888298062384128
1733862539947381000,9.466381103515625,-0.0087748060753569,-0.02203092228323221,0.05138824193179607
1733862539957332000,9.47633203125,-0.02267535766661167,-0.0180599728256464,0.05148468804359436
1733862539967283000,9.486282958984376,-0.0309048778841272,-0.016022037257254124,0.028837387427687645
1733862539977234000,9.49623388671875,-0.02769287530137226,-0.0232426361605525,0.04488368234336376
1733862539987185000,9.506184814453125,-0.016882745739817618,-0.0178594818174839,0.04860182608366012
1733862539997137200,9.51613720703125,-0.007618073788285255,-0.021738661338388917,0.04454524416923523
1733862540007087900,9.526087890625,-0.012282558467984199,-0.03232406049966812,0.0366121130824089
1733862540017039000,9.5360390625,-0.008491349491477012,-0.014320494036376476,0.045585693132877345
1733862540026989800,9.54598974609375,-0.005054397312738001,-0.023433190296590328,0.03719663497209549
1733862540036941000,9.555941162109375,-0.00684182871878147,-0.019606910006701946,0.03835106570422649
1733862540046892000,9.56589208984375,-0.009121445822250097,-0.032031507293879984,0.040139118164777755
1733862540056843000,9.575843017578125,-0.004848006286751479,-0.024474223782122134,0.040837621822953224
1733862540066795000,9.585794921875,-0.018520557808410377,-0.021915186949074267,0.041193011131882666
1733862540076746000,9.59574609375,0.0058282677620649335,-0.037299803085625166,0.0478401940613985
1733862540086697200,9.605697265625,0.010376432585716248,-0.02692921571880579,0.038725159713625903
1733862540096648000,9.61564794921875,0.01188095539715141,-0.039705402922630306,0.031654198414087294
1733862540106599200,9.62559912109375,0.018110241708159447,-0.030382278782129287,0.04633095854222774
1733862540116550000,9.6355498046875,0.029852135694492608,-0.01252045887708664,0.05130056364834308
1733862540126501000,9.645501220703125,0.019753296207450328,-0.03544160799831152,0.047860652327537535
1733862540136452900,9.655452880859375,0.01768821690380573,-0.045184126594662664,0.035304537615180015
1733862540146404000,9.665404052734376,0.03448850852455944,-0.011057108326256275,0.05278700281381607
1733862540156354800,9.675354736328124,0.03197042475640774,-0.014245675234496593,0.062465516263246534
1733862540166306000,9.68530615234375,0.010072499469388275,-0.01826221739947796,0.032685295027494427
1733862540176256800,9.6952568359375,-0.028024299212824552,-0.026902035450935363,0.03957739262878895
1733862540186208000,9.7052080078125,-0.045293413921725,-0.026592531110346315,0.03776771285831928
1733862540196159000,9.715158935546874,-0.057051126531697804,-0.023244681987166404,0.03498772675096989
1733862540206110000,9.72510986328125,-0.0662052873134613,-0.01726560757756233,0.03215747176110744
1733862540216061200,9.735061279296875,-0.06574004442188888,-0.02561111885756254,0.033522914895415305
1733862540226012200,9.74501220703125,-0.05188629111442715,-0.040508535999059674,0.047018940806388854
1733862540235963100,9.754963134765624,-0.01896656627655029,-0.03375555460751056,0.05899579432606697
1733862540245914000,9.7649140625,-0.007465513575077056,-0.02885930699855089,0.05127075303196907
1733862540255865000,9.774864990234375,-0.011391162586212157,-0.02233107427358627,0.03815115921795368
1733862540265816300,9.78481640625,-0.010420837983023375,-0.021005086366832255,0.04300502898991108
1733862540275768000,9.79476806640625,-0.02601765383183956,-0.03860942437946796,0.04182020311951637
1733862540285719000,9.804718994140625,-0.08553955439124256,-0.03266249867379665,0.04236030134558678
1733862540295670000,9.814669921875,-0.09888354981197044,-0.02998041998296976,0.030909517526626584
1733862540305621200,9.824621337890624,-0.09770517194867133,-0.02557984693646431,0.038169279396533966
1733862540315572000,9.834572021484375,-0.03359130395650863,-0.009743395379185676,0.034384500160813326
1733862540325523200,9.844523193359375,-0.008466178517602384,-0.021728724466264247,0.03869651814103126
1733862540335474000,9.854473876953126,0.04142566911028698,-0.0167921448469162,0.06218611479997634
1733862540345426200,9.86442626953125,0.10541560019552706,-0.013139467558264731,0.05895020161867141
1733862540355377200,9.874377197265625,0.10020051416205242,-0.021172844149172306,0.07437105811238288
1733862540365328100,9.884328125,0.09530863220095634,-0.02229980235248804,0.05735504138171672
1733862540375279000,9.894279052734374,0.051670529471896584,-0.01640548361688852,0.0512649078130722
1733862540385230000,9.90422998046875,-0.020691490373015403,-0.01999181767106056,0.038711715710163117
1733862540395181000,9.91418115234375,-0.02969721912741661,-0.02943272297233343,0.04619008876681328
1733862540405132000,9.924132080078126,0.004215023879148066,-0.03507189790308475,0.029008652341365813
1733862540415084000,9.934083984375,0.03884560775551945,-0.024898586674034592,0.04787643441855907
1733862540425035300,9.94403515625,0.055426119145751,-0.013593641066551207,0.04122691340148449
1733862540434986200,9.953986328125,0.04560205974578857,-0.024457272647321223,0.028450433936715123
1733862540444937200,9.963937255859374,0.057419923311471936,-0.02883826421052217,0.05521919839680194
1733862540454888200,9.97388818359375,0.03291442760825157,-0.015212474440038204,0.05404840105175972
1733862540464839200,9.983839111328125,0.010230320379603653,-0.03650163844525814,0.04088613713979721
1733862540474790100,9.9937900390625,-0.03230009510219097,-0.02980389437228441,0.04657470417022705
1733862540484742100,10.0037421875,-0.057569542648922646,-0.04668137941509485,0.03874152632653713
1733862540494693000,10.013693115234375,-0.067089632399939,-0.0233580792337656,0.035737083813548086
1733862540504644000,10.02364404296875,-0.07337148914840072,-0.0337517552152276,0.0320984350502491
1733862540514595000,10.033594970703126,-0.08105097426772118,-0.033494273322820664,0.0333925665140152
1733862540524546000,10.043546142578125,-0.07993101206077262,-0.03136544460058212,0.031036358776688575
1733862540534497000,10.0534970703125,-0.05748772785067558,-0.01711801580041647,0.04198153116106987
1733862540544448300,10.0634482421875,-0.05555763657093048,-0.023185937537252902,0.05936521216034889
1733862540554400300,10.073400146484374,-0.07040505882455035,-0.03883417304605245,0.04201660247445106
1733862540564351000,10.08335107421875,-0.07190318842781707,-0.0324514862716198,0.021456629526615142
1733862540574302200,10.09330224609375,-0.0636737230092287,-0.019487667541205882,0.035004093363881106
1733862540584253200,10.103253173828126,-0.0439104899296537,-0.023528759625554084,0.049319034442305565
1733862540594204200,10.1132041015625,-0.030444238102436065,-0.022322306445240973,0.048293198525905606
1733862540604155100,10.123155029296875,-0.017788133614324034,-0.03893003463596106,0.041724926051497455
1733862540614106000,10.133106201171875,-0.007799312106706201,-0.03611556173712015,0.054745735666155815
1733862540624058000,10.14305810546875,0.0246083350231871,-0.02603898888081312,0.056443187233805654
1733862540634009000,10.153009033203125,0.05161854355633259,-0.018887655821442605,0.05310498272180557
1733862540643960300,10.162960205078125,0.06979363066162914,-0.0138379712164402,0.03661912734508514
1733862540653911000,10.1729111328125,0.06609419162180274,-0.008635726398229598,0.03466974684298038
1733862540663862300,10.1828623046875,0.039952655681967736,-0.027016017219424246,0.03486380811035633
1733862540673813000,10.19281298828125,0.03356262585129589,-0.023078970031440257,0.04720540328919887
1733862540683764200,10.20276416015625,0.03296875161137432,-0.021280980698764322,0.050556467282772063
1733862540693716000,10.212716064453126,0.0453653283804655,-0.03715542617887258,0.06535889961719513
1733862540703667200,10.222667236328125,0.058310150149464605,-0.03191927909106016,0.0593821632951498
1733862540713618000,10.232617919921875,0.04807517186105251,-0.030434885752201078,0.04982172326743602
1733862540723569200,10.242569091796875,0.0034024653872475026,-0.02579933490604162,0.04865267948806286
1733862540733520100,10.25252001953125,-0.0394680687691085,-0.025025427924096583,0.04285539138615131
1733862540743471000,10.26247119140625,-0.058310150149464605,-0.012131167298555373,0.040184710872173304
1733862540753422000,10.272422119140625,-0.05808335565626621,-0.005470540365576744,0.04374211109280586
1733862540763374000,10.2823740234375,-0.04933423201143741,-0.028605624498426914,0.042940147060155864
1733862540773325300,10.2923251953125,-0.0565261710758321,-0.02837269252538681,0.02747428238093853
1733862540783276000,10.302276123046875,-0.05881521359477192,-0.0338300811484456,0.04640869995355606
1733862540793227300,10.312227294921875,-0.06528641890287398,-0.02496405312567949,0.03866495395898819
1733862540803178000,10.322177978515626,-0.05064940626323223,-0.02922317187488079,0.045211599123477934
1733862540813129200,10.332129150390625,-0.07658345519853756,-0.03504705572277307,0.0323380890250206
1733862540823080000,10.342079833984375,-0.07739827871276066,-0.030013153208792206,0.023908114331960675
1733862540833032200,10.3520322265625,-0.05936402485026046,-0.015431670148670673,0.025628362253308296
1733862540842983000,10.36198291015625,-0.047536827200651166,-0.03700082013905048,0.028343466430902478
1733862540852934100,10.37193408203125,-0.018194979115854947,-0.02687953135818243,0.05027297416627407
1733862540862885000,10.381885009765625,0.012083236503601073,-0.03037731034606695,0.04939268420040607
1733862540872836000,10.391836181640626,0.009573317775595933,-0.018411855003237724,0.04861819269657135
1733862540882787300,10.401787353515624,0.009579729250073433,-0.012633271601796149,0.04400923759639263
1733862540892738000,10.411738037109375,0.0311965177744627,-0.022984569746255873,0.05102057766318321
1733862540902690000,10.42168994140625,0.029535891085863113,-0.011157646091282367,0.03067746233642101
1733862540912641000,10.43164111328125,0.045129181537032124,-0.02232727488130331,0.034621231526136394
1733862540922592300,10.44159228515625,0.029672102952469137,-0.02592266902476549,0.03137304338514805
1733862540932543000,10.45154296875,0.012625124827958642,-0.025265958681702613,0.05794365492463111
1733862540942494200,10.461494140625,-0.006427366166375577,-0.021357553066313265,0.053066404277086254
1733862540952445000,10.47144482421875,-0.017868815901409832,-0.02717822204381227,0.04608838195800781
1733862540962396200,10.481396240234375,-0.012758925541769713,-0.01791238104850054,0.06475625754892826
1733862540972348200,10.49134814453125,-0.020635960793495178,-0.02151858884692192,0.05559095431864261
1733862540982299100,10.501299072265626,-0.013123100945353508,-0.04341214848607778,0.03368833459019661
1733862540992250000,10.51125,-0.004841576545964926,-0.023209610673785207,0.02932078703045845
1733862541002201000,10.521201171875,-0.012246299844514578,-0.02045592805147171,0.030746435919404028
1733862541012152300,10.53115234375,-0.03300152136981487,-0.0290375861749053,0.0395230320930481
1733862541022103000,10.54110302734375,-0.03765252551343292,-0.023089783686399457,0.038945524466037745
1733862541032054300,10.55105419921875,-0.052224674489628524,-0.04031739734113216,0.03791150524318218
1733862541042006000,10.561006103515625,-0.045890813559293746,-0.019432722483575342,0.04859188921153545
1733862541051957200,10.570957275390626,-0.04080138146579265,-0.028263679192960262,0.03153670951426029
1733862541061908000,10.580907958984374,-0.023697686451673507,-0.02091682356148958,0.03947217868864536
1733862541071859200,10.590859130859375,-0.025279402685165403,-0.012910627238452434,0.03636661388874054
1733862541081810200,10.60081005859375,-0.02700955094601959,-0.033354572591185565,0.04388005825877189
1733862541091761200,10.61076123046875,-0.01657114077368751,-0.023833295530080793,0.03871113118827343
1733862541101712100,10.620712158203125,-0.0037830074037425217,-0.03259235604703426,0.04236731560826301
1733862541111664000,10.6306640625,0.0032499599729664624,-0.023256372424960134,0.04363105193376541
1733862541121615000,10.640614990234376,-0.007937807261943817,-0.03399783893078565,0.05146656786501407
1733862541131566000,10.650566162109374,-0.015108137282729148,-0.02132598888427019,0.031055647999048232
1733862541141517000,10.66051708984375,0.0004594707379117608,-0.029962884326279162,0.04396306036710739
1733862541151468000,10.670468017578125,0.005633055717218667,-0.018647417324781417,0.04694412200450897
1733862541161419300,10.680419189453126,0.008985891542769967,-0.032493279586732385,0.03749824826717377
1733862541171370000,10.690369873046874,0.014409670157171785,-0.0326473011046648,0.0502367338091135
1733862541181322000,10.700322021484375,0.030720168966986237,-0.028262510149180887,0.041158524340391155
1733862541191273200,10.710273193359376,0.026667057651281356,-0.029766192710399625,0.04851765493154526
1733862541201224700,10.720224609375,0.0010013042633421718,-0.02622983527779579,0.055041503742337225
1733862541211176000,10.730176025390625,-0.005513794985413551,-0.01549538303464651,0.03345160322487354
1733862541221127000,10.740126953125,-0.027331695572473107,-0.009817629659175871,0.04619418042004108
1733862541231078000,10.750077880859376,-0.03704462274815887,-0.03301613441705704,0.0638654461890459
1733862541241028900,10.76002880859375,-0.04334346716403961,-0.03205518043041229,0.05253565840125084
1733862541250980900,10.76998095703125,-0.02323817918114364,-0.03470043424218893,0.04598375253975391
1733862541260932000,10.77993212890625,-0.008474361824057995,-0.038024025706946844,0.043511224946379656
1733862541270882800,10.7898828125,0.005699672946333885,-0.030115736800432204,0.04823123920559883
1733862541280834000,10.799833984375,0.010533047919534147,-0.03067307842224836,0.04573299264907837
1733862541290784800,10.80978466796875,0.003927987098693847,-0.030944004318118095,0.04382803581058979
1733862541300736000,10.819736083984376,-0.026902656505443153,-0.024613047730922696,0.04014379433989525
1733862541310686700,10.829686767578124,-0.028802316114306448,-0.029048984351754188,0.05396598346531391
1733862541320639000,10.839638916015625,-0.021543138766288755,-0.03267594267725944,0.05135667774975299
1733862541330589700,10.849589599609375,-0.023082732891105115,-0.027628596159815787,0.04499474150240421
1733862541340541000,10.859541015625,-0.00443067592382431,-0.01709405040293932,0.05371405453085899
1733862541350491600,10.86949169921875,-0.013536905910633503,-0.026018822875618932,0.03892857333123684
1733862541360443000,10.87944287109375,-0.020074819779396055,-0.03784925366193056,0.04355331052243709
1733862541370393900,10.889393798828126,-0.04811554040405899,-0.02676876446008682,0.03397358127236366
1733862541380344800,10.8993447265625,-0.049591385110281404,-0.027434827153384685,0.05293196424245834
1733862541390296000,10.909296142578125,-0.031229214467667042,-0.026177812829613685,0.05929565405547618
1733862541400247800,10.919247802734375,-0.02926876458227634,-0.024905016414821145,0.04755845451056957
1733862541410199000,10.929198974609376,-0.0182125330388546,-0.021887422159314156,0.04859188921153545
1733862541420149800,10.939149658203124,-0.012846074102260172,-0.015009645344316959,0.03380874609947204
1733862541430101000,10.94910107421875,-0.012716894764639436,-0.027153672124445437,0.03780336869359016
1733862541440051700,10.9590517578125,0.005158990198373794,-0.03039776861220598,0.04723170677423477
1733862541450003000,10.9690029296875,0.009064144410751759,-0.030878537866473196,0.052453825336694716
1733862541459955000,10.978954833984375,0.015143208596110343,-0.0195849904358387,0.044184009641408915
1733862541469906000,10.988906005859375,0.01752571981847286,-0.027537703005969524,0.04836801732778549
1733862541479857000,10.99885693359375,0.01889700817167759,-0.03348988940864801,0.06739537388086318
1733862541489808000,11.008807861328124,0.03555295941829681,-0.03363572762012482,0.055882046219706535
1733862541499758800,11.0187587890625,0.026357261049747466,-0.03394260161221027,0.047212417551875115
1733862541509709800,11.028709716796875,0.016637794535420834,-0.027329613213241098,0.033034254595637316
1733862541519661000,11.0386611328125,-0.008991663696430624,-0.030011984165012835,0.022739655074477193
1733862541529611800,11.04861181640625,-0.0033206323226913806,-0.020909809298813344,0.025296353819966314
1733862541539563800,11.058563720703125,0.0077729720890522,-0.027536826223134993,0.022008418190479277
1733862541549514800,11.0685146484375,-0.006950001800991594,-0.023296119913458823,0.03763444186747074
1733862541559466000,11.078466064453124,-0.024629998865723608,-0.023953999300301072,0.02648994751870632
1733862541569416700,11.088416748046875,-0.04976849524285644,-0.024176117618381975,0.039570962888002395
1733862541579368000,11.098367919921875,-0.0467944478681311,-0.020782091265916822,0.047719782552123065
1733862541589318700,11.108318603515626,-0.04219663521647453,-0.017426643358170985,0.0344511356562376
1733862541599270000,11.118269775390624,-0.04655716851353645,-0.03510609243363142,0.03952537018060684
1733862541609222000,11.128221923828125,-0.036694494136236606,-0.025864509096741675,0.050718379846215245
1733862541619172900,11.1381728515625,-0.046191221277974544,-0.020646189926564692,0.04425532131195068
1733862541629123800,11.148123779296874,-0.04743749501202255,-0.01791004296094179,0.042753100055456156
1733862541639074800,11.15807470703125,-0.029147732018493116,-0.02197773079127073,0.04554477660059929
1733862541649025800,11.16802587890625,-0.009040763535164297,-0.02172901672720909,0.05909983922243118
1733862541658976800,11.177976806640626,-0.01193590045478195,-0.01320142687857151,0.048745033946633334
1733862541668928000,11.187927978515624,0.0052507966676726935,-0.018268062618374825,0.0324292744398117
1733862541678880000,11.1978798828125,0.011366649199463426,-0.03091711631119251,0.04217559242844581
1733862541688831000,11.2078310546875,0.009983049353957175,-0.022908289639651774,0.04392214383482933
1733862541698782000,11.217781982421876,0.014404993982054292,-0.015452420675754546,0.04615034127831459
1733862541708733000,11.22773291015625,0.0009580679098144173,-0.019246552261710168,0.05577332514822483
1733862541718684000,11.237683837890625,0.00019230770170688627,-0.026261399459838866,0.04769698619842529
1733862541728635000,11.247634765625,0.005738287923671305,-0.03392126656323671,0.04214519729018211
1733862541738585900,11.2575859375,0.01617079807817936,-0.027102818720042703,0.047961190092563624
1733862541748537900,11.267537841796875,0.02526128250658512,-0.03897679638713598,0.0480319172412157
1733862541758488800,11.27748876953125,0.01593406671285629,-0.03485679384768009,0.05468377634584903
1733862541768439800,11.287439697265626,0.0017290157496929167,-0.026462767250835895,0.039759178936481475
1733862541778390800,11.297390869140624,-0.017550854259729385,-0.026501053434610365,0.03736731536388397
1733862541788341800,11.307341796875,-0.03940729675889015,-0.043078678748011585,0.031181320205330848
1733862541798293000,11.31729296875,-0.06403437301516532,-0.029803017589449882,0.04057750958204269
1733862541808243700,11.32724365234375,-0.05327098693847656,-0.0201730194568634,0.036458968347311015
1733862541818195700,11.33719580078125,-0.04312134884595871,-0.02791851901710033,0.04190262070596218
1733862541828147000,11.34714697265625,-0.04878364892397075,-0.025991642607748507,0.041702714219689366
1733862541838098000,11.357097900390626,-0.0592383709102869,-0.01402180335074663,0.05138064314723015
1733862541848049000,11.367048828125,-0.03870356893632561,-0.03232201467305422,0.03798807761073112
1733862541858000000,11.376999755859375,-0.03960895681083202,-0.024089023856818676,0.04413724789023399
1733862541867950800,11.386950927734375,-0.043836803638935086,-0.030057576872408388,0.04564999054074287
1733862541877901800,11.39690185546875,-0.046147984924446786,-0.02696837868541479,0.04988602067530155
1733862541887853800,11.406853759765625,-0.03289860898461193,-0.04462707723379135,0.04358195209503173
1733862541897805000,11.41680517578125,-0.02862641155812889,-0.0265168355256319,0.051042789494991296
1733862541907755800,11.426755859375,-0.02728898894190788,0.007826748102903366,0.0533826306194067
1733862541917707000,11.43670703125,-0.02468962009847164,-0.0257458511531353,0.031659459111094475
1733862541927657700,11.44665771484375,0.018204970786906777,-0.03172287973612547,0.0442284333050251
1733862541937609000,11.45660888671875,0.043076979981269685,-0.02559796711504459,0.05298340216875076
1733862541947560000,11.466559814453126,0.06019817411946132,-0.007826748102903366,0.07191665069758892
1733862541957512000,11.476511962890624,0.023770185432303696,-0.026180443178117272,0.03801555013954639
1733862541967462700,11.486462646484375,0.004351180946826934,-0.025780922466516493,0.041108255457878114
1733862541977414000,11.496413818359375,0.012231705063581465,-0.01757803452759981,0.07055705278217791
1733862541987364900,11.50636474609375,0.022515801457036286,-0.023618191474676132,0.07014262676239014
1733862541997315800,11.51631591796875,0.03328035657750442,-0.027789047418534753,0.03318623028695583
1733862542007266800,11.526266845703125,0.04551964215934276,-0.03723492115586996,0.036117023041844366
1733862542017217800,11.5362177734375,0.01001925317849964,-0.0025976152777671814,0.0415793801009655
1733862542027170000,11.546170166015624,-0.04262746438179165,-0.019739304214715956,0.025937574332952497
1733862542037120800,11.556120849609375,-0.05075345115959644,-0.05494651893526315,0.009478022441267967
1733862542047072000,11.566072021484375,0.00894201586842537,-0.04667319610863924,0.05157295084893703
1733862542057022700,11.576022705078126,0.03931373672392219,-0.027744623754918575,0.06422668071687221
1733862542066974000,11.585973876953124,0.025170097091794012,-0.04852233110666275,0.05569383017122745
1733862542076925000,11.595925048828125,-0.017625088539719582,-0.04081862486153841,0.04590601112842559
1733862542086876000,11.6058759765625,-0.09129998108148574,-0.023418577249348163,0.06046528235673904
1733862542096828000,11.615827880859374,-0.09903026480628177,-0.02114303353279829,0.0498445196211338
1733862542106779000,11.62577880859375,-0.12847498874366284,-0.030445991668105122,0.02973112139701843
1733862542116729900,11.635729736328125,-0.1080114984402433,-0.03999941743314266,0.04110124119520187
1733862542126680800,11.645680908203126,-0.0769213088507764,-0.01574146675020456,0.06591185732483863
1733862542136632000,11.655632080078124,-0.055713703915476795,-0.00994359412640333,0.04960837277770042
1733862542146582800,11.665582763671875,-0.046315176451206204,-0.009069733901321887,0.04041325893104076
1733862542156534000,11.675533935546875,-0.008999299013614653,-0.0186851189866662,0.04603460594415664
1733862542166485800,11.68548583984375,0.030131482358835636,-0.008926526038348674,0.03644610886573791
1733862542176437000,11.69543701171875,0.03880870981123298,-0.023316870440542696,0.048690673410892484
1733862542186387700,11.7053876953125,0.04559738357067108,-0.014711539180576801,0.027041736182570456
1733862542196339000,11.7153388671875,0.04220715661048889,-0.015480185465514659,0.029602526581287383
1733862542206290000,11.7252900390625,0.05127831528391689,-0.02447393152117729,0.04819558337032795
1733862542216241000,11.735240966796875,0.04397825793623924,-0.024240122765302657,0.05959200665354728
1733862542226192000,11.74519189453125,0.052910921454429626,-0.02790390596985817,0.052823827692866324
1733862542236144000,11.75514404296875,0.05500820426093414,-0.028952245979011058,0.05314531473219394
1733862542246094800,11.7650947265625,0.05644201819002628,-0.03601560849398374,0.05810673653185367
1733862542256046000,11.775046142578125,0.019708927342761307,-0.02932107929140329,0.04609130456745624
1733862542265997000,11.7849970703125,-0.020029775061272084,-0.018488135109841822,0.03434825980365276
1733862542275948000,11.794947998046876,-0.06092062490880489,-0.023482582396268843,0.03449965097308159
1733862542285899000,11.80489892578125,-0.09008768268227577,-0.027940730848908423,0.038566169759631154
1733862542295850000,11.81485009765625,-0.09544427781198173,-0.02872691279053688,0.0333007965773344
1733862542305802000,11.824802001953126,-0.07165010871589184,-0.02362725156396627,0.04885024788677692
1733862542315753000,11.8347529296875,-0.05671970262024551,-0.0239528302565217,0.045969724014401435
1733862542325704200,11.8447041015625,-0.044184009641408915,-0.024971651910245418,0.03323708369135856
1733862542335655000,11.854655029296875,-0.05753101900313049,-0.019625614707171914,0.03183656924366951
1733862542345606100,11.864606201171876,-0.07671963053252548,-0.027357378003001212,0.030240239962935445
1733862542355556900,11.874556884765624,-0.06496138819959014,-0.030886428911983965,0.036115269476175306
1733862542365508000,11.884508056640625,-0.043619946017861365,-0.020303952360153196,0.03639057928621769
1733862542375459800,11.8944599609375,-0.03193652248680592,-0.02857961327433586,0.053417117410898204
1733862542385411000,11.9044111328125,-0.01916117553319782,-0.036865211060643194,0.041705052307248115
1733862542395361800,11.91436181640625,0.0012923961644060909,-0.02203063002228737,0.05562427206635475
