time,seconds_elapsed,z,y,x
1733698024806551300,0.02255126953125,0.04368246719241142,-0.01752663217484951,-0.01450052484869957
1733698024816506000,0.032506103515625,0.014978649094700813,-0.00861542671918869,0.005032429471611977
1733698024826460200,0.042460205078125,-0.009834907948970795,-0.016618700698018074,0.011577066965401173
1733698024836415200,0.052415283203125,-0.014182784594595432,-0.023074734956026077,0.015010414645075798
1733698024846369300,0.062369384765625,-0.008541423827409744,-0.015776872634887695,0.015897929668426514
1733698024856323300,0.0723232421875,-0.0008986842585727572,0.003924394492059946,0.013516529463231564
1733698024866278100,0.082278076171875,0.004426517058163881,0.012689266353845596,0.005913984961807728
1733698024876232200,0.092232177734375,0.0065437303856015205,0.008070546202361584,-0.009453252889215946
1733698024886186200,0.102186279296875,0.005675753578543663,0.0022077388130128384,-0.014361212030053139
1733698024896141300,0.112141357421875,-0.0010639082174748182,0.00007720990106463432,-0.010728925466537476
1733698024906095400,0.122095458984375,-0.007423863746225834,-0.00008372630691155791,0.001745171146467328
1733698024916050200,0.13205029296875,-0.010869728401303291,-0.0041008382104337215,0.009247029200196266
1733698024926004200,0.142004150390625,-0.006554770283401012,-0.013361241668462753,0.008023090660572052
1733698024935958300,0.151958251953125,0.0005508095491677523,-0.021670304238796234,0.0025790571235120296
1733698024945913300,0.161913330078125,0.004934648051857948,-0.01671922206878662,-0.0033895017113536596
1733698024955867400,0.171867431640625,0.009121404029428959,-0.006310523487627506,-0.006700876168906689
1733698024965821200,0.1818212890625,0.006063683889806271,0.0040566097013652325,-0.005625071004033089
1733698024975776300,0.1917763671875,0.002754972781985998,0.01657053641974926,-0.0010335147380828857
1733698024985730000,0.20172998046875,-0.0054769678972661495,0.01701987348496914,0.004668796434998512
1733698024995685000,0.21168505859375,-0.008887678384780884,0.009664223529398441,0.006350316107273102
1733698025005639400,0.221639404296875,-0.004512844607234001,0.001670867670327425,0.005877623334527016
1733698025015593200,0.23159326171875,-0.0021498214919120073,-0.002303900197148323,0.005484274588525295
1733698025025548300,0.24154833984375,0.007238865830004215,-0.0023148604668676853,0.005355686880648136
1733698025035502000,0.251502197265625,0.01214680541306734,-0.005844081752002239,0.006236394867300987
1733698025045456100,0.2614560546875,0.016721561551094055,-0.011715861037373543,0.007976813241839409
1733698025055411200,0.2714111328125,0.015290380455553532,-0.01638411544263363,0.007444713730365038
1733698025065365200,0.281365234375,0.010087691247463226,-0.013098450377583504,0.009060856886208057
1733698025075320300,0.2913203125,0.0010896685998886824,-0.00526422867551446,0.011042781174182892
1733698025085274000,0.301274169921875,-0.0064252326264977455,0.005978838540613651,0.00813925452530384
1733698025095228200,0.311228271484375,-0.01343600358814001,0.01808823086321354,0.0044680871069431305
1733698025105183200,0.321183349609375,-0.016188573092222214,0.02782437950372696,-0.0033124813344329596
1733698025115137000,0.331136962890625,-0.016608819365501404,0.03449506312608719,-0.011904638260602951
1733698025125091300,0.34109130859375,-0.009707584977149963,0.0383061058819294,-0.013880932703614235
1733698025135046100,0.351046142578125,-0.0038140099495649338,0.03848693519830704,-0.014113426208496094
1733698025145000200,0.361000244140625,0.0009810132905840874,0.030228247866034508,-0.009402691386640072
1733698025154955300,0.370955322265625,0.0046705566346645355,0.017699938267469406,-0.005836718715727329
1733698025164909000,0.380908935546875,0.005035695619881153,0.010361644439399242,-0.0018237924668937922
1733698025174863000,0.390863037109375,0.008025359362363815,0.0031620541121810675,0.001212477684020996
1733698025184818200,0.400818115234375,0.010087116621434689,-0.0008208271465264261,0.0031066476367413998
1733698025194772200,0.410772216796875,0.008254063315689564,0.002668712753802538,0.0029452601447701454
1733698025204727300,0.420727294921875,0.004580867476761341,0.0057046543806791306,0.003988085314631462
1733698025214681000,0.43068115234375,0.002600274747237563,0.010018975473940372,0.005268266890197992
1733698025224635100,0.44063525390625,0.0013612741604447365,0.011146615259349346,0.005407500080764294
1733698025234590200,0.450590087890625,-0.0038369500543922186,0.017894532531499863,0.006097258534282446
1733698025244544300,0.460544189453125,-0.010118590667843819,0.01816023886203766,0.0016996380873024464
1733698025254498300,0.470498291015625,-0.012508511543273926,0.015838230028748512,-0.004652533680200577
1733698025264453000,0.480453125,-0.00798807479441166,0.011743578128516674,-0.00833552423864603
1733698025274407200,0.4904072265625,-0.003749653697013855,0.0007665607263334095,-0.007365867495536804
1733698025284362200,0.5003623046875,0.00004759477451443672,-0.006519601680338383,-0.0017196626868098974
1733698025294316300,0.51031640625,0.006557159591466188,-0.012657389044761658,0.0006564096547663212
1733698025304270300,0.520270263671875,0.01353849284350872,-0.016968002542853355,-0.0004627625457942486
1733698025314225200,0.53022509765625,0.015065282583236694,-0.0177251398563385,-0.0017456070054322481
1733698025324179200,0.54017919921875,0.013986682519316673,-0.01783010922372341,-0.00034261029213666916
1733698025334133200,0.55013330078125,0.008932800963521004,-0.015638060867786407,0.001873672241345048
1733698025344088300,0.56008837890625,0.006419431418180466,-0.008486694656312466,0.0035082087852060795
1733698025354042400,0.57004248046875,0.004262804053723812,-0.005714344326406717,0.006003590766340494
1733698025363997200,0.5799970703125,0.0029036328196525574,-0.005139161832630634,0.006469427607953548
1733698025373951200,0.589951171875,0.001150740310549736,-0.004442212637513876,0.004508541896939278
1733698025383905300,0.5999052734375,-0.002020576037466526,-0.00374557264149189,0.0033350782468914986
1733698025393860000,0.609860107421875,-0.0048371353186666965,0.001618299982510507,0.001138236722908914
1733698025403814400,0.619814453125,-0.003149098716676235,0.005295840557664633,-0.002124128397554159
1733698025413769200,0.629769287109375,-0.0035243381280452013,0.00905063096433878,-0.002207485493272543
1733698025423723300,0.63972314453125,-0.002564802998676896,0.011946017853915691,-0.004370889626443386
1733698025433677300,0.64967724609375,-0.0025757220573723316,0.010964643210172653,-0.006027642637491226
1733698025443632000,0.659632080078125,-0.002535567618906498,0.008235310204327106,-0.006774529814720154
1733698025453586200,0.669586181640625,-0.0015110494568943977,0.0032085939310491085,-0.0054850270971655846
1733698025463540200,0.679540283203125,-0.0025318413972854614,0.001226939493790269,-0.003377016168087721
1733698025473495300,0.689495361328125,-0.0025704572908580303,0.0014032407198101282,-0.003023880999535322
1733698025483449300,0.699449462890625,-0.0019367404747754335,-0.0002561542787589133,-0.0025232438929378986
1733698025493404200,0.709404052734375,-0.003267788328230381,-0.0007983738905750215,-0.0026971478946506977
1733698025503358200,0.719358154296875,-0.004011919721961021,-0.0007925965473987162,-0.0053445096127688885
1733698025513312000,0.72931201171875,-0.0002187793143093586,-0.0011060505639761686,-0.0033721723593771458
1733698025523267300,0.739267333984375,0.001051340252161026,-0.0004904713132418692,-0.0027606922667473555
1733698025533221000,0.74922119140625,0.0022391099482774734,0.000614207936450839,-0.000504462281242013
1733698025543175200,0.759175048828125,0.003336843801662326,0.002562002744525671,0.0008671089308336377
1733698025553130200,0.769130126953125,0.0013796868734061718,0.0032413750886917114,0.003428803524002433
1733698025563084000,0.779083984375,0.0007837566081434488,0.0017704092897474766,0.00446060486137867
1733698025573039400,0.789039306640625,-0.001985398354008794,-0.003035264788195491,0.004445691592991352
1733698025582993200,0.7989931640625,-0.0012829783372581005,-0.005988690070807934,0.007143851835280657
1733698025592947200,0.808947265625,-0.002390587003901601,-0.002380106830969453,0.006877535488456488
1733698025602902300,0.81890234375,-0.0011921065161004663,0.0018794727511703968,0.0076651982963085175
1733698025612856000,0.82885595703125,-0.0024640322662889957,-0.0014111290220171213,0.0062997955828905106
1733698025622811400,0.838811279296875,-0.0024041691794991493,-0.006374848075211048,0.003763501299545169
1733698025632765200,0.84876513671875,0.0017101485282182693,-0.010232703760266304,-0.0003878341522067785
1733698025642719200,0.85871923828125,0.0006734461057931185,-0.011491724289953709,-0.003626102115958929
1733698025652674300,0.86867431640625,0.003105444833636284,-0.006324658636003733,-0.0042932238429784775
1733698025662628000,0.878628173828125,-0.002968759508803487,0.08582538366317749,0.012227589264512062
1733698025672582100,0.88858203125,-0.05648551508784294,0.4441821873188019,0.03593691438436508
1733698025682537200,0.898537109375,0.01901223137974739,0.002625160850584507,-0.0974176898598671
1733698025692491300,0.9084912109375,0.061400171369314194,-0.19686424732208252,-0.08080489188432693
1733698025702446300,0.9184462890625,0.02528299205005169,-0.19931499660015106,0.010151086375117302
1733698025712400100,0.928400146484375,-0.02953098900616169,-0.12586714327335358,0.08447032421827316
1733698025722354200,0.938354248046875,-0.044881388545036316,-0.06764392554759979,0.08446022123098373
1733698025732309000,0.94830908203125,-0.0024471112992614508,-0.026688767597079277,0.029238779097795486
1733698025742263300,0.95826318359375,0.03860568255186081,0.0007996461354196072,-0.01956106349825859
1733698025752218400,0.96821826171875,0.05757617577910423,0.011642440222203732,-0.032345835119485855
1733698025762172200,0.978172119140625,0.048565126955509186,-0.001180373365059495,-0.016973581165075302
1733698025772126200,0.988126220703125,0.02686569094657898,-0.03415776416659355,0.011090012267231941
1733698025782081000,0.9980810546875,0.006904209032654762,-0.07443784922361374,0.03167510777711868
1733698025792035000,1.00803515625,-0.007207881659269333,-0.09609413892030716,0.03440644592046738
1733698025801989400,1.0179892578125,-0.008227011188864708,-0.08820866793394089,0.03330030292272568
1733698025811944200,1.027944091796875,-0.004316159524023533,-0.056354861706495285,0.02905469387769699
1733698025821898200,1.037898193359375,0.0017985005397349596,-0.01629924215376377,0.01342158392071724
1733698025831853000,1.04785302734375,0.0046057384461164474,0.008235396817326546,-0.006491403561085463
1733698025841807000,1.05780712890625,0.0010625896975398064,0.016915539279580116,-0.025756951421499252
1733698025851761200,1.06776123046875,-0.0069764284417033195,0.020999496802687645,-0.02683340013027191
1733698025861716200,1.07771630859375,-0.014142382889986038,0.021422037854790688,-0.015294216573238373
1733698025871670300,1.087670166015625,-0.015005246736109257,0.008756044320762157,-0.0011075567454099655
1733698025881624300,1.097624267578125,-0.007772471755743027,-0.015314611606299877,0.0052307164296507835
1733698025891579100,1.1075791015625,0.00285354140214622,-0.03545450046658516,0.0033686342649161816
1733698025901533200,1.117533203125,0.01597762294113636,-0.04294832795858383,-0.0045059919357299805
1733698025911488300,1.12748828125,0.02518070861697197,-0.03841216489672661,-0.007498585619032383
1733698025921442300,1.1374423828125,0.027430381625890732,-0.032095205038785934,-0.008510122075676918
1733698025931396400,1.147396240234375,0.022741621360182762,-0.02671109512448311,-0.008326897397637367
1733698025941351200,1.15735107421875,0.011749769560992718,-0.022786764428019524,-0.0030605208594352007
1733698025951305200,1.16730517578125,0.0008931271731853485,-0.017451386898756027,-0.0006245276890695095
1733698025961259000,1.177259033203125,-0.008028531447052956,-0.008741682395339012,0.0008659200975671411
1733698025971214300,1.18721435546875,-0.011119663715362549,0.0021860660053789616,-0.0012369118630886078
1733698025981168400,1.19716845703125,-0.011236281134188175,0.0026447444688528776,-0.001629251753911376
1733698025991123200,1.207123291015625,-0.00479516014456749,0.00988667830824852,-0.00596221536397934
1733698026001077200,1.2170771484375,-0.025684215128421783,0.27298271656036377,-0.025636421516537666
1733698026011031000,1.227031005859375,0.013764125294983387,0.1896824985742569,-0.1053357720375061
1733698026020987100,1.236987060546875,0.05073767155408859,0.1237955242395401,-0.07080111652612686
1733698026030941000,1.24694091796875,0.0007405495271086693,-0.0735420510172844,0.01291269063949585
1733698026040896300,1.256896240234375,-0.07588445395231247,-0.21774423122406006,0.08660554885864258
1733698026050850000,1.26685009765625,-0.10084562003612518,-0.2480236291885376,0.11502458155155182
1733698026060804000,1.27680419921875,-0.05345424264669418,-0.1631971001625061,0.0842108353972435
1733698026070759200,1.28675927734375,0.026504768058657646,-0.04612773284316063,0.017703983932733536
1733698026080713000,1.296712890625,0.09233887493610382,0.03549594432115555,-0.03967536240816116
1733698026090667000,1.3066669921875,0.11211924254894257,0.053407832980155945,-0.06592613458633423
1733698026100622000,1.3166220703125,0.08728566765785217,0.016077790409326553,-0.04819295555353165
1733698026110576000,1.326576171875,0.036081328988075256,-0.04376396909356117,-0.007438869681209326
1733698026120531200,1.33653125,-0.015655316412448883,-0.08731269836425781,0.03068617545068264
1733698026130485000,1.346485107421875,-0.04282435402274132,-0.10503363609313965,0.04809659346938133
1733698026140439000,1.35643896484375,-0.04052576795220375,-0.09789499640464783,0.046216920018196106
1733698026150394000,1.36639404296875,-0.015616955235600471,-0.0650896430015564,0.029176682233810425
1733698026160348200,1.37634814453125,0.017161766067147255,-0.021335238590836525,0.0029465300031006336
1733698026170302200,1.38630224609375,0.038516055792570114,0.011147337965667248,-0.023913312703371048
1733698026180257000,1.396257080078125,0.03842177987098694,0.018618302419781685,-0.03596252202987671
1733698026190211000,1.406211181640625,0.019091226160526276,0.007079892326146364,-0.02905028499662876
1733698026200166100,1.416166259765625,-0.002133576199412346,-0.011763980612158775,-0.0090765580534935
1733698026210120200,1.4261201171875,-0.02026730589568615,-0.032034363597631454,0.015482313930988312
1733698026220074200,1.43607421875,-0.02385038323700428,-0.04770798981189728,0.020686794072389603
1733698026230029000,1.446029052734375,-0.01542840339243412,-0.048477109521627426,0.012885328382253647
1733698026239983000,1.455983154296875,0.0041570765897631645,-0.04200683906674385,-0.0020554009824991226
1733698026249937200,1.465937255859375,0.018798338249325752,-0.028837772086262703,-0.013219371438026428
1733698026259892200,1.475892333984375,0.026696741580963135,-0.01599840633571148,-0.018694831058382988
1733698026269846300,1.48584619140625,0.021091053262352943,-0.01329822838306427,-0.015185849741101265
1733698026279801000,1.495801025390625,0.008868769742548466,-0.015592500567436218,-0.007839977741241455
1733698026289755100,1.505755126953125,-0.0063029928132891655,-0.020617086440324783,0.0012027849443256855
1733698026299709200,1.515709228515625,-0.01392685528844595,-0.022947968915104866,0.00852162204682827
1733698026309664000,1.5256640625,-0.011321217752993107,-0.014738242141902447,0.008311498910188675
1733698026319618300,1.535618408203125,-0.006606211420148611,-0.001441814238205552,0.004524050280451775
1733698026329573000,1.545572998046875,-0.07073113322257996,0.4300757646560669,0.18698173761367798
1733698026339527200,1.555527099609375,-0.21772928535938263,0.20277486741542816,0.057411592453718185
1733698026349481200,1.565481201171875,-0.028691988438367844,0.1693311482667923,-0.09557156264781952
1733698026359436000,1.57543603515625,0.10381493717432022,-0.03818897157907486,-0.1356768012046814
1733698026369390000,1.58539013671875,0.11580449342727661,-0.1922222077846527,-0.13731437921524048
1733698026379344100,1.59534423828125,0.011042265221476555,-0.23589275777339935,-0.03912883251905441
1733698026389299200,1.60529931640625,-0.06017998233437538,-0.15174059569835663,0.0702863410115242
1733698026399253200,1.615253173828125,-0.04723314568400383,-0.03450794890522957,0.07873213291168213
1733698026409208000,1.6252080078125,0.012072254903614521,0.03267987444996834,0.01881074532866478
1733698026419162000,1.635162109375,0.06743177771568298,0.04093223065137863,-0.04179280623793602
1733698026429116000,1.645115966796875,0.0860842913389206,0.01818590797483921,-0.06154227256774902
1733698026439071200,1.6550712890625,0.06489051133394241,-0.005267386324703693,-0.025495417416095734
1733698026449025300,1.665025390625,0.019268427044153214,-0.029605481773614883,0.01700889877974987
1733698026458979000,1.67497900390625,-0.01716531626880169,-0.05994627997279167,0.03919827938079834
1733698026468934100,1.68493408203125,-0.03240818530321121,-0.07666906714439392,0.0440010204911232
1733698026478888000,1.694887939453125,-0.026255832985043526,-0.06615826487541199,0.03813718259334564
1733698026488843300,1.70484326171875,-0.005675457417964935,-0.028007419779896736,0.024859724566340446
1733698026498797000,1.714797119140625,0.014371918514370918,0.0012131116818636656,0.006950301118195057
1733698026508751000,1.724751220703125,0.02713831327855587,0.006165792234241962,-0.00942547619342804
1733698026518706200,1.7347060546875,0.022405343130230904,0.0001715493854135275,-0.015207731164991856
1733698026528660000,1.744659912109375,0.009678629226982594,-0.0062876814045012,-0.004147623665630817
1733698026538615300,1.754615234375,-0.009801763109862804,-0.014354233630001545,0.013125317171216011
1733698026548569000,1.764569091796875,-0.023803066462278366,-0.024384232237935066,0.022105498239398003
1733698026558523100,1.774523193359375,-0.024937547743320465,-0.026207081973552704,0.011754000559449196
1733698026568478200,1.784478271484375,-0.018543830141425133,-0.013924316503107548,-0.008952610194683075
1733698026578432000,1.794431884765625,-0.00777763407677412,0.009280276484787464,-0.026797454804182053
1733698026588386000,1.804385986328125,0.00023794802837073803,0.032611433416604996,-0.03401968255639076
1733698026598341000,1.814341064453125,0.0012317595537751913,0.04723947495222092,-0.03140455484390259
1733698026608295200,1.824295166015625,-0.0056075043976306915,0.04195469990372658,-0.02196923829615116
1733698026618250200,1.834250244140625,-0.013031447306275368,0.029405642300844193,-0.009165743365883827
1733698026628204000,1.8442041015625,-0.01706560328602791,0.017144713550806046,-0.0037382207810878754
1733698026638158000,1.854157958984375,-0.01657659187912941,0.01344597339630127,-0.00022203102707862854
1733698026648113000,1.86411279296875,-0.010471029207110405,0.016445225104689598,-0.004873508121818304
1733698026658067200,1.874067138671875,-0.005475902929902077,0.021276403218507767,-0.010258753784000874
1733698026668021200,1.884021240234375,0.0006730700843036175,0.02826613560318947,-0.012591949664056301
1733698026677976000,1.89397607421875,-0.00048562814481556416,0.030495012179017067,-0.01152860652655363
1733698026687930000,1.90393017578125,-0.0031101733911782503,0.026994287967681885,-0.007154896855354309
1733698026697885000,1.913885009765625,-0.012641526758670807,0.02206445299088955,-0.0020305400248616934
1733698026707839000,1.9238388671875,-0.017908193171024323,0.018659336492419243,0.00023873941972851753
1733698026717793300,1.933793212890625,-0.013632919639348984,0.021724838763475418,-0.000019389204680919647
1733698026727748000,1.943748046875,-0.01110984105616808,0.012797125615179539,0.002111938549205661
1733698026737702100,1.9537021484375,-0.004735099151730537,0.005437047686427832,0.0008548028999939561
1733698026747656200,1.96365625,0.0019286624155938625,0.0025171576999127865,-0.001323929289355874
1733698026757611000,1.973611083984375,0.005651296116411686,0.005352791398763657,0.00013347622007131577
1733698026767565000,1.98356494140625,-0.008100469596683979,0.39401185512542725,-0.003871917724609375
1733698026777520000,1.99352001953125,0.08398383855819702,0.37943166494369507,-0.1589478701353073
1733698026787474200,2.00347412109375,0.06437285244464874,0.2701171636581421,-0.16885429620742798
1733698026797428200,2.01342822265625,-0.05951259285211563,-0.04276825860142708,-0.05695950612425804
1733698026807383000,2.023383056640625,-0.1717861294746399,-0.24767720699310303,0.10514923930168152
1733698026817337000,2.033337158203125,-0.18836617469787598,-0.22743983566761017,0.1796482354402542
1733698026827292200,2.043292236328125,-0.10512538254261017,-0.12103650718927383,0.13914762437343597
1733698026837246200,2.05324609375,0.01630990020930767,-0.01421617902815342,0.03896496072411537
1733698026847200300,2.0632001953125,0.1256430447101593,0.03830615058541298,-0.04933454096317291
1733698026857155000,2.073155029296875,0.16098684072494507,0.039141420274972916,-0.07870690524578094
1733698026867109000,2.083109130859375,0.11341612786054611,0.009777406230568886,-0.0483442060649395
1733698026877063000,2.09306298828125,0.03020230121910572,-0.024177957326173782,0.008634974248707294
1733698026887018200,2.103018310546875,-0.04524664953351021,-0.043992407619953156,0.05364612489938736
1733698026896972300,2.11297216796875,-0.08220292627811432,-0.05550443381071091,0.05933048948645592
1733698026906926000,2.122926025390625,-0.07517004758119583,-0.04539720341563225,0.0470634363591671
1733698026916881200,2.132881103515625,-0.03787323832511902,-0.00130982487462461,0.02242312952876091
1733698026926835000,2.1428349609375,0.00317033426836133,0.05123407766222954,-0.009254371747374535
1733698026936790300,2.152790283203125,0.031166693195700645,0.0767732784152031,-0.03940124437212944
1733698026946744300,2.162744384765625,0.03793618083000183,0.07198145240545273,-0.050323132425546646
1733698026956698000,2.172697998046875,0.021991774439811707,0.048497576266527176,-0.031951334327459335
1733698026966653200,2.182653076171875,0.0007216408848762512,0.018418503925204277,-0.0025886523071676493
1733698026976607000,2.19260693359375,-0.02002522349357605,-0.0070488546043634415,0.024518951773643494
1733698026986562000,2.20256201171875,-0.02140820398926735,-0.023865651339292526,0.032828014343976974
1733698026996516400,2.212516357421875,-0.01380850188434124,-0.025037769228219986,0.0197996124625206
1733698027006470100,2.22247021484375,0.00049027637578547,-0.010325135663151741,0.002346587833017111
1733698027016424200,2.232424072265625,0.0084339315071702,0.14228300750255585,-0.0056377919390797615
1733698027026378200,2.242378173828125,-0.005983890034258366,0.3954388499259949,-0.09313914179801941
1733698027036332000,2.25233203125,0.030542928725481033,0.42771998047828674,-0.1268732100725174
1733698027046287400,2.262287353515625,0.020218918099999428,0.2662554681301117,-0.08732713013887405
1733698027056241200,2.2722412109375,-0.03244708850979805,-0.06984822452068329,-0.00045375083573162556
1733698027066196200,2.2821962890625,-0.0831558033823967,-0.3305234909057617,0.10248914361000061
1733698027076150300,2.292150390625,-0.1283956617116928,-0.3198448717594147,0.17589733004570007
1733698027086104000,2.30210400390625,-0.13385140895843506,-0.1621391475200653,0.14539295434951782
1733698027096059400,2.312059326171875,-0.0671275407075882,0.04031640663743019,0.04073850437998772
1733698027106013200,2.32201318359375,0.03738236054778099,0.18206608295440674,-0.06975072622299194
1733698027115967200,2.33196728515625,0.11673478782176971,0.21778322756290436,-0.13103488087654114
1733698027125922300,2.34192236328125,0.12429816275835037,0.16791020333766937,-0.11609561741352081
1733698027135876000,2.3518759765625,0.07207459211349487,0.07487154006958008,-0.04435848817229271
1733698027145831200,2.3618310546875,-0.001409744843840599,-0.007021996192634106,0.030699778348207474
1733698027155785200,2.37178515625,-0.061565469950437546,-0.07923144102096558,0.08058048039674759
1733698027165739300,2.3817392578125,-0.07529327273368835,-0.11345145851373672,0.09350000321865082
1733698027175694300,2.3916943359375,-0.0453740693628788,-0.09685720503330231,0.0765313133597374
1733698027185648000,2.401648193359375,0.0065636951476335526,-0.04820231348276138,0.04329985752701759
1733698027195602200,2.411602294921875,0.05367780104279518,-0.0063257236033678055,-0.0008432164322584867
1733698027205557000,2.421556884765625,0.07854852825403214,0.009022872895002365,-0.03334389999508858
1733698027215511300,2.43151123046875,0.07134775072336197,0.0008432604372501373,-0.03463781997561455
1733698027225466400,2.44146630859375,0.046061303466558456,-0.023230917751789093,-0.010140201076865196
1733698027235420200,2.451420166015625,0.008933152072131634,-0.04531003534793854,0.021831762045621872
1733698027245374200,2.461374267578125,-0.024082854390144348,-0.058287620544433594,0.04245847463607788
1733698027255329000,2.4713291015625,-0.033475227653980255,-0.05799880996346474,0.03624279424548149
1733698027265283000,2.481282958984375,-0.026784565299749374,-0.040363892912864685,0.01367197185754776
1733698027275238400,2.49123828125,-0.005640341900289059,-0.010684437118470669,-0.014797734096646309
1733698027285192200,2.501192138671875,0.010163121856749058,0.02122049778699875,-0.03386783227324486
1733698027295146200,2.511146240234375,0.010035400278866291,0.04453348368406296,-0.036971427500247955
1733698027305101000,2.52110107421875,0.0004695923998951912,0.048668038100004196,-0.02761388197541237
1733698027315055000,2.53105517578125,-0.012877683155238628,0.04037860408425331,-0.013969887048006058
1733698027325009200,2.541009033203125,-0.02939833700656891,0.031149152666330338,-0.002588069997727871
1733698027334964200,2.550964111328125,-0.03403046354651451,0.02377389371395111,0.002820865251123905
1733698027344918300,2.560918212890625,-0.02788281999528408,0.024388818070292473,0.001579565810970962
1733698027354873000,2.570873046875,-0.012421797960996628,0.02861906588077545,-0.0011491954792290926
1733698027364827100,2.5808271484375,0.0009544615168124437,0.033804237842559814,-0.007133052684366703
1733698027374781200,2.59078125,0.010643167421221733,0.02977219596505165,-0.01049342192709446
1733698027384736300,2.600736328125,0.0097880270332098,0.023536669090390205,-0.0071490248665213585
1733698027394690300,2.610690185546875,0.00455985264852643,0.01585134118795395,-0.00035305856727063656
1733698027404644400,2.620644287109375,-0.004023249261081219,0.010967636480927467,0.00708195473998785
1733698027414599200,2.63059912109375,-0.00941934622824192,0.004643161315470934,0.008692101575434208
1733698027424553200,2.64055322265625,-0.007179361302405596,0.004101474303752184,0.005717883817851543
1733698027434508300,2.65050830078125,-0.0017125897575169802,0.0038073996547609568,0.0015731379389762878
1733698027444462300,2.66046240234375,0.006931232288479805,-0.004320567939430475,0.0005821756785735488
1733698027454416400,2.67041650390625,0.014162924140691757,-0.010704942978918552,0.0011663184268400073
1733698027464371200,2.68037109375,0.022638699039816856,-0.02150219865143299,0.002359148347750306
1733698027474325200,2.6903251953125,0.025739047676324844,-0.027086785063147545,0.0018115523271262646
1733698027484279000,2.700279052734375,0.022658303380012512,-0.029513191431760788,0.004364192485809326
1733698027494234400,2.710234375,0.016668710857629776,-0.028528375551104546,0.0037539503537118435
1733698027504188400,2.7201884765625,0.007019810378551483,-0.01855829916894436,0.0026090573519468307
1733698027514143200,2.730143310546875,-0.0011137672699987888,-0.00461189728230238,0.0020526184234768152
1733698027524097300,2.74009716796875,-0.007299491204321384,0.006361658219248056,0.0012896227417513728
1733698027534051000,2.750051025390625,-0.010178124532103539,0.011592861264944077,-0.0024798905942589045
1733698027544006100,2.760006103515625,-0.01112434547394514,0.012657859362661839,-0.0029970763716846704
1733698027553960400,2.76996044921875,-0.011682754382491112,0.010990537703037262,-0.0025377979036420584
1733698027563914200,2.779914306640625,-0.010424677282571793,0.007688217796385288,-0.001447766087949276
1733698027573869300,2.789869384765625,-0.007046368904411793,0.006152313202619553,0.00002530869096517563
1733698027583823000,2.799822998046875,-0.003979738801717758,0.0077488780952990055,-0.0014396961778402328
1733698027593778200,2.809778076171875,-0.0005984795279800892,0.005246776156127453,-0.002030335832387209
1733698027603732200,2.819732177734375,0.0009679917711764574,0.003218512749299407,-0.0014279286842793226
1733698027613686300,2.829686279296875,0.003153986530378461,-0.00020561617566272616,-0.0024280885700136423
1733698027623641300,2.839641357421875,0.0027470558416098356,-0.0016407936345785856,-0.0030368876177817583
1733698027633595100,2.84959521484375,0.004649104550480843,-0.0034813061356544495,-0.0014933496713638306
1733698027643550200,2.85955029296875,0.0041247280314564705,-0.006247531622648239,0.0015059022698551416
1733698027653504300,2.869504150390625,0.002059455029666424,-0.004133204463869333,0.0024530277587473392
1733698027663458000,2.8794580078125,0.001059970585629344,-0.004214431159198284,0.0024450384080410004
1733698027673413400,2.889413330078125,0.002184781711548567,-0.003312889253720641,0.0006529474630951881
1733698027683367200,2.8993671875,0.0037483233027160168,-0.0002254867576994002,-0.0013710549101233482
1733698027693321200,2.9093212890625,0.0016721019055694342,0.0017166719771921635,-0.00015073874965310097
1733698027703276000,2.919276123046875,0.0016079195775091648,0.005053612403571606,-0.0010716598480939865
1733698027713230000,2.92922998046875,-0.0008825248805806041,0.006117077078670263,-0.0005431899335235357
1733698027723185400,2.939185302734375,-0.0024849488399922848,0.0011457542423158884,-0.0010896704625338316
1733698027733139200,2.94913916015625,-0.0028144835960119963,-0.0011865803971886635,-0.0009537811856716871
1733698027743093200,2.95909326171875,-0.004084278829395771,0.00038308679359033704,0.0012294783955439925
1733698027753048000,2.969048095703125,-0.004580958280712366,0.004497404210269451,-0.00043286685831844807
1733698027763002000,2.979002197265625,-0.003283732570707798,0.007459105923771858,-0.0015444702003151178
1733698027772956200,2.9889560546875,-0.000798657420091331,0.0031180072110146284,-0.0028411755338311195
1733698027782911200,2.9989111328125,-0.00012807338498532772,-0.0056144981645047665,-0.005441219545900822
1733698027792865300,3.008865234375,-0.0006337645463645458,-0.010081025771796703,-0.006239734124392271
1733698027802820000,3.018820068359375,-0.0003655842738226056,-0.009265033528208733,-0.007368914317339659
1733698027812774100,3.028774169921875,0.002138625830411911,-0.0020880005322396755,-0.00831960141658783
1733698027822728200,3.038728271484375,0.0013364814221858978,0.0013778372667729855,-0.007695623207837343
1733698027832683300,3.048683349609375,0.0012340119574218988,0.004591331351548433,-0.005309560336172581
1733698027842637300,3.05863720703125,0.0018116512801498175,0.005156454164534807,-0.0053742751479148865
1733698027852591400,3.06859130859375,0.0009883882012218237,0.0029408070258796215,-0.003332937601953745
1733698027862546200,3.078546142578125,-0.0005229556700214744,0.007600007578730583,-0.0021156063303351402
1733698027872500200,3.088500244140625,-0.003180955071002245,0.013054363429546356,0.0004597496008500457
1733698027882455000,3.098455078125,-0.004688836634159088,0.0070161777548491955,0.004472600761801004
1733698027892409300,3.108409423828125,-0.0012733691837638617,-0.0023640869185328484,0.00500901835039258
1733698027902363400,3.11836328125,0.0016457217279821634,-0.015184544958174229,0.005764024332165718
1733698027912318200,3.128318115234375,0.009928679093718529,-0.023015569895505905,0.008472873829305172
1733698027922272300,3.138272216796875,0.014002249576151371,-0.031450334936380386,0.011719534173607826
1733698027932226300,3.148226318359375,0.01765434630215168,-0.04036666080355644,0.010203327052295208
1733698027942181000,3.15818115234375,0.01609213650226593,-0.04414542019367218,0.011370857246220112
1733698027952135400,3.168135498046875,0.01189673412591219,-0.037799350917339325,0.010925954207777977
1733698027962090200,3.17809033203125,0.001696028746664524,-0.026497693732380867,0.00919916108250618
1733698027972044300,3.188044189453125,-0.010048490948975086,-0.009723733179271221,0.005012095905840397
1733698027981998000,3.197998046875,-0.02039487101137638,0.004765727091580629,-0.0016271648928523064
1733698027991953200,3.207953125,-0.02539358288049698,0.016173992305994034,-0.00727821234613657
1733698028001907200,3.2179072265625,-0.025241250172257423,0.021492857486009598,-0.014516417868435383
1733698028011861200,3.227861328125,-0.020709039643406868,0.024747321382164955,-0.020121926441788673
1733698028021816800,3.23781689453125,-0.009484082460403442,0.018440157175064087,-0.01998850144445896
1733698028031770600,3.2477705078125,0.0033031655475497246,0.007787145208567381,-0.015108284540474415
1733698028041725700,3.2577255859375,0.01589166186749935,-0.00956361461430788,-0.0060615260154008865
1733698028051679500,3.267679443359375,0.023430947214365005,-0.023409903049468994,0.0007522833766415715
1733698028061633800,3.2776337890625,0.03224414959549904,-0.03379356861114502,0.006764901801943779
1733698028071588900,3.2875888671875,0.030829764902591705,-0.03873928263783455,0.01003788411617279
1733698028081542700,3.297542724609375,0.027395617216825485,-0.03764898329973221,0.009226419031620026
1733698028091497700,3.307497802734375,0.021720441058278084,-0.02846449986100197,0.013335100375115871
1733698028101451500,3.317451416015625,0.012245447374880314,-0.01589890755712986,0.013486634008586407
1733698028111405600,3.327405517578125,0.0033625748474150896,-0.0038300545420497656,0.014138242229819298
1733698028121361000,3.33736083984375,-0.001360008493065834,0.006550947204232216,0.010877201333642006
1733698028131314700,3.347314697265625,-0.010864361189305782,0.011139449663460255,0.01002005860209465
1733698028141268700,3.357268798828125,-0.014535528607666492,0.014774132519960403,0.005507598631083965
1733698028151223600,3.3672236328125,-0.01262966450303793,0.015001239255070686,0.0009043746395036578
1733698028161177600,3.377177490234375,-0.011233368888497353,0.001781840343028307,0.0019446053775027394
1733698028171133000,3.3871328125,-0.005219063721597195,-0.01050955057144165,0.004855000879615545
1733698028181086700,3.397086669921875,0.006257295608520508,-0.017349081113934517,0.004993751645088196
1733698028191040800,3.407040771484375,0.014165608212351799,-0.021591905504465103,0.0038486109115183353
1733698028200995600,3.41699560546875,0.01574140042066574,-0.028347812592983246,0.0019468474201858044
1733698028210949600,3.42694970703125,0.015586074441671371,-0.03229660540819168,-0.0004328233189880848
1733698028220903700,3.436903564453125,0.013874992728233337,-0.026132185012102127,0.0032356809824705124
1733698028230858800,3.446858642578125,0.008052956312894821,-0.019523756578564644,0.004560405388474464
1733698028240812800,3.456812744140625,0.0037277156952768564,-0.015021680854260921,0.005521806888282299
1733698028250767600,3.466767578125,0.0015056333504617214,-0.011698467656970024,0.0027193804271519184
1733698028260721700,3.4767216796875,0.0006579491309821606,-0.011423096060752869,-0.0005203550681471825
1733698028270675700,3.48667578125,0.00047558476217091084,-0.011165980249643326,-0.0015483167953789234
1733698028280630800,3.496630859375,0.0013312583323568106,-0.010198719799518585,-0.0012495103292167187
1733698028290584800,3.506584716796875,0.00282045709900558,-0.009469360113143921,-0.002242131857201457
1733698028300539000,3.516538818359375,0.004795190878212452,-0.008543645963072777,0.0027680732309818268
1733698028310493700,3.52649365234375,0.004626654088497162,-0.007247937843203545,0.0018043365562334657
1733698028320447700,3.53644775390625,0.0027512561064213514,-0.009121471084654331,0.00033427169546484947
1733698028330402600,3.546402587890625,0.0022653313353657722,-0.008171580731868744,0.0015055799158290029
1733698028340356900,3.55635693359375,0.001277831383049488,-0.007328157778829336,0.0017655044794082642
1733698028350311000,3.566310791015625,0.0011861047241836786,-0.007323344238102436,-0.001756829209625721
1733698028360265700,3.576265625,0.0002297635655850172,-0.01008504256606102,-0.00033603282645344734
1733698028370219800,3.5862197265625,-0.0005748872645199299,-0.011989406310021877,-0.00016590626910328865
1733698028380173600,3.596173583984375,-0.001330958679318428,-0.011683409102261066,-0.000004252418875694275
1733698028390128600,3.606128662109375,-0.0010984991677105427,-0.012130104005336761,-0.000013102544471621513
1733698028400083000,3.6160830078125,0.002475995570421219,-0.012173513881862164,0.0019525765674188733
1733698028410037800,3.626037841796875,0.004090108443051577,-0.010106941685080528,0.0013767264317721128
1733698028419991800,3.63599169921875,0.004489316139370203,-0.01234506256878376,0.0011935009388253093
1733698028429945600,3.645945556640625,0.004467585124075413,-0.015788324177265167,0.003365358803421259
1733698028439900700,3.655900634765625,0.0035442672669887543,-0.017955604940652847,0.0037991877179592848
1733698028449854700,3.665854736328125,0.0037611329462379217,-0.01737997680902481,0.0032974351197481155
1733698028459808800,3.675808837890625,0.0011717414017766714,-0.01436794176697731,0.005714786238968372
1733698028469763800,3.685763916015625,0.0014034186024218798,-0.01092926412820816,0.003199846250936389
1733698028479717600,3.695717529296875,0.0004007385578006506,-0.010368136689066887,0.002176393521949649
1733698028489672700,3.705672607421875,0.0005791406147181988,-0.011427583172917366,-0.0002948283217847347
1733698028499626800,3.715626708984375,0.000106429448351264,-0.016114480793476105,-0.0031609220895916224
1733698028509580500,3.72558056640625,0.00020282110199332237,-0.01689802296459675,-0.0063102152198553085
1733698028519535900,3.735535888671875,0.00349821662530303,-0.01648390106856823,-0.007317422889173031
1733698028529489700,3.74548974609375,0.005394897889345884,-0.012570425868034363,-0.00738342572003603
1733698028539444700,3.75544482421875,0.006503572221845388,-0.009926706552505493,-0.00629925262182951
1733698028549398800,3.765398681640625,0.005954228341579437,-0.008386477828025818,-0.006566232070326805
1733698028559352600,3.7753525390625,0.004350472707301378,-0.011671753600239754,-0.00731937400996685
1733698028569308000,3.785307861328125,0.003914468456059694,-0.018313759937882423,-0.0058356402441859245
1733698028579261700,3.79526171875,0.004084644373506308,-0.013782922178506851,-0.0009008024353533983
1733698028589215700,3.8052158203125,0.00349471066147089,-0.0025796187110245228,0.0009491157252341509
1733698028599170600,3.815170654296875,0.0013636492658406496,-0.00021260097855702043,0.001949132769368589
1733698028609124600,3.82512451171875,0.0003841822035610676,-0.010359162464737892,0.003485956462100148
1733698028619080000,3.835079833984375,0.005263093393296003,-0.024356737732887268,0.007148602046072483
1733698028629033700,3.84503369140625,0.011253586038947105,-0.03391779214143753,0.012174030765891075
1733698028638987800,3.85498779296875,0.013761751353740692,-0.03988140821456909,0.016568779945373535
1733698028648942600,3.864942626953125,0.015269075520336628,-0.04796361178159714,0.018498696386814117
1733698028658896600,3.874896728515625,0.01597214862704277,-0.05785858631134033,0.01562993973493576
1733698028668850700,3.8848505859375,0.015227834694087505,-0.05424996465444565,0.01682882010936737
1733698028678805800,3.8948056640625,0.008766473270952702,-0.04100020229816437,0.008806847035884857
1733698028688759800,3.904759765625,0.0008150145877152681,-0.026694852858781815,0.007056468166410923
1733698028698714600,3.914714599609375,-0.005758732091635466,-0.013801689259707928,0.00012079766020178795
1733698028708668700,3.924668701171875,-0.01012135948985815,-0.005075780209153891,-0.010650289244949818
1733698028718622700,3.934622802734375,-0.014317702502012253,0.00047211689525283873,-0.016205642372369766
1733698028728577500,3.94457763671875,-0.011630158871412277,0.0051755476742982864,-0.019650213420391083
1733698028738531800,3.95453173828125,-0.00684499042108655,0.005476751364767551,-0.017665889114141464
1733698028748486000,3.96448583984375,-0.0005681280745193362,0.0015122259501367807,-0.012914792634546757
1733698028758440700,3.974440673828125,0.007498054299503565,-0.010193431749939919,-0.007039060816168785
1733698028768394800,3.984394775390625,0.011597517877817154,-0.021308012306690216,-0.0035979722160845995
1733698028778349600,3.994349609375,0.01539332140237093,-0.02681276760995388,-0.0017018013168126345
1733698028788303600,4.0043037109375,0.01630471833050251,-0.028232377022504807,-0.005499717313796282
1733698028798258000,4.0142578125,0.014331315644085407,-0.02608720026910305,-0.009131469763815403
1733698028808212700,4.024212646484375,0.009774727746844292,-0.020291464403271675,-0.012595616281032562
1733698028818166800,4.034166748046875,0.005835645832121372,-0.01292010024189949,-0.011879758909344673
1733698028828120800,4.044120849609375,0.00489149522036314,-0.007483381778001785,-0.008550144731998444
1733698028838075600,4.05407568359375,0.0013044837396591902,-0.005234608426690102,-0.008265452459454536
1733698028848029700,4.06402978515625,-0.004259290173649788,-0.007911943830549717,-0.008428122848272324
1733698028857984800,4.07398486328125,-0.003961282782256603,-0.0013669587206095457,-0.006197192706167698
1733698028867938800,4.083938720703125,-0.00521507766097784,-0.0018651948776096106,-0.005618263967335224
1733698028877892600,4.093892578125,-0.003485088236629963,-0.007899651303887367,-0.0018150040414184332
1733698028887847700,4.10384765625,-0.0029316835571080446,-0.005736632272601128,0.002226609271019697
1733698028897801700,4.1138017578125,-0.00012018438428640366,-0.002926731016486883,0.004568060860037804
1733698028907756800,4.1237568359375,0.0006697403732687235,-0.006922231521457434,0.004473859444260597
1733698028917710800,4.1337109375,0.0011533703655004501,-0.005212215706706047,0.003444813657552004
1733698028927664600,4.14366455078125,0.001130579737946391,0.006632706616073847,0.0028797280974686146
1733698028937619700,4.15361962890625,-0.0018417744431644678,0.018991105258464813,0.0029774659778922796
1733698028947573800,4.16357373046875,-0.0062683578580617905,0.02680053748190403,0.005825338885188103
1733698028957527600,4.173527587890625,-0.010811977088451385,0.03179556503891945,0.007864787243306637
1733698028967483000,4.18348291015625,-0.01558231096714735,0.03614567220211029,0.008405433967709541
1733698028977436700,4.193436767578125,-0.016366079449653625,0.04162832349538803,0.006368914619088173
1733698028987391700,4.203391845703125,-0.019279129803180695,0.0463094636797905,0.002179935807362199
1733698028997345800,4.213345703125,-0.01973612792789936,0.05649792030453682,0.0009535501012578607
1733698029007299600,4.223299560546875,-0.023276574909687042,0.06534938514232635,-0.001296468311920762
1733698029017255000,4.2332548828125,-0.025234531611204147,0.07029780000448227,-0.005429960787296295
1733698029027208700,4.243208740234375,-0.025307022035121918,0.07324047386646271,-0.008773726411163807
1733698029037162800,4.253162841796875,-0.0246548131108284,0.07357576489448547,-0.01056470163166523
1733698029047117800,4.263117919921875,-0.024041885510087013,0.07288229465484619,-0.011297076940536499
1733698029057071600,4.273071533203125,-0.02233985997736454,0.06875493377447128,-0.008265867829322815
1733698029067027000,4.28302685546875,-0.018232688307762146,0.06450114399194717,-0.005086938850581646
1733698029076980700,4.292980712890625,-0.015753552317619324,0.05810317024588585,-0.004516489803791046
1733698029086934800,4.302934814453125,-0.013551960699260235,0.052027348428964615,-0.004456067457795143
1733698029096889900,4.312889892578125,-0.009237905964255333,0.04400430992245674,-0.003439006395637989
1733698029106843600,4.32284375,-0.008021988905966282,0.04042406007647514,-0.0010751597583293915
1733698029116797700,4.332797607421875,-0.0067676398903131485,0.04083019122481346,0.0010527060367166996
1733698029126752800,4.342752685546875,-0.007726726122200489,0.04356296360492706,0.0015302360989153385
1733698029136706800,4.352706787109375,-0.006081691477447748,0.04702187702059746,0.0037225503474473953
1733698029146661600,4.36266162109375,-0.007911406457424164,0.04933379217982292,0.005301649682223797
1733698029156615700,4.37261572265625,-0.011730911210179329,0.051946353167295456,0.003249684115871787
1733698029166569700,4.38256982421875,-0.012537108734250069,0.04618101567029953,0.005045968107879162
1733698029176524500,4.392524658203125,-0.01663464866578579,0.04497753456234932,0.005839323624968529
1733698029186478800,4.402478759765625,-0.016781309619545937,0.050153546035289764,0.005471664480865002
1733698029196433700,4.41243359375,-0.01679222844541073,0.05026699975132942,0.005496963858604431
1733698029206387700,4.4223876953125,-0.015347463078796864,0.04291641339659691,0.0021564133930951357
1733698029216341800,4.432341796875,-0.012654207646846771,0.03223713859915733,0.003323410637676716
1733698029226296600,4.442296630859375,-0.009103517048060894,0.021606655791401863,0.00002701813355088234
1733698029236250600,4.452250732421875,-0.008146376349031925,0.015957294031977654,-0.0028135094325989485
1733698029246205000,4.462204833984375,-0.002731138840317726,0.010270030237734318,-0.001465213019400835
1733698029256159700,4.47215966796875,0.002012483775615692,0.007932840846478939,-0.0026604398153722286
1733698029266113800,4.48211376953125,0.004028242081403732,0.006999175064265728,-0.003153403988108039
1733698029276068600,4.492068603515625,0.0051470352336764336,0.00027602509362623096,-0.0063910093158483505
1733698029286022700,4.502022705078125,0.006657093297690153,-0.005017728079110384,-0.007850892841815948
1733698029295976700,4.511976806640625,0.007082134019583464,-0.0029364675283432007,-0.004493711981922388
1733698029305931800,4.521931884765625,0.004767036065459251,0.002563189947977662,-0.004168674349784851
1733698029315885800,4.5318857421875,0.0025616728235036135,0.004328066948801279,-0.002064510714262724
1733698029325840000,4.54183984375,0.0030614943243563175,0.0010224676225334406,-0.0006744908168911934
1733698029335794700,4.551794677734375,0.005541429854929447,-0.0037232856266200542,-0.0005514526274055243
1733698029345748700,4.561748779296875,0.009562227874994278,-0.010934139601886272,0.0011079016840085387
1733698029355703800,4.571703857421875,0.011554539203643799,-0.014940332621335983,0.004626470152288675
1733698029365657900,4.581657958984375,0.012439509853720665,-0.021468810737133026,0.00738192442804575
1733698029375612000,4.59161181640625,0.010855995118618011,-0.02359880693256855,0.0047081103548407555
1733698029385566700,4.601566650390625,0.005954672582447529,-0.021273145452141762,0.002302800538018346
1733698029395520800,4.611520751953125,-0.002356786746531725,-0.0049993665888905525,0.0004071624716743827
1733698029405474600,4.621474609375,-0.012961271218955517,0.009145129472017288,0.00003189127892255783
1733698029415430000,4.631429931640625,-0.022387264296412468,0.020389262586832047,-0.004349008668214083
1733698029425383700,4.6413837890625,-0.02897190861403942,0.025595249608159065,-0.01152414083480835
1733698029435338800,4.6513388671875,-0.02800198644399643,0.028488242998719215,-0.018822800368070602
1733698029445292800,4.661292724609375,-0.02159183844923973,0.029948558658361435,-0.019306937232613564
1733698029455246600,4.67124658203125,-0.013625525869429111,0.028509385883808136,-0.019194284453988075
1733698029465202000,4.681201904296875,-0.006309760268777609,0.02316933684051037,-0.016094880178570747
1733698029475155700,4.69115576171875,-0.0006553365383297205,0.01309726107865572,-0.011920109391212463
1733698029485110800,4.70111083984375,0.006191241089254618,0.0013100890209898353,-0.006891107652336359
1733698029495064800,4.71106494140625,0.009807014837861061,-0.008682090789079666,-0.0033789309673011303
1733698029505018600,4.7210185546875,0.011010721325874329,-0.013966681435704231,-0.0020934841595590115
1733698029514973700,4.7309736328125,0.009794189594686031,-0.017055416479706764,-0.002273780293762684
1733698029524927700,4.740927734375,0.0065972935408353806,-0.017270414158701897,-0.00206398474983871
1733698029534881800,4.7508818359375,0.004678219556808472,-0.015646152198314667,-0.000829609576612711
1733698029544836900,4.7608369140625,-0.00017533288337290287,-0.009801190346479416,-0.0005568834021687508
1733698029554790700,4.770790771484375,-0.000298104714602232,-0.008660025894641876,-0.00011453218758106232
1733698029564745700,4.780745849609375,-0.0018025864847004414,-0.012398961000144482,-0.0001993575133383274
1733698029574699500,4.790699462890625,-0.0008739421609789133,-0.01692979596555233,-0.0009050951339304447
1733698029584653800,4.80065380859375,0.0015159391332417727,-0.015081909485161304,-0.002367231994867325
1733698029594609000,4.81060888671875,0.004917061887681484,-0.024617092683911324,0.0005044545978307724
1733698029604562700,4.820562744140625,0.0043882811442017555,-0.04172925651073456,0.0009962290059775114
1733698029614516700,4.830516845703125,0.010033383965492249,-0.04872511327266693,0.0013144767144694924
1733698029624471600,4.840471435546875,0.015792345628142357,-0.05835188925266266,-0.0017915749922394753
1733698029634425600,4.850425537109375,0.018366025760769844,-0.06366649270057678,-0.004253134597092867
1733698029644381000,4.860380859375,0.02171253226697445,-0.0665012001991272,-0.005424615927040577
1733698029654334700,4.870334716796875,0.021800950169563293,-0.060609493404626846,-0.006303459405899048
1733698029664288800,4.880288818359375,0.016884593293070793,-0.051488496363162994,-0.00475463317707181
1733698029674243600,4.89024365234375,0.011472516693174839,-0.035127099603414536,-0.005022547207772732
1733698029684197600,4.90019775390625,0.0037215957418084145,-0.019401790574193,-0.0044892532750964165
1733698029694153000,4.910153076171875,-0.004073210060596466,-0.005388237070292234,-0.006160652730613947
1733698029704106800,4.920106689453125,-0.009682093746960163,0.008322781883180141,-0.008821150287985802
1733698029714060800,4.930060791015625,-0.010695426724851131,0.02175789512693882,-0.010448075830936432
1733698029724015600,4.940015625,-0.014584120362997055,0.034220289438962936,-0.00962010957300663
1733698029733969700,4.9499697265625,-0.013459468260407448,0.04523991793394089,-0.008882680907845497
1733698029743923700,4.959923828125,-0.012813971377909184,0.05030298978090286,-0.008140446618199348
1733698029753878800,4.969878662109375,-0.010430974885821342,0.05150673910975456,-0.00530817499384284
1733698029763832800,4.979832763671875,-0.007133374456316233,0.04772431403398514,-0.005274944473057985
1733698029773787600,4.98978759765625,-0.008062285371124744,0.04288002476096153,-0.00244560232385993
1733698029783741700,4.99974169921875,-0.006993250921368599,0.035055309534072876,-0.0008769340347498655
1733698029793695700,5.00969580078125,-0.005666197277605534,0.02744186483323574,0.0009601145284250379
1733698029803650800,5.01965087890625,-0.003364836797118187,0.021950939670205116,0.002900382038205862
1733698029813604900,5.02960498046875,-0.00171341048553586,0.01614098623394966,0.007451192010194063
1733698029823559700,5.0395595703125,-0.0018008013721555471,0.011828446760773659,0.009203105233609676
1733698029833513700,5.049513671875,-0.001202122773975134,0.006753261666744947,0.008456621319055557
1733698029843467800,5.0594677734375,0.000020927051082253456,0.0029134992510080338,0.007145938463509083
1733698029853422600,5.069422607421875,0.0007799279410392046,-0.00046578579349443316,0.0062362030148506165
1733698029863377000,5.079376953125,0.0056828903034329414,-0.0005489858449436724,0.005376272369176149
1733698029873331000,5.0893310546875,0.005443738307803869,-0.0013380805030465126,0.003846286330372095
1733698029883285800,5.09928564453125,0.0069397324696183205,-0.002210056409239769,0.0049193245358765125
1733698029893239800,5.10923974609375,0.006628142669796944,-0.002671315800398588,0.0038239662535488605
1733698029903194600,5.119194580078125,0.006535997614264488,-0.00447480846196413,0.004704141058027744
1733698029913148700,5.129148681640625,0.006946923211216927,-0.010383297689259052,0.004196542780846357
1733698029923103000,5.13910302734375,0.005549552850425243,-0.015398876741528511,0.003858511568978429
1733698029933057800,5.149057861328125,0.00814400427043438,-0.015181830152869225,0.004433754365891218
1733698029943011800,5.15901171875,0.005822536535561085,-0.012540724128484726,0.004762464202940464
1733698029952966700,5.168966552734375,0.0034035872668027878,-0.01337349507957697,0.006199772469699383
1733698029962920700,5.178920654296875,0.0005664825439453125,-0.015448180958628654,0.00313935405574739
1733698029972874800,5.188874755859375,0.00013398518785834312,-0.015509167686104774,-0.0016655211802572012
1733698029982829800,5.198829833984375,-0.0011993362568318844,-0.014784542843699455,-0.00475623132660985
1733698029992784000,5.208783935546875,-0.0017881612293422222,-0.007146329618990421,-0.007909946143627167
1733698030002737700,5.218737548828125,-0.0024499387945979834,-0.00006760249380022287,-0.005160955712199211
1733698030012692700,5.228692626953125,-0.0013023826759308577,0.006918934173882008,-0.006745536811649799
1733698030022646800,5.238646728515625,-0.0018758628284558654,0.011278857477009296,-0.005667155142873526
1733698030032601600,5.2486015625,-0.0017517595551908016,0.008964570239186287,-0.005243712104856968
1733698030042556000,5.258555908203125,0.0007024270016700029,0.007686678320169449,-0.003967669326812029
1733698030052509700,5.268509765625,0.0009106863290071487,0.018000302836298943,-0.0018086442723870277
1733698030062464800,5.27846484375,-0.0008558122208341956,0.020681269466876984,0.00011458620429039001
1733698030072418800,5.288418701171875,-0.0009207933908328414,0.013744267635047436,0.0039292979054152966
1733698030082373600,5.29837353515625,0.0003641017246991396,0.0019289867486804724,0.00528102507814765
1733698030092327700,5.30832763671875,0.0066630104556679726,-0.011804934591054916,0.008614770136773586
1733698030102281700,5.31828173828125,0.012034112587571144,-0.020020971074700356,0.011930053122341633
1733698030112236800,5.32823681640625,0.01700383797287941,-0.029339104890823364,0.013530612923204899
1733698030122190600,5.338190673828125,0.02119983732700348,-0.03602460399270058,0.015769705176353455
1733698030132145700,5.348145751953125,0.018880221992731094,-0.03617800027132034,0.01051156036555767
1733698030142099700,5.358099609375,0.012998365797102451,-0.028010886162519455,0.009377319365739822
1733698030152053500,5.368053466796875,0.003415512852370739,-0.01564236730337143,0.009260939434170723
1733698030162008800,5.3780087890625,-0.009582063183188438,0.0012100741732865572,0.0065450905822217464
1733698030171962600,5.387962646484375,-0.017092710360884666,0.012073907069861889,0.001159113715402782
1733698030181916700,5.397916748046875,-0.022591423243284225,0.021125562489032745,-0.004865463823080063
1733698030191871700,5.407871826171875,-0.02310195192694664,0.026535242795944214,-0.009807758033275604
1733698030201825500,5.417825439453125,-0.01685173250734806,0.03145098313689232,-0.014798726886510849
1733698030211780900,5.42778076171875,-0.010759218595921993,0.03240945562720299,-0.012782181613147259
1733698030221734700,5.437734619140625,-0.004032549448311329,0.024578290060162544,-0.006994995288550854
1733698030231688700,5.447688720703125,-0.001225844258442521,0.011893119663000107,-0.0036386142019182444
1733698030241643800,5.457643798828125,0.0015590819530189037,0.0019705737940967083,-0.0007292400114238262
1733698030251597600,5.46759765625,0.005929063074290752,-0.005475624464452267,0.002706503961235285
1733698030261553000,5.477552978515625,0.006692427210509777,-0.011173783801496029,0.006872004829347134
1733698030271506700,5.487506591796875,0.004877482540905476,-0.012606031261384487,0.006139901466667652
1733698030281460700,5.497460693359375,0.001818944001570344,-0.010395403020083904,0.004553121514618397
1733698030291415800,5.507415771484375,-0.00014114240184426308,-0.0044815875589847565,0.0029632144141942263
1733698030301369600,5.51736962890625,-0.0034183263778686523,-0.0000400296994484961,0.0043466584756970406
1733698030311323600,5.52732373046875,-0.006405327469110489,0.004180281423032284,0.0025221267715096474
1733698030321278700,5.53727880859375,-0.005263670347630978,0.003243032144382596,0.0015027552144601941
1733698030331232800,5.547232666015625,0.0016890440601855516,0.004471814725548029,-0.0020403144881129265
1733698030341187800,5.557187744140625,0.0070674000307917595,-0.0033422252163290977,0.0010205069556832314
1733698030351141600,5.5671416015625,0.009898606687784195,-0.015765339136123657,0.004800331778824329
1733698030361095700,5.577095703125,0.01708836294710636,-0.023361966013908386,0.007517777383327484
1733698030371050500,5.587050537109375,0.021093225106596947,-0.02795085869729519,0.006964372470974922
1733698030381004800,5.5970048828125,0.024176325649023056,-0.03375529870390892,0.007040891796350479
1733698030390959600,5.606959716796875,0.02179093286395073,-0.03359071537852287,0.007234503515064716
1733698030400913700,5.61691357421875,0.01822303980588913,-0.027679694816470146,0.0070038847625255585
1733698030410867700,5.62686767578125,0.009560043923556805,-0.015920506790280342,0.007943447679281235
1733698030420822500,5.636822509765625,0.0019281958229839802,-0.006486826576292515,0.007591806817799807
1733698030430776600,5.646776611328125,-0.00413395743817091,0.00048186673666350543,0.007395797874778509
1733698030440731000,5.65673095703125,-0.012157538905739784,0.0004876774619333446,0.007401048205792904
1733698030450685700,5.666685791015625,-0.014187666587531567,0.000027749512810260057,0.0037695621140301228
1733698030460639700,5.6766396484375,-0.014801454730331898,-0.0003419907880015671,-0.0000723677221685648
1733698030470594600,5.686594482421875,-0.015449401922523975,0.009196653962135315,-0.007244260981678963
1733698030480548600,5.696548583984375,-0.023776307702064514,0.031094228848814964,-0.019120628014206886
1733698030490502700,5.706502685546875,-0.035573847591876984,0.0468931645154953,-0.033009279519319534
1733698030500457700,5.716457763671875,-0.04052671045064926,0.05824797973036766,-0.050770457834005356
1733698030510411800,5.726411865234375,-0.03473673388361931,0.05973748862743378,-0.07448457926511765
1733698030520366600,5.73636669921875,-0.0206969752907753,0.026043111458420753,-0.09337471425533295
1733698030530320600,5.746320556640625,0.019359629601240158,-0.05394519865512848,-0.09792658686637878
1733698030540274700,5.756274658203125,0.07975469529628754,-0.17180731892585754,-0.07227042317390442
1733698030550229800,5.766229736328125,0.1407618522644043,-0.308699369430542,-0.022129490971565247
1733698030560183800,5.776183837890625,0.200750470161438,-0.44734764099121094,0.04569517448544502
1733698030570137900,5.786137939453125,0.2520224452018738,-0.5660713315010071,0.11659065634012222
1733698030580092700,5.7960927734375,0.29375654458999634,-0.6477835178375244,0.17306512594223022
1733698030590046700,5.806046630859375,0.29400235414505005,-0.7221208810806274,0.21623922884464264
1733698030600001800,5.816001708984375,0.29767289757728577,-0.7853842377662659,0.23476161062717438
1733698030609955800,5.825955810546875,0.312858521938324,-0.8098195791244507,0.2229936271905899
1733698030619910000,5.835909912109375,0.30968213081359863,-0.8220213651657104,0.18848787248134613
1733698030629864700,5.84586474609375,0.29290449619293213,-0.8163051605224609,0.1453009843826294
1733698030639818800,5.85581884765625,0.2488555908203125,-0.7759293913841248,0.09414821863174438
1733698030649773600,5.865773681640625,0.18483880162239075,-0.6823259592056274,0.05019008368253708
1733698030659728000,5.875727783203125,0.11093384027481079,-0.5534067749977112,0.020295102149248123
1733698030669681700,5.885681640625,0.039218105375766754,-0.40869221091270447,0.01067789550870657
1733698030679636700,5.89563671875,-0.020308542996644974,-0.2553155720233917,0.008587184362113476
1733698030689590800,5.9055908203125,-0.06785422563552856,-0.0979379415512085,0.0007207393646240234
1733698030699545600,5.915545654296875,-0.10598878562450409,0.0356239378452301,-0.020144948735833168
1733698030709499600,5.925499755859375,-0.136274516582489,0.1363004893064499,-0.0607866495847702
1733698030719453700,5.93545361328125,-0.15359708666801453,0.19582924246788025,-0.09691008925437927
1733698030729408800,5.94540869140625,-0.15662802755832672,0.21113362908363342,-0.12182290107011795
1733698030739362800,5.95536279296875,-0.14517247676849365,0.188820019364357,-0.12980686128139496
1733698030749316600,5.965316650390625,-0.12250896543264389,0.1502891331911087,-0.12733465433120728
1733698030759271700,5.975271728515625,-0.09648158401250839,0.11244384199380875,-0.11534305661916733
1733698030769225500,5.9852255859375,-0.07099033892154694,0.07948669046163559,-0.09601543843746185
1733698030779180800,5.995180908203125,-0.044116463512182236,0.044430799782276154,-0.07264948636293411
1733698030789134800,6.005134765625,-0.019308051094412804,0.015601551160216331,-0.052749812602996826
1733698030799088600,6.015088623046875,0.007067624479532242,-0.013968853279948235,-0.03687938302755356
1733698030809043700,6.025043701171875,0.025561679154634476,-0.04400291666388512,-0.021623732522130013
1733698030818997500,6.03499755859375,0.047740183770656586,-0.06270425766706467,-0.008739124983549118
1733698030828952800,6.044952880859375,0.0588516928255558,-0.08904984593391418,0.0054214345291256905
1733698030838907000,6.054906982421875,0.0669386014342308,-0.12248510867357254,0.01726590096950531
1733698030848860700,6.064860595703125,0.0718902200460434,-0.15228508412837982,0.02658430114388466
1733698030858815700,6.074815673828125,0.07346616685390472,-0.17460262775421143,0.03243274241685867
1733698030868769500,6.08476953125,0.07586993277072906,-0.17889776825904846,0.04024965316057205
1733698030878723600,6.0947236328125,0.07726732641458511,-0.16924159228801727,0.038774292916059494
1733698030888679000,6.104678955078125,0.07251491397619247,-0.15140986442565918,0.03526131808757782
1733698030898632700,6.1146328125,0.05737815797328949,-0.12141630053520203,0.030426770448684692
1733698030908587800,6.124587890625,0.034710127860307693,-0.08789535611867905,0.025069288909435272
1733698030918541600,6.13454150390625,0.01598276197910309,-0.04905293136835098,0.026871494948863983
1733698030928495600,6.14449560546875,-0.005554487928748131,-0.02117016538977623,0.03022308275103569
1733698030938450700,6.15445068359375,-0.02707313746213913,0.0033050039783120155,0.023440483957529068
1733698030948404700,6.16440478515625,-0.0473557747900486,0.032462090253829956,0.009954768233001232
1733698030958359800,6.17435986328125,-0.055680159479379654,0.07651155441999435,-0.010911477729678154
1733698030968313600,6.184313720703125,-0.05515684932470322,0.12417255342006683,-0.034932125359773636
1733698030978267600,6.194267578125,-0.05753855034708977,0.15952512621879578,-0.058309148997068405
1733698030988222700,6.20422265625,-0.06071862950921059,0.17973479628562927,-0.07563646882772446
1733698030998176800,6.2141767578125,-0.07090315967798233,0.184290811419487,-0.08551785349845886
1733698031008131800,6.2241318359375,-0.07969531416893005,0.1869310587644577,-0.08324245363473892
1733698031018085400,6.23408544921875,-0.08728227019309998,0.1908797174692154,-0.06961025297641754
1733698031028039700,6.244039794921875,-0.0920163094997406,0.1980140656232834,-0.056566353887319565
1733698031037994500,6.253994384765625,-0.08641635626554489,0.20271851122379303,-0.04260244965553284
1733698031047948500,6.263948486328125,-0.06444314867258072,0.2060365378856659,-0.036679577082395554
1733698031057902600,6.273902587890625,-0.043973635882139206,0.19533446431159973,-0.0393080934882164
1733698031067857400,6.283857421875,-0.024664387106895447,0.17212608456611633,-0.04341362416744232
1733698031077811500,6.2938115234375,-0.009852645918726921,0.14507564902305603,-0.04209423065185547
1733698031087766500,6.3037666015625,-0.005094642750918865,0.11280957609415054,-0.03436041250824928
1733698031097720600,6.313720458984375,-0.001363443909212947,0.07885260879993439,-0.02523261494934559
1733698031107674600,6.323674560546875,0.0050523774698376656,0.03859919682145119,-0.010388420894742012
1733698031117629400,6.33362939453125,0.015590699389576912,0.00392280425876379,0.002954720752313733
1733698031127583500,6.34358349609375,0.025128277018666267,-0.015692973509430885,0.014314967207610607
1733698031137538600,6.35353857421875,0.032246582210063934,-0.026270857080817223,0.02220943197607994
1733698031147492600,6.36349267578125,0.036104969680309296,-0.03213087469339371,0.024208402261137962
1733698031157446700,6.37344677734375,0.041891999542713165,-0.03268831595778465,0.02442522719502449
1733698031167401500,6.3834013671875,0.03766423091292381,-0.029395850375294685,0.022486979141831398
1733698031177355500,6.39335546875,0.02729431539773941,-0.023312650620937347,0.023230139166116714
1733698031187309600,6.4033095703125,0.014795301482081413,-0.013448835350573063,0.02194276824593544
1733698031197264600,6.4132646484375,0.0008437470532953739,-0.0008897095103748143,0.0197349451482296
1733698031207218700,6.42321875,-0.009075729176402092,0.01423597987741232,0.01631012186408043
1733698031217173500,6.433173583984375,-0.017824143171310425,0.0279447752982378,0.008054801262915134
1733698031227127600,6.44312744140625,-0.02229931950569153,0.04381135478615761,0.001726597547531128
1733698031237081600,6.45308154296875,-0.028203565627336502,0.05967682972550392,-0.006724368315190077
1733698031247036700,6.46303662109375,-0.03096313402056694,0.07855917513370514,-0.010232551023364067
1733698031256990700,6.47299072265625,-0.028726959601044655,0.0910622850060463,-0.011903924867510796
1733698031266945500,6.482945556640625,-0.028844937682151794,0.09491827338933945,-0.011362504214048386
1733698031276899600,6.492899658203125,-0.030709147453308105,0.09530948847532272,-0.012583949603140354
1733698031286853600,6.502853515625,-0.027380995452404022,0.1010507345199585,-0.014547497034072876
1733698031296808400,6.512808349609375,-0.016491368412971497,0.11783415824174881,-0.014587891288101673
1733698031306762800,6.5227626953125,-0.020040031522512436,0.12396475672721863,-0.01736903190612793
1733698031316716500,6.532716552734375,-0.02157670073211193,0.13332359492778778,-0.021280519664287567
1733698031326671600,6.542671630859375,-0.01910768263041973,0.14075355231761932,-0.02147466503083706
1733698031336625700,6.552625732421875,-0.013185004703700542,0.1411084085702896,-0.020874755457043648
1733698031346580500,6.56258056640625,-0.008611291646957397,0.13378576934337616,-0.01686589978635311
1733698031356534500,6.572534423828125,-0.005503231659531593,0.11387524753808975,-0.010824862867593765
1733698031366488600,6.582488525390625,-0.003160448744893074,0.09089163690805435,-0.012075217440724373
1733698031376443600,6.592443603515625,-0.002743246266618371,0.062125250697135925,-0.0053382255136966705
1733698031386397700,6.602397705078125,0.0026150336489081383,0.038414593786001205,0.0022304782178252935
1733698031396352500,6.6123525390625,0.010534713976085186,0.015297256410121918,0.01248620729893446
1733698031406306600,6.622306640625,0.017300739884376526,-0.007125495001673698,0.02082403190433979
1733698031416260600,6.632260498046875,0.02501819096505642,-0.022629063576459885,0.02735486440360546
1733698031426215700,6.642215576171875,0.023607781156897545,-0.025814469903707504,0.02921108901500702
1733698031436169700,6.652169677734375,0.02383248880505562,-0.023504890501499176,0.028299691155552864
1733698031446124500,6.66212451171875,0.016846220940351486,-0.018735434859991074,0.02591536194086075
1733698031456078600,6.67207861328125,0.008417299948632717,-0.011160063557326794,0.02128371223807335
1733698031466032400,6.682032470703125,0.0014198445715010166,-0.00006853061495348811,0.015226617455482483
1733698031475987700,6.69198779296875,-0.007377765141427517,0.012580174021422863,0.00719969579949975
1733698031485941800,6.701941650390625,-0.01080152578651905,0.024358801543712616,0.0003452517557889223
1733698031495895600,6.7118955078125,-0.0134078748524189,0.03382357209920883,-0.0027043591253459454
1733698031505850600,6.7218505859375,-0.01518899668008089,0.035996176302433014,-0.004962187260389328
1733698031515804400,6.731804443359375,-0.016910161823034286,0.036734439432621,-0.007455069106072187
1733698031525759700,6.741759765625,-0.015171385370194912,0.03448300436139107,-0.00737757096067071
1733698031535713800,6.7517138671875,-0.01399181131273508,0.03481847420334816,-0.008261793293058872
1733698031545667600,6.76166748046875,-0.01091852318495512,0.03861561045050621,-0.008064985275268555
1733698031555622700,6.77162255859375,-0.009749950841069221,0.03851809725165367,-0.007724738214164972
1733698031565576400,6.781576416015625,-0.009544621221721172,0.02846919186413288,-0.007060812320560217
1733698031575531500,6.791531494140625,-0.0027955956757068634,0.008667604066431522,-0.0028462987393140793
1733698031585485800,6.80148583984375,0.004309451673179865,-0.004288142081350088,0.001808374421671033
1733698031595439600,6.811439697265625,0.008620265871286392,-0.015866635367274284,0.010063651949167252
1733698031605394700,6.821394775390625,0.01365577057003975,-0.02186300791800022,0.015984658151865005
1733698031615348500,6.831348388671875,0.0210597924888134,-0.026224354282021523,0.0185246579349041
1733698031625303600,6.841303466796875,0.022393768653273582,-0.020040493458509445,0.016266565769910812
1733698031635257600,6.851257568359375,0.018584877252578735,-0.0087844617664814,0.014577141962945461
1733698031645211600,6.861211669921875,0.006095452234148979,0.006711408030241728,0.010267081670463085
1733698031655166700,6.871166748046875,-0.00958198681473732,0.022651085630059242,0.007821638137102127
1733698031665120500,6.88112060546875,-0.019978700205683708,0.03452718257904053,0.0027286082040518522
1733698031675074600,6.891074462890625,-0.027237411588430405,0.047571081668138504,-0.0025652232579886913
1733698031685029600,6.901029541015625,-0.026289060711860657,0.05711665004491806,-0.005125320050865412
1733698031694983400,6.9109833984375,-0.02587651088833809,0.06424915790557861,-0.004021868109703064
1733698031704938800,6.920938720703125,-0.017656929790973663,0.06253621727228165,0.001130283111706376
1733698031714892500,6.930892578125,0.0033499421551823616,0.06405334919691086,0.008937684819102287
1733698031724846600,6.9408466796875,0.008634453639388084,0.06013930216431618,0.014347363263368607
1733698031734801400,6.950801513671875,0.0038917716592550278,0.04997355490922928,0.013004252687096596
1733698031744755500,6.96075537109375,0.0015702943783253431,0.036778658628463745,0.0054035913199186325
1733698031754710800,6.970710693359375,-0.003429239150136709,0.025983043015003204,0.0017520879628136754
1733698031764664600,6.98066455078125,-0.002928831148892641,0.018884655088186264,-0.0013022914063185453
1733698031774618600,6.99061865234375,-0.00307038938626647,0.018348220735788345,0.0023777431342750788
1733698031784573400,7.000573486328125,-0.003320460207760334,0.01674792729318142,-0.00038794963620603085
1733698031794527500,7.010527587890625,-0.006750860717147589,0.0179959274828434,-0.0028980220668017864
1733698031804482800,7.02048291015625,-0.009795119985938072,0.023388562723994255,-0.004467955324798822
1733698031814436600,7.0304365234375,-0.008899516426026821,0.02620028518140316,-0.004708928056061268
1733698031824390700,7.040390625,-0.009027081541717052,0.03148319944739342,-0.0025110214482992887
1733698031834345500,7.050345458984375,-0.004927519243210554,0.026456333696842194,-0.00017569842748343945
1733698031844299500,7.060299560546875,-0.0023248118814080954,0.01571553945541382,0.0031878738664090633
1733698031854254600,7.070254638671875,0.0012813045177608728,0.00719964224845171,0.005705679766833782
1733698031864208600,7.080208740234375,0.008118970319628716,-0.0021693583112210035,0.007233003154397011
1733698031874162700,7.09016259765625,0.01402996201068163,-0.008061399683356285,0.008507790043950081
1733698031884117500,7.100117431640625,0.015624397434294224,-0.012202881276607513,0.00819673202931881
1733698031894071600,7.110071533203125,0.014536607079207897,-0.010585824027657509,0.009831388480961323
1733698031904025600,7.120025634765625,0.011543214321136475,-0.0049614934250712395,0.011980026960372925
1733698031913980400,7.12998046875,0.003934682346880436,0.0032271230593323708,0.01229169499129057
1733698031923934700,7.139934814453125,-0.00045553850941359997,0.011193702928721905,0.01367627177387476
1733698031933889500,7.1498896484375,-0.003016494680196047,0.014534039422869682,0.012262843549251556
1733698031943843600,7.159843505859375,-0.007748398929834366,0.015860825777053833,0.010318735614418983
1733698031953797600,7.169797607421875,-0.009788923896849155,0.021418524906039238,0.008778967894613743
1733698031963752400,7.17975244140625,-0.00812791008502245,0.025782380253076553,0.006261481903493404
1733698031973706500,7.18970654296875,-0.00997448991984129,0.03166250139474869,0.00511619308963418
1733698031983661600,7.19966162109375,-0.009890333749353886,0.036038871854543686,0.004353463649749756
1733698031993615600,7.20961572265625,-0.01266444381326437,0.041409872472286224,0.0053376997821033
1733698032003569700,7.219569580078125,-0.013902814127504826,0.04771144688129425,0.0017264533089473844
1733698032013524500,7.2295244140625,-0.011825993657112122,0.052242711186409,0.0007003118516877294
1733698032023478800,7.239478759765625,-0.013218560256063938,0.05666675418615341,0.0019823575858026743
1733698032033433600,7.24943359375,-0.019048893824219704,0.04595150053501129,0.00023894081823527813
1733698032043387600,7.2593876953125,-0.017256854102015495,0.03404663875699043,-0.00017464812844991684
1733698032053342000,7.269342041015625,-0.013571277260780334,0.022234546020627022,0.0045066894963383675
1733698032063296800,7.279296875,-0.0076020690612494946,0.013597914949059486,0.006033479236066341
1733698032073250800,7.289250732421875,-0.003292994573712349,0.0018673341255635023,0.004363043699413538
1733698032083204900,7.299204833984375,0.002323878463357687,-0.010002641007304192,0.0017044099513441324
1733698032093159700,7.30915966796875,0.004606633447110653,-0.014987748116254807,0.0025039594620466232
1733698032103113700,7.31911376953125,0.006600808352231979,-0.018296193331480026,0.000045329099521040916
1733698032113068800,7.32906884765625,0.004049669951200485,-0.016521351411938667,0.0007959522772580385
1733698032123022800,7.33902294921875,0.004453405272215605,-0.01096972543746233,-0.0010208562016487122
1733698032132977000,7.348976806640625,-0.0011069246102124453,0.0010274441447108984,-0.004179656971246004
1733698032142931700,7.358931640625,-0.004756786860525608,0.012728574685752392,-0.003964473493397236
1733698032152885800,7.3688857421875,-0.010345169343054295,0.016925400123000145,-0.006147542968392372
1733698032162840800,7.3788408203125,-0.014174528419971466,0.016336841508746147,-0.007968345656991005
1733698032172795000,7.388794921875,-0.016284240409731865,0.016342833638191223,-0.009360922500491142
1733698032182748700,7.398748779296875,-0.015180893242359161,0.017694922164082527,-0.012921037152409554
1733698032192703700,7.408703857421875,-0.014119110070168972,0.019200896844267845,-0.0132693350315094
1733698032202657800,7.41865771484375,-0.013956124894320965,0.015344640240073204,-0.009443437680602074
1733698032212612900,7.42861279296875,-0.013849474489688873,0.010446266271173954,-0.006070389412343502
1733698032222567000,7.43856689453125,-0.01283188071101904,0.006501059979200363,-0.002317196922376752
1733698032232520700,7.448520751953125,-0.008888540789484978,0.006441675592213869,0.0014150759670883417
1733698032242475800,7.458475830078125,-0.009050993248820305,0.011039089411497116,0.003637750167399645
1733698032252429800,7.468429931640625,-0.007093166001141071,0.016145404428243637,0.002024324145168066
1733698032262384600,7.478384521484375,-0.009094265289604664,0.014523537829518318,0.002110876841470599
1733698032272339000,7.4883388671875,-0.005884901620447636,0.0040746331214904785,0.0011490621836856008
1733698032282292700,7.498292724609375,-0.0062574781477451324,-0.012022843584418297,0.006471123080700636
1733698032292247800,7.508247802734375,-0.002823388669639826,-0.022687066346406937,0.009973309934139252
1733698032302201900,7.518201904296875,0.003954089712351561,-0.029975339770317078,0.014738237485289574
1733698032312155600,7.52815576171875,0.010413995943963528,-0.03392931446433067,0.017233731225132942
1733698032322110700,7.53811083984375,0.011835324577987194,-0.029192080721259117,0.017359964549541473
1733698032332064800,7.548064697265625,0.009910696186125278,-0.013619696721434593,0.013988316990435123
1733698032342019800,7.558019775390625,-0.000004252186045050621,0.00520698819309473,0.011408246122300625
1733698032351974000,7.567973876953125,-0.010997885838150978,0.024976760149002075,0.009424259886145592
1733698032361927700,7.577927734375,-0.022875849157571793,0.03969578817486763,0.0037549221888184547
1733698032371882800,7.5878828125,-0.031308792531490326,0.05206076428294182,-0.0021054248791188
1733698032381836500,7.59783642578125,-0.0361645370721817,0.06049366295337677,-0.008105526678264141
1733698032391791900,7.6077919921875,-0.03721478208899498,0.0682055875658989,-0.012011121027171612
1733698032401746000,7.617745849609375,-0.03660118952393532,0.07394017279148102,-0.011948802508413792
1733698032411699700,7.62769970703125,-0.031176095828413963,0.07561440765857697,-0.011453487910330296
1733698032421654800,7.63765478515625,-0.02868204563856125,0.06453672051429749,-0.00690773781388998
1733698032431608600,7.647608642578125,-0.015046251006424427,0.05558053031563759,-0.0024417717941105366
1733698032441564000,7.65756396484375,-0.012842219322919846,0.04943608492612839,-0.0001290824729949236
1733698032451517700,7.667517578125,-0.012733487412333488,0.038347117602825165,-0.0021481974981725216
1733698032461471700,7.6774716796875,-0.010911352001130581,0.032281503081321716,-0.0014970547053962946
1733698032471426800,7.6874267578125,-0.00970067922025919,0.02910941280424595,-0.0018624402582645416
1733698032481380600,7.697380615234375,-0.005769320763647556,0.022807573899626732,0.00015224097296595573
1733698032491336000,7.7073359375,-0.0011093782959505916,0.016513599082827568,0.002966266358271241
1733698032501289700,7.717289794921875,0.0008403218816965818,0.016199346631765366,0.003417938482016325
1733698032511243800,7.727243896484375,-0.0008309022523462772,0.0104038305580616,0.002949970308691263
1733698032521198800,7.73719873046875,-0.002080457517877221,0.00977372657507658,0.0015994813293218613
1733698032531152600,7.747152587890625,-0.0009661371586844325,0.004538345150649548,0.0001359451562166214
1733698032541106700,7.757106689453125,-0.00038263865280896425,-0.006367831956595182,0.002371136099100113
1733698032551061800,7.767061767578125,0.0011678633745759726,-0.010583034716546535,0.004997887648642063
1733698032561015800,7.777015869140625,0.006510963663458824,-0.01473117433488369,0.0022769360803067684
1733698032570971000,7.786970947265625,0.011851849965751171,-0.019322626292705536,0.004596840590238571
1733698032580924700,7.796924560546875,0.012731758877635002,-0.017819272354245186,0.002892950316891074
1733698032590878700,7.806878662109375,0.012174645438790321,-0.014491665177047253,0.004036540165543556
1733698032600833500,7.81683349609375,0.007332219276577234,-0.009013542905449867,0.007620356045663357
1733698032610787800,7.826787841796875,0.002921062521636486,-0.000944172905292362,0.010400289669632912
1733698032620743000,7.836742919921875,-0.0021474657114595175,0.00840006023645401,0.015003563836216927
1733698032630696700,7.84669677734375,-0.005950069986283779,0.014783903025090694,0.01649775169789791
1733698032640650800,7.856650634765625,-0.008498182520270348,0.02014058455824852,0.015098260715603828
1733698032650605600,7.86660546875,-0.009720243513584137,0.022811323404312134,0.015836773440241814
1733698032660559600,7.8765595703125,-0.01223080512136221,0.027585305273532867,0.015047146007418633
1733698032670515000,7.886514892578125,-0.0121739087626338,0.0308085847645998,0.01216795202344656
1733698032680468700,7.89646875,-0.01580113358795643,0.03545793518424034,0.012054501101374626
1733698032690422800,7.9064228515625,-0.017713027074933052,0.039347220212221146,0.011254606768488884
1733698032700377600,7.916377685546875,-0.01775670237839222,0.04128067567944527,0.008475864306092262
1733698032710331600,7.92633154296875,-0.019961923360824585,0.041372306644916534,0.004956874996423721
1733698032720286700,7.93628662109375,-0.017986921593546867,0.04198403283953667,0.0024111594539135695
1733698032730240800,7.94624072265625,-0.015718728303909302,0.04249425604939461,-0.0008868558797985315
1733698032740194800,7.95619482421875,-0.012928267940878868,0.046217888593673706,-0.0033896947279572487
1733698032750149600,7.966149658203125,-0.013168475590646267,0.04436245560646057,-0.004794364795088768
1733698032760103700,7.976103759765625,-0.013211618177592754,0.04447084665298462,-0.004507808946073055
1733698032770057700,7.9860576171875,-0.011295350268483162,0.04189608246088028,-0.005939902272075415
1733698032780012800,7.9960126953125,-0.012223461642861366,0.03652741387486458,-0.005122311878949404
1733698032789966800,8.005966796875,-0.008635212667286396,0.026011502370238304,-0.007801307365298271
1733698032799921700,8.015921630859374,-0.008740940131247044,0.01564940996468067,-0.004187664482742548
1733698032809875700,8.025875732421875,-0.005557273980230093,0.01091961469501257,-0.003352874657139182
1733698032819829800,8.035829833984375,-0.002886123489588499,0.012675702571868896,-0.0041632745414972305
1733698032829784800,8.045784912109376,-0.001847963547334075,0.01846841536462307,-0.004859749227762222
1733698032839739000,8.05573876953125,-0.005658147856593132,0.022181926295161247,-0.004238434135913849
1733698032849693700,8.065693603515625,-0.008114052005112171,0.025242073461413383,-0.00770192826166749
1733698032859647700,8.075647705078126,-0.010796920396387577,0.028335070237517357,-0.011218100786209106
1733698032869601800,8.085601806640625,-0.01205915492027998,0.033215515315532684,-0.012781976722180843
1733698032879556600,8.095556640625,-0.014962000772356987,0.04100499674677849,-0.012854414992034435
1733698032889511000,8.105510986328126,-0.013857131823897362,0.050549332052469254,-0.012138383463025093
1733698032899465700,8.1154658203125,-0.012153240852057934,0.05796916410326958,-0.012513624504208565
1733698032909419800,8.125419677734374,-0.013125691562891006,0.05787251517176628,-0.01142788864672184
1733698032919373800,8.135373779296875,-0.013381355442106724,0.052416764199733734,-0.010186589322984219
1733698032929328600,8.14532861328125,-0.015615520998835564,0.05602659657597542,-0.010441102087497711
1733698032939282700,8.15528271484375,-0.01565759815275669,0.06323523819446564,-0.010104743763804436
1733698032949237000,8.165237060546875,-0.015907935798168182,0.06661026179790497,-0.008426953107118607
1733698032959191800,8.17519189453125,-0.014112964272499084,0.05873796343803406,-0.00426443200558424
1733698032969145900,8.185145751953126,-0.01102471724152565,0.04673730209469795,-0.0007372803520411253
1733698032979100700,8.1951005859375,-0.006650741212069988,0.03410486504435539,0.004984254948794842
1733698032989054700,8.2050546875,-0.004930301569402218,0.020387805998325348,0.008646814152598381
1733698032999008800,8.2150087890625,-0.0020900398958474398,0.0070680053904652596,0.011514506302773952
1733698033008963800,8.2249638671875,-0.00016484083607792854,-0.0032908928114920855,0.010122472420334816
1733698033018918100,8.234918212890625,0.0014809926506131887,-0.005526083521544933,0.009492102079093456
1733698033028873000,8.244873046875,0.001165713183581829,0.00003760977415367961,0.005843484774231911
1733698033038827000,8.254826904296875,-0.0048162792809307575,0.010253761895000935,0.003977407701313496
1733698033048780800,8.26478076171875,-0.013895157724618912,0.022204900160431862,-0.0019268887117505074
1733698033058735900,8.27473583984375,-0.019202038645744324,0.031984295696020126,-0.007853487506508827
1733698033068690200,8.284690185546875,-0.02029731124639511,0.03999018296599388,-0.014406220056116581
1733698033078645000,8.29464501953125,-0.019712215289473534,0.05002870410680771,-0.018368471413850784
1733698033088599000,8.30459912109375,-0.0063584307208657265,0.061347998678684235,-0.015697786584496498
1733698033098552800,8.314552734375,-0.0015402399003505707,0.06518055498600006,-0.01095629297196865
1733698033108508000,8.3245078125,-0.0008986653992906213,0.06282316893339157,-0.006818050052970648
1733698033118462000,8.3344619140625,-0.0035112262703478336,0.05227145552635193,-0.004151160828769207
1733698033128416000,8.344416015625,-0.004048337694257498,0.042927566915750504,-0.0012602386996150017
1733698033138371000,8.35437109375,-0.00479721836745739,0.03256574273109436,-0.0007577002979815006
1733698033148324900,8.364324951171875,-0.0050676618702709675,0.027252228930592537,-0.0014094114303588867
1733698033158280000,8.374280029296875,-0.004136886913329363,0.02607564441859722,-0.00103843305259943
1733698033168234000,8.38423388671875,-0.003546028397977352,0.026249606162309647,0.00005687447264790535
1733698033178187800,8.394187744140625,-0.0025321629364043474,0.0259084552526474,0.002819904126226902
1733698033188143000,8.40414306640625,-0.003391935955733061,0.0257700327783823,0.0030431454069912434
1733698033198097000,8.414096923828126,-0.007558451034128666,0.028184186667203903,0.0032071960158646107
1733698033208052000,8.424052001953125,-0.007005293853580952,0.042073678225278854,0.000617495272308588
1733698033218006000,8.434006103515625,-0.010558483190834522,0.04573339596390724,-0.00019476888701319695
1733698033227959800,8.443959716796876,-0.008467596024274826,0.03884707763791084,0.0007745352340862155
1733698033237915100,8.4539150390625,-0.008920067921280861,0.03280223533511162,0.0016674931393936276
1733698033247869000,8.463868896484374,-0.006449833977967501,0.02388305775821209,0.001696514431387186
1733698033257824000,8.473823974609376,-0.0011253758566454053,0.011662077158689499,-0.0029206080362200737
1733698033267777800,8.48377783203125,0.0040336912497878075,0.00249921134673059,-0.005641174037009478
1733698033277731800,8.49373193359375,0.008777313865721226,-0.005714243743568659,-0.005617205519229174
1733698033287687200,8.503687255859376,0.010409772396087646,-0.005816367920488119,0.00016171694733202457
1733698033297641000,8.513640869140625,0.008406010456383228,-0.0018836783710867167,0.004674975760281086
1733698033307596000,8.523595947265624,0.004763520788401365,0.0007297861739061773,0.004771141335368156
1733698033317549800,8.5335498046875,0.0014822399243712425,0.001570546068251133,0.0028046630322933197
1733698033327504000,8.54350390625,-0.0031679056119173765,-0.0005514606018550694,0.0022334149107337
1733698033337459000,8.553458984375,-0.0035729724913835526,-0.0011099255643785,0.0012714810436591506
1733698033347413000,8.5634130859375,-0.005662936717271805,0.0005800119834020734,0.0019337842240929604
1733698033357367000,8.573366943359375,-0.003750520758330822,0.007467479445040226,0.0011257812147960067
1733698033367321900,8.58332177734375,-0.0038876431062817574,0.014341399073600769,0.0013858096208423376
1733698033377276000,8.59327587890625,-0.0024684444069862366,0.013809300027787685,-0.00015642703510820866
1733698033387231000,8.60323095703125,-0.003543098922818899,0.01321183331310749,-0.00006270152516663074
1733698033397184800,8.613184814453126,-0.002313783625140786,0.011533509008586407,0.00039962318260222673
1733698033407139000,8.62313916015625,-0.00427880696952343,0.010235145688056946,-0.004395586438477039
1733698033417094000,8.633093994140625,-0.0020974120125174522,0.0075059388764202595,-0.0036688095424324274
1733698033427048000,8.6430478515625,0.001478360267356038,0.007429431192576885,-0.0033245235681533813
1733698033437003000,8.6530029296875,0.0011073818895965815,0.008650756441056728,0.0004872590070590377
1733698033446956800,8.662956787109374,0.0014242865145206451,0.007920258678495884,-0.00011822464875876904
1733698033456910800,8.672910888671876,0.0014341403730213642,0.009962103329598904,-0.0006109094247221947
1733698033466866000,8.682865966796875,-0.001238380093127489,0.012211059220135212,-0.0002646122593432665
1733698033476820000,8.692820068359374,-0.0017182817682623863,0.008871455676853657,-0.0006118884775787592
1733698033486775000,8.702775146484376,-0.0034180034417659044,0.007693328894674778,-0.002116358606144786
1733698033496728800,8.712728759765625,-0.004574081860482693,0.00235049519687891,-0.0006036832928657532
1733698033506683000,8.722682861328124,-0.0010729299392551184,-0.0009709358564577997,0.0018704618560150266
1733698033516638000,8.732637939453125,-0.0015336568467319012,0.00023760664043948054,0.004545074421912432
1733698033526592000,8.742592041015625,0.0007053744047880173,0.0005494519136846066,0.003495648968964815
1733698033536546000,8.752546142578124,0.0013618436641991138,-0.0016990548465400934,0.003632002742961049
1733698033546500900,8.7625009765625,0.00103114009834826,-0.006038021761924028,0.0011182629968971014
1733698033556455000,8.772454833984375,0.0021336886566132307,-0.004403905943036079,-0.001027445774525404
1733698033566410000,8.782409912109374,-0.0020667919889092445,-0.001961009344086051,-0.002304010558873415
1733698033576364000,8.792364013671875,-0.00042628473602235317,0.00215996615588665,-0.003526134882122278
1733698033586318000,8.802318115234375,-0.003073816653341055,0.005899626761674881,-0.0020487827714532614
1733698033596273000,8.81227294921875,-0.0013765839394181967,0.007521757856011391,-0.0029220336582511663
1733698033606227000,8.82222705078125,-0.0018324931152164936,0.00538519537076354,-0.004735346883535385
1733698033616181800,8.832181640625,-0.0011834807228296995,0.007970592007040977,-0.0034588940907269716
1733698033626136000,8.842135986328126,-0.0027906191535294056,0.016782626509666443,-0.0017391974106431007
1733698033636090000,8.852090087890625,-0.004889722913503647,0.020950740203261375,-0.0011972440406680107
1733698033646045000,8.862044921875,-0.007039258722215891,0.016090262681245804,0.00031591393053531647
1733698033655999000,8.8719990234375,-0.0029816662427037954,0.0054546622559428215,-0.0004026070237159729
1733698033665953800,8.881953857421875,0.002775337779894471,-0.006938813719898462,0.0035698250867426395
1733698033675907800,8.891907958984374,0.00745158176869154,-0.0170843917876482,0.008365645073354244
1733698033685862100,8.901862060546875,0.013790122233331203,-0.02111915685236454,0.012899883091449738
1733698033695817000,8.91181689453125,0.016408275812864304,-0.027288902550935745,0.011674296110868454
1733698033705771000,8.92177099609375,0.016322869807481766,-0.029890643432736397,0.009987927973270416
1733698033715725000,8.93172509765625,0.01150414627045393,-0.025669001042842865,0.006946598179638386
1733698033725679900,8.941679931640625,0.00042705610394477844,-0.014069749973714352,0.007279126439243555
1733698033735634000,8.951634033203124,-0.010018660686910152,-0.004528708755970001,0.004083066713064909
1733698033745589000,8.961589111328125,-0.017432957887649536,0.004959475249052048,0.002213124418631196
1733698033755543000,8.97154296875,-0.021939292550086975,0.009762752801179886,-0.006803007330745459
1733698033765497000,8.9814970703125,-0.01792318932712078,0.016089750453829765,-0.010957134887576103
1733698033775452000,8.991451904296875,-0.011803777888417244,0.018724149093031883,-0.014701273292303085
1733698033785406000,9.001406005859375,-0.003743758425116539,0.017632968723773956,-0.011211114935576916
1733698033795361000,9.011361083984376,0.0028994970489293337,0.011979344300925732,-0.011209516786038876
1733698033805315000,9.021315185546875,0.004789556842297316,0.00427406607195735,-0.007651192136108875
1733698033815269000,9.03126904296875,0.00762555655092001,-0.0015377500094473362,-0.006753173656761646
1733698033825224000,9.041223876953126,0.006545672193169594,-0.005977197550237179,-0.0016933593433350325
1733698033835178000,9.051177978515625,0.006738218478858471,-0.008303734473884106,-0.003382602473720908
1733698033845133000,9.061133056640625,0.004987265914678574,-0.008825286291539669,-0.0031728881876915693
1733698033855087000,9.071087158203126,0.002138482639566064,-0.00474159512668848,-0.002999782795086503
1733698033865041000,9.081041015625,0.0008271420374512672,0.000992723391391337,-0.0031156304758042097
1733698033874996000,9.090995849609374,-0.0026983506977558136,0.006054327357560396,-0.0021957748103886843
1733698033884950000,9.100949951171875,-0.0057118902914226055,0.012897209264338017,-0.00480581633746624
1733698033894903800,9.11090380859375,-0.011226232163608074,0.010876668617129326,-0.004421789199113846
1733698033904859100,9.120859130859374,-0.008850149810314178,0.013921509496867657,-0.0022064954973757267
1733698033914813000,9.13081298828125,-0.0053960299119353294,0.010197876952588558,-0.002102365717291832
1733698033924768000,9.14076806640625,-0.00547133618965745,-0.001250449800863862,0.0011349143460392952
1733698033934722000,9.15072216796875,0.001029173843562603,-0.007435374893248081,0.0034766318276524544
1733698033944675800,9.16067578125,0.008913072757422924,-0.010935225524008274,0.003948317840695381
1733698033954631000,9.170630859375,0.013083849102258682,-0.011958944611251354,0.0015828980831429362
1733698033964585000,9.1805849609375,0.014387939125299454,-0.015557533130049706,0.00043973280116915703
1733698033974540000,9.1905400390625,0.012211603112518787,-0.01605687476694584,-0.001109960488975048
1733698033984494000,9.200494140625,0.007430081255733967,-0.010440696962177753,0.00042537704575806856
1733698033994448000,9.21044775390625,0.001053408021107316,-0.0021159222815185785,0.0050390372052788734
1733698034004403000,9.22040283203125,-0.001634553773328662,0.0007580725941807032,0.005377492401748896
1733698034014356700,9.230356689453124,-0.0019032666459679604,0.00146887032315135,0.0033566858619451523
1733698034024311300,9.240311279296876,-0.0005448154406622052,0.0019290284253656864,0.0028447220101952553
1733698034034265300,9.250265380859375,-0.0009024778846651316,-0.00036421959521248937,0.0015421700663864613
1733698034044219100,9.26021923828125,0.0019024654757231474,0.0010615778155624866,0.0012418156256899238
1733698034054174500,9.270174560546875,0.0026358996983617544,0.0032600173726677895,-0.0002650008536875248
1733698034064128500,9.28012841796875,0.0011539324186742306,0.004524382762610912,-0.002122048521414399
1733698034074082300,9.290082275390626,0.0018061406444758177,0.006259964779019356,-0.002942302031442523
1733698034084037400,9.300037353515625,0.0010611359030008316,0.005169416777789593,-0.002828858559951186
1733698034093991200,9.3099912109375,0.00096100103110075,0.001495053293183446,-0.0024791855830699205
1733698034103946500,9.319946533203124,-0.0005173197714611888,0.003119847970083356,-0.0011523985303938389
1733698034113900500,9.329900634765625,-0.00206168694421649,0.002120363526046276,-0.0005153703968971968
1733698034123854300,9.339854248046874,-0.0028731029015034437,0.0000812578946352005,0.000028241891413927078
1733698034133809400,9.349809326171876,-0.003549546003341675,-0.0018125157803297043,0.0038847653195261955
1733698034143763200,9.35976318359375,-0.00445488840341568,-0.0017112880013883114,0.0021363645792007446
1733698034153718300,9.36971826171875,-0.003335561603307724,0.00036544492468237877,0.002560073509812355
1733698034163672300,9.37967236328125,-0.0038852959405630827,0.004344881046563387,0.0018326272256672382
1733698034173626400,9.38962646484375,-0.0038096620701253414,0.007609384134411812,0.0021665876265615225
1733698034183581400,9.39958154296875,-0.005163185298442841,0.0036376083735376596,0.004083066713064909
1733698034193535200,9.40953515625,-0.005118444096297026,-0.002835470950230956,0.0063422261737287045
1733698034203490300,9.419490234375,-0.001476532081142068,-0.0065768626518547535,0.00707690604031086
1733698034213444400,9.4294443359375,0.000536817591637373,-0.005229569505900145,0.007915003225207329
1733698034223398400,9.4393984375,0.0026425987016409636,-0.0022140303626656532,0.0077133579179644585
1733698034233353500,9.449353515625,0.0010010264813899994,-0.002939741825684905,0.0071900468319654465
1733698034243307300,9.459307373046874,0.0015381032135337591,-0.006870730314403772,0.007020428776741028
1733698034253261300,9.46926123046875,0.001962877344340086,-0.012059899047017097,0.005851301364600658
1733698034263216400,9.47921630859375,0.0006295163184404373,-0.010175014846026897,0.0038034236058592796
1733698034273170200,9.489170166015626,0.0013325908221304417,-0.007106521166861057,0.0019615814089775085
1733698034283125500,9.49912548828125,0.0023008952848613262,-0.006099887657910585,-0.0008248405065387487
1733698034293079300,9.509079345703125,0.0038447296246886253,-0.0066298567689955235,0.0017983730649575591
1733698034303033300,9.519033447265626,0.005816704593598843,-0.0069379303604364395,0.0018788976594805717
1733698034312988200,9.52898828125,0.005640936084091663,-0.011885018087923527,0.0011811495060101151
1733698034322942200,9.538942138671874,0.006624089553952217,-0.013834347948431969,0.002715422073379159
1733698034332897500,9.5488974609375,0.0038386890664696693,-0.007469391915947199,0.0029894611798226833
1733698034342851300,9.558851318359375,0.0024573933333158493,-0.004886763636022806,0.002835238818079233
1733698034352805400,9.568805419921874,0.0012115666177123785,-0.006200767587870359,0.0048589748330414295
1733698034362760200,9.57876025390625,0.003814825089648366,-0.017151109874248505,0.008060051128268242
1733698034372714200,9.58871435546875,0.009506532922387123,-0.02843678928911686,0.012317647226154804
1733698034382668300,9.598668212890624,0.013682655990123749,-0.03652343526482582,0.016888920217752457
1733698034392623400,9.608623291015626,0.019000455737113953,-0.04338959977030754,0.01870759204030037
1733698034402577400,9.618577392578125,0.021305488422513008,-0.051529694348573685,0.021748406812548637
1733698034412532200,9.6285322265625,0.01800423301756382,-0.053037311881780624,0.018007997423410416
1733698034422486300,9.638486328125,0.011451906524598598,-0.043751150369644165,0.0158950537443161
1733698034432440300,9.6484404296875,0.0010988679714500904,-0.03077756054699421,0.01438690535724163
1733698034442395400,9.6583955078125,-0.006178258452564478,-0.016052760183811188,0.01168068777769804
1733698034452349400,9.668349365234375,-0.012861461378633976,-0.009188462980091572,0.002515951171517372
1733698034462304300,9.67830419921875,-0.016483094543218613,-0.00007406034274026752,-0.006084727123379707
1733698034472258300,9.68825830078125,-0.013048148714005947,0.005641615949571133,-0.01320628635585308
1733698034482212400,9.69821240234375,-0.007178749423474073,0.0042659523896873,-0.015824303030967712
1733698034492167200,9.708167236328125,-0.00036611733958125114,-0.002240150235593319,-0.012370716780424118
1733698034502121500,9.71812158203125,0.006992794573307037,-0.013225569389760494,-0.0070915138348937035
1733698034512076300,9.728076171875,0.014673350378870964,-0.02695736102759838,-0.004434212110936642
1733698034522030300,9.7380302734375,0.018024854362010956,-0.03452063351869583,-0.0007004346698522568
1733698034531984400,9.747984375,0.01948932558298111,-0.03862136974930763,-0.0011542371939867735
1733698034541939200,9.757939208984375,0.018883641809225082,-0.039886798709630966,-0.0005483431741595268
1733698034551893200,9.767893310546874,0.01874542236328125,-0.036509912461042404,-0.002760364906862378
1733698034561847600,9.77784765625,0.01450140867382288,-0.03234019875526428,-0.0022852567490190268
1733698034571802400,9.78780224609375,0.009784151799976826,-0.026328913867473602,-0.0015201305504888296
1733698034581756400,9.79775634765625,0.005535551346838474,-0.02048872597515583,-0.0014393073506653309
1733698034591711200,9.807711181640625,-0.0020768283866345882,-0.019860751926898956,-0.0041986084543168545
1733698034601665300,9.817665283203125,-0.004386007785797119,-0.016455823555588722,-0.0021319345105439425
1733698034611619300,9.827619384765624,-0.0035396553575992584,-0.01279903668910265,-0.003639283822849393
1733698034621574400,9.837574462890625,-0.001782730221748352,-0.01990639604628086,0.0013820203021168709
1733698034631528400,9.847528564453125,0.0008151833899319172,-0.024191688746213913,0.003936524502933025
1733698034641483300,9.857483154296874,0.005055813118815422,-0.027714082971215248,0.003808372188359499
1733698034651437300,9.867437255859375,0.010236459784209728,-0.03258979693055153,0.00169382244348526
1733698034661391400,9.877391357421875,0.012860655784606934,-0.037800971418619156,0.00011181109584867954
1733698034671346400,9.887346435546876,0.013037223368883133,-0.036643560975790024,0.0000950333196669817
1733698034681300500,9.897300537109375,0.013325050473213196,-0.033942971378564835,0.0012600295012816787
1733698034691255300,9.90725537109375,0.007310035172849894,-0.029694166034460068,0.0057905991561710835
1733698034701209300,9.917209228515626,0.0025908509269356728,-0.021239548921585083,0.006820958107709885
1733698034711163400,9.927163330078125,0.0003255661576986313,-0.021498940885066986,0.007922708056867123
1733698034721118500,9.937118408203125,-0.0014088877942413092,-0.019977089017629623,0.0022768243215978146
1733698034731072500,9.947072509765626,-0.002247517229989171,-0.01790568232536316,-0.0019091321155428886
1733698034741026300,9.9570263671875,0.00020152563229203224,-0.01796533726155758,-0.005801341962069273
1733698034750981400,9.9669814453125,0.0017618718557059765,-0.01591656729578972,-0.006587241310626268
1733698034760935400,9.976935302734375,0.004232979379594326,-0.014310233294963837,-0.005598855670541525
1733698034770890200,9.98689013671875,0.005337126553058624,-0.014726218767464161,-0.005651053506880999
1733698034780844500,9.996844482421874,0.004960269667208195,-0.017536163330078125,-0.0057993484660983086
1733698034790798300,10.00679833984375,0.0036723653320223093,-0.018740443512797356,-0.004663243889808655
1733698034800753400,10.01675341796875,0.0044598812237381935,-0.018141189590096474,-0.0063895476050674915
1733698034810707500,10.02670751953125,0.0029900826048105955,-0.01848180778324604,-0.006372769828885794
1733698034820662300,10.036662353515625,0.0036581726744771004,-0.017735792323946953,-0.007653445471078157
1733698034830616300,10.0466162109375,0.0005017942748963833,-0.014053971506655216,-0.00807422399520874
1733698034840570400,10.0565703125,0.0008986829780042171,-0.01467938907444477,-0.008215634152293205
1733698034850525400,10.066525390625,-0.00009014876559376717,-0.01403889898210764,-0.008453454822301865
1733698034860479200,10.076479248046875,0.0007524753455072641,-0.010627389885485172,-0.007207361049950123
1733698034870433300,10.086433349609376,0.0027818039525300264,-0.010245226323604584,-0.006842774339020252
1733698034880388400,10.096388427734375,0.0015372899360954762,-0.013092453591525555,-0.007848873734474182
1733698034890342100,10.106342041015624,0.004837745800614357,-0.01815245859324932,-0.007644343189895153
1733698034900297500,10.11629736328125,0.003989296965301037,-0.025670209899544716,-0.003520139493048191
1733698034910251300,10.126251220703125,0.004614341072738171,-0.022896792739629745,-0.001428226474672556
1733698034920205300,10.136205322265624,0.00416986271739006,-0.018651718273758888,-0.00011141202412545681
1733698034930160400,10.146160400390626,0.0018561084289103746,-0.012871593236923218,-0.00009037298150360584
1733698034940114200,10.1561142578125,-0.0016666818410158157,-0.010920744389295578,-0.003112081903964281
1733698034950069500,10.166069580078124,-0.004152209963649511,-0.009851484559476376,-0.00429319404065609
1733698034960023300,10.176023193359375,-0.003986501134932041,-0.010872150771319866,-0.005167107097804546
1733698034969977300,10.185977294921875,-0.006184674799442291,-0.007137866225093603,-0.004273083060979843
1733698034979932400,10.195932373046874,-0.004290096461772919,0.001277452101930976,-0.004632462747395039
1733698034989886200,10.20588623046875,-0.004136431962251663,0.00756624061614275,-0.0046889218501746655
1733698034999841500,10.215841552734375,-0.004020589403808117,0.0074227009899914265,-0.0030458990950137377
1733698035009795300,10.22579541015625,-0.003006724175065756,0.0030995917040854692,-0.0038957137148827314
1733698035019749400,10.235749267578125,-0.0026536884251981974,-0.0015422399155795574,-0.0001332499086856842
1733698035029704700,10.24570458984375,-0.002228381810709834,0.007177748251706362,-0.0018864087760448456
1733698035039658800,10.25565869140625,-0.005192660726606846,0.017881155014038086,0.002001514658331871
1733698035049612800,10.26561279296875,-0.005160969216376543,0.014628368429839611,0.002533347811549902
1733698035059567900,10.27556787109375,-0.004507608711719513,0.005372181069105864,0.006660156883299351
1733698035069522000,10.28552197265625,-0.0025810780934989452,-0.008360142819583416,0.007457507774233818
1733698035079476700,10.295476806640625,-0.0002393508329987526,-0.01593758724629879,0.009815013036131859
1733698035089430800,10.3054306640625,0.0071802157908678055,-0.020254038274288177,0.015489676967263222
1733698035099384800,10.315384765625,0.009537921287119389,-0.02865605056285858,0.013792325742542744
1733698035109340000,10.32533984375,0.010520095005631447,-0.03144145384430885,0.01193556934595108
1733698035119294000,10.3352939453125,0.007590855471789837,-0.026953527703881264,0.006592099089175463
1733698035129248800,10.345248779296876,0.002889044815674424,-0.01362919993698597,0.002363532083109021
1733698035139202800,10.355202880859375,-0.006354663521051407,0.0021260399371385574,-0.003831092268228531
1733698035149156900,10.365156982421874,-0.014871719293296337,0.012623155489563942,-0.008863401599228382
1733698035159111700,10.375111572265626,-0.017166070640087128,0.022371310740709305,-0.015245343558490276
1733698035169066000,10.38506591796875,-0.019123228266835213,0.028017479926347733,-0.01920440047979355
1733698035179020800,10.395020751953124,-0.0164843387901783,0.03422069177031517,-0.02139686420559883
1733698035188974800,10.404974853515625,-0.011340710334479809,0.03615760803222656,-0.017464440315961838
1733698035198929000,10.414928955078125,-0.0064092110842466354,0.029151609167456627,-0.010215160436928272
1733698035208883700,10.4248837890625,-0.004704255610704422,0.016343403607606888,-0.00650271400809288
1733698035218837800,10.434837646484375,-0.0005565749015659094,0.007922392338514328,-0.004413252230733633
1733698035228792000,10.4447919921875,0.0015055106487125158,0.0038296468555927277,-0.004711792338639498
1733698035238747000,10.454746826171874,0.0024738155771046877,0.0026767230592668056,-0.0037823060993105173
1733698035248701000,10.464700927734375,-0.001634376822039485,0.008780954405665398,-0.00529418233782053
1733698035258655700,10.47465576171875,-0.007667907048016787,0.016250835731625557,-0.006395659409463406
1733698035268609800,10.48460986328125,-0.01067887619137764,0.02252284437417984,-0.004738107789307833
1733698035278563800,10.494563720703125,-0.013730859383940697,0.02707764320075512,-0.006823333911597729
1733698035288519000,10.504518798828125,-0.018791398033499718,0.027064861729741096,-0.006426256150007248
1733698035298473000,10.514472900390626,-0.020364202558994293,0.027717195451259613,-0.008259173482656479
1733698035308427800,10.524427734375,-0.01666640304028988,0.03526405990123749,-0.010288236662745476
1733698035318381800,10.5343818359375,-0.012298345565795898,0.028071535751223564,-0.008766641840338707
1733698035328336000,10.5443359375,-0.010459698736667633,0.017851388081908226,-0.003429667791351676
1733698035338291000,10.554291015625,-0.007419233210384846,0.015234713442623615,-0.0014344451483339071
1733698035348245000,10.564244873046874,-0.0040181102231144905,0.01015393529087305,0.0012718591606244445
1733698035358198800,10.57419873046875,-0.0009460303699597716,0.001844851765781641,0.0012563010677695274
1733698035368153900,10.58415380859375,0.0023451042361557484,0.004340233746916056,-0.00042362092062830925
1733698035378108000,10.59410791015625,0.0005878072697669268,0.012156590819358826,-0.0021537216380238533
1733698035388063000,10.60406298828125,-0.0037989516276866198,0.02103397250175476,-0.001670890487730503
1733698035398017000,10.61401708984375,-0.008756130933761597,0.024444717913866043,-0.0007157768122851849
1733698035407970800,10.623970703125,-0.010419808328151703,0.025480154901742935,-0.000680623110383749
1733698035417926000,10.63392578125,-0.012322703376412392,0.0234666857868433,-0.002309163799509406
1733698035427880000,10.6438798828125,-0.010913359001278877,0.02244323305785656,-0.0037653802428394556
1733698035437834800,10.653834716796876,-0.00975350383669138,0.02299138903617859,-0.0041421568021178246
1733698035447789000,10.6637890625,-0.007702336646616459,0.02871638536453247,-0.0026896686758846045
1733698035457742800,10.673742919921875,-0.005795172415673733,0.033554185181856155,-0.002651758259162307
1733698035467698000,10.683697998046876,-0.006422346457839012,0.03845839574933052,-0.0013033996801823378
1733698035477651700,10.693651611328125,-0.007680940441787243,0.03994208946824074,-0.0028695291839540005
1733698035487606800,10.703606689453125,-0.00838854257017374,0.04297090321779251,-0.003012274857610464
1733698035497560800,10.713560791015626,-0.010931059718132019,0.0476418174803257,-0.0067698475904762745
1733698035507515000,10.723514892578125,-0.012522564269602299,0.05199794843792915,-0.004427330568432808
1733698035517470000,10.733469970703124,-0.014761630445718765,0.052749741822481155,-0.002012635814025998
1733698035527423700,10.743423828125,-0.015278017148375511,0.0533076748251915,-0.0012094262056052685
1733698035537377800,10.753377685546875,-0.015706028789281845,0.05497153475880623,0.002431733999401331
1733698035547332900,10.763332763671874,-0.01790579780936241,0.05450095608830452,0.0009736533975228667
1733698035557286700,10.77328662109375,-0.015118725597858429,0.05125334486365318,-0.00020862487144768238
1733698035567242000,10.783241943359375,-0.014295009896159172,0.04616857320070267,0.0014366758987307549
1733698035577195800,10.79319580078125,-0.013404791243374348,0.0404229536652565,0.0014303855132311583
1733698035587149800,10.80314990234375,-0.007545836269855499,0.03073517233133316,0.0036155092529952526
1733698035597105000,10.81310498046875,-0.002354881726205349,0.02128744125366211,0.0032170068006962538
1733698035607058700,10.82305859375,-0.00016469811089336872,0.017131846398115158,0.005522771738469601
1733698035617014000,10.833013916015625,0.0035507166758179665,0.017763366922736168,0.0055949753150343895
1733698035626967800,10.8429677734375,0.004237812478095293,0.016119930893182755,0.007529761642217636
1733698035636921900,10.852921875,0.004266868811100721,0.012988300994038582,0.004509646445512772
1733698035646877000,10.862876953125,0.0022433986887335777,0.009133375249803066,0.003443317022174597
1733698035656830700,10.872830810546875,0.0006198885384947062,0.010430308990180492,0.0013623381964862347
1733698035666786000,10.8827861328125,-0.000024063745513558388,0.009202857501804829,-0.0017527611926198006
1733698035676739800,10.89273974609375,-0.002073515672236681,0.007839514873921871,-0.0013289737980812788
1733698035686694000,10.90269384765625,-0.00047588523011654615,0.005226954352110624,-0.00020139128901064396
1733698035696649000,10.91264892578125,0.0012988452799618244,0.007819275371730328,0.0019949176348745823
1733698035706602800,10.922602783203125,0.00626590708270669,0.0028106682002544403,0.003388816025108099
1733698035716556800,10.932556884765624,0.0075991395860910416,0.000054423289839178324,0.004949831869453192
1733698035726511900,10.942511962890626,0.008680117316544056,0.005311769433319569,0.004017459228634834
1733698035736466000,10.9524658203125,0.0051572369411587715,0.008627863600850105,0.007403726223856211
1733698035746420700,10.962420654296874,0.002434421330690384,0.008893114514648914,0.008565929718315601
1733698035756374800,10.972374755859375,0.0011891687754541636,0.00017187476623803377,0.007789413444697857
1733698035766328800,10.982328857421875,0.0029077064245939255,-0.006629039533436298,0.0094621442258358
1733698035776283600,10.99228369140625,0.006755610927939415,-0.010957684367895126,0.013235793448984623
1733698035786238000,11.002238037109375,0.011750370264053345,-0.018184438347816467,0.017869960516691208
1733698035796192800,11.01219287109375,0.013092843815684319,-0.024385910481214523,0.02080211415886879
1733698035806146800,11.022146728515626,0.014519765041768551,-0.027597682550549507,0.018485164269804955
1733698035816100900,11.032100830078125,0.009212073870003223,-0.021018926054239273,0.014526713639497757
1733698035826055700,11.0420556640625,0.002925682347267866,-0.006868218537420034,0.0112012242898345
1733698035836009700,11.052009765625,-0.007223796099424362,0.010019628331065178,0.0065575214102864265
1733698035845964800,11.06196484375,-0.014088626019656658,0.026563184335827827,-0.0017555358354002237
1733698035855918800,11.0719189453125,-0.019929002970457077,0.03800027444958687,-0.008368715643882751
1733698035865873000,11.081872802734376,-0.022975392639636993,0.04524460434913635,-0.015727829188108444
1733698035875827700,11.09182763671875,-0.01814931631088257,0.048299048095941544,-0.016055328771471977
1733698035885781800,11.10178173828125,-0.010625352151691914,0.05093611031770706,-0.01552669145166874
1733698035895735800,11.11173583984375,-0.0034170146100223064,0.04765395075082779,-0.012836546637117863
1733698035905691000,11.12169091796875,0.0007873177528381348,0.036606092005968094,-0.009562722407281399
1733698035915645000,11.13164501953125,0.008004977367818356,0.027383213862776756,-0.006541279144585133
1733698035925599700,11.141599853515626,0.01732737198472023,0.025321928784251213,-0.0044866506941616535
1733698035935553800,11.1515537109375,0.008317574858665466,0.01903114840388298,-0.0021123131737113
1733698035945507800,11.1615078125,-0.000521190813742578,0.01342865638434887,-0.004200498107820749
1733698035955463000,11.171462890625,-0.005076318047940731,0.01442002598196268,-0.0011137649416923523
1733698035965417000,11.1814169921875,-0.006916562095284462,0.019523972645401955,0.0008274131687358022
1733698035975371800,11.191371826171874,-0.00900188460946083,0.022860528901219368,0.0040434286929667
1733698035985325800,11.201325927734375,-0.009319866076111794,0.025910913944244385,0.0035102637484669685
1733698035995280000,11.21127978515625,-0.009731701575219631,0.029094470664858818,0.0035062613897025585
1733698036005234700,11.221234619140626,-0.008827557787299156,0.0320923887193203,0.002541664522141218
1733698036015189000,11.23118896484375,-0.01240993570536375,0.030417731031775475,-0.0003229000139981508
1733698036025143300,11.241143310546875,-0.010968366637825966,0.02094539813697338,0.003627100493758917
1733698036035097600,11.25109765625,-0.008888725191354752,0.01002219133079052,0.006393031217157841
1733698036045051600,11.2610517578125,-0.0014246838400140405,-0.0019292761571705341,0.0056697167456150055
1733698036055006500,11.27100634765625,0.007840986363589764,-0.012495900504291058,0.0030009630136191845
1733698036064960500,11.28096044921875,0.01509570237249136,-0.020072858780622482,0.0012070578522980213
1733698036074915300,11.290915283203125,0.01809600181877613,-0.028191814199090004,0.002587417373433709
1733698036084869400,11.300869384765624,0.015361201018095016,-0.028613127768039703,0.0037094070576131344
1733698036094823700,11.31082373046875,0.010766330175101757,-0.023700961843132973,0.0057652839459478855
1733698036104778500,11.320778564453125,0.004013086669147015,-0.015169525519013405,0.007769845426082611
1733698036114732500,11.330732666015624,0.0023267935030162334,-0.010496117174625397,0.0037493042182177305
1733698036124686600,11.3406865234375,-0.0016969764837995172,-0.006807638332247734,0.0017127848695963621
1733698036134641400,11.350641357421875,-0.0038563236594200134,-0.0005914143403060734,0.0013920033816248178
1733698036144595500,11.360595458984376,-0.005307746585458517,0.004088026005774736,-0.002759332302957773
1733698036154550500,11.370550537109375,-0.005574011243879795,0.008263726718723774,-0.0019444155041128397
1733698036164504600,11.380504638671875,-0.0068464698269963264,0.012864870019257069,-0.003729798598214984
1733698036174458600,11.390458740234376,-0.005866797640919685,0.015112054534256458,-0.005903863348066807
1733698036184413400,11.400413330078125,-0.005119248293340206,0.01665588840842247,-0.004970957990735769
1733698036194367500,11.410367431640625,-0.0032296255230903625,0.015942947939038277,-0.007009067572653294
1733698036204322600,11.420322509765626,-0.0030394759960472584,0.013533851131796837,-0.004921682178974152
1733698036214276600,11.430276611328125,-0.0037827452179044485,0.010123715735971928,-0.003647934878244996
1733698036224230400,11.44023046875,-0.003986210562288761,0.00854126550257206,-0.0024849327746778727
1733698036234185500,11.450185546875,-0.0042164502665400505,0.006165971513837576,-0.001271441811695695
1733698036244139500,11.460139404296875,-0.0029863363597542048,0.004341706167906523,-0.001281029311940074
1733698036254094600,11.470094482421874,-0.0019611811731010675,0.004921679850667715,-0.0010786973871290684
1733698036264048600,11.480048583984376,-0.0028650579042732716,0.003049477469176054,-0.001626509940251708
1733698036274002400,11.49000244140625,-0.00029269675724208355,0.00508391298353672,-0.0008658352307975292
1733698036283957500,11.49995751953125,0.0016197192016988993,0.004072178155183792,-0.0014567906036973
1733698036293911600,11.50991162109375,0.0014332574792206287,0.004278489854186773,-0.0005586862098425627
1733698036303865300,11.519865234375,0.002796795917674899,0.001055532367900014,-0.0007736033294349909
1733698036313820700,11.529820556640624,0.0026861242949962616,-0.0034594463650137186,0.0009563883068040013
1733698036323774500,11.5397744140625,0.003108501434326172,-0.00672448193654418,0.0030416434165090322
1733698036333729500,11.5497294921875,0.0033037837129086256,-0.006423057056963444,0.0014726793160662055
1733698036343683600,11.55968359375,0.003771701129153371,-0.0038669551722705364,0.0022780192084610462
1733698036353637400,11.569637451171875,0.0029870064463466406,-0.005019546020776033,0.0018569374224171042
1733698036363592400,11.579592529296875,-0.0007504737004637718,-0.009054767899215221,0.0032646842300891876
1733698036373546500,11.58954638671875,0.000579227227717638,-0.01160159520804882,-0.0002912438940256834
1733698036383501600,11.59950146484375,0.0005009302403777838,-0.010049505159258842,-0.0035845087841153145
1733698036393455600,11.60945556640625,-0.0005433997139334679,-0.0036546592600643635,-0.007897162809967995
1733698036403409400,11.619409423828126,0.0014779395423829556,0.0008783070952631533,-0.005726154427975416
1733698036413364500,11.629364501953125,0.00005738576874136925,0.005992603953927755,-0.0059001632034778595
1733698036423318300,11.639318359375,-0.00008216383866965771,0.006012311205267906,-0.006095106713473797
1733698036433273600,11.649273681640626,0.00015638512559235096,0.003954047802835703,-0.005749108269810677
1733698036443227600,11.6592275390625,-0.0003613333683460951,0.006069396622478962,-0.0024004497099667788
1733698036453181400,11.669181396484374,-0.0013531623408198357,0.013938652351498604,-0.0012108332011848688
1733698036463136500,11.679136474609376,-0.0033137816935777664,0.014438793994486332,-0.00043825036846101284
1733698036473090300,11.68909033203125,-0.004979805089533329,0.006547125522047281,0.0010603712871670723
1733698036483044400,11.69904443359375,-0.0006465759361162782,-0.005531641189008951,0.0003349261824041605
1733698036492999700,11.708999755859375,0.0052386377938091755,-0.014289382845163345,0.004887934774160385
1733698036502953500,11.718953369140625,0.012837435118854046,-0.02135821245610714,0.008298378437757492
1733698036512908500,11.728908447265624,0.01586957834661007,-0.026071181520819664,0.010597450658679008
1733698036522862300,11.7388623046875,0.01809651404619217,-0.03339221328496933,0.010672017931938171
1733698036532816400,11.74881640625,0.018069375306367874,-0.032714664936065674,0.008998858742415905
1733698036542771500,11.758771484375,0.012824546545743942,-0.022444453090429306,0.0070251901634037495
1733698036552725500,11.7687255859375,0.0020349975675344467,-0.011624070815742016,0.008274521678686142
