time,seconds_elapsed,z,y,x
1733697654325420800,0.0254208984375,-0.05110354721546173,-0.10885313898324966,-0.05085255205631256
1733697654335374800,0.035374755859375,-0.020787453278899193,-0.1021217331290245,-0.03031425178050995
1733697654345327900,0.045327880859375,0.03830760717391968,-0.09234733879566193,-0.009589612483978271
1733697654355282000,0.055281982421875,0.07626298069953918,-0.07060875743627548,0.005960318259894848
1733697654365235000,0.06523486328125,0.0697936862707138,-0.03345881402492523,0.008104946464300156
1733697654375188000,0.07518798828125,0.0401681512594223,0.010791469365358353,0.0075613949447870255
1733697654385141800,0.085141845703125,0.0168466679751873,0.04714415594935417,0.00265856203623116
1733697654395094800,0.0950947265625,0.007339182309806347,0.06632424145936966,-0.004892564844340086
1733697654405048800,0.105048828125,0.004317633807659149,0.061857882887125015,-0.011577850207686424
1733697654415001900,0.115001953125,0.005975717678666115,0.05142787843942642,-0.006724505685269833
1733697654424955000,0.124954833984375,-0.0014352784492075443,0.048939213156700134,0.002093941206112504
1733697654434909000,0.134908935546875,-0.017080284655094147,0.06290722638368607,0.01123417541384697
1733697654444862000,0.144862060546875,-0.030033722519874573,0.08251061290502548,0.012993085198104382
1733697654454815700,0.154815673828125,-0.03808046504855156,0.08683478087186813,0.009864136576652527
1733697654464768800,0.164768798828125,-0.03353167325258255,0.0685148686170578,0.0038506248965859413
1733697654474721800,0.1747216796875,-0.023627378046512604,0.04024568200111389,0.0010332668898627162
1733697654484675800,0.18467578125,-0.0072137340903282166,0.008024297654628754,0.0003661301452666521
1733697654494628900,0.19462890625,0.002973123686388135,-0.007277160882949829,0.0029113132040947676
1733697654504583000,0.2045830078125,0.008479936048388481,-0.011777132749557495,0.007367532700300217
1733697654514536000,0.214535888671875,0.007018660195171833,0.00003798131365329027,0.006949949078261852
1733697654524490000,0.224489990234375,0.0031392450910061598,0.007158859167248011,0.0057965973392128944
1733697654534443000,0.234443115234375,-0.00041980319656431675,0.009136522188782692,0.0031307730823755264
1733697654544396000,0.24439599609375,-0.0005243462510406971,0.004757432732731104,0.000035286182537674904
1733697654554349800,0.254349853515625,0.001829621847718954,-0.004614763893187046,-0.0015980303287506104
1733697654564302800,0.264302734375,0.001069484744220972,-0.007491664029657841,0.00028910115361213684
1733697654574257000,0.2742568359375,0.0015536474529653788,-0.005774723831564188,0.0012049623765051365
1733697654584210000,0.2842099609375,0.0013461816124618053,0.00428309990093112,0.0036925594322383404
1733697654594162700,0.29416259765625,0.004646370653063059,0.007924440316855907,0.004027052782475948
1733697654604117000,0.304116943359375,0.004482580348849297,0.004869281779974699,0.0003553507849574089
1733697654614069800,0.31406982421875,0.005716955289244652,-0.004035263787955046,-0.0012979395687580109
1733697654624023800,0.32402392578125,0.0030847303569316864,-0.01632261462509632,-0.0029784059152007103
1733697654633976600,0.3339765625,-0.00457798270508647,-0.025985362008213997,-0.008551070466637611
1733697654643931000,0.343930908203125,-0.005580405704677105,-0.029164109379053116,-0.01343463733792305
1733697654653883600,0.353883544921875,-0.0035135261714458466,-0.03111780434846878,-0.016277030110359192
1733697654663837200,0.363837158203125,0.005374022759497166,-0.03048977255821228,-0.014542857185006142
1733697654673791200,0.373791259765625,0.014926249161362648,-0.028757117688655853,-0.010148376226425171
1733697654683744300,0.383744140625,0.017372291535139084,-0.026442717760801315,-0.006245496682822704
1733697654693698000,0.393697998046875,0.014427101239562035,-0.024319378659129143,-0.0014973471406847239
1733697654703651000,0.403651123046875,0.005350418388843536,-0.01828770525753498,0.000633871415629983
1733697654713604000,0.41360400390625,-0.0017519656103104353,-0.007775408215820789,0.0020104593131691217
1733697654723558100,0.42355810546875,-0.007237500511109829,0.004577052313834429,0.002595414873212576
1733697654733511200,0.43351123046875,-0.009436738677322865,0.019719254225492477,0.0009996488224714994
1733697654743465200,0.44346533203125,-0.009738010354340076,0.03467328101396561,0.0015240401262417436
1733697654753418200,0.453418212890625,-0.012570547871291637,0.04622500762343407,-0.0006112824194133282
1733697654763372300,0.463372314453125,-0.01649949699640274,0.05802159756422043,0.0016396843129768968
1733697654773325300,0.4733251953125,-0.016946110874414444,0.06642253696918488,0.002160864882171154
1733697654783278000,0.483278076171875,-0.02036081627011299,0.07150544971227646,0.0015928125940263271
1733697654793232100,0.493232177734375,-0.021820761263370514,0.07073419541120529,0.004355309531092644
1733697654803185000,0.503184814453125,-0.01981549710035324,0.06453796476125717,0.006329934112727642
1733697654813139200,0.51313916015625,-0.0163283534348011,0.05454631894826889,0.005919807590544224
1733697654823092000,0.523092041015625,-0.01632292941212654,0.04553510248661041,0.004087661858648062
1733697654833045000,0.533044921875,-0.013533269055187702,0.036933355033397675,0.005879969336092472
1733697654842999000,0.5429990234375,-0.015127534046769142,0.029965074732899666,0.004671850241720676
1733697654852952000,0.5529521484375,-0.016751796007156372,0.026030519977211952,0.004018310457468033
1733697654862906000,0.562906005859375,-0.018597887828946114,0.02373526059091091,0.0014268519589677453
1733697654872859000,0.57285888671875,-0.018080435693264008,0.02187238074839115,-0.0005018091760575771
1733697654882812000,0.58281201171875,-0.01961134746670723,0.02207402139902115,-0.0006709522567689419
1733697654892766000,0.592765869140625,-0.016579069197177887,0.022578956559300423,-0.001803594408556819
1733697654902719000,0.602718994140625,-0.006096868775784969,0.019957073032855988,0.001355180749669671
1733697654912673000,0.612673095703125,-0.00001181173138320446,0.014149785041809082,0.003194359829649329
1733697654922626000,0.6226259765625,0.006475108675658703,0.003134438768029213,0.007428518962115049
1733697654932580000,0.632580078125,0.004754440393298864,-0.007071061059832573,0.007808019407093525
1733697654942533000,0.642533203125,0.0036834976635873318,-0.01205463521182537,0.008322762325406075
1733697654952486100,0.652486083984375,-0.002076121047139168,-0.0059389518573880196,0.007779478095471859
1733697654962440000,0.66243994140625,-0.006877414882183075,0.002067399211227894,0.00951556209474802
1733697654972393000,0.67239306640625,-0.012315057218074799,0.015754714608192444,0.005354905966669321
1733697654982347000,0.682346923828125,-0.01306657399982214,0.029711099341511726,0.004583182279020548
1733697654992300000,0.692300048828125,-0.014616001397371292,0.0419914685189724,0.00007977685891091824
1733697655002253000,0.702253173828125,-0.016402211040258408,0.04737495630979538,-0.001900876173749566
1733697655012207000,0.71220703125,-0.016615264117717743,0.051556121557950974,-0.0021709210705012083
1733697655022160100,0.72216015625,-0.015455284155905247,0.05389411374926567,0.0027325826231390238
1733697655032114000,0.732114013671875,-0.011098884977400303,0.051264241337776184,0.007077530026435852
1733697655042067000,0.74206689453125,-0.010304342955350876,0.04606237635016441,0.007725978270173073
1733697655052021000,0.75202099609375,-0.00657218974083662,0.03287466987967491,0.005250304006040096
1733697655061974000,0.76197412109375,-0.001254644594155252,0.018442317843437195,0.0019110299181193113
1733697655071927000,0.771927001953125,0.006727914325892925,-0.00023949140449985862,-0.0018040798604488373
1733697655081881000,0.781881103515625,0.011864492669701576,-0.017261842265725136,0.00007847766391932964
1733697655091834000,0.791834228515625,0.01543446071445942,-0.032073281705379486,0.001234555966220796
1733697655101788200,0.8017880859375,0.015616614371538162,-0.040855299681425095,0.006892440374940634
1733697655111741200,0.8117412109375,0.01614631712436676,-0.03823421522974968,0.00868581235408783
1733697655121695000,0.821695068359375,0.012295398861169815,-0.03006378747522831,0.010365531779825687
1733697655131648000,0.83164794921875,0.005027099512517452,-0.017928028479218483,0.00890878215432167
1733697655141601000,0.84160107421875,-0.0051617431454360485,-0.005285558290779591,0.009731464087963104
1733697655151555000,0.85155517578125,-0.014708110131323338,0.003952415194362402,0.006762039382010698
1733697655161508000,0.861508056640625,-0.026633214205503464,0.013934741728007793,0.0024964541662484407
1733697655171462100,0.871462158203125,-0.03136245533823967,0.03264771029353142,0.0009417008841410279
1733697655181415200,0.881415283203125,-0.029343226924538612,0.051997534930706024,-0.003611974883824587
1733697655191368200,0.8913681640625,-0.02686542086303234,0.06755518913269043,-0.0044849589467048645
1733697655201322000,0.901322021484375,-0.021744631230831146,0.07180164754390717,-0.004611411597579718
1733697655211275000,0.91127490234375,-0.014347167685627937,0.060071222484111786,-0.0005117414984852076
1733697655221229000,0.92122900390625,-0.00823546014726162,0.035147204995155334,0.004309506621211767
1733697655231182000,0.93118212890625,0.0016328836791217327,0.01029644999653101,0.012193528935313225
1733697655241136000,0.94113623046875,0.007913347333669662,-0.007783782668411732,0.013823866844177246
1733697655251089200,0.951089111328125,0.014004262164235115,-0.021532351151108742,0.01213542278856039
1733697655261042200,0.961042236328125,0.01825135387480259,-0.03203994035720825,0.004959565587341785
1733697655270996000,0.970995849609375,0.01776878908276558,-0.03773457929491997,-0.0025335042737424374
1733697655280949000,0.980948974609375,0.01483029406517744,-0.0380755178630352,-0.007086720783263445
1733697655290903000,0.990903076171875,0.012606821954250336,-0.031039182096719742,-0.00884733535349369
1733697655300856000,1.00085595703125,0.01073075458407402,-0.018268322572112083,-0.008295629173517227
1733697655310809000,1.01080908203125,0.010866308584809303,-0.009816248901188374,-0.002363437321037054
1733697655320763100,1.02076318359375,0.011387781240046024,-0.004768402315676212,0.0007181675173342228
1733697655330716200,1.030716064453125,0.009203722700476646,-0.005305295344442129,0.0006784864235669374
1733697655340670200,1.040670166015625,0.0035129350144416094,-0.008575037121772766,0.002449990250170231
1733697655350623200,1.050623291015625,-0.0009366744197905064,-0.007401382550597191,0.002077946439385414
1733697655360577000,1.060576904296875,-0.001052184379659593,-0.0008358614868484437,-0.0005769103299826384
1733697655370530000,1.070530029296875,-0.0038447752594947815,0.008816765621304512,-0.003341538133099675
1733697655380483000,1.080483154296875,-0.0019493171712383628,0.017609458416700363,-0.004253624938428402
1733697655390437000,1.09043701171875,-0.0002877709921449423,0.018035298213362694,-0.0025683764833956957
1733697655400390100,1.10039013671875,-0.0012632262660190463,0.010702461004257202,0.0006617563776671886
1733697655410344200,1.11034423828125,-0.0015170255210250616,-0.0024958988651633263,0.001745662884786725
1733697655420297200,1.120297119140625,-0.004421105608344078,-0.011308446526527405,0.003405720228329301
1733697655430250200,1.130250244140625,-0.002307621296495199,-0.01614261604845524,-0.0017080814577639103
1733697655440204000,1.1402041015625,0.0010554513428360224,-0.01388310082256794,-0.003844278631731868
1733697655450157000,1.150156982421875,0.0005284117069095373,-0.015193909406661987,-0.006762037985026836
1733697655460111000,1.160111083984375,0.00361170107498765,-0.020518189296126366,-0.0069857132621109486
1733697655470064000,1.170064208984375,0.007218952756375074,-0.02715558558702469,-0.006887442898005247
1733697655480018200,1.18001806640625,0.010606512427330017,-0.03175675868988037,-0.007802643347531557
1733697655489971200,1.18997119140625,0.011322904378175735,-0.03645537421107292,-0.009864196181297302
1733697655499924200,1.19992431640625,0.01076514646410942,-0.04288717359304428,-0.014036480337381363
1733697655509878300,1.209878173828125,0.010062072426080704,-0.0447271503508091,-0.02191224694252014
1733697655519831300,1.219831298828125,0.010442935861647129,-0.042496129870414734,-0.030427513644099236
1733697655529785000,1.22978515625,0.01077742874622345,-0.02863943763077259,-0.03170423209667206
1733697655539738000,1.239738037109375,0.01481467392295599,-0.013251932337880135,-0.023810263723134995
1733697655549691100,1.249691162109375,0.012577617540955544,-0.005225163884460926,-0.009241440333425999
1733697655559645200,1.259645263671875,0.01105677429586649,-0.01424689032137394,-0.0005155489780008793
1733697655569598200,1.26959814453125,0.004751740023493767,-0.03219366446137428,0.0022647911682724953
1733697655579552300,1.27955224609375,0.005451111122965813,-0.04514239728450775,0.002586030401289463
1733697655589505300,1.28950537109375,0.003904347075149417,-0.047021787613630295,0.0017151767387986183
1733697655599459000,1.299458984375,0.005297180265188217,-0.035583510994911194,-0.0012649006675928831
1733697655609412000,1.309412109375,0.0055563785135746,-0.01641351915895939,-0.0025700682308524847
1733697655619365000,1.319365234375,0.001609704690054059,0.005215551238507032,0.003244178369641304
1733697655629319200,1.329319091796875,-0.008182206191122532,0.02524705044925213,0.006010670214891434
1733697655639272200,1.339272216796875,-0.018439671024680138,0.03946291655302048,0.009167390875518322
1733697655649226200,1.349226318359375,-0.02735939621925354,0.056723397225141525,0.008264046162366867
1733697655659179300,1.35917919921875,-0.03466847538948059,0.07158415764570236,0.007141932379454374
1733697655669131300,1.36913134765625,-0.03869038447737694,0.08030121773481369,0.006328070070594549
1733697655679085300,1.379085205078125,-0.04295128583908081,0.08151751011610031,0.004407226108014584
1733697655689038300,1.389038330078125,-0.04612444341182709,0.07783383131027222,0.0007954470347613096
1733697655698992000,1.3989921875,-0.046246062964200974,0.07012451440095901,-0.00021837209351360798
1733697655708945200,1.408945068359375,-0.045302506536245346,0.06113767623901367,0.00012144725769758224
1733697655718899200,1.418899169921875,-0.04084270820021629,0.05116535723209381,0.004083683248609304
1733697655728852200,1.428852294921875,-0.037251170724630356,0.041795022785663605,0.006520476192235947
1733697655738805200,1.43880517578125,-0.03398512676358223,0.038152847439050674,0.006844660267233849
1733697655748759300,1.44875927734375,-0.030390653759241104,0.0364268533885479,0.004314124584197998
1733697655758712300,1.45871240234375,-0.024378301575779915,0.03963995724916458,0.002340988488867879
1733697655768666400,1.468666259765625,-0.018829872831702232,0.037487857043743134,-0.0018106135539710522
1733697655778619400,1.478619384765625,-0.017215223982930183,0.030162207782268524,0.001268473220989108
1733697655788572400,1.488572509765625,-0.01192884985357523,0.0164815504103899,0.006803054362535477
1733697655798526200,1.498526123046875,-0.006966277025640011,0.0056631979532539845,0.01471729390323162
1733697655808479200,1.508479248046875,-0.003804572159424424,-0.0032330912072211504,0.02055600844323635
1733697655818433300,1.518433349609375,0.0011469454038888216,-0.007009837776422501,0.025607382878661156
1733697655828386300,1.52838623046875,0.0037627024576067924,-0.009743306785821915,0.020014746114611626
1733697655838340400,1.53834033203125,0.0009164342191070318,-0.016459442675113678,0.01622956432402134
1733697655848293400,1.54829345703125,0.07464444637298584,-0.17341922223567963,0.044730447232723236
1733697655858246400,1.558246337890625,0.014460630714893341,-0.02903752401471138,-0.05977216362953186
1733697655868200200,1.5682001953125,-0.15353289246559143,0.2089252471923828,-0.12458978593349457
1733697655878153200,1.5781533203125,-0.27141159772872925,0.4105861783027649,-0.13974875211715698
1733697655888107300,1.588107177734375,-0.26619046926498413,0.49381235241889954,-0.05496622249484062
1733697655898060300,1.598060302734375,-0.16815732419490814,0.40011534094810486,0.042502257972955704
1733697655908014300,1.608014404296875,-0.0328247994184494,0.31471896171569824,0.17267677187919617
1733697655917967400,1.61796728515625,0.0465502105653286,0.17504902184009552,0.27723628282546997
1733697655927920400,1.62792041015625,0.11653675138950348,-0.03629889711737633,0.23157984018325806
1733697655937874400,1.63787451171875,0.12591007351875305,-0.21505703032016754,0.08616083860397339
1733697655947827500,1.647827392578125,0.10152430832386017,-0.3128355145454407,-0.06944340467453003
1733697655957781200,1.65778125,0.06910351663827896,-0.3019261360168457,-0.15372046828269958
1733697655967734300,1.667734375,0.03467230498790741,-0.2002067118883133,-0.15119445323944092
1733697655977687300,1.677687255859375,0.0016526689287275076,-0.07420230656862259,-0.10183346271514893
1733697655987641300,1.687641357421875,-0.017703186720609665,0.0044797188602387905,-0.04639283940196037
1733697655997594400,1.697594482421875,-0.01313069649040699,0.04787030816078186,0.007387209217995405
1733697656007548400,1.70754833984375,-0.00196006684564054,0.07101956754922867,0.034961044788360596
1733697656017501400,1.71750146484375,0.00042203301563858986,0.08637417107820511,0.02762685902416706
1733697656027455200,1.727455322265625,-0.011813061311841011,0.10245940089225769,-0.005878371652215719
1733697656037408300,1.737408203125,-0.03757964074611664,0.11030580848455429,-0.047908518463373184
1733697656047361300,1.747361328125,-0.06990562379360199,0.10534833371639252,-0.08564205467700958
1733697656057315300,1.7573154296875,-0.10089830309152603,0.09060969203710556,-0.1102219894528389
1733697656067268400,1.767268310546875,-0.1254449188709259,0.07822626084089279,-0.11783277243375778
1733697656077222400,1.777222412109375,-0.1391436904668808,0.0807754397392273,-0.11283162236213684
1733697656087175400,1.787175537109375,-0.1320442408323288,0.09759756177663803,-0.10167031735181808
1733697656097128400,1.79712841796875,-0.11941948533058167,0.11215141415596008,-0.088561050593853
1733697656107082200,1.807082275390625,-0.1059257835149765,0.11898348480463028,-0.07340259850025177
1733697656117035300,1.81703515625,-0.10333040356636047,0.11852695792913437,-0.06929144263267517
1733697656126989300,1.8269892578125,-0.09846321493387222,0.11318545788526535,-0.07724657654762268
1733697656136942300,1.8369423828125,-0.08981943130493164,0.10322090983390808,-0.09432854503393173
1733697656146896400,1.846896484375,-0.07693026214838028,0.09568949043750763,-0.10660412162542343
1733697656156849400,1.856849365234375,-0.07004212588071823,0.09524732083082199,-0.10698758065700531
1733697656166802400,1.866802490234375,-0.0720999464392662,0.09765082597732544,-0.09632961452007294
1733697656176756500,1.876756591796875,-0.0831102803349495,0.09259126335382462,-0.0847310721874237
1733697656186709500,1.88670947265625,-0.07927373051643372,0.07917266339063644,-0.06684768199920654
1733697656196663300,1.896663330078125,-0.06388126313686371,0.04511825367808342,-0.049405887722969055
1733697656206616300,1.9066162109375,-0.04415682703256607,-0.004776333458721638,-0.023098118603229523
1733697656216570400,1.9165703125,-0.025931494310498238,-0.05258072540163994,0.003340082010254264
1733697656226523400,1.9265234375,0.002712134039029479,-0.08718370646238327,0.021248508244752884
1733697656236476400,1.936476318359375,0.03617582842707634,-0.11847466975450516,0.023502938449382782
1733697656246430500,1.946430419921875,0.04130800813436508,-0.12221641093492508,0.013280927203595638
1733697656256383500,1.956383544921875,0.03806217014789581,-0.09124588966369629,-0.004547810181975365
1733697656266337300,1.966337158203125,0.024187102913856506,-0.041519343852996826,-0.019956061616539955
1733697656276290300,1.976290283203125,0.00718154851347208,0.006032105535268784,-0.024079715833067894
1733697656286243300,1.986243408203125,-0.005388039164245129,0.03459557518362999,-0.02145889773964882
1733697656296197400,1.996197265625,-0.013841699808835983,0.040932949632406235,-0.011337490752339363
1733697656306150400,2.006150390625,-0.01611151173710823,0.03001691959798336,-0.0011290621478110552
1733697656316104400,2.0161044921875,-0.01523248665034771,0.00416733231395483,0.0064690918661653996
1733697656326057500,2.026057373046875,-0.008568459190428257,-0.028397269546985626,0.0124446926638484
1733697656336011500,2.036011474609375,-0.0005444884300231934,-0.06361230462789536,0.018217658624053
1733697656345964500,2.045964599609375,0.0160781629383564,-0.09848161041736603,0.02489793300628662
1733697656355917600,2.05591748046875,0.030834631994366646,-0.12388307601213455,0.031838223338127136
1733697656365871400,2.065871337890625,0.03914555907249451,-0.13297004997730255,0.03525079786777496
1733697656375824400,2.075824462890625,0.04244996979832649,-0.12744125723838806,0.03572684898972511
1733697656385778400,2.0857783203125,0.04218684881925583,-0.11173660308122635,0.03449034318327904
1733697656395731500,2.0957314453125,0.037627190351486206,-0.0958544909954071,0.030835168436169624
1733697656405685500,2.105685546875,0.030218543484807014,-0.0805562287569046,0.02545957826077938
1733697656415638500,2.115638427734375,0.021664749830961227,-0.05958545580506325,0.01812123693525791
1733697656425591600,2.125591552734375,0.009213140234351158,-0.039813082665205,0.006146598607301712
1733697656435545300,2.13554541015625,-0.0064165410585701466,-0.019829999655485153,-0.00424815621227026
1733697656445498400,2.145498291015625,-0.02009107545018196,-0.0023916212376207113,-0.01456444337964058
1733697656455452400,2.155452392578125,-0.027756430208683014,0.010874355211853981,-0.016527332365512848
1733697656465405400,2.165405517578125,-0.031209485605359077,0.01952430233359337,-0.014380291104316711
1733697656475359500,2.175359375,-0.0280480794608593,0.02204889990389347,-0.0037836304400116205
1733697656485312500,2.1853125,-0.020304406061768532,0.01850023679435253,0.006620008498430252
1733697656495265300,2.195265380859375,-0.0091596944257617,0.012073220685124397,0.018235472962260246
1733697656505219600,2.205219482421875,0.002259141067042947,0.0036677513271570206,0.023898152634501457
1733697656515172400,2.21517236328125,0.012974635697901249,-0.004453025758266449,0.0242701955139637
1733697656525126400,2.22512646484375,0.016961654648184776,-0.01185634732246399,0.019766790792346
1733697656535079200,2.2350791015625,0.015470540151000023,-0.013102825731039047,0.01274476945400238
1733697656545032200,2.2450322265625,0.010284832678735256,-0.010533141903579235,0.006140928715467453
1733697656554986200,2.254986328125,0.0026444897521287203,-0.0011220630258321762,0.0008383085951209068
1733697656564939300,2.264939208984375,-0.0027281716465950012,0.007961980067193508,-0.001357467845082283
1733697656574893300,2.274893310546875,-0.003970141056925058,0.014554311521351337,-0.0007297266274690628
1733697656584846300,2.284846435546875,-0.0033221938647329807,0.016117321327328682,0.0011150450445711613
1733697656594800000,2.294800048828125,0.0036452847998589277,0.011225719004869461,0.0026956028304994106
1733697656604753200,2.304753173828125,0.008193431422114372,0.0008977135876193643,0.006925501395016909
1733697656614706200,2.3147060546875,0.014393044635653496,-0.011886853724718094,0.00944470800459385
1733697656624660200,2.32466015625,0.0156849455088377,-0.025922244414687157,0.007444140966981649
1733697656634613200,2.33461328125,0.01551329530775547,-0.03298500180244446,0.004303778056055307
1733697656644567300,2.3445673828125,0.012150255963206291,-0.03185662254691124,0.0006512525724247098
1733697656654520300,2.354520263671875,0.006799415685236454,-0.026836005970835686,-0.0004482304211705923
1733697656664474600,2.364474609375,-0.0001796637661755085,-0.017253419384360313,-0.004095695912837982
1733697656674427600,2.374427734375,-0.008108751848340034,-0.005616116337478161,-0.0037294963840395212
1733697656684380700,2.384380615234375,-0.011150880716741085,0.002058847574517131,-0.0030402701813727617
1733697656694334700,2.394334716796875,-0.015166020952165127,0.0059366472996771336,-0.0007817365694791079
1733697656704287700,2.404287841796875,-0.011048507876694202,0.005729719530791044,0.0008830053266137838
1733697656714241800,2.41424169921875,-0.012704143300652504,0.004733609966933727,0.001805379637517035
1733697656724194800,2.42419482421875,-0.01213422603905201,-0.0006563615170307457,0.0007984384428709745
1733697656734147800,2.43414794921875,-0.012637054547667503,-0.001992827747017145,0.0004894498270004988
1733697656744102000,2.444101806640625,-0.009297451004385948,-0.002899900311604142,0.00008970941416919231
1733697656754055000,2.454054931640625,-0.007501705549657345,-0.0012804002035409212,-0.0007695525418967009
1733697656764008700,2.4640087890625,-0.0051458729431033134,0.0000746161094866693,-0.0017349484842270613
1733697656773961700,2.473961669921875,-0.003969541750848293,0.0017424104735255241,-0.0026639299467206
1733697656783915800,2.483915771484375,0.0000851210206747055,-0.0008770747226662934,-0.0023795044980943203
1733697656793868800,2.493868896484375,0.0030072371009737253,-0.0015326314605772495,-0.001961144618690014
1733697656803821800,2.50382177734375,0.008219576440751553,0.0002788507263176143,-0.0018586129881441593
1733697656813776000,2.51377587890625,0.011614706367254257,0.0030335630290210247,0.000982212834060192
1733697656823729000,2.52372900390625,0.014461892656981945,0.004294037353247404,0.004911706782877445
1733697656833682700,2.5336826171875,0.018888037651777267,0.004662532825022936,0.007733533158898354
1733697656843635700,2.5436357421875,0.01764434017241001,0.005713682621717453,0.007699711248278618
1733697656853589800,2.55358984375,0.01578621193766594,0.008625378832221031,0.005503280088305473
1733697656863542800,2.563542724609375,0.012777905911207199,0.011376158334314823,0.0009183817310258746
1733697656873495600,2.57349560546875,0.007536003366112709,0.014360491186380386,-0.0008572801016271114
1733697656883449900,2.583449951171875,0.0029513712506741285,0.013489637523889542,-0.005501566454768181
1733697656893402600,2.593402587890625,-0.0010447503300383687,0.012510066851973534,-0.003478551283478737
1733697656903356700,2.603356689453125,-0.0018658027984201908,0.011146795004606247,-0.004946219269186258
1733697656913309700,2.613309814453125,-0.002949382644146681,0.009518182836472988,-0.001308889128267765
1733697656923263700,2.623263671875,-0.0018210011767223477,0.007147436961531639,0.0017417618073523045
1733697656933216500,2.633216552734375,-0.0014719790779054165,0.007477052975445986,0.003050335915759206
1733697656943169500,2.64316943359375,-0.000277817714959383,0.006829372141510248,0.0032045328989624977
1733697656953123600,2.65312353515625,-0.0009414950618520379,0.006875203922390938,0.0028398167341947556
1733697656963076600,2.66307666015625,-0.0009236519690603018,0.00984276458621025,0.003283499274402857
1733697656973030700,2.67303076171875,-0.0012557097943499684,0.010028858669102192,0.001335520762950182
1733697656982983700,2.682983642578125,-0.0012170940171927214,0.011133537627756596,0.0012763985432684422
1733697656992936700,2.692936767578125,-0.0034297462552785873,0.010026609525084496,0.0029889687430113554
1733697657002890500,2.702890380859375,-0.0013980205403640866,0.012517997063696384,0.0032355773728340864
1733697657012843500,2.712843505859375,-0.0026366678066551685,0.011488034389913082,0.0035638811532408
1733697657022797600,2.722797607421875,-0.0017493024934083223,0.012000426650047302,0.004361764527857304
1733697657032750600,2.73275048828125,-0.0028304262086749077,0.009127764031291008,0.004581712186336517
1733697657042704600,2.74270458984375,-0.0020088409073650837,0.009293146431446075,0.0027222929056733847
1733697657052657700,2.75265771484375,0.0012962103355675936,0.008216995745897293,-0.0020809348206967115
1733697657062610700,2.762610595703125,0.0007681054994463921,0.008096620440483093,-0.0014718698803335428
1733697657072564500,2.772564453125,0.004332646727561951,0.010487223975360394,-0.0001313425600528717
1733697657082517500,2.782517578125,0.007750813849270344,0.011114930734038353,0.0022580455988645554
1733697657092471600,2.792471435546875,0.013594046235084534,0.011157686822116375,0.004711817018687725
1733697657102424600,2.802424560546875,0.022460242733359337,0.014338300563395023,0.006394402123987675
1733697657112378600,2.812378662109375,0.03076796606183052,0.016900140792131424,0.007803948596119881
1733697657122331600,2.82233154296875,0.030973825603723526,0.019055437296628952,0.003721322864294052
1733697657132284700,2.83228466796875,0.019330812618136406,0.013591076247394085,0.003260581521317363
1733697657142238700,2.84223876953125,0.011244922876358032,0.008968627080321312,0.0022187528666108847
1733697657152191700,2.852191650390625,0.01054450124502182,0.008411640301346779,0.002651452785357833
1733697657162145500,2.8621455078125,0.011346379294991493,0.010402618907392025,0.0028935340233147144
1733697657172098600,2.8720986328125,0.012934116646647453,0.013398736715316772,0.0040644025430083275
1733697657182052600,2.882052490234375,0.01164860837161541,0.016236601397395134,0.002759719965979457
1733697657192005600,2.892005615234375,0.006785360164940357,0.015197111293673515,0.003804024774581194
1733697657201958700,2.901958740234375,0.010984632186591625,0.010085972025990486,0.0021121185272932053
1733697657211912700,2.91191259765625,0.01322866976261139,0.004457827191799879,0.0007128794677555561
1733697657221865700,2.92186572265625,0.012729327194392681,-0.0020733089186251163,0.0006665404653176665
1733697657231819500,2.931819580078125,0.013983301818370819,-0.004982250742614269,-0.0009059628937393427
1733697657241772500,2.9417724609375,0.012023748829960823,-0.005340179428458214,-0.003618126269429922
1733697657251726600,2.9517265625,0.012633810751140118,0.003106002463027835,-0.00479742418974638
1733697657261679600,2.9616796875,0.014736375771462917,0.013603916391730309,-0.004722055979073048
1733697657271632600,2.971632568359375,0.017851177603006363,0.02099197544157505,-0.0006445480976253748
1733697657281586700,2.981586669921875,0.01980859972536564,0.024101749062538147,0.0018202073406428099
1733697657291539700,2.991539794921875,0.023588741198182106,0.02643260546028614,-0.0005713906139135361
1733697657301493800,3.00149365234375,0.030700180679559708,0.02396039292216301,0.001832644920796156
1733697657311446800,3.01144677734375,0.03776470571756363,0.020844293758273125,0.0006554060382768512
1733697657321399800,3.02139990234375,0.04437147453427315,0.015570434741675854,0.00008495687507092953
1733697657331353600,3.031353515625,0.05092363432049751,0.00832293089479208,-0.0010882958304136992
1733697657341306600,3.041306640625,0.06050196290016174,-0.003332393476739526,-0.00015858630649745464
1733697657351260700,3.0512607421875,0.06565123796463013,-0.014026669785380363,-0.0006547474768012762
1733697657361213700,3.061213623046875,0.07659416645765305,-0.029671143740415573,-0.0009857784025371075
1733697657371167700,3.071167724609375,0.08761400729417801,-0.053228192031383514,-0.006651574745774269
1733697657381120800,3.081120849609375,0.09099835157394409,-0.07540567219257355,-0.017087969928979874
1733697657391073800,3.09107373046875,0.10222099721431732,-0.09677553176879883,-0.02830788865685463
1733697657401027600,3.101027587890625,0.09833571314811707,-0.10404250025749207,-0.032847244292497635
1733697657410980600,3.110980712890625,0.09410087019205093,-0.09887759387493134,-0.028268035501241684
1733697657420934700,3.1209345703125,0.08600699156522751,-0.08570000529289246,-0.021726779639720917
1733697657430887700,3.1308876953125,0.07704014331102371,-0.0668489933013916,-0.016467774286866188
1733697657440841700,3.140841796875,0.07158252596855164,-0.04410027340054512,-0.011463427916169167
1733697657450794800,3.150794677734375,0.06134168431162834,-0.023363275453448296,-0.005579122342169285
1733697657460747800,3.160747802734375,0.05051486939191818,-0.005811711773276329,0.0033933334052562714
1733697657470701600,3.17070166015625,0.04104422405362129,0.008989878930151463,0.011703371070325375
1733697657480654600,3.180654541015625,0.032095734030008316,0.01694181188941002,0.013515652157366276
1733697657490608600,3.190608642578125,0.028877710923552513,0.020432204008102417,0.0149217639118433
1733697657500561700,3.200561767578125,0.02325684390962124,0.02140905149281025,0.017497308552265167
1733697657510515700,3.210515625,0.01903430186212063,0.018255751579999924,0.01675950363278389
1733697657520468700,3.22046875,0.012948447838425636,0.015669023618102074,0.012618022970855236
1733697657530421800,3.230421875,0.01123095490038395,0.015926310792565346,0.011300694197416306
1733697657540375800,3.240375732421875,0.004986109212040901,0.017846716567873955,0.010775784961879253
1733697657550328800,3.250328857421875,0.0030102988239377737,0.022675972431898117,0.011575201526284218
1733697657560282600,3.26028271484375,-0.0007375676650553942,0.02559346705675125,0.010422585532069206
1733697657570235600,3.270235595703125,-0.004949443973600864,0.028165282681584358,0.009416133165359497
1733697657580189700,3.280189697265625,-0.004529996309429407,0.028575675562024117,0.007078942842781544
1733697657590142700,3.290142822265625,-0.003950334619730711,0.030670015141367912,0.00767851434648037
1733697657600095700,3.300095703125,-0.004925583954900503,0.033511605113744736,0.0055109672248363495
1733697657610049800,3.3100498046875,-0.0030179524328559637,0.036036938428878784,0.00552248302847147
1733697657620002800,3.3200029296875,-0.0025055601727217436,0.03638607636094093,0.005829545669257641
1733697657629956600,3.32995654296875,-0.0009318398078903556,0.03431272134184837,0.004541093949228525
1733697657639909600,3.33990966796875,-0.0022551645524799824,0.029144058004021645,0.004094481933861971
1733697657649863700,3.34986376953125,0.0011850285809487104,0.025099894031882286,0.0018868737388402224
1733697657659816700,3.359816650390625,0.0029573622159659863,0.022338729351758957,0.0019313485827296972
1733697657669769700,3.369769775390625,-0.0009651877917349339,0.01951122283935547,0.0003684675320982933
1733697657679723800,3.379723876953125,-0.005148215219378471,0.022441232576966286,0.0009860546560958028
1733697657689676800,3.3896767578125,-0.009277734905481339,0.027546146884560585,0.0014678948791697621
1733697657699630800,3.399630859375,-0.012123322114348412,0.03222239017486572,0.002509457292035222
1733697657709584000,3.409583984375,-0.016810663044452667,0.039561666548252106,0.0025429893285036087
1733697657719537700,3.41953759765625,-0.018863162025809288,0.0420682318508625,0.00011125695891678333
1733697657729490700,3.42949072265625,-0.02050301991403103,0.0448092520236969,0.00005823187530040741
1733697657739443700,3.439443603515625,-0.0209331214427948,0.041183892637491226,-0.003282969817519188
1733697657749397800,3.449397705078125,-0.018957505002617836,0.03590830788016319,-0.0010805584024637938
1733697657759350800,3.459350830078125,-0.015116160735487938,0.030263470485806465,0.00026087602600455284
1733697657769304800,3.469304931640625,-0.00781366415321827,0.027308132499456406,0.003990539815276861
1733697657779257900,3.4792578125,-0.003138219239190221,0.022595401853322983,0.0016621379181742668
1733697657789211600,3.489211669921875,-0.0028618830256164074,0.018749680370092392,-0.0005087126046419144
1733697657799164700,3.49916455078125,-0.0017891617026180029,0.016261756420135498,-0.004308244213461876
1733697657809117700,3.50911767578125,-0.0006169459084048867,0.010134650394320488,-0.003677248489111662
1733697657819071700,3.51907177734375,0.0009753580670803785,0.003705246839672327,-0.0027797631919384003
1733697657829024800,3.529024658203125,0.003432448487728834,-0.004739723633974791,0.0011880660895258188
1733697657838978800,3.538978759765625,0.008944392204284668,-0.008248970843851566,0.00895197968930006
1733697657848931800,3.548931884765625,0.010559550486505032,-0.007884175516664982,0.00966019369661808
1733697657858886000,3.558885986328125,0.009713197126984596,-0.005935806781053543,0.008826890960335732
1733697657868839000,3.5688388671875,0.0053039356134831905,-0.003503745887428522,0.007172772195190191
1733697657878792000,3.5787919921875,-0.0010530296713113785,-0.006538950372487307,0.0012634843587875366
1733697657888745700,3.588745849609375,-0.012218243442475796,-0.005115488078445196,-0.0030770280864089727
1733697657898698800,3.59869873046875,-0.019890543073415756,-0.003466192400082946,-0.005332459695637226
1733697657908652800,3.60865283203125,-0.0228542760014534,0.005374818108975887,-0.00690761161968112
1733697657918605800,3.618605712890625,-0.021815642714500427,0.015784315764904022,-0.005186410620808601
1733697657928559900,3.628559814453125,-0.018044231459498405,0.021923938766121864,-0.003017093287780881
1733697657938513000,3.638512939453125,-0.010700831189751625,0.01757046952843666,-0.0006604618392884731
1733697657948466000,3.6484658203125,-0.009469318203628063,0.007295091636478901,-0.0020611663348972797
1733697657958419700,3.658419677734375,-0.0061856405809521675,-0.0008145003230310977,0.0011814986355602741
1733697657968372700,3.668372802734375,-0.004702127538621426,-0.0057351551949977875,0.0025765595491975546
1733697657978326800,3.678326904296875,-0.0037921250332146883,-0.005106383003294468,0.003422379493713379
1733697657988279800,3.68827978515625,-0.00485957833006978,-0.0032950802706182003,0.0005837304051965475
1733697657998233900,3.69823388671875,-0.0058563994243741035,-0.005109758116304874,-0.0004405213985592127
1733697658008187000,3.708186767578125,-0.006340255029499531,-0.011129628866910934,-0.003336054040119052
1733697658018140000,3.718139892578125,-0.007287807762622833,-0.01462103333324194,-0.00405430793762207
1733697658028093700,3.72809375,-0.007821574807167053,-0.015757564455270767,-0.0036562795285135508
1733697658038046700,3.738046630859375,-0.010345186106860638,-0.012365230359137058,-0.002544409828260541
1733697658048000800,3.748000732421875,-0.012683277018368244,-0.012424465268850327,-0.0028691559564322233
1733697658057953800,3.757953857421875,-0.011288046836853027,-0.00838338490575552,-0.005150153301656246
1733697658067907800,3.767907958984375,-0.014239490032196045,-0.005622561555355787,-0.005270365625619888
1733697658077860900,3.77786083984375,-0.01631702110171318,-0.007024715654551983,-0.006716728210449219
1733697658087814000,3.78781396484375,-0.016693569719791412,-0.009371529333293438,-0.00433134101331234
1733697658097768000,3.797767822265625,-0.017919955775141716,-0.007959787733852863,-0.0062088691629469395
1733697658107721000,3.807720947265625,-0.013562938198447227,-0.005755481775850058,-0.0054315803572535515
1733697658117674800,3.8176748046875,-0.011420691385865211,-0.0032848676200956106,-0.0036166361533105373
1733697658127627800,3.827627685546875,-0.010994713753461838,0.00010392745025455952,-0.002754532964900136
1733697658137581800,3.837581787109375,-0.01149379089474678,-0.0020055624190717936,-0.000849040923640132
1733697658147534800,3.847534912109375,-0.01523716002702713,-0.004847372882068157,0.00345422956161201
1733697658157487900,3.85748779296875,-0.01776023954153061,-0.008453825488686562,0.005204192828387022
1733697658167442000,3.86744189453125,-0.01898324489593506,-0.010122038424015045,0.005257812328636646
1733697658177395000,3.87739501953125,-0.02115505374968052,-0.015474725514650345,0.0041645849123597145
1733697658187348700,3.8873486328125,-0.020656051114201546,-0.020227689296007156,0.0017108304891735315
1733697658197301800,3.8973017578125,-0.023014547303318977,-0.022397900000214577,-0.0016199848614633083
1733697658207255800,3.907255859375,-0.026213061064481735,-0.022285960614681244,-0.0019494039006531239
1733697658217208800,3.917208740234375,-0.029388880357146263,-0.021921107545495033,-0.0023659225553274155
1733697658227163000,3.927162841796875,-0.03516046702861786,-0.017850486561655998,-0.0024864322040230036
1733697658237116000,3.937115966796875,-0.038215912878513336,-0.01271218340843916,-0.0010704295709729195
1733697658247069000,3.94706884765625,-0.04037753865122795,-0.008478783071041107,-0.0023825170937925577
1733697658257023000,3.95702294921875,-0.03891732916235924,-0.0064920648001134396,-0.003930346108973026
1733697658266976000,3.96697607421875,-0.03777182102203369,-0.007688079960644245,-0.006845531985163689
1733697658276929800,3.9769296875,-0.03536991775035858,-0.00967027060687542,-0.008875659666955471
1733697658286882800,3.9868828125,-0.0357787124812603,-0.014261826872825623,-0.009288715198636055
1733697658296836900,3.9968369140625,-0.03290995582938194,-0.01815270446240902,-0.010987546294927597
1733697658306790000,4.006789794921875,-0.03091774322092533,-0.023718828335404396,-0.009096276946365833
1733697658316743000,4.016742919921875,-0.024198587983846664,-0.026911690831184387,-0.007173208519816399
1733697658326697000,4.026697021484375,-0.021644020453095436,-0.031923189759254456,-0.00819847360253334
1733697658336650000,4.03664990234375,-0.020555853843688965,-0.03273066133260727,-0.006596848368644714
1733697658346603800,4.046603759765625,-0.02018181048333645,-0.03141246736049652,-0.006176969967782497
1733697658356556800,4.056556884765625,-0.02469613403081894,-0.029683278873562813,-0.005572432652115822
1733697658366510800,4.0665107421875,-0.021324599161744118,-0.02672792412340641,-0.005945799872279167
1733697658376464000,4.0764638671875,-0.02074562944471836,-0.025114580988883972,-0.005560440011322498
1733697658386417000,4.0864169921875,-0.015133462846279144,-0.02988470159471035,-0.00475592166185379
1733697658396371000,4.096370849609375,-0.01366126723587513,-0.03205730766057968,-0.0066387769766151905
1733697658406324000,4.106323974609375,-0.005684387870132923,-0.033494483679533005,-0.006696011871099472
1733697658416277800,4.11627783203125,0.006978943012654781,-0.04032842442393303,-0.010684894397854805
1733697658426230800,4.126230712890625,0.018048161640763283,-0.0431104451417923,-0.009215375408530235
1733697658436184800,4.136184814453125,0.02693566307425499,-0.044606342911720276,-0.004486400634050369
1733697658446137900,4.146137939453125,0.031794287264347076,-0.04084482416510582,-0.0007397192530333996
1733697658456091000,4.1560908203125,0.032208144664764404,-0.03484551981091499,0.000764167751185596
1733697658466045000,4.166044921875,0.031480394303798676,-0.027854593470692635,0.0008624130859971046
1733697658475998000,4.175998046875,0.025399331003427505,-0.021250220015645027,-0.0023347116075456142
1733697658485952000,4.185951904296875,0.020260481163859367,-0.018664803355932236,-0.004779091104865074
1733697658495905000,4.195905029296875,0.013356502167880535,-0.01592467725276947,-0.0066749961115419865
1733697658505858800,4.20585888671875,0.008117806166410446,-0.013561797328293324,-0.008476292714476585
1733697658515811800,4.215811767578125,-0.000033597927540540695,-0.010007276199758053,-0.00790158286690712
1733697658525766000,4.225765869140625,-0.003725099842995405,-0.009124962612986565,-0.009838541969656944
1733697658535719000,4.235718994140625,-0.013710622675716877,-0.01243979949504137,-0.010466781444847584
1733697658545672000,4.245671875,-0.0194514412432909,-0.015794821083545685,-0.013514143414795399
1733697658555626000,4.2556259765625,-0.03143459931015968,-0.019878245890140533,-0.011883489787578583
1733697658565579000,4.2655791015625,-0.044540777802467346,-0.017455756664276123,-0.00817231833934784
1733697658575532800,4.27553271484375,-0.05366742983460426,-0.008773851208388805,-0.005848710425198078
1733697658585485800,4.28548583984375,-0.04898253455758095,-0.0017788587138056755,-0.0071335164830088615
1733697658595439900,4.29543994140625,-0.037287261337041855,0.004775979556143284,-0.008587602525949478
1733697658605393000,4.305392822265625,-0.03049483336508274,0.014662384055554867,-0.006826465018093586
1733697658615346000,4.315345947265625,-0.024525092914700508,0.024353094398975372,-0.004071424715220928
1733697658625300000,4.325300048828125,-0.018845893442630768,0.026557516306638718,0.0003681303933262825
1733697658635253000,4.3352529296875,-0.012190921232104301,0.022431746125221252,0.002586010843515396
1733697658645207000,4.34520703125,-0.005524751730263233,0.013786042109131813,0.00555583368986845
1733697658655160000,4.35516015625,-0.0012581010814756155,0.004842614755034447,0.005621613934636116
1733697658665113300,4.36511328125,0.001966561656445265,-0.004997260868549347,0.003799119731411338
1733697658675066400,4.37506640625,0.005060356110334396,-0.01374761015176773,0.00021983124315738678
1733697658685019400,4.385019287109375,0.006054938770830631,-0.015192612074315548,-0.00008101318962872028
1733697658694973400,4.394973388671875,0.004258903209120035,-0.014815508387982845,-0.003046709345653653
1733697658704926500,4.404926513671875,0.002579939318820834,-0.009820722043514252,-0.0047827307134866714
1733697658714880500,4.414880615234375,0.0018742016982287169,-0.006887250114232302,-0.004453830420970917
1733697658724833500,4.42483349609375,-0.0016032520215958357,-0.008151872083544731,-0.0036292090080678463
1733697658734787600,4.43478759765625,-0.0033678626641631126,-0.0077201733365654945,-0.0019700597040355206
1733697658744740600,4.44474072265625,-0.006146435625851154,-0.007915104739367962,-0.004641250241547823
1733697658754694400,4.4546943359375,-0.009214397519826889,-0.006960361264646053,-0.00620186235755682
1733697658764647400,4.4646474609375,-0.009309199638664722,-0.0077071236446499825,-0.006402264349162579
1733697658774600400,4.474600341796875,-0.011135062202811241,-0.005945176351815462,-0.006981502287089825
1733697658784554500,4.484554443359375,-0.01132405549287796,-0.003079348709434271,-0.0054870303720235825
1733697658794507500,4.494507568359375,-0.01402956247329712,0.0036832161713391542,-0.0033117602579295635
1733697658804461600,4.504461669921875,-0.015409555286169052,0.00825018621981144,-0.0025285377632826567
1733697658814414600,4.51441455078125,-0.015098231844604015,0.009863795712590218,0.00016018981114029884
1733697658824368400,4.524368408203125,-0.013265546411275864,0.011108443140983582,0.000017869984731078148
1733697658834321400,4.5343212890625,-0.006181005854159594,0.007457516621798277,-0.0005142295267432928
1733697658844274400,4.5442744140625,-0.004240734037011862,0.006863659247756004,0.0004824188072234392
1733697658854228500,4.554228515625,-0.0018814395880326629,0.0039168717339634895,0.0025069538969546556
1733697658864181500,4.564181396484375,0.0007310595829039812,0.0020547499880194664,0.003203317755833268
1733697658874135600,4.574135498046875,0.0025286932941526175,-0.0025168322026729584,0.004004396498203278
1733697658884088600,4.584088623046875,0.004632595926523209,-0.006214507389813662,0.001974867656826973
1733697658894042400,4.59404248046875,0.0017111084889620543,-0.009215889498591423,-0.0008030757308006287
1733697658903995400,4.603995361328125,-0.00033384421840310097,-0.011288760229945183,-0.00417785719037056
1733697658913948400,4.613948486328125,-0.0031815622933208942,-0.012434186413884163,-0.0062697697430849075
1733697658923902500,4.62390234375,-0.006887705996632576,-0.011019648052752018,-0.007555253803730011
1733697658933855500,4.63385546875,-0.008881081826984882,-0.009590329602360725,-0.0085118617862463
1733697658943809500,4.6438095703125,-0.009893293492496014,-0.006915269419550896,-0.0086053516715765
1733697658953762600,4.653762451171875,-0.013285893946886063,-0.004063556902110577,-0.008288435637950897
1733697658963716600,4.663716552734375,-0.012748694978654385,-0.004233658313751221,-0.004964756313711405
1733697658973669600,4.673669677734375,-0.012264799326658249,-0.004889594856649637,-0.0023053232580423355
1733697658983623400,4.68362353515625,-0.014103425666689873,-0.00438522407785058,-0.00013618008233606815
1733697658993576400,4.693576416015625,-0.012926308438181877,-0.004805471282452345,0.0013722344301640987
1733697659003529500,4.703529541015625,-0.015606246888637543,-0.005590038374066353,0.0019288351759314537
1733697659013483500,4.7134833984375,-0.01763397827744484,-0.006537324748933315,0.0016819600714370608
1733697659023436500,4.7234365234375,-0.018808383494615555,-0.0038875495083630085,-0.00031635677441954613
1733697659033390600,4.733390625,-0.02184172347187996,0.0006286387797445059,-0.0033345171250402927
1733697659043343600,4.743343505859375,-0.02305230125784874,0.0012880258727818727,-0.0070541128516197205
1733697659053297400,4.75329736328125,-0.02190101519227028,0.0024856494273990393,-0.008022705093026161
1733697659063250400,4.76325048828125,-0.02234772965312004,0.0031329502817243338,-0.005157783627510071
1733697659073204500,4.77320458984375,-0.01794951967895031,0.0015968389343470335,-0.003089039819315076
1733697659083157500,4.783157470703125,-0.008995700627565384,0.0008653937838971615,-0.0022657904773950577
1733697659093110500,4.793110595703125,-0.006615367718040943,0.003562643425539136,-0.0018468755297362804
1733697659103064600,4.803064697265625,-0.0012394544901326299,0.001627239864319563,-0.00010464852675795555
1733697659113017600,4.813017578125,-0.0009539636084809899,-0.0024689682759344578,-0.0013976132031530142
1733697659122971600,4.8229716796875,-0.001260084449313581,-0.000520146160852164,-0.0034126657992601395
1733697659132924700,4.832924560546875,-0.003089409787207842,-0.000052761402912437916,-0.006873710080981255
1733697659142878500,4.84287841796875,-0.0018334060441702604,0.0024278874043375254,-0.007691847160458565
1733697659152831500,4.85283154296875,0.0014041988179087639,0.003636962501332164,-0.003967416472733021
1733697659162784500,4.862784423828125,0.002089486923068762,0.005728523712605238,-0.00020172051154077053
1733697659172738600,4.872738525390625,0.004206966608762741,0.006014280952513218,0.005474540870636702
1733697659182691600,4.882691650390625,0.007302453741431236,0.008240674622356892,0.00828767940402031
1733697659192645600,4.892645751953125,0.007277419790625572,0.009500616230070591,0.008645076304674149
1733697659202598700,4.9025986328125,0.005905366502702236,0.004283606540411711,0.00809519924223423
1733697659212552400,4.912552490234375,0.004671790171414614,-0.00311518763191998,0.003449580632150173
1733697659222505500,4.92250537109375,0.0003820324782282114,-0.011811168864369392,0.0019433487905189395
1733697659232459500,4.93245947265625,-0.0035685007460415363,-0.014540376141667366,-0.0030277075711637735
1733697659242412500,4.94241259765625,-0.008684106171131134,-0.013533659279346466,-0.004056965932250023
1733697659252365600,4.952365478515625,-0.012041287496685982,-0.0070443348959088326,-0.006615198217332363
1733697659262319600,4.962319580078125,-0.01335577666759491,0.0012729137670248747,-0.0021428323816508055
1733697659272272600,4.972272705078125,-0.012385320849716663,0.007759841624647379,-0.0004802208859473467
1733697659282226700,4.982226806640625,-0.00915619172155857,0.011534804478287697,0.0006906253984197974
1733697659292179700,4.9921796875,-0.004428548738360405,0.010752900503575802,0.002622748725116253
1733697659302133500,5.002133544921875,-0.000031100818887352943,0.007889547385275364,0.0027940459549427032
1733697659312086500,5.01208642578125,0.004456591792404652,0.0022633536718785763,0.002731461776420474
1733697659322039600,5.02203955078125,0.0072309961542487144,-0.0006705355481244624,0.002883684588596225
1733697659331993600,5.03199365234375,0.008195593021810055,-0.003101469250395894,0.0029926078859716654
1733697659341946600,5.041946533203125,0.006848074495792389,-0.00293175270780921,0.001334844040684402
1733697659351900700,5.051900634765625,0.004666678607463837,-0.002122950740158558,0.0014919704990461469
1733697659361853700,5.061853759765625,0.003226082306355238,-0.00005540123675018549,0.0018437999533489347
1733697659371807500,5.071807373046875,0.0007927517872303724,0.00045992041123099625,-0.0004150932654738426
1733697659381760500,5.081760498046875,-0.0006083316402509809,0.000023417058400809765,-0.0003433192614465952
1733697659391714600,5.091714599609375,0.0012217925395816565,-0.003140950808301568,-0.0012850130442529917
1733697659401667600,5.10166748046875,-0.0005690264515578747,-0.005945093464106321,-0.002109502675011754
1733697659411620600,5.11162060546875,-0.0015868865884840488,-0.007881212048232555,-0.0021366665605455637
1733697659421574700,5.12157470703125,-0.00004503130912780762,-0.011117177084088326,-0.003092515515163541
1733697659431527700,5.131527587890625,-0.005197981372475624,-0.008098217658698559,-0.0018458899576216936
1733697659441481500,5.1414814453125,-0.0036691012792289257,-0.006839952431619167,-0.004965700209140778
1733697659451434500,5.1514345703125,-0.004368447232991457,-0.0037978235632181168,-0.003952367696911097
1733697659461388500,5.161388427734375,-0.003838550765067339,-0.0013525267131626606,-0.003316460410133004
1733697659471341600,5.171341552734375,-0.0018651483114808798,-0.00025876652216538787,0.001697206636890769
1733697659481295600,5.181295654296875,-0.001966282958164811,0.0007328944047912955,0.0037831137888133526
1733697659491248600,5.19124853515625,-0.0014283244963735342,-0.0004013458383269608,0.007997832261025906
1733697659501201700,5.20120166015625,-0.004087864421308041,-0.0006844119052402675,0.007250109687447548
1733697659511155700,5.21115576171875,-0.004124349914491177,-0.001822380581870675,0.004531022626906633
1733697659521108700,5.221108642578125,-0.003905759658664465,-0.000012944918125867844,-0.000022437190636992455
1733697659531062500,5.2310625,-0.004529205616563559,0.00023313116980716586,-0.0034520558547228575
1733697659541015600,5.241015625,-0.005255871452391148,0.0023328657262027264,-0.0025191763415932655
1733697659550969600,5.250969482421875,-0.0049690487794578075,0.0030535170808434486,-0.0014331396669149399
1733697659560922600,5.260922607421875,-0.004710940644145012,0.0038076541386544704,0.000329992501065135
1733697659570875600,5.270875732421875,-0.0045852395705878735,0.003395663108676672,-0.00007534073665738106
1733697659580829700,5.28082958984375,-0.004442279227077961,0.003259252989664674,0.0014139791019260883
1733697659590782700,5.29078271484375,0.0002387592103332281,0.0014853214379400015,-0.000011877389624714851
1733697659600736500,5.300736572265625,-0.00010139355435967445,-0.001365224365144968,-0.001976077212020755
1733697659610689500,5.310689453125,0.0014102165587246418,-0.0037255838979035616,-0.0036506729666143656
1733697659620643600,5.3206435546875,0.0013266082387417555,-0.007153229787945747,-0.0038717833813279867
1733697659630596600,5.3305966796875,0.003098675748333335,-0.0061199236661195755,-0.004693102091550827
1733697659640550700,5.340550537109375,0.006161100696772337,-0.003086400916799903,-0.003225713036954403
1733697659650503700,5.350503662109375,0.008322522044181824,-0.0004661165294237435,-0.0018589789979159832
1733697659660456700,5.360456787109375,0.007677559275180101,0.001903747208416462,0.001178343198262155
1733697659670410800,5.37041064453125,0.006104429718106985,0.0034337330143898726,0.0010020419722422957
1733697659680363800,5.38036376953125,0.007283726707100868,0.007723481860011816,0.0031060585752129555
1733697659690317800,5.39031787109375,0.004706052131950855,0.0115594994276762,0.005280529614537954
1733697659700270800,5.400270751953125,0.00458780862390995,0.013186424039304256,0.004258408211171627
1733697659710225000,5.410224853515625,0.0037118943873792887,0.009912334382534027,0.0011891151079908013
1733697659720178000,5.420177978515625,0.003782304935157299,0.0032473530154675245,-0.0036603943444788456
1733697659730131000,5.430130859375,0.008165335282683372,-0.0027799131348729134,-0.01083282008767128
1733697659740085000,5.4400849609375,0.00821934174746275,-0.004326325841248035,-0.012309262529015541
1733697659750038000,5.4500380859375,0.01185881718993187,-0.007231302093714476,-0.011518570594489574
1733697659759991800,5.45999169921875,0.015155871398746967,-0.011577006429433823,-0.007915526628494263
1733697659769944800,5.46994482421875,0.017453113570809364,-0.015811432152986526,-0.004645964130759239
1733697659779899000,5.47989892578125,0.023301200941205025,-0.015893667936325073,-0.0036217919550836086
1733697659789852000,5.489851806640625,0.03908868506550789,-0.014994852244853973,0.0008837437490001321
1733697659799806000,5.499805908203125,0.0567840114235878,-0.01768910139799118,0.006041901186108589
1733697659809759000,5.509759033203125,0.0681581050157547,-0.021583974361419678,0.014244170859456062
1733697659819712000,5.5197119140625,0.0683707743883133,-0.022662512958049774,0.021138789132237434
1733697659829665800,5.529665771484375,0.06370944529771805,-0.0222792848944664,0.023324444890022278
1733697659839618800,5.539618896484375,0.04842815175652504,-0.01554896216839552,0.02299216389656067
1733697659849572900,5.54957275390625,0.031674738973379135,-0.007989845238626003,0.017615508288145065
1733697659859526000,5.55952587890625,0.014955801889300346,-0.002447589999064803,0.006818292662501335
1733697659869480000,5.56947998046875,-0.00028307223692536354,0.00009226653492078185,-0.004256196320056915
1733697659879433000,5.579432861328125,-0.01475723460316658,-0.006544641684740782,-0.01633838564157486
1733697659889385700,5.5893857421875,-0.029272794723510742,-0.01239028014242649,-0.019552022218704224
1733697659899340000,5.599340087890625,-0.039943814277648926,-0.020293477922677994,-0.021603189408779144
1733697659909292800,5.609292724609375,-0.04664459452033043,-0.021278314292430878,-0.017046786844730377
1733697659919246800,5.619246826171875,-0.047900378704071045,-0.01872977986931801,-0.013941914774477482
1733697659929199600,5.62919970703125,-0.04800397530198097,-0.015643710270524025,-0.011505121365189552
1733697659939154000,5.63915380859375,-0.0435299351811409,-0.010752572678029537,-0.008484482765197754
1733697659949106700,5.649106689453125,-0.036934882402420044,-0.004013975616544485,-0.006688180845230818
1733697659959061000,5.65906103515625,-0.028601836413145065,0.0023207268677651882,-0.005536431446671486
1733697659969013800,5.669013671875,-0.020765485242009163,0.003913030959665775,-0.0015978827141225338
1733697659978966800,5.678966796875,-0.01414934266358614,0.005414843559265137,0.003023686585947871
1733697659988920800,5.6889208984375,-0.005816045217216015,0.004010558594018221,0.005166998598724604
1733697659998873600,5.69887353515625,0.0028580366633832455,0.0025977669283747673,0.006222636438906193
1733697660008828000,5.708827880859375,0.005976598244160414,0.0013018726604059339,0.010130292735993862
1733697660018780700,5.71878076171875,0.010449477471411228,0.0016946739051491022,0.008883972652256489
1733697660028735000,5.72873486328125,0.013369900174438953,-0.0014814117457717657,0.005948370322585106
1733697660038687700,5.738687744140625,0.01358594000339508,-0.004948006011545658,0.003029332961887121
1733697660048642000,5.74864208984375,0.014563852921128273,-0.010865549556910992,-0.0000498136505484581
1733697660058594800,5.7585947265625,0.011146636679768562,-0.013243444263935089,-0.0044738976284861565
1733697660068547800,5.7685478515625,0.010782849043607712,-0.013622146099805832,-0.002748435130342841
1733697660078501600,5.778501708984375,0.006961701903492212,-0.013500776141881943,-0.005049725063145161
1733697660088454700,5.78845458984375,0.003776028286665678,-0.012614741921424866,-0.002611068543046713
1733697660098408700,5.79840869140625,0.0021060083527117968,-0.007865863852202892,-0.0010359559673815966
1733697660108361700,5.80836181640625,-0.0001108068972826004,-0.005438126157969236,0.00117340253200382
1733697660118315800,5.818315673828125,-0.003710442455485463,-0.002910492243245244,0.0006033128593116999
1733697660128268800,5.828268798828125,-0.004191409330815077,-0.005742764100432396,0.00027494505047798157
1733697660138222600,5.83822265625,-0.0063515095971524715,-0.006632509641349316,-0.001057567074894905
1733697660148175600,5.848175537109375,-0.009984327480196953,-0.006838638335466385,0.001569108571857214
1733697660158128600,5.858128662109375,-0.01049254834651947,-0.00527536403387785,0.002510363468900323
1733697660168082700,5.868082763671875,-0.009674159809947014,-0.00287825264967978,0.0035564531572163105
1733697660178035700,5.87803564453125,-0.00961104966700077,0.0018246362451463938,0.002865228336304426
1733697660187989800,5.88798974609375,-0.007370798848569393,0.005005782004445791,0.0013056813040748239
1733697660197942800,5.89794287109375,-0.01115194708108902,0.006597008090466261,0.0022174157202243805
1733697660207896800,5.907896728515625,-0.008372406475245953,0.0064436099492013454,0.0010837081354111433
1733697660217849900,5.917849853515625,-0.004792533814907074,0.003228431334719062,0.0008766999235376716
1733697660227803000,5.927802978515625,-0.0038678841665387154,0.0034409514628350735,-0.0007254576776176691
1733697660237756700,5.937756591796875,-0.0036599431186914444,0.0006602893699891865,-0.0004912854637950659
1733697660247709700,5.947709716796875,-0.001480944687500596,-0.00008965679444372654,0.0011082091368734837
1733697660257663700,5.957663818359375,0.0011589364148676395,-0.002791799372062087,0.0016999891959130764
1733697660267616800,5.96761669921875,0.002150963991880417,-0.0026796802412718534,0.0007524365792050958
1733697660277570800,5.97757080078125,0.0023175186943262815,-0.0025441532488912344,-0.0004729770589619875
1733697660287523800,5.98752392578125,0.0013627756852656603,-0.0030645348597317934,-0.0004575306084007025
1733697660297477600,5.9974775390625,0.0029566737357527018,-0.0010957862250506878,0.001415936159901321
1733697660307430700,6.0074306640625,0.003420063527300954,-0.0007477109902538359,0.0013632056070491672
1733697660317383700,6.0173837890625,-0.0017678815638646483,0.0029748836532235146,0.002987028332427144
1733697660327337700,6.027337646484375,-0.006187929771840572,0.0030949923675507307,0.0021398768294602633
1733697660337290800,6.037290771484375,-0.00977068580687046,0.007813988253474236,0.003064992604777217
1733697660347244800,6.047244873046875,-0.01235847920179367,0.009429994970560074,0.002592814154922962
1733697660357197800,6.05719775390625,-0.015520772896707058,0.007862010039389133,-0.002786224940791726
1733697660367151600,6.067151611328125,-0.019008981063961983,0.009630615822970867,-0.0041348496451973915
1733697660377104600,6.077104736328125,-0.0221141055226326,0.009503132663667202,-0.004352056887000799
1733697660387058700,6.08705859375,-0.02176869474351406,0.013817453756928444,-0.0030449777841567993
1733697660397011700,6.09701171875,-0.023080090060830116,0.014644182287156582,-0.0019277685787528753
1733697660406964700,6.10696484375,-0.021023064851760864,0.015039395540952682,-0.00038926047272980213
1733697660416918800,6.116918701171875,-0.018706217408180237,0.016304679214954376,0.0007294948445633054
1733697660426871800,6.126871826171875,-0.013925309292972088,0.019111651927232742,-0.0008321828208863735
1733697660436825900,6.136825927734375,-0.004768357612192631,0.019441979005932808,-0.0007031410932540894
1733697660446779000,6.14677880859375,-0.000910502509213984,0.019310951232910156,0.003718238789588213
1733697660456732700,6.156732666015625,0.0041832695715129375,0.015263563953340054,0.005833068862557411
1733697660466685700,6.166685791015625,0.00698198564350605,0.01682763732969761,0.011703208088874817
1733697660476639700,6.1766396484375,0.008227286860346794,0.017906738445162773,0.010811449028551579
1733697660486592800,6.1865927734375,0.0071052978746593,0.018993839621543884,0.01214302983134985
1733697660496545800,6.1965458984375,0.005030906293541193,0.016277499496936798,0.010783499106764793
1733697660506499800,6.206499755859375,0.0019248616881668568,0.007431543432176113,0.007554416544735432
1733697660516452900,6.216452880859375,-0.00015458627603948116,-0.002354031428694725,0.004958180710673332
1733697660526406700,6.22640673828125,-0.004413513466715813,-0.00852111354470253,0.00307159754447639
1733697660536359700,6.236359619140625,-0.006000864785164595,-0.012202905490994453,0.0018887142650783062
1733697660546313700,6.246313720703125,-0.006772914901375771,-0.008079000748693943,0.003572098445147276
1733697660556266800,6.256266845703125,-0.004099312704056501,-0.0038870025891810656,0.0070123570039868355
1733697660566220800,6.266220703125,0.003892034525051713,0.0021706237457692623,0.01007472537457943
1733697660576173800,6.276173828125,0.0124506875872612,0.009067467413842678,0.015852373093366623
1733697660586126800,6.286126953125,0.022002113983035088,0.009654960595071316,0.020629018545150757
1733697660596081000,6.296080810546875,0.02867136523127556,0.0026459423825144768,0.023855334147810936
1733697660606034000,6.306033935546875,0.03380993381142616,-0.0030966317281126976,0.02327636256814003
1733697660615987700,6.31598779296875,0.035591792315244675,-0.006350917275995016,0.023018980398774147
1733697660625940700,6.325940673828125,0.03370281308889389,-0.004265662282705307,0.01840771734714508
1733697660635894800,6.335894775390625,0.026606598868966103,0.003202572464942932,0.014065553434193134
1733697660645847800,6.345847900390625,0.019575320184230804,0.014623804949223995,0.008068912662565708
1733697660655801900,6.3558017578125,0.010348761454224586,0.023449309170246124,0.005940794013440609
1733697660665754600,6.365754638671875,0.004336941987276077,0.02594788558781147,0.0028456682339310646
1733697660675707600,6.375707763671875,0.0018738324288278818,0.018707213923335075,0.004438357427716255
1733697660685661400,6.385661376953125,0.0007268090266734362,0.008728348650038242,0.00573345273733139
1733697660695614500,6.395614501953125,0.005505646578967571,0.001704964553937316,0.006519206799566746
1733697660705568500,6.405568603515625,0.004207088612020016,-0.0012082671746611595,0.005392423830926418
1733697660715521500,6.415521484375,0.005354644730687141,-0.001072978600859642,0.005654744803905487
1733697660725475600,6.4254755859375,0.0026906852144747972,0.005564417690038681,0.0037604384124279022
1733697660735428600,6.4354287109375,-0.0007528914138674736,0.010087963193655014,0.005856638308614492
1733697660745381600,6.445381591796875,-0.0018900611903518438,0.017295541241765022,0.004147687926888466
1733697660755335700,6.455335693359375,-0.004248134791851044,0.019360458478331566,0.0034667435102164745
1733697660765288700,6.465288818359375,-0.00464574433863163,0.01620354875922203,0.003766082925722003
1733697660775242500,6.475242431640625,-0.0032906257547438145,0.013093620538711548,0.0034173154272139072
1733697660785195500,6.485195556640625,-0.001521487720310688,0.008411782793700695,0.004029575735330582
1733697660795149600,6.495149658203125,-0.0014590548817068338,0.008379783481359482,0.005818195641040802
1733697660805102600,6.5051025390625,-0.0002720840275287628,0.008509745821356773,0.007589996792376041
1733697660815056600,6.515056640625,0.0016118912026286125,0.012468451634049416,0.007454961538314819
1733697660825009700,6.525009765625,0.0011860518716275692,0.013672733679413795,0.006394756957888603
1733697660834963500,6.53496337890625,-0.0015126361977308989,0.018075231462717056,0.006680607795715332
1733697660844916500,6.54491650390625,-0.002438351046293974,0.019771665334701538,0.0033958645071834326
1733697660854869500,6.554869384765625,-0.0061380257830023766,0.021744422614574432,0.003592471592128277
1733697660864823600,6.564823486328125,-0.004983545746654272,0.022079182788729668,-0.00048083323054015636
1733697660874776600,6.574776611328125,-0.0070687332190573215,0.01989741250872612,-0.0009740616660565138
1733697660884730600,6.584730712890625,-0.005072427913546562,0.017647042870521545,-0.0015351895708590746
1733697660894683600,6.59468359375,-0.00500165019184351,0.01836872473359108,-0.000532166101038456
1733697660904637700,6.6046376953125,-0.002255665138363838,0.01699746400117874,0.0004449477419257164
1733697660914590700,6.6145908203125,-0.00034201773814857006,0.017124244943261147,0.0018212302820757031
1733697660924543700,6.624543701171875,0.0033616404980421066,0.016765516251325607,0.002358656143769622
1733697660934497500,6.63449755859375,0.002044948749244213,0.016525473445653915,0.0037444999907165766
1733697660944450600,6.644450439453125,0.0006646325346082449,0.01800139807164669,0.004989261738955975
1733697660954404600,6.654404541015625,-0.0017268129158765078,0.02117750607430935,0.002591535681858659
1733697660964357600,6.664357666015625,-0.008188440464437008,0.021167650818824768,0.0033915494568645954
1733697660974311700,6.674311767578125,-0.00915692187845707,0.018207380548119545,0.003141718450933695
1733697660984264700,6.6842646484375,-0.012205176055431366,0.013141249306499958,0.0008253009291365743
1733697660994218500,6.694218505859375,-0.010301351547241211,0.010460219345986843,-0.0007908912375569344
1733697661004171500,6.704171630859375,-0.010044888593256474,0.006685188040137291,-0.0027163566555827856
1733697661014124500,6.71412451171875,-0.005216667428612709,0.000612380332313478,-0.004277941305190325
1733697661024078600,6.72407861328125,-0.0020951766055077314,-0.0032923466060310602,-0.0024693883024156094
1733697661034031600,6.734031494140625,0.001006451202556491,-0.010254152119159698,0.00032750540412962437
1733697661043985700,6.743985595703125,0.0034144814126193523,-0.012968446128070354,0.002918228507041931
1733697661053938700,6.753938720703125,-0.00046297465451061726,-0.012048617005348206,-0.00021161092445254326
1733697661063892500,6.763892578125,0.0012419810518622398,-0.008103410713374615,-0.0009530349634587765
1733697661073845500,6.773845458984375,-0.0015011811628937721,-0.0006392115610651672,-0.00480247288942337
1733697661083799600,6.783799560546875,-0.0012676218757405877,0.0015861259307712317,-0.007845400832593441
1733697661093752600,6.793752685546875,-0.0026628586929291487,0.00023245852207764983,-0.004582501016557217
1733697661103705600,6.80370556640625,0.000507634598761797,-0.0028834401164203882,-0.00005352916195988655
1733697661113659600,6.81365966796875,0.0018191812559962273,-0.005894185043871403,0.003608796512708068
1733697661123612700,6.82361279296875,0.0006790822371840477,-0.006483542732894421,0.005597645416855812
1733697661133566700,6.833566650390625,0.00015423307195305824,-0.007064602337777615,0.0035760931205004454
1733697661143519700,6.843519775390625,-0.003955557011067867,-0.01151900552213192,0.0006586001254618168
1733697661153473500,6.8534736328125,-0.009890194982290268,-0.016138719394803047,-0.0034952512942254543
1733697661163426600,6.863426513671875,-0.017460230737924576,-0.020097773522138596,-0.007964035496115685
1733697661173380600,6.873380615234375,-0.02307603694498539,-0.01999630779027939,-0.01170338038355112
1733697661183333600,6.883333740234375,-0.02728383243083954,-0.014536562375724316,-0.015411299653351307
1733697661193286700,6.89328662109375,-0.02601047046482563,-0.008791213855147362,-0.012082241475582123
1733697661203240700,6.90324072265625,-0.023032257333397865,-0.004112838767468929,-0.008386306464672089
1733697661213193700,6.91319384765625,-0.017864607274532318,-0.0034922666382044554,-0.0066177817061543465
1733697661223147500,6.9231474609375,-0.009552348405122757,-0.004174035508185625,-0.001890404149889946
1733697661233100500,6.9331005859375,-0.002987174317240715,-0.006176394410431385,0.0015260463114827871
1733697661243054600,6.9430546875,0.0019231622572988272,-0.010185517370700836,0.0005832873284816742
1733697661253007600,6.953007568359375,0.006635779514908791,-0.014287278056144714,-0.0007533945608884096
1733697661262961700,6.962961669921875,0.0074773384258151054,-0.01865006797015667,-0.000924103194847703
1733697661272914700,6.972914794921875,0.009147994220256805,-0.020399583503603935,-0.0004125232808291912
1733697661282867700,6.98286767578125,0.007123459130525589,-0.023151161149144173,-0.002992593450471759
1733697661292821800,6.99282177734375,0.003877975046634674,-0.019075892865657806,-0.0016008515376597643
1733697661302774800,7.00277490234375,-0.00012076110579073429,-0.01855045184493065,-0.005305042490363121
1733697661312728600,7.012728515625,-0.0013875262811779976,-0.01955554261803627,-0.0046717035584151745
1733697661322681600,7.022681640625,-0.0019499858608469367,-0.018982430920004845,-0.006842179223895073
1733697661332635600,7.0326357421875,-0.005054638721048832,-0.022304819896817207,-0.009703891351819038
1733697661342588700,7.042588623046875,-0.007329244632273912,-0.020787084475159645,-0.01097208820283413
1733697661352542700,7.052542724609375,-0.007027465850114822,-0.02222897857427597,-0.008830122649669647
1733697661362495700,7.062495849609375,-0.007889797911047935,-0.023507030680775642,-0.00627215625718236
1733697661372448800,7.07244873046875,-0.007597424555569887,-0.020318632945418358,-0.005028179381042719
1733697661382402600,7.082402587890625,-0.007928721606731415,-0.020140202715992928,-0.003868639003485441
1733697661392355600,7.09235546875,-0.007409204263240099,-0.016763346269726753,-0.003999321721494198
1733697661402309600,7.1023095703125,-0.006243804935365915,-0.01602964475750923,-0.004640344530344009
1733697661412262700,7.1122626953125,-0.006074313074350357,-0.01804010570049286,-0.006176415830850601
1733697661422216700,7.122216796875,-0.00910046324133873,-0.018392708152532578,-0.0032927452120929956
1733697661432169700,7.132169677734375,-0.009713146835565567,-0.018901271745562553,-0.004511432722210884
1733697661442123800,7.142123779296875,-0.012363257817924023,-0.01768101193010807,-0.004715430550277233
1733697661452076800,7.152076904296875,-0.012992508709430695,-0.014868264086544514,-0.0024352450855076313
1733697661462029600,7.162029541015625,-0.010956522077322006,-0.012752914801239967,-0.004456584341824055
1733697661471983600,7.171983642578125,-0.010381926782429218,-0.012000925838947296,-0.006618115119636059
1733697661481936600,7.1819365234375,-0.007268958725035191,-0.011535937897861004,-0.005077209789305925
1733697661491890700,7.191890625,-0.0065033454447984695,-0.012049729935824871,-0.007279162760823965
1733697661501843700,7.20184375,-0.007182718254625797,-0.014682264998555183,-0.005782733205705881
1733697661511797800,7.2117978515625,-0.006886206567287445,-0.011109383776783943,-0.0054740337654948235
1733697661521750800,7.221750732421875,-0.005058213137090206,-0.012966405600309372,-0.00425164308398962
1733697661531704600,7.23170458984375,-0.005163995549082756,-0.010949243791401386,-0.003030037973076105
1733697661541657600,7.24165771484375,-0.0061605507507920265,-0.009064258076250553,-0.0026153838261961937
1733697661551611600,7.251611572265625,-0.004880056716501713,-0.009540766477584839,-0.0026658636052161455
1733697661561564700,7.261564697265625,-0.0008640097221359611,-0.008146069012582302,-0.003834725124761462
1733697661571517700,7.271517578125,0.0017516561783850193,-0.010979009792208672,-0.0013623505365103483
1733697661581471700,7.2814716796875,0.004426002502441406,-0.011311639100313187,0.0009287669090554118
1733697661591424800,7.2914248046875,0.004408314824104309,-0.011372321285307407,0.0010352514218539
1733697661601378600,7.301378662109375,0.0030008340254426003,-0.011555014178156853,0.0034621902741491795
1733697661611331600,7.31133154296875,0.000634670490399003,-0.008428813889622688,0.0010059437481686473
1733697661621285600,7.32128564453125,-0.002602135529741645,-0.005562985315918922,0.0012261872179806232
1733697661631238700,7.33123876953125,-0.005454273894429207,-0.006692192982882261,-0.00028205406852066517
1733697661641192700,7.341192626953125,-0.006411414127796888,-0.007537746801972389,-0.003187828930094838
1733697661651145700,7.351145751953125,-0.006976533681154251,-0.008886249735951424,-0.007037757430225611
1733697661661098800,7.3610986328125,-0.00799226388335228,-0.010691340081393719,-0.009552046656608582
1733697661671052500,7.371052490234375,-0.006919382605701685,-0.011338058859109879,-0.007010302040725946
1733697661681005600,7.381005615234375,-0.005609373562037945,-0.00984455831348896,-0.005611343774944544
1733697661690959400,7.39095947265625,-0.0029129264876246452,-0.011368943378329277,-0.0022867887746542692
1733697661700912400,7.400912353515625,-0.003268458414822817,-0.00997611042112112,0.00047517591156065464
1733697661710866400,7.410866455078125,-0.0006519575836136937,-0.0065831588581204414,-0.001984506845474243
1733697661720819500,7.4208193359375,-0.00014276127330958843,-0.005294188857078552,-0.004289472941309214
1733697661730773500,7.4307734375,0.0028601086232811213,-0.0034785442985594273,-0.0037648039869964123
1733697661740726500,7.4407265625,0.003215640550479293,-0.0010822322219610214,-0.0007791339885443449
1733697661750679600,7.450679443359375,0.007450127974152565,-0.0016690217889845371,0.0016868084203451872
1733697661760633300,7.46063330078125,0.006271945312619209,-0.00036460551200434566,0.007733781822025776
1733697661770586400,7.47058642578125,0.006363876163959503,0.0019497366156429052,0.008840510621666908
1733697661780540400,7.48054052734375,0.002422930672764778,0.004385996609926224,0.008449824526906013
1733697661790493400,7.490493408203125,-0.0028008073568344116,0.005891270469874144,0.0036043901927769184
1733697661800447500,7.500447509765625,-0.003080971771851182,-0.004762172698974609,-0.0021499020513147116
1733697661810400500,7.510400390625,-0.007867947220802307,-0.011838016100227833,-0.004530644975602627
1733697661820354600,7.5203544921875,-0.01493065059185028,-0.01931004598736763,-0.006182604003697634
1733697661830307600,7.5303076171875,-0.020456239581108093,-0.01725371740758419,-0.008884104900062084
1733697661840260600,7.540260498046875,-0.020817097276449203,-0.01315617747604847,-0.0065229469910264015
1733697661850214400,7.55021435546875,-0.02044461853802204,-0.008932800963521004,-0.006544620264321566
1733697661860167400,7.56016748046875,-0.01664695143699646,-0.002416578121483326,-0.00469106063246727
1733697661870121500,7.57012158203125,-0.012172788381576538,0.002688626293092966,0.00010434514842927456
1733697661880074500,7.580074462890625,-0.0063463244587183,0.002296342747285962,-0.0003417343832552433
1733697661890028500,7.590028564453125,-0.00017849961295723915,0.002720804885029793,0.0001668746117502451
1733697661899981600,7.599981689453125,0.0019451049156486988,-0.0016960478387773037,0.0022268297616392374
1733697661909935400,7.609935302734375,0.0010678076650947332,-0.0030569785740226507,0.003580594900995493
1733697661919888400,7.619888427734375,0.002284073270857334,-0.004642091691493988,0.0025102703366428614
1733697661929841400,7.62984130859375,0.001947612501680851,-0.0051649874076247215,0.0011765898671001196
1733697661939795500,7.63979541015625,-0.0005736021557822824,-0.002917279489338398,-0.0005411491729319096
1733697661949748500,7.64974853515625,-0.0034390054643154144,-0.0006263942341320217,-0.0014181712176650763
1733697661959702500,7.65970263671875,-0.005772467236965895,0.0001033119042403996,-0.002777182264253497
1733697661969655600,7.669655517578125,-0.005325959995388985,-0.0021120207384228706,-0.003511917544528842
1733697661979609600,7.679609619140625,-0.0037938435561954975,-0.004980511497706175,-0.003458121558651328
1733697661989562600,7.689562744140625,-0.004701342433691025,-0.007923197001218796,-0.004052967298775911
1733697661999516400,7.699516357421875,-0.005497361067682505,-0.006718914955854416,-0.0037389802746474743
1733697662009469400,7.709469482421875,-0.002404161961749196,-0.00542291859164834,-0.004514217376708984
1733697662019422500,7.71942236328125,-0.005964808166027069,-0.004417042247951031,-0.0018782205879688263
1733697662029376500,7.72937646484375,-0.007662518415600061,-0.000434901739936322,-0.0017165800090879202
1733697662039329500,7.73932958984375,-0.006755445618182421,0.003477015532553196,-0.0029626733157783747
1733697662049283600,7.74928369140625,-0.006632242351770401,0.005727669224143028,-0.003320906776934862
1733697662059236600,7.759236572265625,-0.004237528424710035,0.00235344422981143,-0.0005248540546745062
1733697662069190400,7.7691904296875,-0.0049722944386303425,-0.003760374616831541,0.00015851319767534733
1733697662079143400,7.779143310546875,-0.005170700140297413,-0.006666415836662054,0.0010658521205186844
1733697662089097500,7.789097412109375,-0.003540417645126581,-0.007901433855295181,0.0026271576061844826
1733697662099050500,7.799050537109375,-0.002829353790730238,-0.004900583531707525,0.0025019890163093805
1733697662109004500,7.809004638671875,-0.002680855104699731,-0.001870814710855484,-0.0007852558046579361
1733697662118957600,7.81895751953125,-0.0012962777400389314,0.0015635977033525705,0.0011194369290024042
1733697662128910600,7.82891064453125,-0.0002376250922679901,0.0026154830120503902,0.001065624295733869
1733697662138864600,7.83886474609375,-0.00017930194735527039,0.0023009637370705605,0.0001348494552075863
1733697662148817700,7.848817626953125,-0.0008171750232577324,0.00259211054071784,0.00015164422802627087
1733697662158771500,7.858771484375,0.00015993881970643997,0.00032922253012657166,0.0008137059630826116
1733697662168724500,7.868724365234375,-0.0006747612496837974,-0.0010640383698046207,-0.00024329242296516895
1733697662178678500,7.878678466796875,-0.0014840959338471293,-0.00013566046254709363,-0.0010334523394703865
1733697662188631600,7.888631591796875,-0.0031301837880164385,-0.002903643297031522,-0.001634723972529173
1733697662198585600,7.898585693359375,-0.0014595827087759972,-0.002527072327211499,-0.0017638872377574444
1733697662208538600,7.90853857421875,-0.0025471129920333624,-0.0009371850755997002,-0.0007081723306328058
1733697662218491600,7.91849169921875,-0.001257610390894115,0.0014125218149274588,0.0017704316414892673
1733697662228445400,7.928445556640625,0.002490310464054346,-0.0006491134990938008,0.0006124762585386634
1733697662238398500,7.9383984375,-0.0006642037769779563,-0.00004031485877931118,0.0018039746209979057
1733697662248352500,7.9483525390625,-0.00022568786516785622,-0.0008019515662454069,0.0019052675925195217
1733697662258305500,7.958305419921875,-0.0019130666041746736,-0.00022271409397944808,0.002391294576227665
1733697662268259600,7.968259521484375,-0.005610279273241758,0.003962361719459295,0.003384108655154705
1733697662278212600,7.978212646484375,-0.009601824916899204,0.0017878904473036528,0.0006567653035745025
1733697662288166400,7.98816650390625,-0.006931438576430082,0.004839826840907335,-0.00046830298379063606
1733697662298119400,7.998119384765625,-0.00882894080132246,0.000990227679722011,-0.00425079045817256
1733697662308072400,8.008072509765626,-0.0075745233334600925,-0.0015594554133713245,-0.005251686088740826
1733697662318026500,8.018026611328125,-0.007556946482509375,-0.0018782357219606638,-0.006422944366931915
1733697662327979500,8.0279794921875,-0.0025157923810184,-0.004289818461984396,-0.005257421638816595
1733697662337933600,8.03793359375,-0.0019629201851785183,-0.0013052141293883324,-0.0016626869328320026
1733697662347886600,8.047886474609374,-0.00018328940495848656,-0.001759576378390193,0.0011202231980860233
1733697662357840600,8.057840576171875,0.0008577401749789715,-0.0014668949879705906,0.001899197930470109
1733697662367793700,8.067793701171874,0.0003899293951690197,0.0019625662826001644,0.0026716198772192
1733697662377747500,8.07774755859375,0.002679981756955385,0.004112802445888519,-0.000625639921054244
1733697662387700500,8.087700439453124,0.004340082406997681,0.005114060826599598,-0.0009716940112411976
1733697662397653500,8.097653564453125,0.005092425271868706,0.004197400528937578,-0.0001985782291740179
1733697662407607600,8.107607666015625,0.00536529952660203,0.001540243742056191,0.0013468832476064563
1733697662417560600,8.117560546875,0.005806052591651678,0.002860905136913061,0.00588570861145854
1733697662427514600,8.1275146484375,0.002557417843490839,0.007418144028633833,0.007314718794077635
1733697662437467600,8.137467529296876,-0.0006791218183934689,0.009385953657329082,0.004132241476327181
1733697662447421400,8.14742138671875,-0.0038446031976491213,0.00956578180193901,0.002553536556661129
1733697662457374500,8.15737451171875,-0.005280313082039356,0.003152624238282442,-0.002775448840111494
1733697662467328500,8.16732861328125,-0.008983122184872627,-0.005813789553940296,-0.005168705713003874
1733697662477281500,8.177281494140624,-0.015005861409008503,-0.010589104145765305,-0.006650222465395927
1733697662487235600,8.187235595703125,-0.01920236647129059,-0.010504425503313541,-0.00695192813873291
1733697662497188600,8.197188720703124,-0.023867424577474594,-0.004642541520297527,-0.004121786914765835
1733697662507141600,8.2071416015625,-0.02922576293349266,0.006974923424422741,-0.00020486372523009777
1733697662517095700,8.217095703125,-0.024673089385032654,0.0102836349979043,0.003246060572564602
1733697662527048700,8.227048583984375,-0.007574307266622782,0.0061033256351947784,0.0010035649174824357
1733697662537002500,8.23700244140625,-0.0006708609871566296,0.005973896011710167,0.001763098407536745
1733697662546955500,8.24695556640625,0.004143015947192907,0.0036722070071846247,0.0036616777069866657
1733697662556909600,8.25690966796875,0.006570220459252596,0.0017227730713784695,0.005112834274768829
1733697662566862600,8.266862548828126,0.007978977635502815,-0.0014798545744270086,0.004253309220075607
1733697662576816600,8.276816650390625,0.010021088644862175,-0.0020625542383641005,0.003725204383954406
1733697662586769700,8.286769775390624,0.008549527265131474,-0.0033163863699883223,0.002313235541805625
1733697662596722700,8.29672265625,0.006363337859511375,-0.003257796401157975,0.0009161412017419934
1733697662606676500,8.306676513671874,0.002407904015854001,-0.0015450895298272371,-0.001309369457885623
1733697662616629500,8.31662939453125,-0.0008102600695565343,-0.0008052633493207395,-0.0020300205796957016
1733697662626583600,8.32658349609375,0.0009808815084397793,-0.000257435895036906,-0.003608781611546874
1733697662636536600,8.33653662109375,0.0016767652705311775,-0.0022252455819398165,-0.002565621631219983
1733697662646490600,8.34649072265625,-0.0002723501529544592,-0.002751430496573448,-0.002663173945620656
1733697662656443600,8.356443603515626,-0.0011701018083840609,-0.004834289196878672,-0.0022213554475456476
1733697662666398000,8.36639794921875,-0.0010654896032065153,-0.0035689484793692827,-0.0018321196548640728
1733697662676351000,8.37635107421875,-0.0035472894087433815,-0.00034172978485003114,-0.0010214534122496843
1733697662686305000,8.386304931640625,-0.0020719505846500397,0.002973850816488266,-0.0014093955978751183
1733697662696258000,8.396258056640624,-0.0027052504010498524,0.006471114233136177,-0.0021391017362475395
1733697662706211000,8.406211181640625,-0.003727585542947054,0.004329454619437456,-0.0012843075674027205
1733697662716165000,8.4161650390625,-0.002349133137613535,0.0023360787890851498,-0.0005761729553341866
1733697662726118100,8.4261181640625,-0.0008295334409922361,-0.004969238303601742,0.0022616914939135313
1733697662736072000,8.436072021484375,0.0006985883228480816,-0.006436373572796583,0.0023857946507632732
1733697662746025000,8.44602490234375,-0.002450920408591628,-0.005750793498009443,0.003067044075578451
1733697662755979000,8.45597900390625,-0.004993973299860954,-0.002748612081632018,-0.0009167785756289959
1733697662765932000,8.46593212890625,-0.005913241766393185,0.0024921398144215345,-0.0023732739500701427
1733697662775886000,8.475885986328125,-0.004254358820617199,0.003588296938687563,-0.002772748004645109
1733697662785839000,8.485839111328126,-0.002190939849242568,0.0038010769058018923,-0.003112164558842778
1733697662795792100,8.495792236328125,-0.00297071342356503,0.0037158557679504156,-0.000922513660043478
1733697662805746200,8.50574609375,-0.0015242982190102339,0.002459833165630698,-0.0011540912091732025
1733697662815699200,8.51569921875,0.002592948731034994,0.001871008425951004,-0.0011538250837475061
1733697662825653000,8.525653076171874,0.0030121305026113987,-0.000021167623344808817,-0.0009580827318131924
1733697662835606000,8.53560595703125,0.006794351618736982,-0.0014353061560541391,-0.0013642148114740849
1733697662845560000,8.54556005859375,0.007446559611707926,-0.0033996535930782557,-0.0026262865867465734
1733697662855513000,8.55551318359375,0.009184006601572037,-0.004175965208560228,0.0013245126465335488
1733697662865467100,8.565467041015625,0.009774429723620415,-0.0025703508872538805,0.00038881460204720497
1733697662875420200,8.575420166015626,0.006778639741241932,-0.0011370375286787748,0.0010966828558593988
1733697662885373200,8.585373291015625,0.004773012362420559,0.0013756603002548218,0.001548218191601336
1733697662895327000,8.595326904296876,0.0027133235707879066,0.003229753114283085,0.00024699768982827663
1733697662905280000,8.605280029296875,0.0004935264587402344,0.0033910858910530806,-0.000037880148738622665
1733697662915234000,8.615234130859376,-0.0035701910965144634,0.0028856180142611265,-0.0012757175136357546
1733697662925187000,8.62518701171875,-0.006343394052237272,0.0026398843619972467,-0.0017253763508051634
1733697662935141000,8.63514111328125,-0.009135718457400799,0.0019549194257706404,-0.001557863550260663
1733697662945094100,8.64509423828125,-0.011082815937697887,0.0019222621340304613,-0.0013149753212928772
1733697662955048200,8.655048095703124,-0.011109979823231697,0.0008844282710924745,-0.000990336062386632
1733697662965001200,8.665001220703125,-0.00911830272525549,0.00010705692693591118,-0.00351664237678051
1733697662974955000,8.674955078125,-0.006440494209527969,-0.002201903611421585,-0.0037536639720201492
1733697662984908000,8.684907958984375,-0.0053799692541360855,-0.0054937792010605335,-0.0025011305697262287
1733697662994861000,8.694861083984375,-0.0025197339709848166,-0.004609875846654177,-0.002707259263843298
1733697663004815000,8.704815185546876,0.00011232122778892517,-0.004998642951250076,-0.0009033144451677799
1733697663014768000,8.71476806640625,0.0033171691466122866,-0.004273996688425541,0.0001931090373545885
1733697663024722200,8.72472216796875,0.005139623302966356,-0.003295230446383357,0.0035219797864556313
1733697663034675200,8.73467529296875,0.0042197671718895435,-0.0022669839672744274,0.0037371632643043995
1733697663044629000,8.74462890625,0.003878457471728325,0.0016785915940999985,0.0016510842833667994
1733697663054582000,8.75458203125,0.006935765966773033,0.002786466618999839,0.0004939408972859383
1733697663064536000,8.7645361328125,0.007393718231469393,0.0035578920505940914,0.00039209797978401184
1733697663074489000,8.774489013671875,0.007343384902924299,0.0016534656751900911,0.0018131607212126255
1733697663084442000,8.784442138671874,0.004813440144062042,0.0022407309152185917,0.006078936625272036
1733697663094396200,8.794396240234375,0.004014491569250822,0.006053578574210405,0.007150858640670776
1733697663104349200,8.80434912109375,-0.002108488930389285,0.008539004251360893,0.0067322347313165665
1733697663114303200,8.81430322265625,-0.007410310208797455,0.010449289344251156,0.0045963795855641365
1733697663124256300,8.82425634765625,-0.012742919847369194,0.006047065369784832,-0.00014693872071802616
1733697663134210000,8.8342099609375,-0.018219711259007454,0.0015226209070533514,-0.002835133345797658
1733697663144163000,8.8441630859375,-0.020929956808686256,-0.005989972967654467,-0.0029344819486141205
1733697663154117000,8.8541171875,-0.023586725816130638,-0.0038439976051449776,-0.004127311985939741
1733697663164070100,8.864070068359375,-0.025391068309545517,0.00020021683303639293,-0.0036639717873185873
1733697663174024200,8.874024169921874,-0.020520677790045738,0.008839511312544346,-0.0014945606235414743
1733697663183977200,8.883977294921875,-0.018194887787103653,0.014154968783259392,0.002156019676476717
1733697663193930200,8.89393017578125,-0.013739684596657753,0.01782160997390747,0.004003720823675394
1733697663203884000,8.903884033203125,-0.005790899973362684,0.018346834927797318,0.006239905953407288
1733697663213837000,8.913837158203124,-0.002497368725016713,0.018216339871287346,0.00596666568890214
1733697663223791000,8.923791015625,0.00061565893702209,0.015231125056743622,0.006373841315507889
1733697663233744100,8.933744140625,0.0038343556225299835,0.013089943677186966,0.006042543798685074
1733697663243698200,8.9436982421875,0.005020525306463242,0.009160722605884075,0.007053344510495663
1733697663253651200,8.953651123046875,0.006937202997505665,0.006278117187321186,0.005322822369635105
1733697663263605000,8.96360498046875,0.005115015432238579,0.006159285083413124,0.0035710749216377735
1733697663273558000,8.97355810546875,0.002379416488111019,0.009465334005653858,0.0006426629843190312
1733697663283511000,8.983510986328126,0.000908765709027648,0.01189780980348587,0.0014419581275433302
1733697663293465000,8.993465087890625,-0.000485931639559567,0.009801369160413742,0.0019871070981025696
1733697663303418000,9.003418212890624,-0.0017513061175122857,0.010559598915278912,0.00344741134904325
1733697663313372200,9.0133720703125,-0.0017766060773283243,0.00843839067965746,0.0008026260184124112
1733697663323325200,9.0233251953125,-0.0022469747345894575,0.009833437390625477,0.0016338115092366934
1733697663333279200,9.033279296875,-0.004290418233722448,0.010761548765003681,0.0016535187605768442
1733697663343232300,9.043232177734374,-0.005141776520758867,0.011196359992027283,0.002518500667065382
1733697663353186000,9.05318603515625,-0.006458975840359926,0.01341211050748825,0.001983205322176218
1733697663363139000,9.06313916015625,-0.004326691385358572,0.019019560888409615,0.0021486131008714437
1733697663373093000,9.073093017578126,-0.0009937454015016556,0.021774334833025932,0.0013049236731603742
1733697663383046100,9.083046142578125,0.0030547408387064934,0.02164151705801487,0.003185796085745096
1733697663392999200,9.092999267578126,0.00920158252120018,0.022821297869086266,0.0044081867672502995
1733697663402953200,9.102953125,0.013664240948855877,0.0223388709127903,0.007397517561912537
1733697663412906200,9.11290625,0.01665177382528782,0.023412391543388367,0.011351779103279114
1733697663422860000,9.122860107421875,0.018917221575975418,0.02373797819018364,0.014464246109127998
1733697663432813000,9.13281298828125,0.02132631652057171,0.02663549780845642,0.01380964182317257
1733697663442767000,9.14276708984375,0.02090798318386078,0.03054867871105671,0.013155284337699413
1733697663452720000,9.15272021484375,0.014986976981163025,0.029813647270202637,0.007875568233430386
1733697663462674200,9.162674072265625,0.014001238159835339,0.029316985979676247,0.007343430072069168
1733697663472627200,9.172627197265625,0.010582538321614265,0.025763796642422676,0.0045449803583323956
1733697663482580000,9.182580078125,0.008753746747970581,0.020166493952274323,0.005740807391703129
1733697663492534300,9.1925341796875,0.006975021678954363,0.01755846105515957,0.0035780547186732292
1733697663502487000,9.202487060546876,0.0054807718843221664,0.01928691565990448,0.004898499697446823
1733697663512441000,9.212441162109375,0.0032948493026196957,0.015477529726922512,0.004634580574929714
1733697663522393900,9.222393798828126,0.003284785430878401,0.016586115583777428,0.005176924169063568
1733697663532348200,9.23234814453125,0.0014927445445209742,0.01701435074210167,0.00359340850263834
1733697663542301000,9.242301025390624,-0.0013573740143328905,0.01695057936012745,0.007462511770427227
1733697663552255200,9.252255126953125,-0.003767534624785185,0.01900547370314598,0.007155182771384716
1733697663562208300,9.262208251953124,-0.006610668729990721,0.019469574093818665,0.0074005830101668835
1733697663572162000,9.272162109375,-0.007153421174734831,0.020320985466241837,0.008244272321462631
1733697663582115000,9.282114990234374,-0.00813431665301323,0.022030415013432503,0.007971112616360188
1733697663592067800,9.29206787109375,-0.00946083664894104,0.021764365956187248,0.006679479964077473
1733697663602022100,9.302022216796875,-0.011816936545073986,0.019314920529723167,0.00496820081025362
1733697663611975000,9.311974853515625,-0.013971966691315174,0.019731437787413597,0.006056634709239006
1733697663621929200,9.32192919921875,-0.016697870567440987,0.022440645843744278,0.004564372822642326
1733697663631882000,9.331882080078126,-0.01816900074481964,0.022649437189102173,0.004460243508219719
1733697663641836300,9.341836181640625,-0.017777569591999054,0.02181168831884861,0.000528896925970912
1733697663651789000,9.3517890625,-0.017915787175297737,0.023177357390522957,-0.000025573186576366425
1733697663661743000,9.3617431640625,-0.01714634709060192,0.02372455969452858,0.0017055986681953073
1733697663671696000,9.37169580078125,-0.011102835647761822,0.022619880735874176,0.00022567994892597198
1733697663681649000,9.38164892578125,-0.00854482315480709,0.0224179495126009,0.0015005185268819332
1733697663691603000,9.39160302734375,-0.004622253589332104,0.020539090037345886,0.003517064033076167
1733697663701556000,9.401555908203125,0.0026075420901179314,0.01582871749997139,0.007902799174189568
1733697663711510000,9.411510009765625,0.007232920732349157,0.013430541381239891,0.00770838838070631
1733697663721463000,9.421463134765625,0.011278795078396797,0.012528386898338795,0.007907798513770103
1733697663731416800,9.431416748046875,0.012445526197552681,0.016491970047354698,0.001957497326657176
1733697663741369900,9.441369873046876,0.012897411361336708,0.023870078846812248,-0.0016256440430879593
1733697663751324200,9.45132421875,0.016414115205407143,0.03236635774374008,-0.005037686321884394
1733697663761277000,9.46127685546875,0.015072625130414963,0.04056166112422943,-0.0021921535953879356
1733697663771231200,9.471231201171875,0.016774917021393776,0.046841926872730255,0.0034585418179631233
1733697663781184000,9.48118408203125,0.022366756573319435,0.046571068465709686,0.012026607058942318
1733697663791137000,9.491136962890625,0.024104734882712364,0.04097443446516991,0.02066643536090851
1733697663801091000,9.501091064453124,0.02607148326933384,0.034206144511699677,0.023974278941750526
1733697663811044000,9.511044189453125,0.024291425943374634,0.023564418777823448,0.022475451231002808
1733697663820998000,9.520997802734374,0.019492944702506065,0.011374738067388535,0.015864213928580284
1733697663830951000,9.530950927734375,0.01419378537684679,0.0035812631249427795,0.0074875070713460445
1733697663840905000,9.540905029296875,0.004242877010256052,0.0014729868853464723,-0.002267321804538369
1733697663850858000,9.55085791015625,-0.0032523234840482473,0.0054634674452245235,-0.006694294512271881
1733697663860812000,9.56081201171875,-0.009730618447065353,0.01586773805320263,-0.005593103356659412
1733697663870765000,9.57076513671875,-0.014692354947328568,0.022023368626832962,-0.004259924404323101
1733697663880718800,9.58071875,-0.02013750933110714,0.02365928143262863,-0.0020591290667653084
1733697663890671900,9.590671875,-0.021608639508485794,0.021020621061325073,-0.0020631239749491215
1733697663900625000,9.600625,-0.016685888171195984,0.013774319551885128,-0.0022612400352954865
1733697663910579000,9.610578857421874,-0.012081550434231758,0.008316703140735626,-0.00008410587906837463
1733697663920532000,9.620531982421875,-0.004066391848027706,0.002850812627002597,-0.0009268308058381081
1733697663930486000,9.630486083984374,-0.0013552940217778087,-0.002420115750283003,-0.0017904937267303467
1733697663940439000,9.64043896484375,0.0032116014044731855,-0.006055363453924656,-0.004649353213608265
1733697663950393000,9.65039306640625,0.0049463845789432526,-0.007656189613044262,-0.0033886132296174765
1733697663960345900,9.660345947265625,0.0062721045687794685,-0.005191834643483162,-0.0015272609889507294
1733697663970300000,9.6702998046875,0.0038454325404018164,-0.006252039223909378,-0.002913170028477907
1733697663980253000,9.6802529296875,0.007158299908041954,-0.00976631511002779,-0.0018687224946916103
1733697663990207000,9.69020703125,0.005695958621799946,-0.011135446839034557,-0.0037883291952311993
1733697664000160000,9.700159912109376,0.00443633645772934,-0.012718109413981438,-0.0061623514629900455
1733697664010113000,9.710113037109375,0.006285103037953377,-0.014799634926021099,-0.006535727065056562
1733697664020067000,9.720067138671874,0.0073454673402011395,-0.018451737239956856,-0.005215969402343035
1733697664030020000,9.73002001953125,0.00784694030880928,-0.020854441449046135,-0.0024180524051189423
1733697664039974000,9.739973876953124,0.00537605956196785,-0.02058706060051918,-0.002770654857158661
1733697664049927000,9.749927001953125,0.004923321772366762,-0.019122853875160217,-0.0006795409135520458
1733697664059881000,9.759880859375,0.004558415152132511,-0.019860204309225082,-0.0016908599063754082
1733697664069834000,9.769833984375,0.004738710820674896,-0.020849036052823067,-0.002765977755188942
1733697664079788000,9.7797880859375,0.0006014900282025337,-0.025236988440155983,-0.004421603865921497
1733697664089741000,9.789740966796876,-0.0008629822405055165,-0.02498105727136135,-0.004390978254377842
1733697664099694000,9.799694091796875,-0.002191154519096017,-0.022480010986328125,-0.005762752145528793
1733697664109648000,9.80964794921875,-0.00421568937599659,-0.018995797261595726,-0.00482771685346961
1733697664119601000,9.819600830078125,-0.005961711518466473,-0.01425408385694027,-0.00515627721324563
1733697664129555000,9.829554931640626,-0.006559324450790882,-0.009725377894937992,-0.006509162951260805
1733697664139508000,9.839508056640625,-0.0056674303486943245,-0.008985955268144608,-0.003394261933863163
1733697664149462000,9.8494619140625,-0.0023922750260680914,-0.008216035552322865,-0.0037897415459156036
1733697664159415000,9.8594150390625,-0.0023937716614454985,-0.01076551154255867,-0.005607699044048786
1733697664169369000,9.869369140625,-0.001428375719115138,-0.013249441049993038,-0.005832203663885593
1733697664179322000,9.879322021484375,-0.00016858894377946854,-0.015963895246386528,-0.006457546725869179
1733697664189276000,9.88927587890625,0.003932945430278778,-0.017041409388184547,-0.006404017098248005
1733697664199229000,9.89922900390625,0.005543405190110207,-0.020334068685770035,-0.007650195620954037
1733697664209182000,9.909181884765625,0.00845583900809288,-0.023055020719766617,-0.0055857133120298386
1733697664219136000,9.919135986328126,0.010118883103132248,-0.025383945554494858,-0.005657787900418043
1733697664229089000,9.929089111328125,0.010043514892458916,-0.025893142446875572,-0.004180532414466143
1733697664239043000,9.93904296875,0.009095054119825363,-0.025945715606212616,-0.002853712299838662
1733697664248996000,9.94899609375,0.007876656949520111,-0.024579515680670738,-0.004473713226616383
1733697664258950000,9.958949951171874,0.005431985482573509,-0.023635445162653923,-0.004217618610709906
1733697664268903000,9.96890283203125,0.002125404542312026,-0.022799478843808174,-0.004483401775360107
1733697664278857000,9.97885693359375,-0.0000720759853720665,-0.022279873490333557,-0.005931666120886803
1733697664288810000,9.98881005859375,-0.003218867117539048,-0.0215163454413414,-0.005596906878054142
1733697664298764000,9.998763916015625,-0.0071333483792841434,-0.021504521369934082,-0.007443959824740887
1733697664308717000,10.008717041015625,-0.011773640289902687,-0.01889622025191784,-0.00433525163680315
1733697664318670000,10.018670166015625,-0.017033854499459267,-0.017021968960762024,-0.004999199882149696
1733697664328624000,10.0286240234375,-0.018118826672434807,-0.018642768263816833,-0.005502005107700825
1733697664338577200,10.0385771484375,-0.021699553355574608,-0.018792137503623962,-0.005405642092227936
1733697664348531000,10.048531005859376,-0.022602099925279617,-0.01920892298221588,-0.0065715741366147995
1733697664358484000,10.05848388671875,-0.02463473007082939,-0.019710509106516838,-0.008260785602033138
1733697664368438000,10.06843798828125,-0.02486562728881836,-0.019134733825922012,-0.008761726319789886
1733697664378391000,10.07839111328125,-0.024619339033961296,-0.02001216635107994,-0.00816502794623375
1733697664388345000,10.088344970703124,-0.02001366764307022,-0.02300848811864853,-0.009483559057116508
1733697664398298000,10.098298095703125,-0.019137326627969742,-0.023990768939256668,-0.010845476761460304
1733697664408252000,10.108251953125,-0.018495503813028336,-0.020535049960017204,-0.01189769059419632
1733697664418205000,10.118204833984375,-0.01366005651652813,-0.018604977056384087,-0.01196079608052969
1733697664428158000,10.128157958984374,-0.007998974993824959,-0.01766168512403965,-0.01015783566981554
1733697664438112000,10.138112060546876,-0.0011418677167966962,-0.016272444278001785,-0.008152011781930923
1733697664448065000,10.14806494140625,0.003943704534322023,-0.016982709988951683,-0.0004224528092890978
1733697664458019000,10.15801904296875,0.00820236373692751,-0.017555292695760727,0.00701562687754631
1733697664467972000,10.16797216796875,0.011529983952641487,-0.015262311324477196,0.011471894569694996
1733697664477926000,10.17792578125,0.012873495928943157,-0.015000974759459496,0.010735009796917439
1733697664487879000,10.18787890625,0.013199200853705406,-0.01828199066221714,0.008499286137521267
1733697664497833000,10.1978330078125,0.013948721811175346,-0.022514574229717255,0.0043847388587892056
1733697664507786000,10.207785888671875,0.009853578172624111,-0.02802518755197525,0.0010525916004553437
1733697664517739000,10.217739013671874,0.005621654912829399,-0.029359320178627968,-0.0034315339289605618
1733697664527693000,10.227693115234375,-0.004564669448882341,-0.025365378707647324,-0.005884571000933647
1733697664537646000,10.23764599609375,-0.011501193046569824,-0.015014930628240108,-0.008935468271374702
1733697664547600100,10.24760009765625,-0.017223794013261795,-0.005476819816976786,-0.007809750735759735
1733697664557553200,10.25755322265625,-0.016963550820946693,-0.0001479143393225968,-0.008523755706846714
1733697664567507000,10.2675068359375,-0.018229084089398384,0.002624436281621456,-0.0071005625650286674
1733697664577460000,10.2774599609375,-0.013837902806699276,0.000614176329690963,-0.008211076259613037
1733697664587414000,10.2874140625,-0.008259645663201809,-0.0031853553373366594,-0.006205982994288206
1733697664597367000,10.297366943359375,-0.0032765627838671207,-0.007960612885653973,-0.005807110574096441
1733697664607321000,10.307321044921874,0.0009283020626753569,-0.011717800982296467,-0.005173544865101576
1733697664617274000,10.317274169921875,0.00604381924495101,-0.01539977453649044,-0.0017543556168675423
1733697664627227100,10.32722705078125,0.00833972916007042,-0.01612841710448265,0.000195611035451293
1733697664637181000,10.337180908203125,0.009922447614371777,-0.013002539053559303,-0.0004814255516976118
1733697664647134000,10.347134033203124,0.0066962940618395805,-0.010405424982309341,-0.0018295180052518845
1733697664657088000,10.357087890625,0.006440945900976658,-0.006282782182097435,-0.0012682098895311356
1733697664667041000,10.367041015625,0.0034856360871344805,-0.00778533797711134,-0.005438986234366894
1733697664676995000,10.3769951171875,0.0025906050577759743,-0.010679349303245544,-0.007214726880192757
1733697664686948000,10.386947998046875,0.0003780508413910866,-0.01257552020251751,-0.008569477126002312
1733697664696902100,10.396902099609376,-0.001950885052792728,-0.013448779471218586,-0.007970791310071945
1733697664706855200,10.406855224609375,-0.0009673796594142914,-0.015142016112804413,-0.006739344913512468
1733697664716809000,10.41680908203125,-0.003627981524914503,-0.011095047928392887,-0.004217376932501793
1733697664726762000,10.426761962890625,-0.0037313122302293777,-0.006963420659303665,-0.0028501099441200495
1733697664736715000,10.436715087890626,-0.005216291174292564,-0.002961884718388319,-0.004961798898875713
1733697664746669000,10.4466689453125,-0.0038325125351548195,-0.002378918929025531,-0.005641437601298094
1733697664756622000,10.4566220703125,-0.0030053360387682915,-0.003439252497628331,-0.0053743901662528515
1733697664766576000,10.466576171875,-0.0030255760066211224,-0.0066371760331094265,-0.0037237629294395447
1733697664776529200,10.476529052734374,-0.0026022945530712605,-0.00917132943868637,-0.004954303614795208
1733697664786483000,10.48648291015625,-0.004871840588748455,-0.011856861412525177,-0.0009180170018225908
1733697664796436000,10.49643603515625,-0.0037108599208295345,-0.009771771728992462,-0.0015822346322238445
1733697664806390000,10.50639013671875,-0.004384639672935009,-0.006404737010598183,-0.0021188617683947086
1733697664816343000,10.516343017578125,-0.0034425221383571625,-0.0015669399872422218,-0.0013979184441268444
1733697664826297000,10.526297119140626,-0.0033474471420049667,0.0009838358964771032,-0.0025606544222682714
1733697664836250000,10.53625,-0.0016375384293496609,0.0035817772150039673,-0.0021198082249611616
1733697664846203100,10.546203125,-0.0012852023355662823,0.00157801469322294,-0.0012952936813235283
1733697664856157200,10.5561572265625,-0.0007094299653545022,0.0000747993472032249,-0.0004077295307070017
1733697664866110200,10.566110107421874,0.0013033871073275805,-0.0012280191294848919,-0.001267930492758751
1733697664876064000,10.57606396484375,0.0019162928219884634,-0.0009632140281610191,-0.0010599568486213684
1733697664886017000,10.58601708984375,0.0032321603503078222,-0.003036218462511897,0.00005857064388692379
1733697664895971000,10.59597119140625,0.0033107760827988386,-0.003981454763561487,0.0006058383733034134
1733697664905924000,10.605924072265625,0.004073238931596279,-0.003464002627879381,0.0012758896918967366
1733697664915878100,10.615878173828126,0.002149371663108468,-0.005911703687161207,-0.00013133161701261997
1733697664925831200,10.6258310546875,0.0010388335213065147,-0.004070127848535776,-0.002773453714326024
1733697664935785000,10.635784912109376,0.00031232484616339207,-0.002425899263471365,-0.0014372104778885841
1733697664945738000,10.645738037109375,-0.0031127664260566235,0.002167254686355591,-0.001314172288402915
1733697664955691000,10.65569091796875,-0.0009190675336867571,0.004305561073124409,-0.0018482161685824394
1733697664965645000,10.66564501953125,-0.002711907494813204,0.003136699553579092,-0.001022636191919446
1733697664975598000,10.67559814453125,0.0012123666238039732,0.0014905724674463272,0.00045292824506759644
1733697664985552100,10.68555224609375,-0.0006571724079549313,0.0008048085146583617,0.0011011415626853704
1733697664995505200,10.695505126953124,0.00020457268692553043,0.00036333344178274274,0.0029194310773164034
1733697665005459000,10.705458984375,-0.0006955757271498442,0.00005573831731453538,0.0020951826591044664
1733697665015412000,10.715411865234374,-0.003166988492012024,-0.0008192412205971777,0.0029870066791772842
1733697665025366000,10.725365966796875,-0.0051864637061953545,-0.0010187120642513037,-0.0008287704549729824
1733697665035319000,10.735319091796875,-0.006473676301538944,-0.002721107564866543,-0.004136125557124615
1733697665045273000,10.745273193359376,-0.005874997470527887,-0.002608722308650613,-0.0065686567686498165
1733697665055226000,10.75522607421875,-0.006446618586778641,-0.0041282945312559605,-0.006511306390166283
1733697665065179100,10.76517919921875,-0.004382136277854443,-0.0034896687138825655,-0.0028587805572897196
1733697665075133200,10.77513330078125,-0.0023006091360002756,-0.0027454516384750605,-0.003719446249306202
1733697665085086200,10.785086181640626,-0.0006310733733698726,-0.003847467480227351,0.00045212917029857635
1733697665095040000,10.7950400390625,-0.0002907745074480772,-0.005303205922245979,0.0008476894581690431
1733697665104993000,10.804992919921874,0.0013284275773912668,-0.0016006126534193754,0.00030573620460927486
1733697665114947000,10.814947021484375,0.002825972158461809,0.003488072892650962,0.0015884405001997948
1733697665124900000,10.824900146484374,0.0040968325920403,0.0020350522827357054,-0.0006739147938787937
1733697665134854100,10.834854248046875,0.008204443380236626,0.001878540962934494,0.00178458949085325
1733697665144807200,10.84480712890625,0.008160500787198544,-0.0005547893815673888,0.004034960642457008
1733697665154760200,10.85476025390625,0.0073335361666977406,-0.00040490756509825587,0.007916598580777645
1733697665164714000,10.8647138671875,0.005617927294224501,0.004525668919086456,0.008530190214514732
1733697665174667000,10.8746669921875,0.001492371316999197,0.00471497094258666,0.006067776121199131
1733697665184621000,10.88462109375,-0.0011582729639485478,0.001077359076589346,0.001467697904445231
1733697665194574000,10.894573974609376,-0.0081050219014287,-0.005421047564595938,-0.0035929339937865734
1733697665204528000,10.904528076171875,-0.012609225697815418,-0.012941548600792885,-0.007765841204673052
1733697665214481200,10.914481201171874,-0.01827414147555828,-0.01584862731397152,-0.010077638551592827
1733697665224435200,10.924435302734375,-0.021019861102104187,-0.013469358906149864,-0.010615596547722816
1733697665234388200,10.93438818359375,-0.019980430603027344,-0.007314400747418404,-0.006896019913256168
1733697665244342000,10.944342041015625,-0.018537264317274094,-0.0027297690976411104,-0.0037843824829906225
1733697665254295000,10.954294921875,-0.014636637642979622,0.00020586361642926931,-0.0005161960143595934
1733697665264249000,10.9642490234375,-0.009190473705530167,0.00386078585870564,0.0024934422690421343
1733697665274202000,10.9742021484375,-0.005137729458510876,0.004228521138429642,0.003194596851244569
1733697665284155100,10.984155029296875,-0.0007357902359217405,0.0019951940048485994,0.0030260186176747084
1733697665294109200,10.994109130859375,0.0022924914956092834,0.00140223721973598,0.002822887385264039
1733697665304062200,11.004062255859376,0.0038533704355359077,-0.0026305876672267914,0.003735818900167942
1733697665314016000,11.01401611328125,0.0027800078969448805,-0.0036019543185830116,0.0022463456261903048
1733697665323969000,11.023968994140626,0.002722750185057521,-0.004301566630601883,0.0015989311505109072
1733697665333923000,11.033923095703125,0.0034744027070701122,-0.0033441840205341578,0.000924654770642519
1733697665343876000,11.0438759765625,0.002495691180229187,-0.002631788607686758,-0.0008548693731427193
1733697665353830100,11.053830078125,-0.00034622172825038433,-0.0009239577339030802,-0.0007748941425234079
1733697665363783200,11.063783203125,-0.00028949626721441746,-0.004412698559463024,-0.0032393832225352526
1733697665373737200,11.0737373046875,-0.0025464193895459175,-0.00507265143096447,-0.004323519766330719
1733697665383690200,11.083690185546875,-0.0017946090083569288,-0.0059605492278933525,-0.004696095362305641
1733697665393643300,11.093643310546875,-0.0026361141353845596,-0.006655449979007244,-0.004369604401290417
1733697665403597000,11.10359716796875,-0.004751462955027819,-0.0029824182856827974,-0.002401528414338827
1733697665413550000,11.113550048828126,-0.004248391836881638,-0.0010154074989259243,-0.0020052501931786537
1733697665423504100,11.123504150390625,-0.0034475792199373245,0.0029372563585639,-0.0011474457569420338
1733697665433457200,11.13345703125,-0.0032875833567231894,0.005501556675881147,0.00316190579906106
1733697665443411200,11.1434111328125,-0.0013003326021134853,0.0029933915939182043,0.002236457308754325
1733697665453364200,11.1533642578125,0.003180278465151787,-0.0006521038594655693,0.005064305849373341
1733697665463318000,11.163318115234375,0.0040692416951060295,-0.006868454627692699,0.005764983594417572
1733697665473271000,11.17327099609375,0.0071567026898264885,-0.008807044476270676,0.009426542557775974
1733697665483225000,11.18322509765625,0.009114924818277359,-0.006226175930351019,0.006472564302384853
1733697665493178000,11.19317822265625,0.007131188176572323,-0.002931795781478286,0.005681129172444344
1733697665503131100,11.203131103515625,0.006674722768366337,0.0012131481198593974,0.003417708445340395
1733697665513085200,11.213085205078125,0.0032311496324837208,0.003434652928262949,0.0020701726898550987
1733697665523038200,11.2230380859375,0.00023269630037248135,0.0038876566104590893,0.0005503067513927817
1733697665532992000,11.232991943359375,-0.0016506914980709553,0.0038899234496057034,-0.001991481985896826
1733697665542945000,11.242945068359376,-0.004497610963881016,0.0032233342062681913,-0.000900917686522007
1733697665552899000,11.252899169921875,-0.004530849866569042,0.0008515699882991612,-0.0018506734631955624
1733697665562852000,11.26285205078125,-0.005117810331285,-0.0009210300049744546,-0.003771078772842884
1733697665572806100,11.27280615234375,-0.0021257989574223757,-0.0037753230426460505,-0.0034865126945078373
1733697665582759200,11.28275927734375,-0.002790790284052491,-0.004530595615506172,-0.0024036713875830173
1733697665592713200,11.292713134765625,-0.002001964021474123,-0.004444578196853399,-0.001582481199875474
1733697665602666200,11.302666259765624,0.0004731779918074608,-0.005140462424606085,0.0009818767430260777
1733697665612619300,11.312619384765625,-0.0013839490711688995,-0.0017433040775358677,0.0012417564867064357
1733697665622573000,11.322572998046875,-0.0005964522715657949,-0.0025457143783569336,0.0009884899482131004
1733697665632526000,11.332526123046875,-0.004417236894369125,0.0014649310614913702,0.0022466848604381084
1733697665642480000,11.342480224609375,-0.005272644571959972,0.003562436904758215,0.0014147133333608508
1733697665652433200,11.35243310546875,-0.007103939540684223,0.003874313784763217,-0.0006010702345520258
1733697665662387200,11.36238720703125,-0.007826721295714378,0.006895936094224453,-0.0017462295945733786
1733697665672339700,11.372339599609376,-0.008414537645876408,0.003894497873261571,-0.0030696019530296326
1733697665682293800,11.382293701171875,-0.008931989781558514,0.0007935130852274597,-0.001663719303905964
1733697665692246800,11.392246826171874,-0.010848931036889553,-0.0019306265749037266,-0.0002546489704400301
1733697665702199600,11.402199462890625,-0.01007315143942833,-0.0039040290284901857,-0.0004163028206676245
1733697665712153600,11.412153564453124,-0.010570204816758633,-0.0031581914518028498,-0.0010455758310854435
1733697665722106400,11.4221064453125,-0.009376841597259045,-0.0016247432213276625,-0.0033665206283330917
1733697665732060700,11.432060791015624,-0.008628493174910545,-0.0016762735322117805,-0.0011228763032704592
1733697665742013400,11.442013427734375,-0.0065749287605285645,-0.0017148894257843494,-0.0017010485753417015
1733697665751967700,11.4519677734375,-0.0029241081792861223,-0.0024691999424248934,-0.0024581612087786198
1733697665761920500,11.46192041015625,-0.00034883152693510056,-0.0008526611491106451,-0.0025066304951906204
1733697665771874600,11.47187451171875,0.0008090576156973839,0.00011600670404732227,0.0007830550894141197
1733697665781827300,11.481827392578126,0.0022831172682344913,-0.0000043681939132511616,0.001888000639155507
1733697665791781600,11.49178173828125,0.0038343025371432304,-0.0013444437645375729,0.0026135386433452368
1733697665801734400,11.501734375,0.0021013836376369,-0.0013441774062812328,0.0021312402095645666
1733697665811688700,11.511688720703125,0.002637370489537716,0.0029979986138641834,0.00026319408789277077
1733697665821641500,11.521641357421874,0.006023579277098179,0.004466998390853405,-0.0010542715899646282
1733697665831594500,11.531594482421875,0.005741977598518133,0.005240275990217924,-0.0010009845718741417
1733697665841548500,11.541548583984374,0.008975055068731308,0.0029576809611171484,0.002660861937329173
1733697665851501600,11.55150146484375,0.009049349464476109,0.0032546212896704674,0.005469975061714649
1733697665861455400,11.561455322265624,0.006155825220048428,0.009726368822157383,0.007995450869202614
1733697665871408400,11.571408447265625,0.0039031715132296085,0.01544947735965252,0.007909327745437622
1733697665881362700,11.58136279296875,0.0028661368414759636,0.015862800180912018,0.0055913119576871395
1733697665891315500,11.5913154296875,-0.004766697995364666,0.012397811748087406,0.005124782212078571
1733697665901269800,11.601269775390625,-0.009010178968310356,0.0036597137805074453,-0.00032617547549307346
1733697665911222500,11.611222412109376,-0.013785278424620628,-0.0015557357110083103,0.00006731459870934486
1733697665921175600,11.621175537109375,-0.014062246307730675,-0.0007743642781861126,-0.001852025743573904
1733697665931129300,11.63112939453125,-0.01423087902367115,0.004366145469248295,-0.0022686610464006662
1733697665941082400,11.641082275390625,-0.012402618303894997,0.013742337003350258,-0.0006563833449035883
1733697665951036400,11.651036376953124,-0.008229711093008518,0.01650523580610752,0.002728159772232175
1733697665960989400,11.660989501953125,-0.005045901983976364,0.015621865168213844,0.00467945821583271
1733697665970943500,11.670943603515624,0.00167117640376091,0.016436178237199783,0.008424116298556328
1733697665980896500,11.680896484375,0.007049962878227234,0.015303801745176315,0.008091221563518047
1733697665990850600,11.6908505859375,0.007088471204042435,0.013337215408682823,0.006806407123804092
1733697666000803600,11.700803466796875,0.007544404827058315,0.012398185208439827,0.005834619514644146
