time,seconds_elapsed,z,y,x
1733859543965729000,0.01772900390625,-0.009450492449104786,-0.034639693796634674,-0.008362438529729843
1733859543975680000,0.027679931640625,-0.009313274174928665,-0.04257648438215256,-0.015619848854839802
1733859543985630000,0.0376298828125,-0.004948885645717382,-0.04566415399312973,-0.015591352246701717
1733859543995581000,0.047580810546875,0.0002847814466804266,-0.03741972893476486,-0.009771047160029411
1733859544005531100,0.05753125,-0.0019647907465696335,-0.01941036619246006,-0.00461942795664072
1733859544015481900,0.06748193359375,-0.0011303790379315615,-0.0019742415752261877,-0.000924820895306766
1733859544025432000,0.07743212890625,-0.00000892183743417263,0.006768383085727692,-0.001043597818352282
1733859544035383000,0.087383056640625,0.002798605477437377,0.01111944206058979,0.0028052818961441517
1733859544045333000,0.0973330078125,0.0037022156175225973,0.00787251628935337,0.004716100171208382
1733859544055284000,0.107283935546875,0.0067217303439974785,0.0064940499141812325,0.0025712691713124514
1733859544065234000,0.11723388671875,0.006146753206849098,0.005518267396837473,0.002079649828374386
1733859544075185200,0.12718505859375,0.0036242969799786806,0.006239297799766064,-0.0016259730327874422
1733859544085135000,0.137135009765625,0.002477539936080575,0.0008591797668486834,-0.003844918916001916
1733859544095086000,0.147086181640625,-0.0015971618704497814,-0.00418434850871563,-0.00195666728541255
1733859544105036000,0.1570361328125,-0.003407045966014266,-0.005949757993221283,-0.0004104360705241561
1733859544114987000,0.166987060546875,-0.0017591719515621662,-0.0008476160001009703,-0.002182556316256523
1733859544124937000,0.17693701171875,-0.0024057873524725437,0.004251272417604923,-0.0010981169762089849
1733859544134888000,0.186887939453125,0.0015359173994511366,0.00813401397317648,-0.0008003751281648874
1733859544144838100,0.196838134765625,0.00016731885261833668,0.008223230019211769,0.0008353383745998144
1733859544154788900,0.206788818359375,-0.0006912157405167818,0.007132088299840689,0.0016976442420855165
1733859544164738800,0.21673876953125,-0.0025612874887883663,0.004457475617527962,0.00020387722179293633
1733859544174690000,0.22668994140625,-0.0018024719320237637,0.004341920837759972,-0.0009016002295538783
1733859544184640000,0.236639892578125,-0.003222203115001321,0.005195996258407831,0.001755701843649149
1733859544194591000,0.246591064453125,-0.003722255351021886,0.005473972763866186,-0.00228346255607903
1733859544204541000,0.256541015625,-0.0018793479539453983,-0.001714165322482586,-0.0030299469362944365
1733859544214492200,0.2664921875,-0.00035541970282793045,-0.007759051863104105,-0.001744732609950006
1733859544224442000,0.276442138671875,-0.00007259193807840347,-0.00631428649649024,-0.002189480233937502
1733859544234393000,0.28639306640625,0.0006036942359060049,-0.0011585725005716085,-0.0013849640963599086
1733859544244343000,0.296343017578125,-0.0006882054731249809,0.004965633153915405,-0.0022185337729752064
1733859544254294000,0.3062939453125,-0.0018375138752162457,0.0057868799194693565,0.00044049799907952547
1733859544264244000,0.316243896484375,-0.0045621939934790134,0.004305363167077303,0.0039569358341395855
1733859544274195000,0.32619482421875,-0.006663354579359293,0.004665202461183071,0.005089445970952511
1733859544284145200,0.336145263671875,-0.004146400839090347,0.006384006701409817,0.0028486624360084534
1733859544294096000,0.346095947265625,-0.0037037688307464123,0.005755302496254444,-0.000025392044335603714
1733859544304045800,0.3560458984375,-0.0009370108600705862,0.0021733511239290237,-0.0005329905543476343
1733859544313997000,0.3659970703125,0.0007993255276232958,-0.00008844328112900257,0.0016256093513220549
1733859544323947000,0.375947021484375,0.0019828344229608774,-0.0021649100817739964,-0.0002764203818514943
1733859544333898000,0.38589794921875,0.004027653485536575,-0.003269883804023266,-0.00196550483815372
1733859544343848000,0.395847900390625,0.0058769527822732925,-0.004102920647710562,-0.0009425848256796598
1733859544353800000,0.405800048828125,0.004265544004738331,-0.005888786166906357,-0.0026463461108505726
1733859544363750000,0.41575,0.001625552074983716,-0.006907179020345211,-0.002272438257932663
1733859544373701000,0.425701171875,-0.00007758405990898609,-0.007242366671562195,-0.0021256315521895885
1733859544383651000,0.435651123046875,-0.00260678818449378,-0.003642838215455413,0.0013439346803352237
1733859544393602000,0.44560205078125,-0.001404524315148592,0.000717406626790762,0.003221103921532631
1733859544403552000,0.455552001953125,-0.00015097460709512234,0.004679657518863678,0.00007750873919576406
1733859544413503200,0.465503173828125,0.0001964967232197523,0.004595453385263681,0.000074980896897614
1733859544423453200,0.475453125,0.0015081034507602453,0.005055647809058428,-0.0014877620851621032
1733859544433404200,0.485404052734375,0.0010733434464782476,0.0036384931299835443,0.000008879229426383972
1733859544443354000,0.49535400390625,-0.00015810225158929825,0.001587859122082591,-0.001883563119918108
1733859544453305000,0.50530517578125,-0.0014386808034032583,-0.0019686133600771427,-0.0009821366984397173
1733859544463255000,0.515255126953125,-0.0018751730676740408,-0.004780911840498447,-0.0011339369229972363
1733859544473206000,0.5252060546875,-0.0032765516079962254,-0.0033371211029589176,-0.0012328610755503178
1733859544483156200,0.53515625,-0.0034342107828706503,-0.0033794655464589596,-0.0011548304464668036
1733859544493107200,0.545107177734375,-0.0031273462809622288,-0.0016599823720753193,-0.0008642650209367275
1733859544503057000,0.555056884765625,0.00003861985169351101,0.0011270155664533377,0.0015464284224435687
1733859544513008000,0.565008056640625,0.001017173519358039,-0.0005874251946806908,0.0030739910434931517
1733859544522958000,0.5749580078125,0.0032872522715479136,-0.00006145075894892216,0.0010960614308714867
1733859544532909000,0.584908935546875,0.0026847326662391424,-0.0006834929808974266,-0.0021280935034155846
1733859544542859000,0.59485888671875,0.0003539340104907751,-0.003801255486905575,-0.0003243343671783805
1733859544552810200,0.604810302734375,-0.00033826613798737526,-0.0006749422755092382,-0.0007758991559967399
1733859544562760200,0.61476025390625,-0.0026379055343568325,0.001048655598424375,-0.002575397025793791
1733859544572711000,0.6247109375,-0.002726098522543907,-0.0010364777408540249,-0.00218551279976964
1733859544582661000,0.6346611328125,-0.001178269274532795,-0.0032690055668354034,0.0007737918640486896
1733859544592612000,0.644612060546875,0.0007130627054721117,-0.0022484532091766596,0.0018623325740918517
1733859544602562300,0.654562255859375,0.00147153134457767,0.0006887470372021198,0.0013613919727504253
1733859544612513000,0.664512939453125,0.0009653961751610041,0.004178107716143131,0.0014811985893175006
1733859544622463000,0.674462890625,0.00029401318170130253,0.0012486303457990289,0.0016053018625825644
1733859544632414200,0.684414306640625,0.0016815008129924536,-0.0034043381456285715,0.0005420008674263954
1733859544642364000,0.694364013671875,0.003159555373713374,-0.0016282761935144663,0.001935899374075234
1733859544652315100,0.704315185546875,0.0012466928455978632,0.002386821899563074,0.002129973843693733
1733859544662265000,0.71426513671875,0.002125802217051387,0.00959733035415411,0.0007429994875565171
1733859544672216000,0.724216064453125,0.0023301991168409586,0.01194818876683712,0.001861346187070012
1733859544682166000,0.734166015625,0.0008596016559749842,0.008608052507042885,0.001340698217973113
1733859544692117200,0.7441171875,-0.00004556216299533844,0.005110228434205055,0.002043662592768669
1733859544702067200,0.754067138671875,-0.0005337197799235582,-0.0001348676159977913,-0.0006890068762004375
1733859544712018000,0.764017822265625,-0.00038045342080295086,-0.004292680881917477,-0.0025167930871248245
1733859544721968000,0.773968017578125,-0.0001303825993090868,-0.0024495073594152927,-0.0012496609706431627
1733859544731919000,0.783919189453125,-0.0014473157934844494,-0.0006896904669702053,0.000843315152451396
1733859544741869300,0.793869384765625,-0.005922491662204266,0.002384928986430168,0.00382445752620697
1733859544751820000,0.803820068359375,-0.004616455174982548,0.004200391471385956,0.0006878657732158899
1733859544761770000,0.81377001953125,-0.004493949469178915,0.00381876016035676,0.0017675113631412387
1733859544771721200,0.82372119140625,-0.0038728255312889814,0.004388987552374601,0.0024731061421334743
1733859544781671200,0.833671142578125,-0.002267738338559866,0.004448375664651394,0.0008528390317223966
1733859544791622100,0.8436220703125,-0.0006024516187608242,0.006042082794010639,-0.0012992689153179526
1733859544801572000,0.853572021484375,0.001367755001410842,0.004739264026284218,-0.002680650446563959
1733859544811522000,0.86352197265625,0.0029243079479783773,-0.0014479216188192368,-0.005884536076337099
1733859544821473000,0.87347314453125,0.003747757291421294,-0.007364400662481785,-0.003487957641482353
1733859544831423000,0.883423095703125,0.0010902981739491224,-0.011932685039937496,0.0003045884659513831
1733859544841374200,0.893374267578125,0.0028980521019548178,-0.011887411586940289,0.001378374989144504
1733859544851324200,0.90332421875,0.0024920606520026922,-0.010684724897146225,-0.0004652983043342829
1733859544861275100,0.913275146484375,0.0014630153309553862,-0.006992252543568611,0.0010702803265303373
1733859544871225000,0.92322509765625,0.002426897408440709,-0.0065191565081477165,-0.0003868706990033388
1733859544881176000,0.933176025390625,0.0030945518519729376,-0.003211244475096464,-0.0010374810080975294
1733859544891126300,0.943126220703125,0.0019387814681977034,-0.0016475571319460869,-0.002666788175702095
1733859544901077000,0.953076904296875,0.0012431635987013578,0.0011317175813019276,-0.0025847628712654114
1733859544911027200,0.963027099609375,3.110617399215698e-7,0.004776224493980408,-0.005098823457956314
1733859544920978200,0.972978271484375,0.0009766260627657175,-0.000022791558876633644,-0.0022622905671596527
1733859544930927900,0.982927978515625,0.000361213693395257,-0.0008551529608666897,-0.0022877464070916176
1733859544940879000,0.992879150390625,-0.0028215302154421806,-0.0030024598818272352,-0.0020155711099505424
1733859544950829000,1.0028291015625,-0.0024646883830428123,-0.003336577443405986,-0.0011599382851272821
1733859544960780000,1.012780029296875,-0.001104079419746995,-0.0024172544945031404,0.00034581299405544996
1733859544970730000,1.02272998046875,-0.0012255827896296978,0.00017972919158637524,0.0012361364206299186
1733859544980681200,1.03268115234375,-0.0030399945098906755,0.0019949397537857294,0.0007469137199223042
1733859544990631200,1.042631103515625,-0.0006123476196080446,0.005379876121878624,0.0009608638938516378
1733859545000582000,1.052581787109375,0.00007607950828969479,0.005378810688853264,-0.00018509430810809135
1733859545010532000,1.062531982421875,0.000705852871760726,0.0039099277928471565,-0.002092534676194191
1733859545020483000,1.072483154296875,-0.0005932371132075787,-0.0058122072368860245,-0.005704313982278109
1733859545030433300,1.082433349609375,-0.0022918041795492172,-0.018939267843961716,-0.00235408334992826
1733859545040384000,1.092384033203125,-0.004733656533062458,-0.02167060598731041,-0.002229447243735194
1733859545050334200,1.102334228515625,-0.00469553004950285,-0.011517161503434181,-0.003309887833893299
1733859545060285200,1.11228515625,-0.006077177822589874,-0.0031274044886231422,-0.0019114621682092547
1733859545070235100,1.122235107421875,-0.004095603246241808,0.0013733134837821126,0.0026236316189169884
1733859545080186000,1.13218603515625,-0.003654050873592496,0.004609853029251099,0.004367735702544451
1733859545090136000,1.142135986328125,0.0010574620682746172,0.0006099769379943609,0.004219000227749348
1733859545100087000,1.152087158203125,0.0063582174479961395,-0.0032271055970340967,0.0043090153485536575
1733859545110037000,1.162037109375,0.009215403348207474,-0.009969446808099747,0.0032053724862635136
1733859545119988200,1.17198828125,0.008599946275353432,-0.014994566328823566,-0.0016319932183250785
1733859545129938200,1.181938232421875,0.007249264977872372,-0.017658744007349014,-0.005399432964622974
1733859545139889000,1.191888916015625,0.0046372367069125175,-0.019887011498212814,-0.005468142684549093
1733859545149839000,1.201839111328125,0.0020807941909879446,-0.022908775135874748,-0.007107872515916824
1733859545159790000,1.2117900390625,0.0019771975930780172,-0.018997922539711,-0.00013811362441629171
1733859545169740300,1.221740234375,0.002567264949902892,-0.007175466977059841,0.003404258517548442
1733859545179691000,1.23169091796875,0.0005496542435139418,0.0034795745741575956,0.0034484670031815767
1733859545189641000,1.241640869140625,0.00017612450756132603,0.00931981485337019,0.00008582521695643663
1733859545199592200,1.25159228515625,0.0035178589168936014,0.010234876535832882,0.0014291235711425543
1733859545209542100,1.261542236328125,0.004274817183613777,0.006988066248595715,0.0045774090103805065
1733859545219493000,1.2714931640625,0.003659893525764346,0.005501755513250828,0.0035651414655148983
1733859545229443000,1.281443115234375,0.00434042327105999,0.0036274574231356382,0.002385837258771062
1733859545239394300,1.291394287109375,0.0030186970252543688,0.0013704284792765975,-0.0009572288254275918
1733859545249344000,1.301343994140625,0.002216621534898877,0.0022958326153457165,-0.001599342911504209
1733859545259295000,1.311294921875,0.0026784136425703764,-0.0006975606083869934,0.0005000269738957286
1733859545269245200,1.3212451171875,0.0022487507667392492,-0.004142925143241882,0.0017698765732347965
1733859545279196000,1.33119580078125,0.004569428972899914,-0.006811679340898991,0.0014929077588021755
1733859545289146000,1.34114599609375,0.005901831202208996,-0.007472422905266285,0.001406168332323432
1733859545299097000,1.35109716796875,0.005069326609373093,-0.004189544357359409,0.0003539534518495202
1733859545309047000,1.361047119140625,0.0041761696338653564,-0.006080699153244495,-0.0029443991370499134
1733859545318998000,1.370998046875,0.0038664445746690035,-0.013179355300962925,-0.00190443464089185
1733859545328948000,1.380947998046875,0.004437469877302647,-0.020631004124879837,-0.00337236444465816
1733859545338899200,1.390899169921875,0.002602818189188838,-0.02630380168557167,-0.0030935315880924463
1733859545348848400,1.400848388671875,0.00220210081897676,-0.026974976062774658,-0.001828745473176241
1733859545358799400,1.41079931640625,0.003912116400897503,-0.024308085441589355,-0.002700131619349122
1733859545368749300,1.420749267578125,0.002225026721134782,-0.019220929592847824,-0.0027911323122680187
1733859545378700300,1.4307001953125,0.005895394831895828,-0.016351640224456787,-0.003304057288914919
1733859545388650500,1.440650390625,0.006645345129072666,-0.01890791580080986,-0.0030282624065876007
1733859545398601200,1.450601318359375,0.0067369574680924416,-0.02058570645749569,-0.0005832145689055324
1733859545408551400,1.460551513671875,0.005759375169873238,-0.02032894268631935,0.0011240665335208178
1733859545418502400,1.47050244140625,0.004216073080897331,-0.018184831365942955,0.00009235786274075508
1733859545428452400,1.480452392578125,0.0035853723529726267,-0.017190443351864815,-0.00020105100702494383
1733859545438403300,1.4904033203125,0.0017645691987127066,-0.02124430611729622,0.00024502852465957403
1733859545448353300,1.500353271484375,0.0035544324200600386,-0.021936260163784027,-0.002434161491692066
1733859545458304500,1.510304443359375,0.0068706003949046135,-0.02292429283261299,-0.002120441058650613
1733859545468254200,1.520254150390625,0.006897144019603729,-0.022918814793229103,-0.0009240455692633986
1733859545478205400,1.530205322265625,0.008800771087408066,-0.023518025875091553,0.00044908036943525076
1733859545488155400,1.5401552734375,0.008330412209033966,-0.02258136495947838,0.0015815634978935122
1733859545498106400,1.5501064453125,0.006145820952951908,-0.020230859518051147,-0.0001817154698073864
1733859545508056300,1.560056396484375,0.007351101376116276,-0.01439156848937273,-0.001201146049425006
1733859545518007300,1.57000732421875,0.005405928008258343,-0.011922551319003105,-0.002711690729483962
1733859545527957500,1.57995751953125,0.0044397348538041115,-0.009290378540754318,0.0006160438060760498
1733859545537907500,1.589907470703125,0.0021837709937244654,-0.0026220902800559998,0.00445525674149394
1733859545547858200,1.599858154296875,-0.0012515510898083448,0.0008418788202106953,0.0048160250298678875
1733859545557808400,1.609808349609375,-0.0007037387695163488,-0.002238333458080888,0.002530766651034355
1733859545567759400,1.61975927734375,-0.005213404074311256,-0.005901690572500229,0.0018240183126181364
1733859545577709300,1.629709228515625,-0.0019377159187570214,-0.008962728083133698,0.0021185639780014753
1733859545587660300,1.639660400390625,-0.0011580069549381733,-0.007088982034474611,0.005380014888942242
1733859545597610200,1.6496103515625,0.0011341755744069815,-0.0016175182536244392,0.006353400181978941
1733859545607561500,1.6595615234375,0.0054579488933086395,-0.00012400653213262558,0.0018756560748443007
1733859545617511200,1.66951123046875,0.008339489810168743,-0.007017865777015686,0.0014647303614765406
1733859545627462400,1.67946240234375,0.0077074989676475525,-0.012635085731744766,0.00005568540655076504
1733859545637412400,1.689412353515625,0.005720781162381172,-0.01776380091905594,-0.00039838359225541353
1733859545647363300,1.69936328125,0.004425201565027237,-0.015545248985290527,-0.002823714166879654
1733859545657313300,1.709313232421875,0.00009516789577901363,-0.011904440820217133,-0.005787279922515154
1733859545667264500,1.719264404296875,-0.004553379490971565,-0.0034558293409645557,-0.000008220085874199867
1733859545677214500,1.72921435546875,-0.011001559905707836,0.00894874893128872,0.0037785107269883156
1733859545687165200,1.739165283203125,-0.006249970756471157,0.010318427346646786,-0.005414801184087992
1733859545697115400,1.749115478515625,-0.00782762747257948,0.010792204178869724,-0.006482462398707867
1733859545707066400,1.75906640625,-0.009238860569894314,0.01252477802336216,-0.00023305881768465042
1733859545717016600,1.7690166015625,-0.010067902505397797,0.019607188180088997,0.004922554828226566
1733859545726967300,1.77896728515625,-0.00733940489590168,0.026363473385572433,0.005657486617565155
1733859545736917200,1.788917236328125,-0.008316252380609512,0.03266078606247902,0.006277204025536776
1733859545746868500,1.798868408203125,-0.007770837284624577,0.03928282856941223,0.0040618726052343845
1733859545756818200,1.808818115234375,-0.008323443122208118,0.04163120687007904,0.005450444761663675
1733859545766769400,1.818769287109375,-0.009553485549986362,0.04650881513953209,0.011101077310740948
1733859545776719400,1.82871923828125,-0.011508512310683727,0.055336661636829376,0.011504014022648335
1733859545786670300,1.83867041015625,-0.011800022795796394,0.05622032657265663,0.0050972579047083855
1733859545796620300,1.848620361328125,-0.00912727415561676,0.05069799721240997,0.004215485416352749
1733859545806571300,1.8585712890625,-0.010332843288779259,0.04524913802742958,0.005427915137261152
1733859545816521500,1.868521484375,-0.011862030252814293,0.0385315828025341,0.005871864035725594
1733859545826472200,1.87847216796875,-0.01356352400034666,0.03160416707396507,0.0024454412050545216
1733859545836422400,1.88842236328125,-0.014937182888388634,0.024296186864376068,-0.00043237069621682167
1733859545846373400,1.898373291015625,-0.019963165745139122,0.01862405613064766,-0.0000026188790798187256
1733859545856323300,1.9083232421875,-0.019510693848133087,0.019952442497015,0.003688256023451686
1733859545866274300,1.9182744140625,-0.016024570912122726,0.02102193795144558,0.005942515563219786
1733859545876224300,1.928224365234375,-0.009953894652426243,0.01964188739657402,0.00556088425219059
1733859545886175500,1.938175537109375,-0.005429142154753208,0.010315909050405025,0.004625850357115269
1733859545896125400,1.94812548828125,0.0008961313869804144,0.00009496323764324188,0.004799222573637962
1733859545906076400,1.958076416015625,0.002861615503206849,-0.008621514774858952,0.0004602656699717045
1733859545916026400,1.9680263671875,0.011742192320525646,-0.01426901388913393,-0.0038623111322522163
1733859545925977300,1.977977294921875,0.013508839532732964,-0.017476826906204224,-0.004430041648447514
1733859545935927300,1.98792724609375,0.015629515051841736,-0.016892261803150177,0.0000906740315258503
1733859545945878300,1.997878173828125,0.012398835271596909,-0.013186836615204811,-0.0014192229136824608
1733859545955828500,2.007828369140625,0.011304276995360851,-0.007425620220601559,-0.004511951934546232
1733859545965779200,2.017779296875,0.005528225563466549,-0.0028503434732556343,-0.005645212717354298
1733859545975729200,2.027729248046875,0.005298394709825516,-0.0021757646463811398,-0.0004531135782599449
1733859545985680400,2.037680419921875,0.0022615601774305105,-0.0062177167274057865,0.003288649022579193
1733859545995630300,2.04763037109375,0.0011355758178979158,-0.006405469495803118,0.0029504275880753994
1733859546005581300,2.057581298828125,0.0018709597643464804,-0.005052029155194759,0.0013554662000387907
1733859546015531300,2.06753125,0.0015303415711969137,-0.0018237445037811995,-0.0009103512857109308
1733859546025482500,2.077482421875,-0.001648984383791685,0.00045897415839135647,-0.0025418088771402836
1733859546035432400,2.087432373046875,-0.0013416556175798178,-0.0006933754775673151,-0.0008411140879616141
1733859546045383400,2.097383544921875,-0.0029419451020658016,-0.0002858210355043411,-0.0030572377145290375
1733859546055333400,2.10733349609375,-0.0030569934751838446,-0.0018544227350503206,-0.004556597210466862
1733859546065284400,2.117284423828125,-0.0023106031585484743,-0.00643802247941494,-0.007645276375114918
1733859546075234300,2.127234375,-0.00044612400233745575,-0.011436509899795055,-0.006829283200204372
1733859546085185300,2.137185302734375,-0.0015163591597229242,-0.023082304745912552,-0.00670246547088027
1733859546095135500,2.147135498046875,-0.0022961325012147427,-0.03101985529065132,-0.00891235563904047
1733859546105086200,2.157086181640625,-0.0009610000997781754,-0.03422502800822258,-0.009664647281169891
1733859546115036200,2.1670361328125,-0.002108556218445301,-0.035815201699733734,-0.008658238686621189
1733859546124987400,2.1769873046875,-0.0016936147585511208,-0.032485026866197586,-0.007255893666297197
1733859546134937300,2.186937255859375,0.00043824571184813976,-0.030333461239933968,-0.008260171860456467
1733859546144887600,2.196887451171875,0.004257707856595516,-0.02842891216278076,-0.006051083095371723
1733859546154838300,2.20683837890625,0.00710702408105135,-0.029822275042533875,-0.004596997052431107
1733859546164788200,2.216788330078125,0.009695015847682953,-0.03198365122079849,-0.003176972735673189
1733859546174739500,2.226739501953125,0.009082222357392311,-0.033856119960546494,-0.004748237784951925
1733859546184689400,2.236689453125,0.006132862530648708,-0.034012243151664734,-0.00733837578445673
1733859546194640400,2.246640380859375,0.005477724596858025,-0.03205934539437294,-0.005995876155793667
1733859546204590300,2.25659033203125,0.0030310333240777254,-0.029715467244386673,-0.004581364803016186
1733859546214541300,2.266541259765625,0.0036885675508528948,-0.02411377616226673,-0.003770166076719761
1733859546224491300,2.2764912109375,0.00554534699767828,-0.02030147612094879,-0.0021817765664309263
1733859546234442200,2.286442138671875,0.006771199405193329,-0.015732023864984512,-0.0015418191906064749
1733859546244392400,2.296392333984375,0.006208893842995167,-0.010310553945600986,-0.0015885562170296907
1733859546254343200,2.30634326171875,0.007244330830872059,-0.006985597312450409,0.00032199546694755554
1733859546264293400,2.31629345703125,0.008460929617285728,-0.006481771357357502,-0.0009670021245256066
1733859546274244400,2.326244384765625,0.008075037971138954,-0.0037634822074323893,0.00011583929881453514
1733859546284194300,2.3361943359375,0.008076835423707962,-0.0015027779154479504,0.003272093366831541
1733859546294145300,2.346145263671875,0.006569752469658852,0.0007369406521320343,0.004394615534693003
1733859546304095200,2.35609521484375,0.007228419184684753,0.0021055920515209436,0.005369190592318773
1733859546314046500,2.36604638671875,0.0036342169623821974,-0.0015671735163778067,0.0037947301752865314
1733859546323996400,2.375996337890625,0.003027570666745305,-0.009826277382671833,0.0011674470733851194
1733859546333947400,2.385947509765625,0.0009724090341478586,-0.018758254125714302,0.002868141746148467
1733859546343897300,2.3958974609375,-0.0004251741338521242,-0.019188115373253822,0.0026086419820785522
1733859546353848000,2.40584814453125,-0.0000997358001768589,-0.016244523227214813,-0.0018340435344725847
1733859546363798000,2.415798095703125,-0.001035676570609212,-0.008156245574355125,-0.0030985968187451363
1733859546373749000,2.4257490234375,-0.000613565556704998,-0.0013952788431197405,-0.005620077718049288
1733859546383699200,2.43569921875,0.0004387784283608198,0.008841107599437237,-0.0035730083473026752
1733859546393650200,2.445650146484375,0.00012159557081758976,0.015770653262734413,-0.0002334044547751546
1733859546403600000,2.455599853515625,-0.00007026270031929016,0.026046093553304672,-0.001117550185881555
1733859546413551000,2.465551025390625,0.0007505237590521574,0.03974219784140587,0.0011200376320630312
1733859546423501000,2.4755009765625,0.003307271981611848,0.05244654417037964,0.0034147105179727077
1733859546433452000,2.4854521484375,0.0021205672528594732,0.06087864562869072,0.0074352845549583435
1733859546443402000,2.495402099609375,0.00018584751524031162,0.07257486134767532,0.008287242613732815
1733859546453353200,2.505353271484375,-0.0008245559874922037,0.0813174918293953,0.01165827177464962
1733859546463303200,2.51530322265625,-0.0045423442497849464,0.08540048450231552,0.014884241856634617
1733859546473254100,2.525254150390625,-0.0058608753606677055,0.08781517297029495,0.01692022755742073
1733859546483204000,2.5352041015625,-0.005873506888747215,0.08750632405281067,0.013405785895884037
1733859546493155000,2.545155029296875,-0.008349713869392872,0.07958687841892242,0.013762382790446281
1733859546503105300,2.555105224609375,-0.006121946033090353,0.06439387798309326,0.009306096471846104
1733859546513056000,2.565055908203125,-0.006364559754729271,0.048163510859012604,0.00871061347424984
1733859546523006200,2.575006103515625,-0.007623628713190556,0.03997112810611725,0.008466126397252083
1733859546532957200,2.584957275390625,-0.0076896753162145615,0.03683898225426674,0.00630097696557641
1733859546542907000,2.594906982421875,-0.007579311728477478,0.03078145906329155,0.003461488988250494
1733859546552858000,2.604858154296875,-0.010100259445607662,0.027094580233097076,0.002928856760263443
1733859546562808000,2.61480810546875,-0.008229144848883152,0.02137891761958599,0.006730439141392708
1733859546572759000,2.624759033203125,-0.006128443870693445,0.01716526411473751,0.006991162896156311
1733859546582709000,2.634708984375,-0.005077849142253399,0.011190210469067097,0.003993695601820946
1733859546592660200,2.64466015625,-0.004320712294429541,-0.0011482145637273788,-0.003442915389314294
1733859546602610200,2.654610107421875,-0.004848816432058811,-0.01596294343471527,-0.0054364437237381935
1733859546612561000,2.664560791015625,-0.003675693878903985,-0.026085086166858673,-0.006100103724747896
1733859546622511000,2.674510986328125,-0.005596141796559095,-0.026640670374035835,-0.003793654963374138
1733859546632462000,2.684462158203125,-0.005050193518400192,-0.01962670311331749,-0.007884004153311253
1733859546642412300,2.694412353515625,-0.0028670919127762318,-0.009849870577454567,-0.00875088945031166
1733859546652363000,2.704363037109375,-0.0029065068811178207,0.000136983348056674,-0.005397969391196966
1733859546662313000,2.71431298828125,0.0010141327511519194,0.003914624452590942,-0.0013716606190428138
1733859546672264200,2.72426416015625,0.004946555942296982,-0.0014692218974232674,0.00002916203811764717
1733859546682214100,2.734214111328125,0.00799960270524025,-0.009988844394683838,0.000058608828112483025
1733859546692164000,2.7441640625,0.006528472527861595,-0.022498244419693947,-0.0029409092385321856
1733859546702115000,2.754114990234375,0.005307282321155071,-0.03671189025044441,-0.004852581303566694
1733859546712065000,2.76406494140625,0.003567705163732171,-0.04584173858165741,-0.008289390243589878
1733859546722016000,2.77401611328125,0.0012813357170671225,-0.0502685084939003,-0.009605838917195797
1733859546731967200,2.78396728515625,0.0008280656766146421,-0.046280425041913986,-0.011724117211997509
1733859546741917200,2.793917236328125,-0.002423387486487627,-0.03510953113436699,-0.009312890470027924
1733859546751867100,2.8038671875,-0.003230591770261526,-0.02042592503130436,-0.006897936575114727
1733859546761818000,2.813818115234375,-0.0024048076011240482,-0.011238055303692818,-0.006318624597042799
1733859546771768000,2.82376806640625,0.0009292035829275846,-0.005654205568134785,-0.002345454413443804
1733859546781719300,2.83371923828125,-0.00015716766938567162,-0.0018913820385932922,-0.001869787578471005
1733859546791669200,2.843669189453125,-0.00004611397162079811,-0.0011297175660729408,-0.0006796208908781409
1733859546801620000,2.853619873046875,-0.004699477925896645,-0.005836040712893009,-0.000953473849222064
1733859546811570200,2.863570068359375,-0.007280613761395216,-0.01453738659620285,-0.008384225890040398
1733859546821521200,2.873521240234375,-0.00792445708066225,-0.024978742003440857,-0.01279071718454361
1733859546831471000,2.88347119140625,-0.008170799352228642,-0.033078745007514954,-0.0136716915294528
1733859546841422000,2.893422119140625,-0.008391729556024075,-0.02957116812467575,-0.007938839495182037
1733859546851372000,2.9033720703125,-0.003148498246446252,-0.01287101861089468,-0.002871109638363123
1733859546861323000,2.913322998046875,-0.004422707483172417,0.009279750287532806,-0.00045389134902507067
1733859546871273000,2.92327294921875,-0.0014972251374274492,0.022008594125509262,-0.002020362764596939
1733859546881224200,2.93322412109375,0.0020464619155973196,0.024506928399205208,0.002799165900796652
1733859546891174100,2.943174072265625,0.001474681543186307,0.016775771975517273,0.006678326055407524
1733859546901125000,2.953125,0.001275721238926053,0.006781037896871567,0.005026974715292454
1733859546911075000,2.963074951171875,0.0013830468524247408,-0.0065683238208293915,0.0007605905993841588
1733859546921026000,2.973026123046875,-0.00029196939431130886,-0.01516401395201683,-0.0030100469011813402
1733859546930976300,2.982976318359375,-0.0015468508936464787,-0.024765774607658386,-0.005540582351386547
1733859546940927000,2.992927001953125,-0.00184532324783504,-0.027525654062628746,-0.004449778236448765
1733859546950877200,3.002877197265625,-0.004104749299585819,-0.020782530307769775,-0.0048290123231709
1733859546960828200,3.012828125,-0.0006231125444173813,-0.011412880383431911,-0.0031979321502149105
1733859546970778000,3.022778076171875,0.00046745198778808117,-0.002275307895615697,-0.0017584935994818807
1733859546980729000,3.03272900390625,0.002315997378900647,0.006658770143985748,-0.000164432218298316
1733859546990679000,3.042678955078125,0.005495811812579632,0.012411197647452354,0.003869191510602832
1733859547000630000,3.052630126953125,0.0026789845433086157,0.018915340304374695,0.005665871314704418
1733859547010580000,3.062580078125,-0.0017501185648143291,0.0241180919110775,0.00551114184781909
1733859547020531200,3.07253125,-0.0031592128798365593,0.02708292193710804,0.006361724343150854
1733859547030481200,3.082481201171875,-0.0035104837734252214,0.021575771272182465,0.0017187695484608412
1733859547040432000,3.09243212890625,-0.00363758928142488,0.01301419548690319,0.0007143586408346891
1733859547050382000,3.102382080078125,-0.002206406556069851,0.0027964450418949127,-0.0019653141498565674
1733859547060333000,3.1123330078125,-0.0006619729101657867,-0.007798546925187111,-0.004186837933957577
1733859547070283300,3.122283203125,0.0014310053084045649,-0.01344631239771843,-0.003547147149220109
1733859547080234000,3.13223388671875,0.000831907382234931,-0.010771145112812519,-0.006925612688064575
1733859547090184200,3.14218408203125,-0.0018613473512232304,-0.006240309216082096,-0.0031151617877185345
1733859547100135200,3.15213525390625,-0.0012116492725908756,-0.001175265060737729,0.00035944394767284393
1733859547110085000,3.162085205078125,-0.0023703905753791332,0.005293286871165037,0.0018257804913446307
1733859547120036000,3.1720361328125,0.0005732916761189699,0.010061446577310562,0.003492327407002449
1733859547129986000,3.181986083984375,0.0038756115827709436,0.007964740507304668,0.000560985878109932
1733859547139937300,3.191937255859375,0.0062920572236180305,0.003718226682394743,-0.0006145058432593942
1733859547149887000,3.201886962890625,0.008887307718396187,-0.002291462616994977,-0.002051281277090311
1733859547159838200,3.211838134765625,0.005841223523020744,-0.00783601775765419,-0.003644118318334222
1733859547169788200,3.2217880859375,0.004618300125002861,-0.011902131140232086,-0.0005295516457408667
1733859547179739000,3.23173876953125,0.002661566948518157,-0.0070361061953008175,0.0003509159432724118
1733859547189689000,3.241689208984375,0.000582969980314374,0.0034460960887372494,-0.0009212760487571359
1733859547199640000,3.25164013671875,-0.0014863323885947466,0.010681827552616596,-0.0009771741461008787
1733859547209590300,3.26159033203125,-0.002136942697688937,0.014918915927410126,0.0026236861012876034
1733859547219541000,3.271541015625,-0.0026498441584408283,0.016933487728238106,0.004386359825730324
1733859547229491000,3.281490966796875,-0.0027047053445130587,0.015723347663879395,0.004741359036415815
1733859547239442200,3.291442138671875,-0.004353884141892195,0.011050678789615631,0.0030954377725720406
1733859547249392000,3.30139208984375,-0.0024220270570367575,0.00929645448923111,0.0001869996776804328
1733859547259343000,3.311343017578125,-0.003433921141549945,0.00799640268087387,-0.0036194846034049988
1733859547269293000,3.32129296875,-0.002714334987103939,0.007592134643346071,-0.0038786097429692745
1733859547279244300,3.331244384765625,-0.003154581179842353,0.010467471554875374,0.0005369405262172222
1733859547289194000,3.341194091796875,-0.0028650956228375435,0.011217418126761913,0.0029479002114385366
1733859547299145000,3.35114501953125,-0.0025320444256067276,0.012721908278763294,0.004192265681922436
1733859547309095200,3.36109521484375,-0.00006675627082586288,0.013626583851873875,0.004130213521420956
1733859547319046100,3.371046142578125,-0.0022483274806290865,0.011599954217672348,0.001941568567417562
1733859547328996000,3.38099609375,0.0011107174213975668,0.005334869027137756,0.00037589622661471367
1733859547338946000,3.390946044921875,-0.0006603687070310116,0.0004558395594358444,-0.002098072785884142
1733859547348897500,3.4008974609375,-0.0028300462290644646,-0.008260154165327549,-0.002608867362141609
1733859547358847500,3.410847412109375,-0.003137595485895872,-0.016281090676784515,-0.00409608194604516
1733859547368798500,3.420798583984375,-0.0006424798630177975,-0.01841668039560318,-0.006271085701882839
1733859547378748400,3.43074853515625,-0.0012367719318717718,-0.01403551734983921,-0.00506984069943428
1733859547388699600,3.44069970703125,0.0010980216320604086,-0.006263880990445614,-0.003719884203746915
1733859547398649300,3.4506494140625,0.002358195139095187,-0.0003788846079260111,-0.0006536248838528991
1733859547408600600,3.4606005859375,0.002939030760899186,0.002654721960425377,-0.0005867794388905168
1733859547418550500,3.470550537109375,0.0034375193063169718,0.0017123440047726035,0.0024143895134329796
1733859547428501200,3.480501220703125,0.00621919147670269,-0.0012299162335693836,0.003049819730222225
1733859547438451500,3.490451416015625,0.008798995986580849,-0.008488895371556282,0.0010556448251008987
1733859547448402400,3.50040234375,0.009084486402571201,-0.018738867715001106,-0.0031939614564180374
1733859547458352600,3.5103525390625,0.007019398733973503,-0.030380818992853165,-0.008740361779928207
1733859547468303400,3.520303466796875,0.005549333989620209,-0.03872423619031906,-0.00621648458763957
1733859547478253300,3.53025341796875,0.005208508111536503,-0.04216649755835533,-0.0086918193846941
1733859547488204500,3.54020458984375,0.003452419536188245,-0.038457248359918594,-0.00992859061807394
1733859547498154500,3.550154541015625,0.0025005091447383165,-0.035716086626052856,-0.008379111997783184
1733859547508105500,3.56010546875,0.004204132594168186,-0.031379662454128265,-0.005779600702226162
1733859547518055400,3.570055419921875,0.0038780083414167166,-0.025587625801563263,-0.006711840629577637
1733859547528006700,3.580006591796875,0.0034156835172325373,-0.01703435182571411,-0.005387983284890652
1733859547537956400,3.589956298828125,0.0014732193667441607,-0.010021746158599854,-0.0019526119576767087
1733859547547907300,3.5999072265625,0.000825538532808423,0.001406943192705512,0.0011845917906612158
1733859547557857500,3.609857421875,-0.002057417295873165,0.010591002181172371,0.004426299594342709
1733859547567808500,3.61980859375,-0.0034949916880577803,0.01587498001754284,0.0022006959188729525
1733859547577758500,3.629758544921875,-0.0031602552626281977,0.019746165722608566,0.0026664026081562042
1733859547587709400,3.63970947265625,-0.0013841930776834488,0.01670110784471035,0.0036645554937422276
1733859547597659600,3.64965966796875,-0.00017277197912335396,0.015212605707347393,0.0029699490405619144
1733859547607610400,3.6596103515625,0.0025148901622742414,0.01085807103663683,0.0027675488963723183
1733859547617560300,3.669560302734375,0.0055751800537109375,0.008736125193536282,0.0012179092736914754
1733859547627511600,3.679511474609375,0.006834854371845722,0.008335585705935955,0.0022413621190935373
1733859547637461500,3.68946142578125,0.006153455004096031,0.0030878379475325346,0.0010329005308449268
1733859547647412500,3.69941259765625,0.007125242613255978,-0.003150617005303502,0.002190310275182128
1733859547657362400,3.709362548828125,0.006666691042482853,-0.011515900492668152,0.001757439342327416
1733859547667313700,3.719313720703125,0.0064347293227910995,-0.02046811580657959,-0.00041090650483965874
1733859547677263600,3.729263671875,0.006084058433771133,-0.02431216649711132,-0.0026186946779489517
1733859547687214300,3.73921435546875,0.007877697236835957,-0.02713644877076149,-0.004915937315672636
1733859547697164500,3.74916455078125,0.005990183912217617,-0.027923766523599625,0.000011389260180294514
1733859547707115500,3.759115478515625,0.007441872730851173,-0.02772482857108116,-0.0022810595110058784
1733859547717065500,3.7690654296875,0.0075984979048371315,-0.028827836737036705,-0.005836935248225927
1733859547727016400,3.779016357421875,0.00942729040980339,-0.027929021045565605,-0.00395754212513566
1733859547736966400,3.78896630859375,0.008806165307760239,-0.027959156781435013,-0.001288659404963255
1733859547746917400,3.79891748046875,0.012293041683733463,-0.027183644473552704,-0.0012867951299995184
1733859547756867300,3.808867431640625,0.011698422953486443,-0.026440227404236794,0.0021953703835606575
1733859547766818600,3.818818603515625,0.010125293396413326,-0.027067136019468307,-0.00039588543586432934
1733859547776768500,3.8287685546875,0.008858856745064259,-0.031358297914266586,0.00020324497018009424
1733859547786719500,3.838719482421875,0.010000820271670818,-0.03437033295631409,-0.0017808101838454604
1733859547796669400,3.84866943359375,0.00904536247253418,-0.037669338285923004,-0.0038640424609184265
1733859547806620400,3.858620361328125,0.0061744749546051025,-0.035742275416851044,-0.0025391201488673687
1733859547816570600,3.868570556640625,0.0050965407863259315,-0.028590964153409004,-0.0010151255410164595
1733859547826521300,3.878521240234375,0.003207826754078269,-0.026347516104578972,-0.0015970263630151749
1733859547836471600,3.888471435546875,0.0015934740658849478,-0.02119317837059498,-0.0003982767229899764
1733859547846422500,3.898422607421875,-0.00107075204141438,-0.017376868054270744,0.0018592849373817444
1733859547856372500,3.90837255859375,-0.0001899278722703457,-0.01441738661378622,0.0024632844142615795
1733859547866323500,3.918323486328125,0.0010116903576999903,-0.011522796005010605,0.004114178009331226
1733859547876273400,3.9282734375,0.004290086217224598,-0.009205874986946583,0.004550296347588301
1733859547886223600,3.9382236328125,0.010390589013695717,-0.009496957994997501,0.003373978193849325
1733859547896174300,3.94817431640625,0.014685830101370811,-0.012828540988266468,0.0011808110866695642
1733859547906124300,3.958124267578125,0.017040330916643143,-0.011726790107786655,0.0024716451298445463
1733859547916075500,3.968075439453125,0.015732116997241974,-0.015568356029689312,-0.0006351727060973644
1733859547926025500,3.978025390625,0.015413603745400906,-0.01745094545185566,-0.0032834201119840145
1733859547935976400,3.9879765625,0.011873372830450535,-0.01646951027214527,-0.005033170338720083
1733859547945926400,3.997926513671875,0.00943951029330492,-0.01095756608992815,-0.002431528177112341
1733859547955877600,4.007877685546875,0.006652886979281902,-0.00865622702986002,-0.001569755026139319
1733859547965827600,4.01782763671875,0.003984666429460049,-0.009871161542832851,-0.002191336825489998
1733859547975778600,4.027778564453125,0.002906641224399209,-0.013804399408400059,-0.0010325157782062888
1733859547985728500,4.037728515625,0.0006935542915016413,-0.014006798155605793,0.0016650001052767038
1733859547995679500,4.047679443359375,0.0030143677722662687,-0.011373817920684814,0.001051620114594698
1733859548005629400,4.05762939453125,0.00012989831157028675,-0.007388398051261902,-0.0012373668141663074
1733859548015580400,4.067580322265625,0.000004820292815566063,-0.004663510248064995,-0.0031638438813388348
1733859548025530600,4.077530517578125,-0.00008865655399858952,-0.001022969139739871,-0.0035028643906116486
1733859548035481300,4.0874814453125,0.0013439205940812826,-0.000527223339304328,-0.0013813102850690484
1733859548045431300,4.097431396484375,0.0009039666038006544,-0.001329899998381734,0.00014548003673553467
1733859548055382500,4.107382568359375,0.0011234104167670012,-0.000782448798418045,-0.0003292495384812355
1733859548065332500,4.11733251953125,0.000631790840998292,-0.0011014954652637243,0.0012769029708579183
1733859548075283500,4.127283447265625,0.00326551147736609,-0.0031592100858688354,0.0012262201635167003
1733859548085233400,4.1372333984375,0.0016862570773810148,-0.005068696569651365,0.0029439590871334076
1733859548095184600,4.1471845703125,0.0022772352676838636,-0.009142549708485603,0.0016577327623963356
1733859548105134600,4.157134521484375,-0.0011372035369277,-0.010513544082641602,0.002006340539082885
1733859548115085300,4.167085205078125,-0.003289668122306466,-0.010800396092236042,0.00009850156493484974
1733859548125035500,4.177035400390625,-0.001935983425937593,-0.010316765867173672,0.00013844890054315329
1733859548134986500,4.186986572265625,-0.0005321409553289413,-0.00798256415873766,0.0010298620909452438
1733859548144936400,4.1969365234375,0.00304794660769403,-0.005584653466939926,0.004089301452040672
1733859548154887400,4.206887451171875,0.004458821378648281,-0.005625622346997261,0.003696778090670705
1733859548164837400,4.21683740234375,0.005140057764947414,-0.0129895294085145,-0.0005754646845161915
1733859548174788400,4.226788330078125,0.0061172014102339745,-0.019296886399388313,-0.0002186250640079379
1733859548184738300,4.23673828125,0.008373698219656944,-0.020089177414774895,0.0019198933150619268
1733859548194689500,4.246689453125,0.006922268308699131,-0.01552007906138897,0.0008672494441270828
1733859548204639500,4.256639404296875,0.005576838739216328,-0.00968083180487156,0.0003745646681636572
1733859548214590500,4.266590576171875,0.0011815575417131186,-0.006238696631044149,-0.0011215992271900177
1733859548224540400,4.27654052734375,0.0011640714947134256,-0.007006810512393713,-0.0005473681958392262
1733859548234491600,4.28649169921875,-0.0015995614230632782,-0.007047340273857117,-0.001930211903527379
1733859548244441600,4.296441650390625,0.00017889752052724361,-0.0056542400270700455,-0.0009323253761976957
1733859548254392300,4.306392333984375,-0.0012947164941579103,-0.0017166053876280785,-0.0034355928655713797
1733859548264342500,4.316342529296875,-0.0012339965905994177,0.005035040900111198,-0.000059237354435026646
1733859548274293500,4.32629345703125,-0.0015299504157155752,0.00995812937617302,0.001704046968370676
1733859548284243500,4.336243408203125,-0.0033507535699754953,0.010859343223273754,0.0020478609949350357
1733859548294194400,4.3461943359375,-0.0012275178451091051,0.00921338889747858,0.003496777731925249
1733859548304144400,4.356144287109375,-0.0013537516351789236,0.006883389316499233,0.002151348628103733
1733859548314095600,4.366095703125,-0.001553995767608285,0.005032038316130638,0.0026410745922476053
1733859548324045300,4.37604541015625,-0.0034088874235749245,0.0039891442283988,0.0023968627210706472
1733859548333996500,4.38599658203125,-0.00258175702765584,0.003341932315379381,0.00047800526954233646
1733859548343946500,4.395946533203125,-0.004376993980258703,-0.0006868978962302208,-0.0011430608574301004
1733859548353900500,4.405900634765625,-0.002366191940382123,-0.004595067352056503,-0.0037601259537041187
1733859548363850500,4.4158505859375,-0.0023267772048711777,-0.006186838261783123,-0.0019371919333934784
1733859548373801700,4.4258017578125,-0.0020620590075850487,-0.006565007381141186,0.0008492734050378203
1733859548383751700,4.435751708984375,-0.0020354273729026318,-0.007726144976913929,-0.0009520887397229671
1733859548393701600,4.44570166015625,0.0012654250022023916,-0.006475970149040222,-0.000741113442927599
1733859548403652600,4.455652587890625,0.0012081668246537447,-0.0046839285641908646,0.001070901402272284
1733859548413603600,4.465603515625,0.001354794716462493,-0.003856678493320942,0.0022540115751326084
1733859548423553800,4.4755537109375,0.003754303092136979,-0.0035687903873622417,0.00566232530400157
1733859548433503700,4.485503662109375,0.005175875499844551,0.0011165231699123979,0.002504269126802683
1733859548443454500,4.495454345703125,0.00444563664495945,0.0019101451616734266,0.0025844303891062737
1733859548453404700,4.50540478515625,0.0051388805732131,0.000609709182754159,-0.0012238103663548827
1733859548463355600,4.515355712890625,0.005110916681587696,0.0005955942906439304,-0.0008158140117302537
1733859548473305600,4.5253056640625,0.004527374170720577,0.00290644820779562,0.001706839306280017
1733859548483256600,4.535256591796875,0.0027595676947385073,0.003919780720025301,0.001531070563942194
1733859548493206500,4.54520654296875,0.0004972161259502172,0.005566504783928394,-0.001290123793296516
1733859548503157500,4.555157470703125,-0.0015241231303662062,0.007311408407986164,0.0004625023575499654
1733859548513107500,4.565107421875,-0.0017036201898008585,0.004614158533513546,0.00008273567073047161
1733859548523058700,4.57505859375,-0.00146420206874609,0.002461259253323078,0.0027032862417399883
1733859548533008600,4.585008544921875,-0.0029671145603060722,-0.0009635072201490402,0.0021064886823296547
1733859548542959600,4.594959716796875,-0.003924787510186434,-0.009362850338220596,0.0010500126518309116
1733859548552909600,4.60490966796875,-0.008122975006699562,-0.01000955980271101,-0.001005504629574716
1733859548562860500,4.614860595703125,-0.006479272618889809,-0.01244289055466652,-0.0015282832318916917
1733859548572810800,4.624810791015625,-0.008038816042244434,-0.01173654105514288,-0.003027249127626419
1733859548582761500,4.634761474609375,-0.006810033228248358,-0.008609190583229065,-0.003612612374126911
1733859548592711700,4.644711669921875,-0.005986208561807871,-0.0024173352867364883,-0.0040093353018164635
1733859548602662700,4.65466259765625,-0.002339808503165841,0.00006339931860566139,-0.002036465797573328
1733859548612612600,4.664612548828125,0.003507409943267703,-0.0012165808584541082,-0.0010854850988835096
1733859548622563600,4.6745634765625,0.004296504892408848,-0.001297008479014039,-0.0012237031478434801
1733859548632513500,4.684513427734375,0.00788542628288269,-0.004425719380378723,-0.0023055854253470898
1733859548642464500,4.694464599609375,0.007839886471629143,-0.007201798260211945,-0.0002019541570916772
1733859548652414500,4.70441455078125,0.004353513941168785,-0.007928918115794659,-0.0018546850187703967
1733859548662365700,4.71436572265625,0.0036531027872115374,-0.013338063843548298,-0.004907999187707901
1733859548672315600,4.724315673828125,0.003441006178036332,-0.01610039733350277,-0.005419034510850906
1733859548682266600,4.7342666015625,0.0007725188042968512,-0.016808263957500458,-0.0040296632796525955
1733859548692216600,4.744216552734375,-0.001658727414906025,-0.010108081623911858,-0.0019037107704207301
1733859548702167600,4.75416748046875,-0.0035793990828096867,0.0011965036392211914,-0.0012056963751092553
1733859548712117800,4.76411767578125,-0.0016872892156243324,0.011767526157200336,-0.00038233038503676653
1733859548722068500,4.774068359375,-0.002084100153297186,0.018586017191410065,-0.0000068247318267822266
1733859548732018700,4.784018798828125,-0.0015021320432424545,0.02152637019753456,0.0016387153882533312
1733859548741969700,4.7939697265625,-0.0022856341674923897,0.021053925156593323,0.0031069160904735327
1733859548751919600,4.803919677734375,-0.002201228169724345,0.016648363322019577,0.005215688608586788
1733859548761870600,4.81387060546875,-0.001980185741558671,0.018978629261255264,0.004470536485314369
1733859548771820500,4.823820556640625,-0.0010436438024044037,0.016671324148774147,0.004782071337103844
1733859548781771800,4.833771728515625,-0.0012561639305204153,0.015830298885703087,0.0020861534867435694
1733859548791721500,4.843721435546875,0.002135258400812745,0.012380247004330158,0.00016241869889199734
1733859548801672700,4.853672607421875,0.001631654566153884,0.0064121028408408165,0.0017579185077920556
1733859548811622700,4.86362255859375,0.0016233145724982023,0.0032468175049871206,0.000012590666301548481
1733859548821573400,4.873573486328125,0.0005106457974761724,0.0010414537973701954,-0.003554979804903269
1733859548831523600,4.883523681640625,-0.002549998927861452,-0.004230809397995472,-0.0024932834785431623
1733859548841474600,4.893474609375,-0.0043516275472939014,-0.003976477310061455,-0.000042909057810902596
1733859548851424800,4.9034248046875,-0.004615254234522581,0.004178465344011784,0.0030090450309216976
1733859548861375500,4.91337548828125,-0.003537739161401987,0.007003013975918293,0.000645489664748311
1733859548871325400,4.923325439453125,-0.0028477595187723637,0.004833898972719908,0.00038087787106633186
1733859548881276700,4.933276611328125,-0.0018229749985039234,0.0013198577798902988,0.0018693185411393642
1733859548891226600,4.9432265625,-0.00002538878470659256,-0.002150837332010269,0.00034540786873549223
1733859548901177600,4.953177490234375,0.0019522744696587324,-0.004314922261983156,0.0001981351524591446
1733859548911127600,4.96312744140625,0.0011814271565526724,-0.005458745174109936,-0.002053464064374566
1733859548921078800,4.973078857421875,0.0009915439877659082,-0.008485160768032074,-0.0047139618545770645
1733859548931028500,4.983028564453125,0.0008551634382456541,-0.009518278762698174,-0.00705565232783556
1733859548940979500,4.9929794921875,-0.0005648338701575994,-0.009120400995016098,-0.004783975891768932
1733859548950929700,5.0029296875,-0.0005826987326145172,-0.007476248312741518,-0.0009607068495824933
1733859548960879600,5.012879638671875,-0.001997369807213545,0.0026775861624628305,0.002628968097269535
1733859548970830600,5.02283056640625,-0.0010659287218004465,0.011433004401624203,0.0005307607352733612
1733859548980780500,5.032780517578125,0.0006214503664523363,0.01427566260099411,0.0026407833211123943
1733859548990731500,5.0427314453125,-0.001930124475620687,0.013529977761209011,0.0043984693475067616
1733859549000681700,5.052681640625,-0.0021959077566862106,0.011874023824930191,0.005626985803246498
1733859549010632400,5.062632568359375,-0.0014821132645010948,0.006828887388110161,0.003591771237552166
1733859549020582700,5.072582763671875,-0.002820884343236685,0.0017518372042104602,0.0000622838269919157
1733859549030533600,5.08253369140625,-0.0025213686749339104,-0.0018018265254795551,-0.0002317819744348526
1733859549040483800,5.09248388671875,-0.0042028883472085,-0.002619416918605566,-0.0033359627705067396
1733859549050434600,5.1024345703125,-0.002629198133945465,-0.0002725645899772644,-0.0019551387522369623
1733859549060384500,5.112384521484375,-0.002955701667815447,0.004441230557858944,-0.00220441073179245
1733859549070335700,5.122335693359375,-0.001447825925424695,0.011157101020216942,-0.0006050775991752744
1733859549080285400,5.132285400390625,-0.002670749556273222,0.013234366662800312,0.0006697777425870299
1733859549090236700,5.142236572265625,-0.0014860660303384066,0.010520972311496735,0.002161123091354966
1733859549100186600,5.1521865234375,-0.0021744933910667896,0.005113423801958561,0.0033731276635080576
1733859549110137600,5.1621376953125,-0.002538544125854969,-0.00006686476990580559,-0.00047045492101460695
1733859549120087600,5.172087646484375,-0.0035066031850874424,-0.0062746936455369,-0.0033682407811284065
1733859549130038500,5.18203857421875,-0.0018316996283829212,-0.007568045053631067,-0.0041855634190142155
1733859549139988700,5.19198876953125,-0.005891954991966486,-0.009836260229349136,-0.003283817321062088
1733859549149939500,5.201939453125,-0.0032614385709166527,-0.01042275968939066,-0.002609372604638338
1733859549159889700,5.2118896484375,-0.002075266558676958,-0.007966792210936546,-0.0027113715186715126
1733859549169840600,5.221840576171875,-0.0006908238865435123,-0.004280890803784132,-0.0031339603010565042
1733859549179790600,5.23179052734375,-0.0005558016709983349,0.0015815254300832748,-0.0016881304327398539
1733859549189741600,5.241741455078125,-0.0006244846154004335,0.003658069297671318,0.002439474919810891
1733859549199691500,5.25169140625,-0.002440227661281824,0.009916231036186218,0.001481535960920155
1733859549209642800,5.261642822265625,0.001624738099053502,0.015375325456261635,-0.0002877588849514723
1733859549219592400,5.271592529296875,-0.0005752993747591972,0.012409362941980362,-0.0011239913292229176
1733859549229543700,5.281543701171875,-0.001576745416969061,0.008073708042502403,0.0010223004501312971
1733859549239493600,5.29149365234375,-0.0014177546836435795,0.003112504491582513,0.00018340477254241705
1733859549249444600,5.301444580078125,0.0002994516398757696,0.0002458780072629452,0.0003738207742571831
1733859549259394600,5.31139453125,0.0023668634239584208,-0.002407695632427931,-0.002970576984807849
1733859549269345500,5.321345458984375,0.003019518218934536,-0.0013351959642022848,-0.003066048724576831
1733859549279295700,5.331295654296875,-0.0024985517375171185,-0.0027653134893625975,0.0031044953502714634
1733859549289246500,5.34124658203125,-0.0026081143878400326,-0.0021816736552864313,-0.00036304350942373276
1733859549299196400,5.351196533203125,-0.004657949320971966,0.0017345048254355788,0.001415415434166789
1733859549309147600,5.361147705078125,-0.007676856592297554,0.006762942764908075,0.002071613213047385
1733859549319097600,5.37109765625,-0.009080342017114162,0.009263917803764343,0.0030013227369636297
1733859549329048600,5.381048583984375,-0.008546622470021248,0.011364869773387909,0.004660818260163069
1733859549338998500,5.39099853515625,-0.005901304539293051,0.01068070437759161,0.002417371142655611
1733859549348946400,5.400946533203125,-0.00028063543140888214,0.007852383889257908,0.002544376766309142
1733859549358896000,5.410896240234375,0.004870717413723469,0.008486215956509113,0.0020069507881999016
1733859549368847400,5.420847412109375,0.005208076909184456,0.005893496796488762,-0.000492771272547543
1733859549378797300,5.43079736328125,0.007417169399559498,0.0011671847896650434,-0.0006794590735808015
1733859549388748300,5.440748291015625,0.007473956793546677,-0.0036021380219608545,-0.0012825856683775783
1733859549398698200,5.4506982421875,0.005211335606873035,-0.008070656098425388,-0.0008793830638751388
1733859549408649500,5.4606494140625,0.003173109842464328,-0.0076766107231378555,0.00048045371659100056
1733859549418599400,5.470599365234375,0.003966731950640678,-0.006442767567932606,-0.00225248234346509
1733859549428550100,5.480550048828125,0.001425629248842597,-0.004106526263058186,-0.0008142155129462481
1733859549438500400,5.490500244140625,0.000010958174243569374,-0.004318513907492161,-0.002024888526648283
1733859549448451300,5.500451416015625,-0.00033341185189783573,-0.003525770967826247,-0.001621919684112072
1733859549458401500,5.510401611328125,0.001620549475774169,-0.0026567813474684954,-0.002000354928895831
1733859549468351500,5.5203515625,0.002028726739808917,-0.0024461476132273674,-0.002147633582353592
1733859549478302200,5.53030224609375,0.0003533323761075735,0.0019019953906536102,-0.0011750472476705909
1733859549488252400,5.54025244140625,0.0009591307025402784,0.00882004015147686,0.001894914428703487
1733859549498203400,5.550203369140625,-0.0006528808735311031,0.012278687208890915,0.0022232821211218834
1733859549508153300,5.5601533203125,-0.0012553078122437,0.010668115690350533,0.000053149182349443436
1733859549518104300,5.570104248046875,-0.0006784670986235142,0.006974843330681324,0.0002177325077354908
1733859549528054300,5.58005419921875,-0.0013590615708380938,0.0028760735876858234,0.0012920263689011335
1733859549538005200,5.590005126953125,-0.00018300977535545826,0.004491280764341354,0.0032262802124023438
1733859549547955200,5.599955078125,-0.0018739824881777167,0.004315691534429789,0.003996412269771099
1733859549557906400,5.609906494140625,-0.0017978160176426172,0.006987374741584063,0.0032813530415296555
1733859549567856400,5.6198564453125,-0.003265234176069498,0.006260436028242111,0.001981545938178897
1733859549577807400,5.629807373046875,-0.0012873043306171894,0.0073203737847507,0.005074008367955685
1733859549587757300,5.63975732421875,-0.003027550643309951,0.008835002779960632,0.006427478510886431
1733859549597708500,5.64970849609375,-0.00006398512050509453,0.016113687306642532,0.00800060760229826
1733859549607658500,5.659658447265625,0.0016029283870011568,0.020702896639704704,0.007144249510020018
1733859549617609200,5.669609130859375,0.0036165446508675814,0.017444252967834473,0.0044565871357917786
1733859549627559400,5.679559326171875,0.0038232954684644938,0.007454507984220982,0.0034021809697151184
1733859549637510400,5.689510498046875,0.0072840740904212,0.0006554576102644205,0.0026972421910613775
1733859549647460400,5.69946044921875,0.007730008102953434,-0.00684026163071394,0.00018511316739022732
1733859549657411300,5.709411376953125,0.007464224472641945,-0.014897389337420464,-0.00018985988572239876
1733859549667361300,5.719361328125,0.010610759258270264,-0.021168794482946396,-0.0019957255572080612
1733859549677312300,5.729312255859375,0.008626970462501049,-0.023189334198832512,-0.0028157129418104887
1733859549687262200,5.73926220703125,0.008623309433460236,-0.020292390137910843,-0.0019422235200181603
1733859549697213400,5.74921337890625,0.009139429777860641,-0.014747689478099346,-0.001324902637861669
1733859549707163400,5.759163330078125,0.007751169614493847,-0.007724696304649115,-0.0008789303246885538
1733859549717114400,5.7691142578125,0.006140223704278469,-0.004879908170551062,-0.00004509452264755964
1733859549727064300,5.779064208984375,0.005789864808320999,-0.0009020175784826279,0.0009713006438687444
1733859549737015300,5.789015380859375,0.004473996348679066,0.0016783192986622453,-0.000040700542740523815
1733859549746965500,5.798965576171875,0.003886656602844596,0.0005124604795128107,0.0008356128819286823
1733859549756916200,5.808916259765625,0.002758275019004941,-0.004562459420412779,0.001028159400448203
1733859549766866400,5.818866455078125,0.003052643733099103,-0.0015144539065659046,0.0011626610066741705
1733859549776817400,5.8288173828125,0.0012038776185363531,0.0026792259886860847,-0.00025467330124229193
1733859549786767400,5.838767333984375,0.001467239810153842,0.011708784848451614,-0.0006522121839225292
1733859549796718300,5.84871826171875,0.001187874237075448,0.023687152191996574,0.0016279863193631172
1733859549806668300,5.858668212890625,-0.0006217113696038723,0.0331450030207634,0.004203395918011665
1733859549816619500,5.86861962890625,0.0015831196215003729,0.03871607035398483,0.006772547494620085
1733859549826569200,5.8785693359375,0.0044858502224087715,0.04218198359012604,0.009384173899888992
1733859549836520400,5.8885205078125,0.005898390896618366,0.0448206402361393,0.012605001218616962
1733859549846470400,5.898470458984375,0.008812949061393738,0.04691645875573158,0.012537197209894657
1733859549856421000,5.908421142578125,0.008808155544102192,0.04587756097316742,0.01495747733861208
1733859549866371300,5.918371337890625,0.008289128541946411,0.04053577780723572,0.01668781228363514
1733859549876322300,5.928322265625,0.010590898804366589,0.03427521884441376,0.01615251787006855
1733859549886272500,5.9382724609375,0.007619037292897701,0.027688540518283844,0.010910085402429104
1733859549896223200,5.94822314453125,0.003528421511873603,0.02080666460096836,0.009728441014885902
1733859549906173200,5.958173095703125,-0.002357236808165908,0.01700841821730137,0.0050006648525595665
1733859549916124400,5.96812451171875,-0.009634857065975666,0.016156207770109177,-0.002208512043580413
1733859549926074400,5.978074462890625,-0.01812201365828514,0.01743616908788681,-0.011008795350790024
1733859549936025300,5.988025390625,-0.021099427714943886,0.021419191733002663,-0.015414729714393616
1733859549945975300,5.997975341796875,-0.023364512249827385,0.015632187947630882,-0.018420878797769547
1733859549955926500,6.007926513671875,-0.023537619039416313,0.006611263379454613,-0.01730208471417427
1733859549965876200,6.017876220703125,-0.023112477734684944,-0.0022857992444187403,-0.013585955835878849
1733859549975827500,6.027827392578125,-0.018113458529114723,-0.010491530410945415,-0.012619228102266788
1733859549985777400,6.03777734375,-0.013822498731315136,-0.017162449657917023,-0.012274091131985188
1733859549995727400,6.047727294921875,-0.008308690041303635,-0.023234989494085312,-0.017403872683644295
1733859550005678300,6.05767822265625,-0.004066120367497206,-0.035111017525196075,-0.01806766353547573
1733859550015628300,6.067628173828125,-0.002591261640191078,-0.04950753226876259,-0.01667136885225773
1733859550025579500,6.07757958984375,-0.0014032337348908186,-0.06401464343070984,-0.017010143026709557
1733859550035529500,6.087529541015625,0.0009254340548068285,-0.07843779027462006,-0.019946809858083725
1733859550045480200,6.097480224609375,0.004713064059615135,-0.08607561886310577,-0.024190669879317284
1733859550055430400,6.107430419921875,0.006311492994427681,-0.09470159560441971,-0.02355923317372799
1733859550065381400,6.11738134765625,0.005103301256895065,-0.09450653195381165,-0.025007037445902824
1733859550075331300,6.127331298828125,0.0027405444998294115,-0.08700281381607056,-0.021809911355376244
1733859550085282300,6.1372822265625,-0.0007535379845649004,-0.07773437350988388,-0.016903221607208252
1733859550095232300,6.147232177734375,-0.006004226393997669,-0.06021663546562195,-0.014898392371833324
1733859550105183500,6.15718359375,-0.008878231048583984,-0.03748919069766998,-0.013244838453829288
1733859550115133200,6.16713330078125,-0.011515825055539608,-0.01461530290544033,-0.00651582982391119
1733859550125084400,6.17708447265625,-0.01302628219127655,0.008815303444862366,-0.003089775098487735
1733859550135034400,6.187034423828125,-0.015995971858501434,0.026746101677417755,0.0007057621842250228
1733859550144985300,6.1969853515625,-0.015848364681005478,0.04195199906826019,0.005172543693333864
1733859550154935300,6.206935302734375,-0.01774000935256481,0.047674067318439484,0.010737218894064426
1733859550164886300,6.21688623046875,-0.016722748056054115,0.05136711895465851,0.018177319318056107
1733859550174836500,6.22683642578125,-0.013965310528874397,0.0548180416226387,0.021899353712797165
1733859550184787200,6.236787109375,-0.007787531241774559,0.05581962689757347,0.019999612122774124
1733859550194737400,6.2467373046875,-0.0003013857640326023,0.0570947490632534,0.021079525351524353
1733859550204688400,6.2566884765625,0.009884961880743504,0.054433438926935196,0.021339528262615204
1733859550214638300,6.266638427734375,0.019602304324507713,0.048353441059589386,0.019617529585957527
1733859550224589300,6.27658935546875,0.023185474798083305,0.03771764785051346,0.01605621911585331
1733859550234539300,6.286539306640625,0.026861969381570816,0.027338510379195213,0.009451844729483128
1733859550244490500,6.296490478515625,0.02565944194793701,0.017600826919078827,0.005551671609282494
1733859550254440200,6.306440185546875,0.025026941671967506,0.007003309670835733,0.00276174396276474
1733859550264391400,6.316391357421875,0.02034541219472885,-0.002767949365079403,0.0020618666894733906
1733859550274341400,6.32634130859375,0.0151325399056077,-0.010140644386410713,0.00019072974100708961
1733859550284292400,6.336292236328125,0.01255668606609106,-0.013486345298588276,0.0010467770043760538
1733859550294242300,6.3462421875,0.008120658807456493,-0.013825898058712482,-0.002288565970957279
1733859550304193300,6.356193359375,0.0016482921782881021,-0.013119743205606937,0.0006189113482832909
1733859550314143500,6.3661435546875,0.0032139646355062723,-0.01244276762008667,-0.0003598002949729562
1733859550324094200,6.37609423828125,0.0004582835827022791,-0.016154251992702484,-0.0010351513046771288
1733859550334044400,6.38604443359375,-0.003405430354177952,-0.019588397815823555,-0.0027904408052563667
1733859550343995400,6.395995361328125,-0.006521640811115503,-0.021148182451725006,-0.002132533583790064
1733859550353945300,6.4059453125,-0.008622342720627785,-0.023068586364388466,-0.0033426741138100624
1733859550363896300,6.415896240234375,-0.008201646618545055,-0.02326790988445282,-0.006284559611231089
1733859550373846300,6.42584619140625,-0.008248518221080303,-0.01876050978899002,-0.00623369263485074
1733859550383797500,6.435797607421875,-0.006141633726656437,-0.009334743022918701,-0.006181308068335056
1733859550393747500,6.44574755859375,-0.007417554035782814,-0.0019782932940870523,-0.0009572517592459917
1733859550403698400,6.455698486328125,-0.005752740427851677,0.002755523892119527,-0.0004641695413738489
1733859550413648400,6.4656484375,-0.006164997816085815,0.004829860292375088,-0.0005240906029939651
1733859550423599400,6.475599365234375,-0.006419507786631584,0.001356222783215344,0.001192706055007875
1733859550433549300,6.48554931640625,-0.006532159633934498,-0.0020781897474080324,0.0006219906499609351
1733859550443500300,6.495500244140625,-0.008375070989131927,-0.0034349714405834675,-0.0006154319271445274
1733859550453450500,6.505450439453125,-0.011210538446903229,-0.0033569405786693096,0.00064397684764117
1733859550463400400,6.515400390625,-0.010583380237221718,0.0007290798239409924,0.0015289143193513155
1733859550473351200,6.52535107421875,-0.00794338807463646,0.003974141553044319,0.00013181997928768396
1733859550483301400,6.53530126953125,-0.004784704186022282,0.008568686433136463,0.0002987461630254984
1733859550493252400,6.54525244140625,-0.003873636946082115,0.00936790183186531,0.001073459628969431
1733859550503202600,6.55520263671875,-0.0016341162845492363,0.006692711263895035,0.0043123699724674225
1733859550513153300,6.5651533203125,0.0014804506208747625,0.002772804582491517,0.007132657803595066
1733859550523103200,6.575103271484375,0.005067456513643265,0.002416554605588317,0.007946472615003586
1733859550533054500,6.585054443359375,0.010016142390668392,0.0052980948239564896,0.008170977234840393
1733859550543004200,6.595004150390625,0.012948174960911274,0.005061865318566561,0.007666754070669413
1733859550552955400,6.604955322265625,0.014165506698191166,0.007872299291193485,0.007396176923066378
1733859550562905300,6.6149052734375,0.01309250295162201,0.004210289567708969,0.004824179224669933
1733859550572856300,6.624856201171875,0.012220583856105804,0.0031596722546964884,0.004335489124059677
1733859550582806300,6.63480615234375,0.008267578668892384,0.003798520192503929,0.00529488967731595
1733859550592757500,6.644757568359375,0.0013926287647336721,0.0018309768056496978,0.003292991314083338
1733859550602707500,6.65470751953125,-0.0040313866920769215,0.00031294580549001694,0.0006337183294817805
1733859550612658200,6.664658203125,-0.007054607383906841,-0.00421229749917984,-0.003464886685833335
1733859550622608400,6.6746083984375,-0.01273436937481165,-0.008906000293791294,-0.0005865404382348061
1733859550632559400,6.684559326171875,-0.011800931766629219,-0.004657725337892771,0.002109910361468792
1733859550642509600,6.694509521484375,-0.01076443586498499,0.004605191759765148,0.0030357299838215113
1733859550652460300,6.704460205078125,-0.010924757458269596,0.01884804293513298,0.0011994803790003061
1733859550662410200,6.71441015625,-0.010784585028886795,0.032879915088415146,0.0007973962347023189
1733859550672361500,6.724361572265625,-0.012572631239891052,0.04456239938735962,0.0050153108313679695
1733859550682311400,6.7343115234375,-0.014599211513996124,0.05008858069777489,0.006111362017691135
1733859550692262400,6.744262451171875,-0.0149683253839612,0.05569666251540184,0.010374284349381924
1733859550702212400,6.75421240234375,-0.015242671594023705,0.05527414008975029,0.010556976310908794
1733859550712163300,6.764163330078125,-0.012360865250229836,0.046703290194272995,0.009011277928948402
1733859550722113300,6.77411328125,-0.0153310252353549,0.03539270907640457,0.006736485753208399
1733859550732064300,6.784064208984375,-0.009836125187575817,0.01739852875471115,0.0017587714828550816
1733859550742014500,6.794014404296875,-0.006919520441442728,0.005493989679962397,0.0009698910871520638
1733859550751965200,6.803965087890625,-0.004347439389675856,0.001097643282264471,0.0019957406911998987
1733859550761915400,6.813915283203125,-0.003104275790974498,0.003367189085111022,0.0008250151295214891
1733859550771866400,6.823866455078125,-0.0005449333693832159,0.005230840761214495,-0.004352543503046036
1733859550781816300,6.83381640625,0.002666888991370797,0.0035808077082037926,-0.0040952293202281
1733859550791767300,6.843767333984375,0.0035827497486025095,-0.0008187342900782824,-0.0012949154479429126
1733859550801717200,6.85371728515625,0.0026210772339254618,0.0006744093261659145,0.0003499592421576381
1733859550811668500,6.86366845703125,0.002336119068786502,0.0020163762383162975,0.0039100730791687965
1733859550821618400,6.873618408203125,0.0032554420176893473,0.003028909908607602,0.0025356155820190907
1733859550831569400,6.8835693359375,0.002016805810853839,0.0027873613871634007,-0.0017613949021324515
1733859550841519400,6.893519287109375,0.00354499532841146,-0.00540563091635704,-0.002331871073693037
1733859550851470300,6.90347021484375,0.0033444592263549566,-0.016096359118819237,-0.0014980355044826865
1733859550861420300,6.913420166015625,0.006554942578077316,-0.023045998066663742,0.0010753803653642535
1733859550871371300,6.923371337890625,0.006279039196670055,-0.02423137240111828,-0.0020003044046461582
1733859550881321500,6.933321533203125,0.004847723990678787,-0.01964256539940834,-0.004326631315052509
1733859550891272200,6.943272216796875,0.00781049020588398,-0.013611038215458393,-0.006737324874848127
1733859550901222100,6.95322216796875,0.005356865003705025,-0.005632784217596054,-0.005669313482940197
1733859550911173400,6.96317333984375,0.0041097067296504974,-0.0006209812127053738,-0.0021494138054549694
1733859550921123300,6.973123291015625,0.003126946510747075,0.0036834278143942356,0.0021587242372334003
1733859550931073500,6.983073486328125,-0.000574048375710845,0.006187864579260349,0.0032152002677321434
1733859550941024300,6.993024169921875,-0.005400963593274355,0.008278310298919678,0.00019898556638509035
1733859550950974500,7.002974365234375,-0.007620441727340221,0.008959280326962471,-0.00006520003080368042
1733859550960925400,7.012925537109375,-0.010148135013878345,0.008196702226996422,0.000504288705997169
1733859550970875100,7.022875244140625,-0.014996419660747051,0.008681663312017918,0.0009173449361696839
1733859550980826400,7.032826416015625,-0.010911853052675724,0.005780193023383617,0.0019526531687006354
1733859550990776300,7.0427763671875,-0.009059891104698181,0.006284861825406551,0.0006418452830985188
1733859551000727300,7.052727294921875,-0.0035232575610280037,0.005868739448487759,-0.0013342478778213263
1733859551010677200,7.06267724609375,-0.0011551748029887676,0.0061385175213217735,-0.006862171459943056
1733859551020628500,7.07262841796875,0.0035792377311736345,0.0030675549060106277,-0.004583173431456089
1733859551030578400,7.082578369140625,0.002913980046287179,-0.002070481888949871,-0.002518158406019211
1733859551040529200,7.092529052734375,0.002083854516968131,-0.004350307863205671,-0.00012709328439086676
1733859551050479400,7.102479248046875,-0.00013722199946641922,-0.004229933023452759,-0.0022376487031579018
1733859551060430300,7.112430419921875,0.0005643914919346571,0.0015578260645270348,-0.0028219977393746376
1733859551070380500,7.122380615234375,-0.0011727884411811829,0.008339831605553627,-0.0015189130790531635
1733859551080331300,7.132331298828125,-0.0020101822447031736,0.015844758599996567,-0.001176264719106257
1733859551090281200,7.14228125,-0.0015680976212024689,0.018062107264995575,-0.0012297943467274308
1733859551100232400,7.152232421875,-0.0015874197706580162,0.012797416187822819,-0.0030749174766242504
1733859551110182400,7.162182373046875,-0.004028739407658577,0.004129625856876373,-0.004039780702441931
1733859551120133400,7.17213330078125,-0.0013424546923488379,-0.00420976709574461,-0.001618861802853644
1733859551130083300,7.182083251953125,-0.0014441872481256723,-0.00526118278503418,-0.001363464747555554
1733859551140034600,7.19203466796875,-0.0023741465993225574,-0.001402899855747819,-0.002884476911276579
1733859551149984300,7.201984375,-0.0032343475613743067,0.0020568128675222397,-0.00019042333588004112
1733859551159935200,7.211935302734375,-0.004440425429493189,0.004630181472748518,0.0004873243160545826
1733859551169885400,7.221885498046875,-0.002028134185820818,0.010111499577760696,0.0034354436211287975
1733859551179836200,7.231836181640625,0.0008576668333262205,0.019144143909215927,0.003291632980108261
1733859551189786400,7.241786376953125,0.0003964074421674013,0.024537842720746994,0.00457953754812479
1733859551199737300,7.2517373046875,-0.0006691846065223217,0.021991729736328125,0.0031046010553836823
1733859551209687300,7.261687255859375,0.0012347090523689985,0.015405731275677681,0.001347979879938066
1733859551219638300,7.27163818359375,0.0003946663346141577,0.012738987803459167,0.0039473362267017365
1733859551229588200,7.281588134765625,-0.001895385910756886,0.01163670513778925,0.002130794106051326
1733859551239539500,7.29153955078125,-0.004242642782628536,0.012544889003038406,-0.0007742680609226227
1733859551249489400,7.301489501953125,-0.00576996523886919,0.012689230963587761,-0.001089586177840829
1733859551259440400,7.3114404296875,-0.006090921349823475,0.016394782811403275,-0.0012825584271922708
1733859551269390300,7.321390380859375,-0.003012839937582612,0.013394732028245926,0.0009260009974241257
1733859551279341600,7.331341552734375,0.000083219725638628,0.009955971501767635,0.0022868223022669554
1733859551289291300,7.341291259765625,0.0022473044227808714,0.007621976546943188,0.0016359456349164248
1733859551299242200,7.3512421875,0.0010412896517664194,0.004340688232332468,-0.00016871187835931778
1733859551309192400,7.3611923828125,0.0015494206454604864,0.0008498169481754303,0.000693087000399828
1733859551319143200,7.37114306640625,0.00041174120269715786,-0.00809459574520588,-0.001972503960132599
1733859551329093400,7.38109326171875,-0.0006753611378371716,-0.009857608005404472,0.00019344501197338104
1733859551339044400,7.39104443359375,-0.0010293400846421719,-0.006927303038537502,-0.0026365891098976135
1733859551348994300,7.400994384765625,-0.003004606580361724,-0.005648186430335045,-0.002760692499577999
1733859551358944000,7.410944091796875,-0.0011695539578795433,-0.0031923064962029457,-0.0030446399468928576
1733859551368894700,7.420894775390625,-0.002567979972809553,0.0014778125332668424,-0.0032041629310697317
1733859551378844700,7.4308447265625,-0.00040273903869092464,0.008681870996952057,-0.0006930151721462607
1733859551388796000,7.4407958984375,0.0007783726323395967,0.007835784927010536,-0.00030472606886178255
1733859551398745900,7.450745849609375,0.0007492725271731615,0.0058671412989497185,0.004880726337432861
1733859551408696800,7.46069677734375,0.0019213298801332712,0.006453302688896656,0.006008574739098549
1733859551418646800,7.470646728515625,0.0013021330814808607,0.006711279042065144,0.0023319125175476074
1733859551428598000,7.480597900390625,-0.000718939583748579,0.002313334960490465,-0.00041913287714123726
1733859551438548000,7.4905478515625,-0.0017034269403666258,-0.0024916878901422024,-0.0044107879512012005
1733859551448499000,7.5004990234375,-0.0001697125844657421,-0.008696053177118301,-0.0015420307172462344
1733859551458449000,7.510448974609375,-0.0009978546295315027,-0.008020383305847645,0.00022226793225854635
1733859551468399900,7.52039990234375,0.00005968683399260044,-0.0038080618251115084,-0.00019425037316977978
1733859551478349800,7.530349853515625,-0.0005624431651085615,0.0006986295338720083,-0.003478787839412689
1733859551488300800,7.54030078125,0.0009592871647328138,0.0016927876276895404,0.00007253745570778847
1733859551498251000,7.5502509765625,-0.0003086610231548548,0.0032023724634200335,0.002987980144098401
1733859551508201700,7.56020166015625,0.0003419492859393358,0.0022020891774445772,0.004080675076693296
1733859551518151700,7.570151611328125,-0.0005873190239071846,0.0041633001528680325,0.002957299817353487
1733859551528103000,7.58010302734375,0.00008859136141836643,0.0021872345823794603,0.0013695231173187494
1733859551538052900,7.590052978515625,-0.00013880128972232342,0.003225746564567089,0.0015660657081753016
1733859551548003800,7.60000390625,-0.0021534827537834644,0.004817251581698656,-0.000030499417334794998
1733859551557953800,7.609953857421875,-0.0006359408143907785,0.002433236688375473,-0.00010546762496232986
1733859551567905000,7.619905029296875,0.00020268862135708332,-0.0015375365037471056,-0.0020900554955005646
1733859551577855000,7.62985498046875,-0.00020347139798104763,-0.002463060664013028,0.0013451825361698866
1733859551587805700,7.6398056640625,0.0010245123412460089,0.002261120593175292,0.0022495919838547707
1733859551597756000,7.649755859375,0.0017123434226959944,0.009837683290243149,0.0005051410989835858
1733859551607707000,7.659706787109375,-0.000342019135132432,0.010854210704565048,0.0006646644324064255
1733859551617656800,7.66965673828125,-0.001328941434621811,0.007927367463707924,-0.00031708297319710255
1733859551627607800,7.67960791015625,0.00030331010930240154,0.001634051906876266,0.0026904249098151922
1733859551637557800,7.689557861328125,-0.0005585791077464819,-0.005297298543155193,0.002478916198015213
1733859551647508700,7.6995087890625,-0.0004294158425182104,-0.00922306440770626,-0.00019196805078536272
1733859551657458700,7.709458740234375,0.000721954507753253,-0.011196349747478962,-0.0008219111477956176
1733859551667410000,7.719409912109375,-0.00031188433058559895,-0.009942268021404743,-0.0008083292050287127
1733859551677359900,7.72935986328125,-0.0015064675826579332,-0.003445385955274105,-0.0009811919881030917
1733859551687310800,7.739310791015625,0.00162700773216784,0.00186442444100976,-0.001641922048293054
1733859551697260800,7.7492607421875,0.0044332342222332954,0.006370911840349436,-0.0012456977274268866
1733859551707211800,7.759211669921875,0.000756208086386323,0.009037801995873451,0.00042117468547075987
1733859551717162000,7.769161865234375,0.0018661834765225649,0.009665435180068016,0.00179192703217268
1733859551727112000,7.77911181640625,-0.0014403974637389183,0.006756197661161423,0.0014334656298160553
1733859551737063000,7.78906298828125,-0.0021653713192790747,0.00296558765694499,-0.0015472228405997157
1733859551747014000,7.799013916015625,-0.004410682246088982,-0.005691816098988056,-0.00105427170637995
1733859551756963800,7.8089638671875,-0.005000618286430836,-0.005770083516836166,-0.0009777330560609698
1733859551766913800,7.818913818359375,-0.00345385423861444,-0.0021140959579497576,-0.0004949019057676196
1733859551776864800,7.82886474609375,-0.0019882097840309143,0.002202192321419716,-0.002274187048897147
1733859551786815000,7.83881494140625,0.0017101222183555365,0.0032008776906877756,-0.0021620681509375572
1733859551796765700,7.848765625,0.002421938581392169,0.004733728244900703,0.0004874621517956257
1733859551806715600,7.858715576171875,0.0071985842660069466,-0.00011322484351694584,-0.000395375769585371
1733859551816667000,7.8686669921875,0.005467621609568596,-0.004938837140798569,0.00033693574368953705
1733859551826616800,7.878616943359375,0.005144846625626087,-0.008531707338988781,-0.0027725710533559322
1733859551836567800,7.88856787109375,0.0016496910247951746,-0.012697409838438034,-0.00461555877700448
1733859551846517800,7.898517822265625,0.00012929248623549938,-0.013965073972940445,-0.0027795755304396152
1733859551856469000,7.908468994140625,-0.0003314344212412834,-0.012350399047136307,-0.003554288763552904
1733859551866419000,7.9184189453125,-0.0011397036723792553,-0.007146316580474377,-0.0007153591141104698
1733859551876370000,7.928369873046875,-0.0005355856847018003,0.002231665188446641,-0.0008587699849158525
1733859551886319900,7.93831982421875,-0.00018218415789306164,0.006933209486305714,-0.0011352060828357935
1733859551896270800,7.948270751953125,0.00047563971020281315,0.010263211093842983,-0.0013883925275877118
1733859551906220800,7.958220703125,0.001318264054134488,0.008297798223793507,0.0008433365146629512
1733859551916171800,7.968171875,0.0012079633306711912,0.005769156850874424,0.00028098293114453554
1733859551926122000,7.9781220703125,0.00036427401937544346,0.005420282948762178,0.0016160255763679743
1733859551936072700,7.98807275390625,0.00048429169692099094,0.0045223236083984375,0.0005083632422611117
1733859551946022700,7.998022705078125,-0.00218366296030581,0.00823263917118311,0.001982423011213541
1733859551955974000,8.007973876953125,-0.0029696915298700333,0.011842732317745686,0.0005919226678088307
1733859551965923800,8.017923828125,-0.0023726108483970165,0.00988610740751028,0.0008523798314854503
1733859551975874800,8.027874755859376,-0.0012644468806684017,0.00650734081864357,0.0018172715790569782
1733859551985824800,8.03782470703125,0.0008463745471090078,0.0022830343805253506,0.0033850744366645813
1733859551995776000,8.04777587890625,0.00020425044931471348,0.002162775956094265,0.0021376076620072126
1733859552005726000,8.057725830078125,-0.00034675770439207554,0.0010272039799019694,-0.001362851238809526
1733859552015676700,8.0676767578125,-0.0021134852431714535,-0.0037000083830207586,-0.0011320593766868114
1733859552025627000,8.077626953125,-0.0035720986779779196,-0.010049249976873398,-0.0014002395328134298
1733859552035577900,8.087577880859374,-0.006108052097260952,-0.009861971251666546,-0.001328131533227861
1733859552045527800,8.09752783203125,-0.004315478261560202,-0.007403341121971607,-0.0032924790866672993
1733859552055478800,8.107478759765625,-0.0027599958702921867,-0.004444351885467768,-0.001775934360921383
1733859552065428700,8.1174287109375,0.00046509248204529285,-0.004901616368442774,-0.001961024012416601
1733859552075380000,8.1273798828125,0.003807028057053685,-0.005888447631150484,0.0007244092412292957
1733859552085329700,8.13732958984375,0.004507971927523613,-0.0056367781944572926,0.0015910017536953092
1733859552095281000,8.147281005859375,0.00715327262878418,-0.005573823116719723,0.0017644336912781
1733859552105230800,8.15723095703125,0.009600184857845306,-0.0023399468045681715,0.002754596993327141
1733859552115181800,8.167181884765625,0.008081022650003433,0.0004579378291964531,0.0033466615714132786
1733859552125131800,8.1771318359375,0.005696161650121212,-0.0008012047037482262,0.0032507877331227064
1733859552135083000,8.1870830078125,0.004686188884079456,-0.0008811117149889469,0.0014019242953509092
1733859552145033000,8.197032958984375,0.0035974883940070868,-0.0014520934782922268,0.001731623662635684
1733859552154983000,8.20698291015625,0.0028703997377306223,0.0006739376112818718,0.0008408740977756679
1733859552164934000,8.216933837890625,0.0010440039914101362,0.005211697891354561,-0.0011977757094427943
1733859552174883800,8.2268837890625,0.0006944381166249514,0.007212634198367596,-0.00011951872147619724
1733859552184835000,8.2368349609375,0.002352788345888257,0.005146021023392677,0.0006099211750552058
1733859552194784800,8.24678466796875,0.0019102164078503847,0.0009278110228478909,0.000992489280179143
1733859552204735700,8.25673583984375,0.0020100849214941263,0.00199041236191988,0.0034191617742180824
1733859552214686000,8.26668603515625,0.0010935959871858358,0.004180310294032097,0.001968429423868656
1733859552224636700,8.27663671875,-0.0005509057082235813,0.0001179245300590992,-0.00029605638701468706
1733859552234587000,8.2865869140625,-0.0027180914767086506,-0.0028994176536798477,0.0007551302551291883
1733859552244537900,8.296537841796875,-0.0040411497466266155,-0.006622250657528639,0.0011205158662050962
1733859552254487800,8.30648779296875,-0.0017435774207115173,-0.008597918786108494,-0.001604113494977355
1733859552264438800,8.316438720703125,0.0002735008019953966,-0.008111093193292618,-0.0016541809309273958
1733859552274388700,8.326388671875,0.002939726458862424,-0.0036029808688908815,0.0004778575384989381
1733859552284340000,8.336340087890624,0.004291013814508915,-0.0019430324900895357,-0.0005629057995975018
1733859552294290000,8.3462900390625,0.0050625549629330635,-0.004592093639075756,0.00133516697678715
1733859552304241000,8.356240966796875,0.0063738953322172165,-0.006776951253414154,0.0017301137559115887
1733859552314190800,8.36619091796875,0.004395417869091034,-0.009196596220135689,0.00004144664853811264
1733859552324141800,8.376141845703126,0.005353623069822788,-0.01052338257431984,0.0012161671184003353
1733859552334091800,8.386091796875,0.004836368374526501,-0.010350232012569904,0.0011983085423707962
1733859552344042800,8.396042724609375,0.0043295687064528465,-0.008263112977147102,0.0024840827099978924
1733859552353993000,8.405992919921875,0.003669234225526452,-0.004064017906785011,0.0019986021798104048
1733859552363944000,8.41594384765625,0.00388308591209352,-0.003133243415504694,0.0008782103541307151
1733859552373893600,8.4258935546875,0.002671500900760293,-0.004628801252692938,0.00007641781121492386
1733859552383844900,8.435844970703124,0.0032968109007924795,-0.008574807085096836,0.0018463546875864267
1733859552393794800,8.445794921875,0.006680942140519619,-0.011989720165729523,0.0005413920152932405
1733859552403745800,8.455745849609375,0.005153353326022625,-0.010918064042925835,-0.0022914125584065914
1733859552413695700,8.46569580078125,0.0050923824310302734,-0.013337114825844765,-0.0013932626461610198
1733859552423647000,8.47564697265625,0.003467055270448327,-0.013834593817591667,-0.0018105799099430442
1733859552433597000,8.485596923828124,0.0035164321307092905,-0.01606595329940319,-0.001043420867063105
1733859552443548000,8.4955478515625,0.0010700521524995565,-0.017646806314587593,-0.0012610011035576463
1733859552453497900,8.505497802734375,0.0023039684165269136,-0.01612503081560135,0.00044720747973769903
1733859552463448800,8.51544873046875,0.0027947889175266027,-0.013707413338124752,0.0017548195319250226
1733859552473399000,8.52539892578125,0.005128182470798492,-0.012070589698851109,-0.00019306852482259274
1733859552483349800,8.535349853515624,0.007266434840857983,-0.011150999926030636,0.002905785571783781
1733859552493300000,8.545300048828125,0.00553188007324934,-0.009135670028626919,0.005810368340462446
1733859552503250000,8.55525,0.005104709416627884,-0.006120438687503338,0.004261474125087261
1733859552513200600,8.56520068359375,0.005326785147190094,-0.003105812706053257,-0.00008787040133029222
1733859552523150800,8.57515087890625,0.0035177001263946295,-0.004484264645725489,-0.0034509100951254368
1733859552533101800,8.585101806640624,0.0016931004356592894,-0.007481075823307037,-0.00042565050534904003
1733859552543052000,8.595052001953125,-0.0003767081070691347,-0.007437399588525295,0.0011797030456364155
1733859552553002800,8.605002685546875,-0.002662225626409054,-0.009851200506091118,-0.00037500145845115185
1733859552562952700,8.61495263671875,-0.0018771255854517221,-0.019238844513893127,-0.0017033861950039864
1733859552572904000,8.624904052734376,-0.0016255942173302174,-0.023471849039196968,-0.0004224352305755019
1733859552582854000,8.63485400390625,-0.0025654237251728773,-0.029823755845427513,-0.0023702713660895824
1733859552592804900,8.644804931640625,0.00011928146705031395,-0.028469078242778778,-0.0014235333073884249
1733859552602754800,8.6547548828125,0.0025416926946491003,-0.02372679114341736,0.0007820966420695186
1733859552612706000,8.6647060546875,0.0076489560306072235,-0.025214415043592453,-0.00023099477402865887
1733859552622655700,8.67465576171875,0.009623689576983452,-0.031312521547079086,-0.002464587800204754
1733859552632606700,8.684606689453124,0.011496482416987419,-0.03949369490146637,-0.003511448623612523
1733859552642557000,8.694556884765625,0.01003121118992567,-0.045435208827257156,-0.005996976979076862
1733859552652508000,8.7045078125,0.011984558776021004,-0.045344967395067215,-0.008787315338850021
1733859552662457900,8.714457763671875,0.00756797194480896,-0.03982263430953026,-0.007408862933516502
1733859552672408800,8.724408935546874,0.006164547987282276,-0.031068960204720497,-0.00927486177533865
1733859552682358800,8.73435888671875,0.006265215575695038,-0.015549920499324799,-0.00365852122195065
1733859552692309800,8.744309814453125,0.006962430663406849,0.0020082995761185884,-0.0017157450783997774
1733859552702259700,8.754259765625,0.009907354600727558,0.0152159808203578,0.004185819998383522
1733859552712211000,8.7642109375,0.010130268521606922,0.021386079490184784,0.006251797080039978
1733859552722161000,8.774160888671876,0.013592910021543503,0.01902705244719982,0.007849426940083504
1733859552732112000,8.78411181640625,0.013540576212108135,0.00997505709528923,0.006736010313034058
1733859552742061800,8.794061767578125,0.011091799475252628,-0.0008453659247606993,0.0056395865976810455
1733859552752012800,8.8040126953125,0.009954812936484814,-0.009391835890710354,0.005078569054603577
1733859552761963000,8.813962890625,0.009113520383834839,-0.017436446622014046,0.0009498704457655549
1733859552771913700,8.823913818359374,0.007945540361106396,-0.025801315903663635,-0.0003133770078420639
1733859552781864000,8.833864013671874,0.005465605296194553,-0.035138089209795,-0.0054921600967645645
1733859552791815000,8.84381494140625,0.006548576056957245,-0.0411282517015934,-0.005683322437107563
1733859552801764900,8.853764892578125,0.007535010576248169,-0.041230786591768265,-0.0039775678887963295
1733859552811715800,8.8637158203125,0.0063680438324809074,-0.03915397450327873,-0.0031117969192564487
1733859552821665800,8.873665771484376,0.0055682966485619545,-0.03759336471557617,-0.005729418247938156
1733859552831616800,8.88361669921875,0.0036986537743359804,-0.041192200034856796,-0.004917921032756567
1733859552841566700,8.893566650390625,-0.00041087018325924873,-0.052859243005514145,-0.001982052344828844
1733859552851517000,8.903516845703125,-0.0020607318729162216,-0.06284776329994202,0.0014363998780027032
1733859552861468000,8.913468017578126,-0.0025938968174159527,-0.07028330862522125,0.0003791248891502619
1733859552871419000,8.9234189453125,0.002950538182631135,-0.07717503607273102,-0.0031959025654941797
1733859552881368800,8.933368896484374,0.00848192349076271,-0.08868148922920227,-0.005531760863959789
1733859552891318800,8.94331884765625,0.012999270111322403,-0.10714844614267349,-0.010134447365999222
1733859552901270000,8.95327001953125,0.014131911098957062,-0.12571732699871063,-0.013198946602642536
1733859552911219700,8.9632197265625,0.01622612401843071,-0.13467037677764893,-0.019956134259700775
1733859552921171000,8.9731708984375,0.01499281357973814,-0.13348154723644257,-0.020935645326972008
1733859552931121000,8.983120849609374,0.012062657624483109,-0.12105069309473038,-0.02087942138314247
1733859552941072000,8.99307177734375,0.007742212153971195,-0.10038482397794724,-0.01702689379453659
1733859552951021800,9.003021728515625,0.007945040240883827,-0.06916975229978561,-0.01402548048645258
1733859552960972800,9.012972900390626,0.0029263130854815245,-0.026959987357258797,-0.007301530800759792
1733859552970923000,9.022923095703124,-0.00012920075096189976,0.016311101615428925,0.000936982047278434
1733859552980873700,9.032873779296875,0.0029576693195849657,0.05230212211608887,0.008435644209384918
1733859552990823700,9.04282373046875,0.004582297056913376,0.08160623908042908,0.014130888506770134
1733859553000775000,9.05277490234375,0.005911480635404587,0.09565015137195587,0.01723054237663746
1733859553010724900,9.062724853515626,0.008865198120474815,0.0955844596028328,0.021656610071659088
1733859553020675800,9.07267578125,0.007134942337870598,0.08733131736516953,0.019957780838012695
1733859553030625800,9.082625732421874,0.009504646062850952,0.07292440533638,0.014729542657732964
1733859553040577000,9.092576904296875,0.007308071479201317,0.057762496173381805,0.011741742491722107
1733859553050527000,9.10252685546875,0.005603397265076637,0.046417057514190674,0.010259078815579414
1733859553060477700,9.112477783203126,0.004729081876575947,0.04342073202133179,0.0059122671373188496
1733859553070428000,9.122427978515624,0.0005763757508248091,0.04065462946891785,0.002815545303747058
1733859553080379000,9.13237890625,0.0012360408436506987,0.033727213740348816,0.0028802601154893637
1733859553090328800,9.142328857421875,-0.0006252261810004711,0.03258354961872101,0.003359281225129962
1733859553100279800,9.15227978515625,-0.0023280512541532516,0.03348875790834427,0.00323384627699852
1733859553110229800,9.162229736328126,-0.0018802608828991652,0.03519364073872566,0.0030041486024856567
1733859553120180700,9.1721806640625,-0.0022437823936343193,0.04410324618220329,0.006253205239772797
1733859553130130700,9.182130615234374,-0.003407446900382638,0.05223938077688217,0.005579373799264431
1733859553140082000,9.19208203125,-0.006724680308252573,0.057067424058914185,0.006095494143664837
1733859553150032000,9.202031982421875,-0.007416903972625732,0.058623023331165314,0.005839856341481209
1733859553159982800,9.21198291015625,-0.008893094025552273,0.055321235209703445,0.0067168353125452995
1733859553169932800,9.221932861328124,-0.009579413570463657,0.05034717917442322,0.00904940813779831
1733859553179884000,9.231884033203125,-0.008674471639096737,0.042692989110946655,0.006322065368294716
1733859553189834000,9.241833984375,-0.00277718179859221,0.030018923804163933,0.0016323333838954568
1733859553199784700,9.25178466796875,-0.0009153659921139479,0.017328428104519844,-0.0002627719659358263
1733859553209735000,9.26173486328125,0.0017699983436614275,0.0012911540688946843,-0.003655564971268177
1733859553219684900,9.271684814453126,0.0014490874018520117,-0.008637642487883568,-0.004716301802545786
1733859553229635800,9.2816357421875,0.002309333300217986,-0.01462472416460514,-0.007957475259900093
1733859553239585800,9.291585693359375,0.00367260561324656,-0.015660161152482033,-0.0068144467659294605
1733859553249536800,9.301536865234375,0.002683286787942052,-0.01175013743340969,-0.004762055352330208
1733859553259487000,9.311487060546876,-0.0003521842882037163,-0.003558520693331957,-0.002002221532166004
1733859553269437700,9.321437744140624,-0.0025102049112319946,0.0016952302539721131,-0.0000882851891219616
1733859553279388000,9.331387939453125,-0.004066023975610733,0.004173834342509508,-0.0009357030503451824
1733859553289339000,9.3413388671875,-0.005993770435452461,0.006101621314883232,-0.0013544822577387094
1733859553299288800,9.351288818359375,-0.004678701516240835,0.012136077508330345,-0.0016572836320847273
1733859553309239800,9.36123974609375,-0.0018512235255911946,0.014853301458060741,-0.0035409373231232166
1733859553319189800,9.371189697265624,-0.005892627872526646,0.013572982512414455,-0.0006525453645735979
1733859553329141000,9.38114111328125,-0.005859380587935448,0.010908331722021103,0.0006147072417661548
1733859553339091000,9.391091064453125,-0.008506296202540398,0.004338580183684826,-0.0005693342536687851
1733859553349042000,9.4010419921875,-0.00787288323044777,-0.004249121993780136,-0.0004411027766764164
1733859553358991600,9.41099169921875,-0.006519731134176254,-0.011684933677315712,0.00039566250052303076
1733859553368942800,9.42094287109375,-0.004255975596606731,-0.016216615214943886,-0.00017880729865282774
1733859553378892500,9.430892578125,-0.001065242337062955,-0.015728456899523735,-0.0030086825136095285
1733859553388843800,9.44084375,0.0012539455201476812,-0.0169528741389513,-0.004834040068089962
1733859553398793700,9.450793701171875,0.006254296749830246,-0.014823677018284798,-0.009438379667699337
1733859553408744700,9.46074462890625,0.006192496046423912,-0.013553245924413204,-0.009674252942204475
1733859553418694700,9.470694580078124,0.004272356629371643,-0.009721489623188972,-0.007961041294038296
1733859553428645600,9.480645751953125,0.0006334290374070406,-0.0028194787446409464,-0.008286562748253345
1733859553438595800,9.490595947265625,-0.001478191465139389,0.0046126046217978,-0.006503310054540634
1733859553448546600,9.500546630859375,-0.001025110948830843,0.011595722287893295,-0.0027321353554725647
1733859553458496800,9.510496826171876,-0.0032251484226435423,0.019053637981414795,-0.00031904526986181736
1733859553468447700,9.52044775390625,-0.0009483522735536098,0.023102842271327972,0.0030216993764042854
1733859553478397700,9.530397705078125,0.0033489244524389505,0.027339665219187737,0.0023183587472885847
1733859553488348700,9.5403486328125,0.002365914871916175,0.025528034195303917,0.005065414123237133
1733859553498298600,9.550298583984375,0.0056855445727705956,0.020690668374300003,0.005353834480047226
1733859553508249900,9.560249755859376,0.010315707884728909,0.01221746951341629,0.006798167712986469
1733859553518199800,9.57019970703125,0.011541294865310192,0.008257614448666573,0.006002948619425297
1733859553528150800,9.58015087890625,0.011167608201503754,0.00916045531630516,0.005550849251449108
1733859553538100700,9.590100830078125,0.012037395499646664,0.0074291350319981575,0.0007968407007865608
1733859553548050700,9.60005078125,0.009481036104261875,0.003685882780700922,-0.003968189004808664
1733859553558001700,9.610001708984376,0.00508575513958931,-0.005374191328883171,-0.003762326668947935
1733859553567951600,9.61995166015625,-0.002642236417159438,-0.012797558680176735,-0.004455525428056717
1733859553577902800,9.62990283203125,-0.0053389533422887325,-0.015202660113573074,-0.00690803024917841
1733859553587852800,9.639852783203125,-0.007922440767288208,-0.016102038323879242,-0.009627756662666798
1733859553597803800,9.6498037109375,-0.00929103884845972,-0.017377160489559174,-0.007374189794063568
1733859553607753700,9.659753662109376,-0.013275682926177979,-0.013245517387986183,-0.006686641834676266
1733859553617704700,9.66970458984375,-0.013609644025564194,-0.00958207342773676,-0.005548140965402126
1733859553627655000,9.679655029296875,-0.01704993098974228,-0.002949101384729147,-0.003941105213016272
1733859553637605600,9.689605712890625,-0.01621928997337818,0.0032672490924596786,-0.004124330822378397
1733859553647555800,9.699555908203125,-0.017990894615650177,0.009702556766569614,-0.005636448506265879
1733859553657506800,9.7095068359375,-0.01508778240531683,0.011577954515814781,-0.004175971262156963
1733859553667456500,9.71945654296875,-0.010910887271165848,0.006672589108347893,-0.0032461571972817183
1733859553677407700,9.72940771484375,-0.009942827746272087,-0.0005440448876470327,-0.0031971551943570375
1733859553687357700,9.739357666015625,-0.008822214789688587,-0.009145226329565048,-0.00528363510966301
1733859553697308700,9.74930859375,-0.010156990960240364,-0.013644903898239136,-0.006312148179858923
1733859553707258600,9.759258544921876,-0.006845403462648392,-0.015325935557484627,-0.007977603003382683
1733859553717209900,9.7692099609375,-0.00731438584625721,-0.013329364359378815,-0.006809007842093706
1733859553727159800,9.779159912109375,-0.007907900027930737,-0.0015453039668500423,-0.00525401858612895
1733859553737110500,9.789110595703125,-0.008380611427128315,0.0072625684551894665,-0.005414607468992472
1733859553747060700,9.799060791015625,-0.010487688705325127,0.018883701413869858,-0.0026159733533859253
1733859553757011700,9.80901171875,-0.01014493964612484,0.032579537481069565,-0.00015175051521509886
1733859553766962000,9.8189619140625,-0.011147542856633663,0.04216137155890465,0.003877483308315277
1733859553776912600,9.82891259765625,-0.009484132751822472,0.050557252019643784,0.0054269107058644295
1733859553786862600,9.838862548828125,-0.0064259786158800125,0.04871112108230591,0.007244945503771305
1733859553796813800,9.848813720703125,-0.0029223239980638027,0.04443062096834183,0.01085406169295311
1733859553806763800,9.858763671875,-0.0017857186030596495,0.03264046832919121,0.00886443443596363
1733859553816714800,9.86871484375,0.0002545288298279047,0.019919345155358315,0.007351492531597614
1733859553826664700,9.878664794921875,0.0014233451802283525,0.0059300558641552925,0.006563569884747267
1733859553836615700,9.88861572265625,-0.0037439861334860325,-0.004490626975893974,0.0035038641653954983
1733859553846565600,9.898565673828125,-0.0015662780497223139,-0.012856269255280495,0.00006732274778187275
1733859553856515600,9.908515625,-0.0004405598156154156,-0.01980339176952839,-0.0027005006559193134
1733859553866466800,9.918466796875,-0.0014430414885282516,-0.019885892048478127,-0.0017168251797556877
1733859553876417500,9.92841748046875,0.00041557871736586094,-0.013604295440018177,-0.00269340630620718
1733859553886367700,9.93836767578125,-0.0016055521555244923,-0.007569625973701477,-0.00014109606854617596
1733859553896317700,9.948317626953125,-0.003687078831717372,-0.001743961125612259,0.0015356300864368677
1733859553906269000,9.95826904296875,-0.0019369634101167321,-0.0016171203460544348,0.006102817133069038
1733859553916219000,9.968218994140624,-0.003085052128881216,-0.004120225086808205,0.00770524051040411
1733859553926169600,9.978169677734375,-0.0007430226542055607,-0.002788674784824252,0.005382858216762543
1733859553936119800,9.988119873046875,-0.0005797708872705698,-0.0035002713557332754,0.004151945002377033
1733859553946070800,9.99807080078125,0.00025965762324631214,-0.008562141098082066,-0.00044999714009463787
1733859553956020700,10.008020751953126,0.0011760510969907045,-0.018324226140975952,-0.003092385595664382
1733859553965971700,10.0179716796875,0.005561615340411663,-0.026920465752482414,-0.0038413170259445906
1733859553975921700,10.027921630859375,0.011641079559922218,-0.032338663935661316,-0.006535370834171772
1733859553985872600,10.03787255859375,0.009267602115869522,-0.03504306077957153,-0.00751245953142643
1733859553995822600,10.047822509765625,0.011631689965724945,-0.03801701217889786,-0.010894674807786942
1733859554005773800,10.05777392578125,0.006846104748547077,-0.040539100766181946,-0.012617870233952999
1733859554015723800,10.067723876953124,0.0052117230370640755,-0.03755156695842743,-0.012087102048099041
1733859554025674800,10.0776748046875,0.004014851525425911,-0.030109068378806114,-0.011013209819793701
1733859554035624700,10.087624755859375,0.0006720523815602064,-0.026265062391757965,-0.009622507728636265
1733859554045575700,10.09757568359375,-0.0005621255841106176,-0.02004227414727211,-0.010002515278756618
1733859554055526000,10.10752587890625,-0.003293463494628668,-0.018825743347406387,-0.008523928001523018
1733859554065476600,10.1174765625,-0.004372055642306805,-0.011824991554021835,-0.0069009107537567616
1733859554075426800,10.1274267578125,-0.005107620730996132,-0.005958047229796648,-0.00623219134286046
1733859554085377800,10.137377685546875,-0.008195992559194565,-0.00039868010208010674,0.0008910367614589632
1733859554095327500,10.147327392578125,-0.007624478079378605,0.007701590657234192,0.0044221216812729836
1733859554105278700,10.15727880859375,-0.009379574097692966,0.01825379952788353,0.002308647148311138
1733859554115228700,10.167228759765624,-0.0059265196323394775,0.027728527784347534,0.0023134408984333277
1733859554125179600,10.1771796875,-0.00267482316121459,0.036356121301651,0.003688350087031722
1733859554135129600,10.187129638671875,-0.0022942577488720417,0.043408170342445374,0.0058439127169549465
1733859554145080800,10.197080810546876,-0.002057338133454323,0.04804524406790733,0.010436045937240124
1733859554155030800,10.20703076171875,0.0009765347931534052,0.050459928810596466,0.009565192274749279
1733859554164981500,10.2169814453125,0.0051576606929302216,0.050638213753700256,0.008356387726962566
1733859554174931700,10.226931640625,0.0057784439995884895,0.04339521378278732,0.007269817870110273
1733859554184881700,10.236881591796875,0.0077062975615262985,0.036873579025268555,0.004983596503734589
1733859554194833000,10.2468330078125,0.005922245793044567,0.02365710586309433,0.004759091883897781
1733859554204782800,10.256782958984376,0.004116828553378582,0.008479352109134197,0.0031323558650910854
1733859554214733800,10.26673388671875,0.005269444547593594,-0.001829745015129447,0.0008545543532818556
1733859554224683800,10.276683837890625,0.004350402392446995,-0.009389497339725494,0.0005287670064717531
1733859554234634800,10.286634765625,0.00456558633595705,-0.01862454041838646,-0.0013908394612371922
1733859554244584700,10.296584716796875,0.005659864284098148,-0.02059517800807953,-0.004524764604866505
1733859554254535700,10.30653564453125,0.004570631310343742,-0.02223275601863861,-0.0012948829680681229
1733859554264486000,10.31648583984375,0.007536410354077816,-0.02277831733226776,-0.003018856281414628
1733859554274436600,10.3264365234375,0.006970488466322422,-0.02313491515815258,-0.007772065699100494
1733859554284386600,10.336386474609375,0.00666649267077446,-0.024932105094194412,-0.008208077400922775
1733859554294337800,10.346337890625,0.00489282701164484,-0.02834867313504219,-0.00865788571536541
1733859554304287700,10.356287841796876,-0.0006859984714537859,-0.024370329454541206,-0.0048594120889902115
1733859554314238700,10.36623876953125,-0.002979512792080641,-0.015686294063925743,-0.004478580318391323
1733859554324188700,10.376188720703125,-0.003828400978818536,-0.004639676306396723,-0.004985863342881203
1733859554334140000,10.386139892578125,-0.004962641280144453,0.006379951722919941,-0.00253389123827219
1733859554344089900,10.39608984375,-0.00427995715290308,0.013267609290778637,0.0002521784044802189
1733859554354041300,10.406041259765624,-0.0034421265590935946,0.017686592414975166,0.0030639437027275562
1733859554363991300,10.4159912109375,-0.0019101366633549333,0.01627475954592228,0.004191478248685598
1733859554373942000,10.42594189453125,-0.0009263649117201567,0.010091697797179222,0.004983236081898212
1733859554383892200,10.435892333984375,-0.0040192799642682076,0.0037926456425338984,0.003010519314557314
1733859554393843200,10.44584326171875,-0.009407919831573963,-0.005669299513101578,0.0005665363278239965
1733859554403793400,10.45579345703125,-0.010007351636886597,-0.012408725917339325,-0.0008229396771639585
1733859554413744000,10.465744140625,-0.01213841326534748,-0.013579717837274075,-0.0003363802097737789
1733859554423694000,10.475694091796875,-0.013177298940718174,-0.010836496017873287,-0.00592990405857563
1733859554433645300,10.485645263671875,-0.011124268174171448,-0.0023940091487020254,-0.0027487578336149454
1733859554443595300,10.49559521484375,-0.0061474815011024475,0.003792424453422427,0.0003700196975842118
1733859554453546200,10.505546142578124,0.00024703447706997395,0.00952993892133236,-0.00006860296707600355
1733859554463496200,10.51549609375,0.004948443733155727,0.009118486195802689,-0.00044646277092397213
1733859554473447400,10.525447509765625,0.008315211161971092,0.003912538755685091,0.002199121518060565
1733859554483397000,10.535397216796875,0.013173973187804222,-0.006874037906527519,0.0041587380692362785
1733859554493347000,10.54534716796875,0.015282398089766502,-0.013658973388373852,0.0010708030313253403
1733859554503298300,10.55529833984375,0.010880770161747932,-0.01771952584385872,-0.00012186612002551556
1733859554513248300,10.565248291015624,0.007993104867637157,-0.01688489131629467,-0.0042476351372897625
1733859554523199200,10.57519921875,0.007196167483925819,-0.012652076780796051,-0.004610920324921608
1733859554533149200,10.585149169921875,0.003277591662481427,-0.0062506371177732944,-0.004814119543880224
1733859554543100200,10.59510009765625,0.0006858545821160078,0.00236421637237072,-0.0009450241923332214
1733859554553050400,10.60505029296875,0.0009223429951816797,0.011354515329003334,0.003144525922834873
1733859554563001000,10.6150009765625,-0.0005787424743175507,0.01831805892288685,0.006094193551689386
1733859554572951300,10.624951416015625,-0.0008264163043349981,0.014259401708841324,0.005351704079657793
1733859554582902300,10.63490234375,-0.0013557930942624807,0.012146851047873497,0.004541912116110325
1733859554592852200,10.644852294921876,-0.0009973316919058561,0.006460735108703375,0.0032548061572015285
1733859554602803200,10.65480322265625,0.00061270990408957,0.0029591063503175974,0.0007914123707450926
1733859554612753200,10.664753173828124,-0.0022421989124268293,0.0035367459058761597,0.0007818249869160354
1733859554622704400,10.674704345703125,-0.0008193869143724442,0.004415664356201887,0.004290936514735222
1733859554632654000,10.684654052734375,-0.0035693671088665724,0.008708946406841278,0.005286958999931812
1733859554642605300,10.694605224609376,-0.0023066012654453516,0.008017217740416527,0.0034826977644115686
1733859554652555300,10.70455517578125,0.001529948553070426,0.0035007630940526724,0.002234207931905985
1733859554662506000,10.714506103515625,0.005440778099000454,-0.003298538038507104,0.0014753926079720259
1733859554672456200,10.724456298828125,0.005160081200301647,-0.009451772086322308,0.0004274387611076236
1733859554682407200,10.7344072265625,0.004298548214137554,-0.011189751327037811,-0.0025523719377815723
1733859554692357400,10.744357421875,0.0008183291647583246,-0.013421745970845222,-0.004772383254021406
1733859554702308000,10.75430810546875,-0.0015539552550762892,-0.019075237214565277,-0.00913776084780693
1733859554712258300,10.76425830078125,-0.005116731859743595,-0.016706088557839394,-0.007994200102984905
1733859554722209300,10.774209228515625,-0.003639616770669818,-0.011862054467201233,-0.009094846434891224
1733859554732159200,10.7841591796875,-0.002403111197054386,-0.005213206633925438,-0.004562412854284048
1733859554742110200,10.794110107421876,-0.000621109502390027,-0.0015190138947218657,-0.0044189817272126675
1733859554752060200,10.80406005859375,0.002794927218928933,-0.00401892326772213,-0.003498060628771782
1733859554762011400,10.814011474609375,0.00404625479131937,-0.004702762700617313,-0.0021652039140462875
1733859554771961000,10.823961181640625,0.00837469007819891,-0.002317369682714343,-0.0005446705035865307
1733859554781911000,10.8339111328125,0.008002426475286484,0.00234366487711668,0.0006126336520537734
1733859554791862300,10.8438623046875,0.007339565083384514,0.008655888959765434,0.0037833931855857372
1733859554801812200,10.853812255859374,0.0023269972298294306,0.012465598061680794,0.004686042666435242
1733859554811763200,10.86376318359375,-0.0017084907740354538,0.010289795696735382,0.006387536413967609
1733859554821713200,10.873713134765625,-0.003914870787411928,0.00959104485809803,0.006095972843468189
1733859554831664400,10.883664306640625,-0.00421234592795372,0.006164355203509331,-0.001054614782333374
1733859554841614300,10.8936142578125,-0.0048300460912287235,-0.0006119846366345882,-0.0019138844218105078
1733859554851565000,10.90356494140625,-0.006875087507069111,-0.0036032472271472216,-0.0024864638689905405
1733859554861515300,10.913515380859375,-0.008784634992480278,-0.006794912740588188,0.0007736997213214636
1733859554871466200,10.92346630859375,-0.009510879404842854,-0.0066271331161260605,-0.002829024801030755
1733859554881416400,10.93341650390625,-0.007775365374982357,-0.006106972694396973,-0.001894229557365179
1733859554891367200,10.9433671875,-0.004898353014141321,-0.004954090341925621,-0.000985825201496482
1733859554901317000,10.953317138671874,-0.0026210155338048935,-0.003260364755988121,0.0015697185881435871
1733859554911268400,10.963268310546875,-0.00032616942189633846,0.0014270648825913668,0.003471215721219778
1733859554921218000,10.973218017578125,0.0037650398444384336,0.0012402439024299383,0.003824695013463497
1733859554931169300,10.983169189453125,0.006686793640255928,-0.0037630365695804358,0.001554616610519588
1733859554941119200,10.993119140625,0.009920678101480007,-0.011086108162999153,-0.0010117085184901953
1733859554951070200,11.0030703125,0.012531107291579247,-0.01914137229323387,-0.004865302704274654
1733859554961020200,11.013020263671875,0.010505507700145245,-0.03157167509198189,-0.007375066168606281
1733859554970971100,11.02297119140625,0.006855378858745098,-0.03969458118081093,-0.010207070969045162
1733859554980921300,11.03292138671875,0.0035435559693723917,-0.04175494983792305,-0.009194646961987019
1733859554990872000,11.0428720703125,-0.002003276254981756,-0.037949562072753906,-0.006842808797955513
1733859555000822300,11.052822265625,-0.0050165411084890366,-0.024201499298214912,-0.0023860540241003036
1733859555010773200,11.062773193359375,-0.004764339420944452,-0.006791882682591677,-0.0012874999083578587
1733859555020723200,11.07272314453125,-0.007320314645767212,0.010170147754251957,-0.002470693551003933
1733859555030674200,11.082674072265625,-0.006226820405572653,0.024136828258633614,0.00018794008065015078
1733859555040624000,11.0926240234375,-0.0020457725040614605,0.028485313057899475,0.0024911724030971527
1733859555050575400,11.102575439453124,0.0005540053825825453,0.030127152800559998,0.004571899771690369
1733859555060525000,11.112525146484375,0.0019108273554593325,0.024351686239242554,0.0031470344401896
1733859555070475300,11.122475341796875,0.0014010982122272253,0.01614302396774292,0.0025592749007046223
1733859555080426200,11.13242626953125,0.00019371812231838703,0.010990623384714127,0.0035921214148402214
1733859555090376200,11.142376220703126,-0.0014254837296903133,0.007367127109318972,0.0018868992337957025
1733859555100327200,11.1523271484375,-0.0011557561811059713,0.007000095676630735,-0.0008946836460381746
1733859555110277000,11.162277099609375,-0.001874809735454619,0.005209652706980705,9.373761713504791e-7
1733859555120228400,11.172228271484375,0.000007342547178268433,0.0017909709131345153,0.00032431608997285366
1733859555130178300,11.18217822265625,0.001804976025596261,-0.0003203831147402525,0.003276430070400238
1733859555140129300,11.19212939453125,0.002972536953166127,-0.00009101210162043571,0.0021424340084195137
1733859555150079200,11.202079345703124,0.005447146482765675,0.000922853359952569,0.0010460105258971453
1733859555160030200,11.2120302734375,0.003258467884734273,0.0013551446609199047,0.0030372007749974728
1733859555169980200,11.221980224609375,0.003833710914477706,0.00444174837321043,0.0011905647115781903
1733859555179931100,11.23193115234375,0.0006477029528468847,0.007344904355704784,0.0027967425994575024
1733859555189881300,11.24188134765625,0.0033193861600011587,0.009959063492715359,0.0023956703953444958
1733859555199832300,11.251832275390624,0.007841281592845917,0.009435677900910378,0.00039337517227977514
1733859555209782000,11.261781982421875,0.006255368702113628,0.004816691391170025,-0.0015858861152082682
1733859555219733200,11.271733154296875,0.0065948255360126495,-0.003748064860701561,-0.002275594510138035
1733859555229683200,11.28168310546875,0.007094168104231358,-0.0166846364736557,-0.0008151170331984758
1733859555239634200,11.29163427734375,0.006448669359087944,-0.02543492242693901,-0.0025756778195500374
1733859555249584000,11.301584228515624,0.006916586309671402,-0.03277992084622383,-0.002940264530479908
1733859555259535400,11.311535400390625,0.005130808800458908,-0.03047451563179493,-0.003183194436132908
1733859555269485300,11.3214853515625,0.0006937158759683371,-0.021162237972021103,-0.006033841986209154
1733859555279436000,11.33143603515625,-0.0001707558985799551,-0.0068444544449448586,-0.0049599651247262955
1733859555289386200,11.34138623046875,-0.0017934199422597885,0.005313941277563572,-0.002353263320401311
1733859555299337200,11.351337158203124,-0.0021117273718118668,0.012859422713518143,-0.0020321516785770655
1733859555309287400,11.361287353515625,-0.0014350181445479393,0.01398327574133873,-0.00159352901391685
1733859555319238100,11.371238037109375,-0.00041893869638442993,0.015017685480415821,-0.0010120139922946692
1733859555329188000,11.38118798828125,0.0007493898738175631,0.017554612830281258,-0.0003105374053120613
1733859555339138300,11.39113818359375,-0.0001691710203886032,0.014435984194278717,-0.0013102737721055746
1733859555349089000,11.401089111328124,-0.0029463153332471848,0.012403192929923534,0.0005550042260438204
1733859555359039200,11.411039306640625,-0.003890278050675988,0.011780370026826859,0.00015291688032448292
1733859555368990200,11.420990234375,-0.003451921744272113,0.010327348485589027,0.0014863616088405252
1733859555378940200,11.430940185546875,-0.0042441776022315025,0.0059113651514053345,0.00537748821079731
1733859555388891100,11.44089111328125,-0.005682550836354494,-0.005401742644608021,0.004988932982087135
1733859555398841000,11.450841064453124,-0.0066200243309140205,-0.01948896050453186,0.0007636845111846924
1733859555408792300,11.460792236328125,-0.00824481900781393,-0.03177598491311073,-0.0027820481918752193
1733859555418742300,11.4707421875,-0.008396984077990055,-0.03392304480075836,-0.008188072592020035
1733859555428693200,11.480693359375,-0.012103838846087456,-0.03089768998324871,-0.009362793527543545
1733859555438643200,11.490643310546876,-0.00928864348679781,-0.021811136975884438,-0.01716984063386917
1733859555448594400,11.500594482421874,-0.008874522522091866,-0.0170680470764637,-0.01782524585723877
1733859555458544000,11.510544189453125,-0.0012123545166105032,-0.009954562410712242,-0.008847100660204887
1733859555468495000,11.5204951171875,0.006458881311118603,0.0009114015847444534,0.0029480401426553726
1733859555478445300,11.5304453125,0.0070500560104846954,0.011658351868391037,0.00403977558016777
1733859555488396300,11.540396240234376,0.0114677082747221,0.017421431839466095,0.00665686372667551
1733859555498346200,11.55034619140625,0.010677038691937923,0.011590426787734032,0.00189388042781502
1733859555508297200,11.560297119140625,0.007910280488431454,-0.0031230058521032333,0.00032980600371956825
1733859555518247200,11.5702470703125,0.006888101808726788,-0.017174512147903442,-0.0038338531740009785
1733859555528198100,11.5801982421875,0.0030558130238205194,-0.024768782779574394,-0.005032008979469538
1733859555538148000,11.590148193359376,0.005629898980259895,-0.020967664197087288,-0.005028850398957729
1733859555548099300,11.600099365234374,0.0006391347851604223,-0.012554205022752285,-0.0052283210679888725
1733859555558049300,11.61004931640625,-0.002830664860084653,-0.002858896041288972,-0.004601432941854
1733859555568000300,11.620000244140625,-0.005260000471025705,0.0056413812562823296,-0.0025547936093062162
1733859555577950200,11.6299501953125,-0.005429538898169994,0.014244296588003635,-0.00010178680531680584
