time,seconds_elapsed,z,y,x
1733859297865152500,0.014152587890625,0.004444303456693888,0.010281644761562347,0.00014558527618646622
1733859297875103500,0.024103515625,0.005955647211521864,0.011358094401657581,0.0014241688186302781
1733859297885054500,0.034054443359375,-0.0004399700555950403,0.009919732809066772,0.0005819273646920919
1733859297895005400,0.04400537109375,-0.0012591583654284477,0.0045063248835504055,0.0013598366640508175
1733859297904956700,0.053956787109375,-0.00220744451507926,-0.010496613569557667,-0.0003601664211601019
1733859297914907400,0.063907470703125,-0.0009078218135982752,-0.02576504833996296,0.0013719536364078522
1733859297924858600,0.073858642578125,0.0019049765542149544,-0.03639637678861618,-0.0011361624347046018
1733859297934809300,0.083809326171875,0.001529471017420292,-0.04109206423163414,-0.004560721572488546
1733859297944760600,0.093760498046875,0.004240587819367647,-0.04066835716366768,-0.0042826104909181595
1733859297954711600,0.103711669921875,0.005171096418052912,-0.034153200685977936,-0.007084522396326065
1733859297964662500,0.11366259765625,0.004813674371689558,-0.023355673998594284,-0.007389734033495188
1733859297974613500,0.123613525390625,0.00440674414858222,-0.019088756293058395,-0.003330544102936983
1733859297984564500,0.133564453125,0.00479953084141016,-0.01304870005697012,0.0043982695788145065
1733859297994515700,0.143515625,0.004902861081063747,-0.0005038795061409473,0.003428878728300333
1733859298004466400,0.153466552734375,0.0034727733582258224,0.0007387429941445589,0.0018554297275841236
1733859298014417700,0.163417724609375,-0.0015392960049211979,-0.0028746342286467552,0.004159863106906414
1733859298024368600,0.17336865234375,0.002649076282978058,-0.0000290523748844862,0.0031237034127116203
1733859298034319600,0.183319580078125,0.005802525207400322,0.003937992267310619,-0.0033453814685344696
1733859298044270600,0.1932705078125,0.002350799273699522,0.00499606691300869,-0.0028079235926270485
1733859298054221600,0.2032216796875,0.0008849953301250935,0.012831886298954487,-0.0028398814611136913
1733859298064172500,0.213172607421875,-0.0011658957228064537,0.014424453489482403,0.0005595488473773003
1733859298074123500,0.22312353515625,-0.002043939894065261,0.010969800874590874,0.004169996362179518
1733859298084074500,0.233074462890625,0.0011909585446119308,0.003691395279020071,0.004035685211420059
1733859298094025700,0.243025634765625,0.0031156251206994057,0.00073661794885993,0.0024814640637487173
1733859298103976400,0.2529765625,0.006724730134010315,-0.0058621596544981,-0.0028423327021300793
1733859298113928200,0.26292822265625,0.006915145553648472,-0.014127013273537159,-0.007386484183371067
1733859298123879000,0.27287890625,0.0047571975737810135,-0.01958329975605011,-0.007712317630648613
1733859298133830100,0.282830078125,0.0011789742857217789,-0.012712344527244568,-0.007946942001581192
1733859298143780900,0.29278076171875,0.0003797365352511406,-0.012680115178227425,-0.0027785543352365494
1733859298153732000,0.302732177734375,0.0006540422327816486,-0.01860751211643219,0.0017943594139069319
1733859298163682800,0.312682861328125,0.0007336996495723724,-0.01947863958775997,-0.0002387526910752058
1733859298173634000,0.322634033203125,0.0047635952942073345,-0.017454104498028755,-0.008749149739742279
1733859298183585000,0.3325849609375,0.004725784063339233,-0.011445749551057816,-0.01231225673109293
1733859298193536000,0.342535888671875,0.0034083183854818344,-0.0009030939545482397,-0.010849382728338242
1733859298203487200,0.3524873046875,0.004727733321487904,0.006856529042124748,-0.0066607799381017685
1733859298213438000,0.36243798828125,0.0024017286486923695,0.010910126380622387,-0.0024892042856663465
1733859298223389200,0.37238916015625,-0.0025010216049849987,0.0025960474740713835,0.0008400772348977625
1733859298233341000,0.3823408203125,0.0008028959855437279,-0.008828114718198776,-0.0004134727641940117
1733859298243292200,0.392292236328125,0.0016231751069426537,-0.027185022830963135,-0.002938707359135151
1733859298253243000,0.402242919921875,0.0012444737367331982,-0.04449078068137169,-0.0035693435929715633
1733859298263194000,0.412194091796875,0.006286888848990202,-0.05202672258019447,-0.008622263558208942
1733859298273145000,0.42214501953125,0.006609663832932711,-0.04778270795941353,-0.009246774949133396
1733859298283096000,0.432095947265625,-0.0009686360135674477,-0.02913232147693634,-0.006266334559768438
1733859298293047000,0.442047119140625,-0.0015215082094073296,-0.007412378676235676,-0.0019948906265199184
1733859298302998000,0.451998046875,0.0016806712374091148,0.005267198663204908,-0.0018342366674914956
1733859298312949000,0.461948974609375,0.005612828768789768,0.0006700498051941395,-0.0006683046231046319
1733859298322900000,0.47189990234375,0.007204098626971245,-0.008369524963200092,-0.002664700150489807
1733859298332851000,0.481850830078125,0.009832904674112797,-0.020630985498428345,-0.003934228792786598
1733859298342802000,0.491802001953125,0.007260303013026714,-0.034605927765369415,-0.005840381607413292
1733859298352753000,0.5017529296875,0.005894633941352367,-0.03962518647313118,-0.0053373100236058235
1733859298362704100,0.5117041015625,0.004201426636427641,-0.03340005502104759,-0.00464627193287015
1733859298372655000,0.521655029296875,0.00034570228308439255,-0.021919168531894684,-0.003511232789605856
1733859298382606000,0.531606201171875,-0.0019502185750752687,-0.017629612237215042,0.0004116984782740474
1733859298392557000,0.54155712890625,-0.0003957313019782305,-0.009830279275774956,0.0054432088509202
1733859298402508000,0.551508056640625,0.003420536871999502,-0.006586536765098572,0.005583206191658974
1733859298412459000,0.561458984375,0.005104187410324812,-0.010476616211235523,0.004430856555700302
1733859298422410000,0.571409912109375,0.00770898861810565,-0.01630466990172863,0.0012655798345804214
1733859298432361200,0.581361328125,0.007557188626378775,-0.01936730556190014,-0.006533486768603325
1733859298442312000,0.59131201171875,0.0038780909962952137,-0.017325207591056824,-0.008893993683159351
1733859298452263200,0.60126318359375,0.0010191877372562885,-0.011961868032813072,-0.01141654048115015
1733859298462214000,0.6112138671875,-0.0046443575993180275,-0.010185522958636284,-0.008540080860257149
1733859298472165000,0.6211650390625,-0.006582872476428747,-0.009638776071369648,-0.007193586323410273
1733859298482116000,0.6311162109375,-0.004730830900371075,-0.017180336639285088,-0.006168109830468893
1733859298492067000,0.641067138671875,-0.000668445136398077,-0.0261613130569458,-0.0023784316144883633
1733859298502018000,0.65101806640625,0.0023699398152530193,-0.0277730543166399,-0.005956495180726051
1733859298511969000,0.660968994140625,0.0055758533999323845,-0.030870841816067696,-0.007281151600182056
1733859298521920000,0.670919921875,0.0059998114593327045,-0.028910217806696892,-0.007462853565812111
1733859298531871000,0.68087109375,0.005346271675080061,-0.019791290163993835,-0.006286268122494221
1733859298541822000,0.690822021484375,0.005628320854157209,-0.010967176407575607,-0.000955111114308238
1733859298551773200,0.700773193359375,0.005576922092586756,-0.00881827250123024,0.003463339526206255
1733859298561724000,0.710723876953125,0.00533268041908741,-0.012596757151186466,0.0020756216254085302
1733859298571675100,0.720675048828125,0.006404336541891098,-0.019233886152505875,-0.0008266913937404752
1733859298581625900,0.7306259765625,0.007142812479287386,-0.02219478413462639,-0.0028150463476777077
1733859298591577000,0.7405771484375,0.006133473943918943,-0.02334100939333439,-0.0036076027899980545
1733859298601527800,0.75052783203125,0.007845651358366013,-0.016853023320436478,-0.0041126287542283535
1733859298611479000,0.76047900390625,0.00555666396394372,-0.007742883171886206,-0.007593113463371992
1733859298621430300,0.77043017578125,0.002270545344799757,-0.002688192529603839,-0.004613581579178572
1733859298631381000,0.780381103515625,-0.00024481024593114853,0.000037020305171608925,-0.0015858339611440897
1733859298641332200,0.790332275390625,-0.004722625017166138,0.0007107944693416357,-0.0008710689144209027
1733859298651283000,0.800282958984375,-0.007476333528757095,0.0020149443298578262,-0.0013869231333956122
1733859298661234200,0.810234130859375,-0.007357507012784481,-0.000616805162280798,0.00035370513796806335
1733859298671185000,0.820184814453125,-0.004442410543560982,0.0017299724277108908,-0.00010702176950871944
1733859298681136000,0.83013623046875,-0.0054826680570840836,0.00828401930630207,0.0015204575611278415
1733859298691087000,0.840087158203125,-0.004079714883118868,0.014058019034564495,-0.0005064744036644697
1733859298701038000,0.8500380859375,-0.0002788684796541929,0.016216514632105827,-0.0010788602521643043
1733859298710989000,0.859989013671875,0.0008782749064266682,0.012263852171599865,-0.0018000443233177066
1733859298720940000,0.86993994140625,-0.0010666667949408293,0.0073953354731202126,0.0010371791431680322
1733859298730891000,0.87989111328125,-0.001274127047508955,-0.0016255902592092752,-0.0007356870919466019
1733859298740842000,0.889842041015625,-0.0027326964773237705,-0.010056902654469013,0.0005604845937341452
1733859298750793000,0.89979296875,-0.0018043187446892262,-0.009441711939871311,-0.002506677759811282
1733859298760744200,0.909744140625,-0.0020877409260720015,0.0010450308909639716,-0.008646908216178417
1733859298770695000,0.91969482421875,-0.0006054255645722151,-0.0019939022604376078,-0.009396588429808617
1733859298780646100,0.929646240234375,-0.002702920464798808,-0.015421029180288315,-0.004986260086297989
1733859298790596900,0.939596923828125,-0.0035910846199840307,-0.02176601067185402,0.000026341993361711502
1733859298800548000,0.949548095703125,-0.00046320981346070766,-0.013863078318536282,-0.0009445471223443747
1733859298810499000,0.9594990234375,-0.0015851997304707766,-0.010464087128639221,-0.0005533287767320871
1733859298820450000,0.969449951171875,-0.0012642631772905588,-0.011166633106768131,0.0013451756676658988
1733859298830401000,0.979401123046875,-0.00010392395779490471,-0.010024935938417912,0.0053726742044091225
1733859298840352000,0.98935205078125,-0.0022978512570261955,-0.004485557787120342,0.0028947999235242605
1733859298850303000,0.999302978515625,-0.0014522976707667112,-0.0039886124432086945,-0.0003728986484929919
1733859298860254000,1.00925390625,0.00038213329389691353,-0.004616329446434975,-0.0051290602423250675
1733859298870205000,1.019204833984375,-0.0005185478366911411,-0.004088224843144417,-0.010169891640543938
1733859298880156200,1.02915625,-0.0014041024260222912,-0.008318644016981125,-0.006453595589846373
1733859298890107100,1.039107177734375,-0.003161788685247302,-0.005692766979336739,-0.004938523285090923
1733859298900058000,1.04905810546875,-0.0051359692588448524,0.005781990475952625,-0.0019501871429383755
1733859298910009000,1.059009033203125,-0.005770600866526365,0.0153424721211195,-0.0046314578503370285
1733859298919960000,1.0689599609375,-0.007914179004728794,0.017466610297560692,-0.0017922616098076105
1733859298929911000,1.0789111328125,-0.005990045145153999,0.014479076489806175,0.0052062589675188065
1733859298939862000,1.088862060546875,-0.002213155385106802,0.009436913765966892,0.006814608350396156
1733859298949813200,1.098813232421875,-0.0005657239817082882,0.006181998644024134,0.005562921985983849
1733859298959764000,1.108763916015625,0.00008836481720209122,0.003058373462408781,-0.0007399112218990922
1733859298969715200,1.118715087890625,-0.0008834227919578552,-0.0018247985281050205,-0.0029082568362355232
1733859298979666000,1.128666015625,-0.003632904263213277,-0.001148082548752427,0.0007729253848083317
1733859298989617200,1.1386171875,-0.004610017873346806,0.0037894179113209248,0.004492029547691345
1733859298999568000,1.14856787109375,-0.0026014666073024273,0.0077093252912163734,0.0032454703468829393
1733859299009519000,1.15851904296875,-0.0005393810570240021,0.002138791372999549,0.0003780447877943516
1733859299019470000,1.168469970703125,0.0021459143608808517,-0.004516187589615583,0.000634644296951592
1733859299029421000,1.178421142578125,0.001374663319438696,-0.009211073629558086,-0.00024712830781936646
1733859299039372000,1.1883720703125,0.002923038322478533,-0.015129153616726398,-0.0016023078933358192
1733859299049323000,1.198322998046875,0.000987186562269926,-0.019779033958911896,-0.0038393628783524036
1733859299059274000,1.20827392578125,-0.0032715550623834133,-0.013520325534045696,-0.005276109091937542
1733859299069225000,1.218224853515625,-0.004537888336926699,-0.007968699559569359,0.0010465019149705768
1733859299079176000,1.228176025390625,-0.0028965063393115997,0.007695735897868872,0.004425822291523218
1733859299089127200,1.238127197265625,-0.001204333733767271,0.02309812791645527,-0.0017346019158139825
1733859299099078000,1.248077880859375,0.000012697186321020126,0.030478287488222122,-0.0016710576601326466
1733859299109029000,1.258029052734375,-0.000667474465444684,0.017267409712076187,-0.0019645378924906254
1733859299118979600,1.2679794921875,-0.00021417601965367794,0.004256797023117542,-0.0007864512735977769
1733859299128930800,1.277930908203125,0.0010012909770011902,-0.007212905213236809,0.0006950651877559721
1733859299138881800,1.2878818359375,0.0007338910363614559,-0.016505468636751175,0.0011810557916760445
1733859299148832800,1.297832763671875,-0.0001979488879442215,-0.019312439486384392,-0.0005800925428047776
1733859299158783700,1.30778369140625,-0.0035391778219491243,-0.014637790620326996,-0.00017093250062316656
1733859299168734700,1.317734619140625,-0.009250592440366745,0.000029037008062005043,-0.0012132938718423247
1733859299178685700,1.327685791015625,-0.008926759473979473,0.006764971185475588,-0.0002456668298691511
1733859299188636700,1.33763671875,-0.005910463165491819,0.009461421519517899,0.0025463912170380354
1733859299198587600,1.347587646484375,-0.0007012886926531792,0.015068702399730682,0.002484705997630954
1733859299208539000,1.357538818359375,0.0027725384570658207,0.009330390021204948,-0.003907945938408375
1733859299218489600,1.367489501953125,0.0047342125326395035,0.000736903166398406,-0.0023344180081039667
1733859299228440800,1.37744091796875,0.0045057134702801704,-0.010433193296194077,-0.0027906175237149
1733859299238391600,1.3873916015625,0.000895276665687561,-0.01211151946336031,0.00023087277077138424
1733859299248342800,1.3973427734375,-0.0003566755913197994,-0.010727208107709885,0.003939324524253607
1733859299258293500,1.40729345703125,-0.0035476440098136663,-0.005667475052177906,0.003537060460075736
1733859299268244700,1.41724462890625,-0.005154595244675875,0.0007368947844952345,0.004405783489346504
1733859299278195700,1.42719580078125,-0.003626983379945159,0.004009381402283907,0.000872574863024056
1733859299288146700,1.437146728515625,-0.0007209419272840023,0.0010886925738304853,-0.0006534165004268289
1733859299298097700,1.44709765625,0.002234047744423151,-0.007942073978483677,-0.005250711925327778
1733859299308048600,1.457048583984375,-0.00005493964999914169,-0.014783468097448349,-0.007787106093019247
1733859299317999600,1.46699951171875,-0.0025969345588237047,-0.013230311684310436,-0.00970581453293562
1733859299327950600,1.47695068359375,-0.005505372770130634,-0.0073356712237000465,-0.004978436976671219
1733859299337901600,1.486901611328125,-0.002610501367598772,0.0005012101028114557,0.0027842128183692694
1733859299347852800,1.496852783203125,-0.004635835066437721,0.013597836717963219,0.005289182066917419
1733859299357803800,1.5068037109375,-0.004151413682848215,0.022843535989522934,0.0033731365110725164
1733859299367754800,1.516754638671875,-0.006943738088011742,0.02365606650710106,0.005023497622460127
1733859299377705700,1.526705810546875,-0.0007162541151046753,0.016120392829179764,0.0046505918726325035
1733859299387656700,1.53665673828125,0.002964767161756754,0.005731666460633278,0.00010723888408392668
1733859299397607700,1.546607666015625,0.005305986385792494,-0.0030493116937577724,-0.0009492080425843596
1733859299407558700,1.55655859375,0.002086224500089884,-0.012364516966044903,-0.002871743869036436
1733859299417510000,1.566510009765625,0.0013472042046487331,-0.01695926859974861,-0.0060508595779538155
1733859299427460600,1.576460693359375,0.002727520652115345,-0.0168913584202528,-0.005937408655881882
1733859299437411800,1.586411865234375,0.003282763995230198,-0.0192935261875391,-0.008227625861763954
1733859299447362600,1.596362548828125,0.0025048544630408287,-0.021237900480628014,-0.008361317217350006
1733859299457313800,1.606313720703125,0.0018161898478865623,-0.024080028757452965,-0.0077742235735058784
1733859299467264800,1.6162646484375,0.00377201521769166,-0.027583684772253036,-0.009547889232635498
1733859299477215700,1.6262158203125,0.005253030452877283,-0.022879749536514282,-0.00736315967515111
1733859299487166700,1.636166748046875,0.004672194365411997,-0.01649535447359085,-0.007770357187837362
1733859299497117700,1.64611767578125,0.0030036475509405136,-0.00999376643449068,-0.006467805244028568
1733859299507068700,1.656068603515625,0.0007298407144844532,-0.0005440723616629839,-0.0048334235325455666
1733859299517019600,1.66601953125,-0.005158393643796444,0.004668265115469694,-0.0024645118974149227
1733859299526970600,1.675970703125,-0.008602393791079521,0.005524205043911934,0.0030993642285466194
1733859299536921900,1.685921875,-0.004906912799924612,0.011866776272654533,0.004708753898739815
1733859299546872600,1.69587255859375,-0.004871759098023176,0.019804326817393303,0.003358264919370413
1733859299556823800,1.70582373046875,-0.0032946972642093897,0.022747132927179337,0.00021386088337749243
1733859299566774500,1.7157744140625,-0.003825198858976364,0.02157028205692768,0.00043969694525003433
1733859299576725800,1.725725830078125,-0.003774075536057353,0.015192544087767601,0.0021447865292429924
1733859299586676500,1.735676513671875,-0.0003793442156165838,0.019318580627441406,-0.00024140579625964165
1733859299596627700,1.745627685546875,-0.003584659192711115,0.015907324850559235,-0.002599960658699274
1733859299606579000,1.755578857421875,-0.0029702680185437202,-0.0009302448015660048,-0.004898534622043371
1733859299616529700,1.76552978515625,-0.0024246424436569214,-0.01657923497259617,-0.004087943583726883
1733859299626481000,1.77548095703125,-0.000510362209752202,-0.017829321324825287,-0.005632310174405575
1733859299636431600,1.785431640625,-0.002393759088590741,-0.014349901117384434,-0.007418625056743622
1733859299646382800,1.7953828125,-0.004026809707283974,-0.008954603224992752,-0.007627150043845177
1733859299656333600,1.80533349609375,-0.0009348627645522356,-0.0029204152524471283,-0.00454317731782794
1733859299666284800,1.815284912109375,-0.00030822097323834896,0.0051178038120269775,-0.00149705377407372
1733859299676235800,1.82523583984375,0.00034714629873633385,0.01372035127133131,0.00003586616367101669
1733859299686186800,1.835186767578125,0.0020126872695982456,0.017143312841653824,0.00030750862788408995
1733859299696137700,1.8451376953125,0.0003431905061006546,0.0137387216091156,0.003968252334743738
1733859299706088700,1.855088623046875,0.0035842577926814556,0.002948658773675561,0.0035818275064229965
1733859299716039700,1.865039794921875,0.002875080332159996,0.0009113363921642303,0.0042635658755898476
1733859299725990700,1.87499072265625,-0.004418252967298031,-0.0011366342660039663,0.0026238576974719763
1733859299735941600,1.884941650390625,-0.004925922956317663,-0.0003025233745574951,0.0046805888414382935
1733859299745892900,1.894892822265625,-0.002814302686601877,0.0017747421516105533,-0.001157060032710433
1733859299755843600,1.904843505859375,-0.002034757984802127,0.003900208044797182,-0.004291907884180546
1733859299765794800,1.914794921875,-0.002171378117054701,0.004026441834867001,-0.004674870520830154
1733859299775745500,1.92474560546875,-0.00008186651393771172,0.0009355777874588966,-0.003344554454088211
1733859299785696800,1.93469677734375,0.0027024680748581886,-0.001732377102598548,-0.0032473490573465824
1733859299795647700,1.944647705078125,0.002991931512951851,-0.0019241226837038994,-0.004178320057690144
1733859299805598700,1.9545986328125,0.0015626130625605583,-0.0037292130291461945,-0.00361426267772913
1733859299815549700,1.9645498046875,-0.002827312331646681,-0.004935894161462784,0.0018176164012402296
1733859299825500700,1.974500732421875,-0.004363157320767641,-0.002839720109477639,0.0049300529062747955
1733859299835451600,1.98445166015625,-0.003006830345839262,0.0038786386139690876,0.006074981298297644
1733859299845402600,1.994402587890625,-0.003030266147106886,0.005430196411907673,0.004027543123811483
1733859299855353600,2.004353515625,-0.0015210546553134918,0.002330010524019599,-0.0029632211662828922
1733859299865304800,2.014304931640625,0.0032545258291065693,-0.010677134618163109,-0.00403381185606122
1733859299875255800,2.024255859375,0.004138162359595299,-0.025763142853975296,-0.008114307187497616
1733859299885206800,2.034206787109375,0.0034121847711503506,-0.038697849959135056,-0.008363045752048492
1733859299895157800,2.04415771484375,0.006011993158608675,-0.043684087693691254,-0.012689786963164806
1733859299905108700,2.054108642578125,0.0015280283987522125,-0.04226569086313248,-0.013983017764985561
1733859299915059700,2.064059814453125,-0.003349574748426676,-0.03528501093387604,-0.010821245610713959
1733859299925010700,2.0740107421875,-0.005144278984516859,-0.021838176995515823,-0.003920728340744972
1733859299934962000,2.0839619140625,-0.00663460697978735,-0.008612651377916336,-0.005046340636909008
1733859299944912600,2.09391259765625,-0.0038372226990759373,-0.00791756622493267,-0.0035661556757986546
1733859299954863900,2.10386376953125,-0.0008659106679260731,-0.0058181979693472385,-0.000761420582421124
1733859299964814600,2.113814697265625,0.0003149351105093956,-0.007476281840354204,-0.003031499218195677
1733859299974765800,2.123765869140625,-0.0006387359462678432,-0.005578780546784401,-0.0019847110379487276
1733859299984716500,2.133716552734375,0.004036442842334509,-0.00533030740916729,-0.0066031645983457565
1733859299994667800,2.143667724609375,0.004509384278208017,-0.002117201453074813,-0.00513305701315403
1733859300004618800,2.15361865234375,0.0017487513832747936,0.0036698475014418364,-0.0025745583698153496
1733859300014569700,2.16356982421875,-0.0022385185584425926,0.016559546813368797,0.0019136948976665735
1733859300024520700,2.173520751953125,-0.00647880369797349,0.029016215354204178,0.006601657252758741
1733859300034471700,2.1834716796875,-0.006482798606157303,0.032184846699237823,0.011052331887185574
1733859300044422700,2.193422607421875,0.001024120021611452,0.029466290026903152,0.010168428532779217
1733859300054373600,2.20337353515625,-0.0007588493172079325,0.020876264199614525,0.004422921221703291
1733859300064324600,2.21332470703125,0.001387392170727253,0.0035500035155564547,-0.0006828909972682595
1733859300074275800,2.22327587890625,0.00220605731010437,-0.014654567465186119,-0.006781397387385368
1733859300084226600,2.2332265625,0.0012515801936388016,-0.029592502862215042,-0.009157203137874603
1733859300094177800,2.243177734375,0.0006952369585633278,-0.032261259853839874,-0.00883695762604475
1733859300104128500,2.25312841796875,-0.0030523636378347874,-0.02548484317958355,-0.006488049402832985
1733859300114079700,2.263079833984375,-0.0017932362388819456,-0.005795027129352093,-0.006380221340805292
1733859300124033500,2.273033447265625,-0.004494747146964073,0.009466484189033508,-0.002429688349366188
1733859300133984500,2.282984619140625,-0.0008012191392481327,0.012824463658034801,0.0010983709944412112
1733859300143935500,2.292935546875,0.001123181078583002,0.010263035073876381,0.0005170028889551759
1733859300153886500,2.302886474609375,0.0005436609499156475,0.0039028741884976625,0.0019481932977214456
1733859300163836400,2.31283642578125,0.0024414295330643654,-0.0009619221091270447,0.001113825011998415
1733859300173787600,2.32278759765625,0.004176757764071226,-0.0038589087780565023,-0.002398025244474411
1733859300183738400,2.33273828125,0.0017516827210783958,-0.0038325435016304255,-0.002719735261052847
1733859300193689600,2.342689697265625,-0.0022393283434212208,-0.011171949096024036,-0.00331844761967659
1733859300203640600,2.352640625,-0.0038265723269432783,-0.01359542552381754,0.0007964025135152042
1733859300213591600,2.362591552734375,-0.0057314918376505375,-0.005783844739198685,0.0054888175800442696
1733859300223542500,2.37254248046875,-0.005297396797686815,0.004472254775464535,0.004204907454550266
1733859300233493500,2.382493408203125,-0.0041187419556081295,0.0025649014860391617,0.0016777539858594537
1733859300243444500,2.392444580078125,-0.002302732551470399,-0.0009390194900333881,0.0007842634222470224
1733859300253395500,2.4023955078125,0.0005066781304776669,-0.003067418234422803,-0.0023720329627394676
1733859300263346400,2.412346435546875,0.004357875324785709,0.00348715391010046,-0.008519407361745834
1733859300273297700,2.422297607421875,0.0068968795239925385,0.0019731461070477962,-0.010260190814733505
1733859300283248400,2.432248291015625,0.0028952141292393208,-0.0034676920622587204,-0.0005135531537234783
1733859300293199600,2.44219970703125,0.0013758917339146137,-0.008625168353319168,0.008019273169338703
1733859300303150600,2.452150634765625,0.002704276703298092,-0.004685021936893463,0.00715827289968729
1733859300313101600,2.4621015625,-0.0007519607897847891,-0.0012735119089484215,0.008185213431715965
1733859300323052500,2.472052490234375,0.00020171701908111572,0.0017321318155154586,0.007498650345951319
1733859300333003500,2.48200341796875,0.0038129515014588833,0.006629152223467827,0.006210152991116047
1733859300342954800,2.491954833984375,0.009083613753318787,0.010343195870518684,-0.002234996762126684
1733859300352905500,2.501905517578125,0.006193837616592646,-0.00018933904357254505,-0.008026117458939552
1733859300362856700,2.511856689453125,0.0033011119812726974,-0.01632676273584366,-0.0077877645380795
1733859300372807400,2.521807373046875,0.0024307644926011562,-0.025405747815966606,-0.009126320481300354
1733859300382758700,2.531758544921875,-0.0019573261961340904,-0.021055206656455994,-0.005708951968699694
1733859300392709400,2.54170947265625,-0.00325822364538908,-0.013330976478755474,-0.004815617576241493
1733859300402660600,2.55166064453125,-0.006683315150439739,-0.0048623899929225445,0.0004238852998241782
1733859300412611600,2.561611572265625,-0.0049759759567677975,0.002315629506483674,-0.0005026925355195999
1733859300422562600,2.5715625,-0.0000675036571919918,0.005454697646200657,-0.0021463956218212843
1733859300432513500,2.581513427734375,0.001955134328454733,0.002027209848165512,-0.0017618220299482346
1733859300442464500,2.591464599609375,0.006708610337227583,-0.0010213104542344809,-0.0036353557370603085
1733859300452415500,2.60141552734375,0.006153102032840252,-0.005579045042395592,-0.003103167749941349
1733859300462366500,2.611366455078125,0.005618339404463768,-0.01122361421585083,0.0002939603291451931
1733859300472317400,2.6213173828125,0.003964778035879135,-0.009679247625172138,0.0030173766426742077
1733859300482268700,2.6312685546875,0.001818003598600626,-0.0033510441426187754,0.002022419823333621
1733859300492219400,2.641219482421875,-0.002696884097531438,-0.0013371624518185854,0.003246158827096224
1733859300502170600,2.651170654296875,0.0001513664610683918,-0.001199477119371295,0.00023838458582758904
1733859300512121300,2.661121337890625,-0.0007514399476349354,0.0012189402477815747,-0.0007273814408108592
1733859300522072600,2.671072509765625,0.0017636492848396301,-0.00023967307060956955,-0.002577213104814291
1733859300532023600,2.6810234375,0.002696292009204626,-0.008432622067630291,-0.0022462510969489813
1733859300541974500,2.690974609375,0.005209250841289759,-0.01026327908039093,0.00010212440975010395
1733859300551925800,2.70092578125,0.0057618566788733006,-0.009345820173621178,0.0001671054633334279
1733859300561876500,2.71087646484375,0.004236397799104452,-0.005863736383616924,-0.003014839254319668
1733859300571827700,2.72082763671875,0.0026963246054947376,-0.006402494851499796,-0.005569622851908207
1733859300581778400,2.7307783203125,-0.0036020511761307716,-0.011977821588516235,-0.003960274625569582
1733859300591729700,2.740729736328125,-0.005390097387135029,-0.0187371913343668,-0.0020843439269810915
1733859300601680600,2.7506806640625,-0.003370622405782342,-0.019961180165410042,-0.002600198145955801
1733859300611631600,2.760631591796875,0.003992980346083641,-0.026167144998908043,-0.0021931505762040615
1733859300621582600,2.77058251953125,0.004655041731894016,-0.026230262592434883,-0.007391640916466713
1733859300631533600,2.780533447265625,0.00782819278538227,-0.025935450568795204,-0.008546017110347748
1733859300641484500,2.790484619140625,0.007666273042559624,-0.023908518254756927,-0.007499661762267351
1733859300651435500,2.800435546875,0.003999373409897089,-0.009046746417880058,-0.0034728338941931725
1733859300661386500,2.810386474609375,0.0017452738247811794,0.008703487925231457,-0.00022937031462788582
1733859300671337700,2.820337646484375,-0.0023306994698941708,0.024727728217840195,0.0035084800329059362
1733859300681288400,2.830288330078125,-0.004138187039643526,0.025826813653111458,0.0073660691268742085
1733859300691239700,2.84023974609375,-0.003566649742424488,0.013081724755465984,0.008535848930478096
1733859300701190400,2.8501904296875,0.0013346318155527115,-0.006717279553413391,0.0011583601590245962
1733859300711141600,2.8601416015625,0.00510698975995183,-0.02687394618988037,-0.00788875948637724
1733859300721092400,2.87009228515625,0.004810046870261431,-0.042186856269836426,-0.0126118753105402
1733859300731042600,2.88004248046875,0.00422093877568841,-0.04664631932973862,-0.00980033166706562
1733859300740993500,2.88999365234375,0.0016366075724363327,-0.035997405648231506,-0.007968076504766941
1733859300750944500,2.899944580078125,-0.0007895324379205704,-0.01851055771112442,-0.0033405679278075695
1733859300760895500,2.9098955078125,-0.0017410798463970423,-0.0012181196361780167,0.0009961233008652925
1733859300770846700,2.9198466796875,0.0034201215021312237,0.005993453785777092,0.0029030507430434227
1733859300780797400,2.92979736328125,0.0029937494546175003,-0.00023088627494871616,0.0007355040870606899
1733859300790748700,2.939748779296875,0.003718676045536995,-0.009463531896471977,-0.0034912098199129105
1733859300800699400,2.949699462890625,0.0043818033300340176,-0.02096838876605034,-0.005464346148073673
1733859300810650600,2.959650634765625,0.005223906598985195,-0.029016193002462387,-0.0064741563983261585
1733859300820601300,2.969601318359375,0.0037421234883368015,-0.02512211911380291,-0.007930640131235123
1733859300830552600,2.979552490234375,0.001316737849265337,-0.008453932590782642,-0.0015136469155550003
1733859300840503600,2.989503662109375,-0.002672411035746336,0.008315992541611195,0.003219322767108679
1733859300850454500,2.99945458984375,-0.0035016806796193123,0.015407729893922806,0.0051991138607263565
1733859300860405500,3.009405517578125,-0.0011051020119339228,0.005238449200987816,0.0026374193839728832
1733859300870356500,3.0193564453125,0.001929301768541336,-0.009516262449324131,0.00201214337721467
1733859300880307500,3.029307373046875,0.005152259487658739,-0.02109861560165882,-0.0052273934707045555
1733859300890258400,3.039258544921875,0.0062971413135528564,-0.02795465849339962,-0.0095276590436697
1733859300900209400,3.04920947265625,0.005366899073123932,-0.034771550446748734,-0.01007067784667015
1733859300910160600,3.05916064453125,0.0024429885670542717,-0.03474785387516022,-0.011643246747553349
1733859300920111600,3.069111572265625,0.0016554920002818108,-0.028698217123746872,-0.003756561316549778
1733859300930062600,3.0790625,0.00014152377843856812,-0.014848177321255207,0.0008448456646874547
1733859300940013600,3.089013671875,0.0010299542918801308,-0.0035481180530041456,-0.0014971381751820445
1733859300949964500,3.098964599609375,0.0028933496214449406,-0.012160781770944595,-0.0017407378181815147
1733859300959915500,3.10891552734375,0.004086712375283241,-0.020899413153529167,0.000015350524336099625
1733859300969866500,3.118866455078125,0.004546107724308968,-0.025233440101146698,-0.002119439421221614
1733859300979817700,3.128817626953125,0.000922344159334898,-0.022095171734690666,-0.00249521154910326
1733859300989768400,3.1387685546875,0.000631802249699831,-0.01916276477277279,-0.0022580972872674465
1733859300999719700,3.1487197265625,0.0008512465283274651,-0.01778537780046463,-0.002125738188624382
1733859301009670400,3.15867041015625,0.0029932167381048203,-0.009641698561608791,0.000819127366412431
1733859301019621600,3.16862158203125,0.002064306288957596,0.00020214379765093327,0.0029579121619462967
1733859301029572600,3.178572509765625,0.00041129253804683685,0.005370807833969593,0.005057340022176504
1733859301039523600,3.188523681640625,-0.0008723509963601828,0.003904205048456788,0.0017696676077321172
1733859301049474600,3.198474609375,0.0019284752197563648,-0.0021744626574218273,-0.0033064321614801884
1733859301059425500,3.208425537109375,0.0028509944677352905,-0.011240130290389061,-0.004590874537825584
1733859301069376500,3.21837646484375,-0.0012787419836968184,-0.021192625164985657,-0.0028734253719449043
1733859301079327500,3.228327392578125,-0.007214661687612534,-0.020872779190540314,-0.005090240854769945
1733859301089278500,3.238278564453125,-0.004948877729475498,-0.014928076416254044,-0.00701554212719202
1733859301099229700,3.248229736328125,-0.0037850765511393547,-0.014283059164881706,-0.005600338336080313
1733859301109180400,3.258180419921875,-0.003749897936359048,-0.021257873624563217,-0.0002931824419647455
1733859301119127800,3.2681279296875,0.0005428511649370193,-0.017806416377425194,-0.0001248705666512251
1733859301129078500,3.27807861328125,0.0038129445165395737,-0.01152375340461731,0.0003097918815910816
1733859301139029800,3.28802978515625,0.003949564881622791,-0.0002109117340296507,0.009304884821176529
1733859301148980700,3.297980712890625,0.009665219113230705,0.007392675615847111,0.007573520299047232
1733859301158930700,3.3079306640625,0.008935246616601944,0.012023113667964935,0.007312530651688576
1733859301168881700,3.317881591796875,0.005631365347653627,0.008142626844346523,0.0060456981882452965
1733859301178833000,3.3278330078125,0.00405077962204814,0.0010602163383737206,0.006492842920124531
1733859301188783600,3.33778369140625,0.00574636971578002,-0.007003310602158308,0.0013948972336947918
1733859301198734800,3.34773486328125,0.005402022507041693,-0.01881815679371357,-0.0024046343751251698
1733859301208685600,3.357685546875,0.003228098154067993,-0.02447151206433773,-0.005175970960408449
1733859301218636800,3.36763671875,0.0029029259458184242,-0.02193804644048214,-0.0067589543759822845
1733859301228587500,3.37758740234375,0.00218547647818923,-0.014234586618840694,-0.009375915862619877
1733859301238538800,3.387538818359375,0.0028214394114911556,-0.009728251956403255,-0.005689568817615509
1733859301248489700,3.39748974609375,0.004147935658693314,-0.008560461923480034,-0.006838690955191851
1733859301258440700,3.407440673828125,0.00015266193076968193,-0.012243879958987236,-0.004537986125797033
1733859301268391700,3.4173916015625,-0.0012422921136021614,-0.011870501562952995,-0.002768830396234989
1733859301278342700,3.4273427734375,-0.005031703971326351,-0.003668764606118202,-0.0032625803723931313
1733859301288293600,3.437293701171875,-0.004273741971701384,-0.0018860397394746542,0.00023279187735170126
1733859301298244600,3.44724462890625,-0.004800248891115189,0.004462669603526592,0.002162518445402384
1733859301308195600,3.457195556640625,-0.0032886762637645006,0.005195563659071922,0.00024029274936765432
1733859301318146800,3.467146728515625,-0.0006729194428771734,-0.00026365043595433235,0.00008236733265221119
1733859301328097500,3.47709765625,-0.0003266860730946064,-0.004474900662899017,-0.002055348828434944
1733859301338048800,3.487048828125,0.0013503064401447773,-0.003572621615603566,-0.003682806622236967
1733859301347999500,3.49699951171875,0.0021953010000288486,-0.004419514909386635,-0.0003628060221672058
1733859301357950700,3.50695068359375,0.0013638618402183056,-0.003910318482667208,0.00019832199905067682
1733859301367901400,3.5169013671875,0.00028902851045131683,-0.0017728593666106462,-0.00304560293443501
1733859301377852700,3.526852783203125,-0.0034050424583256245,0.0011590146459639072,-0.0032618518453091383
1733859301387803600,3.5368037109375,-0.0052175926975905895,-0.0018964307382702827,-0.003107051830738783
1733859301397754600,3.546754638671875,-0.002898778300732374,-0.0075908019207417965,-0.004203741438686848
1733859301407705900,3.556705810546875,0.0010291123762726784,-0.010646514594554901,-0.0024589630775153637
1733859301417656600,3.566656494140625,0.005439573433250189,-0.012517385184764862,-0.0032224911265075207
1733859301427607800,3.57660791015625,0.0035063931718468666,-0.010253962129354477,0.0010229080216959119
1733859301437558500,3.58655859375,0.0006347065791487694,-0.0033073725644499063,0.0019416986033320427
1733859301447509800,3.596509765625,-0.0015751887112855911,0.0038064620457589626,0.0019865455105900764
1733859301457460700,3.606460693359375,-0.0037834818940609694,0.005875471979379654,0.0024246356915682554
1733859301467411700,3.61641162109375,-0.0036676281597465277,0.002165956189855933,0.0035360981710255146
1733859301477362700,3.62636279296875,-0.001708340598270297,-0.004333755001425743,0.001998655265197158
1733859301487313700,3.636313720703125,-0.002392246387898922,-0.010593782179057598,-0.0043754796497523785
1733859301497263600,3.646263671875,-0.0009011426009237766,-0.015612510032951832,-0.009637885726988316
1733859301507214800,3.65621484375,0.003573757130652666,-0.02002217434346676,-0.008693015202879906
1733859301517165600,3.66616552734375,0.001199282705783844,-0.017849834635853767,-0.0068346611224114895
1733859301527116800,3.67611669921875,-0.0035954532213509083,-0.01008937694132328,-0.005671052727848291
1733859301537067800,3.68606787109375,-0.00503302738070488,-0.0054381671361625195,-0.0021916329860687256
1733859301547018800,3.696018798828125,-0.003172254655510187,-0.005442957393825054,0.003732116427272558
1733859301556969700,3.7059697265625,-0.0011602365411818027,-0.008499999530613422,0.0036290520802140236
1733859301566920700,3.715920654296875,0.0038182823918759823,-0.00975062046200037,-0.0015117512084543705
1733859301576871700,3.72587158203125,0.004836674313992262,-0.015509973280131817,-0.005687055177986622
1733859301586822700,3.73582275390625,0.002570812124758959,-0.0226291436702013,-0.009399853646755219
1733859301596773600,3.745773681640625,0.0008461489342153072,-0.03074006550014019,-0.008681066334247589
1733859301606724900,3.755724853515625,0.001349263358861208,-0.024375101551413536,-0.006262795999646187
1733859301616675600,3.765675537109375,-0.0016515864990651608,-0.011833212338387966,-0.008287331089377403
1733859301626626800,3.775626708984375,-0.0032223593443632126,-0.0012897648848593235,-0.006220376119017601
1733859301636577500,3.78557763671875,-0.001141365384683013,0.0032914048060774803,-0.002880239859223366
1733859301646528800,3.79552880859375,0.00015402073040604591,0.004230973776429892,-0.004378031473606825
1733859301656479500,3.8054794921875,0.0006251339800655842,-0.005207802169024944,-0.004052060656249523
1733859301666430700,3.8154306640625,0.0033292919397354126,-0.014875078573822975,-0.0004777478752657771
1733859301676381700,3.825381591796875,0.0028834789991378784,-0.01820962317287922,0.0005691406549885869
1733859301686332700,3.835332763671875,0.0005265558138489723,-0.010749587789177895,-0.00026668119244277477
1733859301696283600,3.84528369140625,-0.0023914698977023363,0.00021118461154401302,0.0011631699744611979
1733859301706234600,3.855234619140625,-0.005299875047057867,0.009739454835653305,0.004059836268424988
1733859301716185600,3.865185546875,-0.005034357775002718,0.015134752728044987,0.0021817751694470644
1733859301726136600,3.875136474609375,-0.002427411265671253,0.009620937518775463,0.003848645370453596
1733859301736087600,3.885087646484375,0.000416311901062727,0.003150255186483264,-0.0017256172141060233
1733859301746038800,3.895038818359375,0.006183397490531206,0.00040560471825301647,-0.005869211629033089
1733859301755989500,3.904989501953125,0.006974622141569853,-0.003320956602692604,-0.00539783202111721
1733859301765940700,3.914940673828125,0.0028688213787972927,-0.010064881294965744,-0.0038445349782705307
1733859301779623700,3.928623779296875,-0.0006761124823242426,-0.00761663680896163,0.0024967179633677006
1733859301789574700,3.93857470703125,-0.0020540482364594936,0.000417845556512475,0.003326758276671171
1733859301799525600,3.948525634765625,-0.0031398190185427666,-0.0007675273809581995,0.0002540028654038906
1733859301809476600,3.9584765625,-0.0027176986914128065,-0.00249564740806818,0.0009461375884711742
1733859301819426800,3.9684267578125,-0.0024588394444435835,-0.005927131045609713,0.00029392947908490896
1733859301829377500,3.97837744140625,0.0028075543232262135,-0.00803982000797987,-0.0037839538417756557
1733859301839328800,3.988328857421875,0.004341002553701401,-0.009117335081100464,-0.00699972128495574
1733859301849279700,3.99827978515625,0.0034882454201579094,-0.00860655028373003,-0.003891909494996071
1733859301859230700,4.008230712890625,0.0010581109672784805,0.0016021451447159052,0.0006881947047077119
1733859301869181700,4.018181640625,-0.00023165135644376278,0.008666717447340488,-0.0017408262938261032
1733859301879132700,4.028132568359375,-0.0032921559177339077,0.018019473180174828,-0.0036657589953392744
1733859301889083600,4.038083740234375,-0.007039996795356274,0.01813480071723461,-0.002606040332466364
1733859301899034600,4.04803466796875,-0.00680910050868988,0.010332537814974785,-0.0014307874953374267
1733859301908985600,4.057985595703125,-0.004649844951927662,0.0016953531885519624,-0.0023591509088873863
1733859301918936800,4.067936767578125,-0.004399774130433798,-0.009224671870470047,-0.005989306140691042
1733859301928887600,4.077887451171875,-0.004600014071911573,-0.02202673628926277,-0.00570288859307766
1733859301938838800,4.0878388671875,-0.003322761971503496,-0.025852899998426437,-0.00459181796759367
1733859301948789500,4.09778955078125,-0.004301757086068392,-0.02125256508588791,0.0028080104384571314
1733859301958740700,4.10774072265625,-0.0032900222577154636,-0.011911526322364807,0.004335599485784769
1733859301968691700,4.117691650390625,-0.0006012893281877041,-0.00006125448271632195,0.0005244361236691475
1733859301978642700,4.127642578125,0.0033005080185830593,0.0024306653067469597,0.00025092950090765953
1733859301988593700,4.13759375,0.003559103235602379,-0.003194462275132537,-0.0002210545353591442
1733859301998544600,4.147544677734375,0.005417457316070795,-0.007841944694519043,-0.00641237199306488
1733859302008495600,4.15749560546875,0.005471259821206331,-0.011541871353983879,-0.006608291994780302
1733859302018446600,4.167446533203125,0.0037974626757204533,-0.01197037473320961,-0.008754001930356026
1733859302028397600,4.1773974609375,0.002711412962526083,-0.008867265656590462,-0.005152516532689333
1733859302038348800,4.187348876953125,-0.000050018541514873505,-0.002312160562723875,0.001624962082132697
1733859302048299500,4.197299560546875,0.0008437507785856724,0.011527229100465775,0.008411670103669167
1733859302058250800,4.207250732421875,0.0016432316042482853,0.024289896711707115,0.004766334779560566
1733859302068201700,4.21720166015625,-0.001256957184523344,0.029769878834486008,0.0032860622741281986
1733859302078152700,4.227152587890625,-0.003809330752119422,0.014280667528510094,0.004853332415223122
1733859302088103700,4.237103759765625,-0.006109773181378841,0.002454899251461029,0.005378882400691509
1733859302098053600,4.2470537109375,-0.002811448648571968,-0.0030352072790265083,0.0015708281425759196
1733859302108004600,4.257004638671875,-0.0012793212663382292,-0.007751659955829382,-0.00036424468271434307
1733859302117955600,4.26695556640625,-0.001742444932460785,-0.005616337526589632,-0.0010891573037952185
1733859302127908900,4.276908935546875,-0.0027565998025238514,-0.0005350406281650066,-0.0025238802190870047
1733859302137859800,4.28685986328125,-0.0037385073956102133,0.007036060094833374,-0.0025180212687700987
1733859302147810800,4.296810791015625,-0.002222898416221142,0.0024575565475970507,-0.003763993736356497
1733859302157761800,4.30676171875,0.0016725072637200356,-0.0008905695285648108,-0.0016124260146170855
1733859302167713000,4.316713134765625,0.0025217998772859573,-0.0063681527972221375,-0.0011325826635584235
1733859302177663700,4.326663818359375,0.0035588345490396023,-0.010113089345395565,-0.00015706673730164766
1733859302187615000,4.336614990234375,0.0016552107408642769,-0.010290720500051975,0.0008612184901721776
1733859302197565700,4.346565673828125,0.0007486706599593163,-0.000931307440623641,0.0007765299524180591
1733859302207517000,4.356516845703125,-0.0010047650430351496,0.010357559658586979,0.0007414335268549621
1733859302217468000,4.366468017578125,-0.0007168774027377367,0.020881839096546173,0.004961478523910046
1733859302227419000,4.3764189453125,-0.002168821170926094,0.028565332293510437,0.004181345924735069
1733859302237369900,4.386369873046875,-0.0022423244081437588,0.025846511125564575,0.006942244712263346
1733859302247320800,4.39632080078125,-0.003992260899394751,0.014155508950352669,0.0062891338020563126
1733859302257271800,4.406271728515625,0.002426223363727331,-0.004779832437634468,0.0035900198854506016
1733859302267222800,4.416222900390625,0.0033138366416096687,-0.01392246875911951,0.0003544357605278492
1733859302277173800,4.426173828125,0.0021779988892376423,-0.01211178582161665,-0.0013228231109678745
1733859302287124000,4.4361240234375,-0.0009213974699378014,-0.00517452135682106,-0.0017729141982272267
1733859302297074700,4.44607470703125,-0.0022401949390769005,-0.002825613832101226,-0.0026690675877034664
1733859302307026000,4.45602587890625,-0.00006891461089253426,0.00010679522529244423,-0.0022697364911437035
1733859302316977000,4.465976806640625,0.0012749163433909416,-0.005699161905795336,-0.0033091683872044086
1733859302326928000,4.475927978515625,0.0015737167559564114,-0.010619621723890305,-0.005450704135000706
1733859302336878800,4.48587890625,0.00012948457151651382,-0.02004801109433174,-0.005635793786495924
1733859302346829800,4.495829833984375,0.00007408158853650093,-0.026209238916635513,-0.007358304690569639
1733859302356780800,4.50578076171875,-0.0026772301644086838,-0.028157342225313187,-0.009448087774217129
1733859302366731800,4.515731689453125,-0.0015802718698978424,-0.018377946689724922,-0.004480830859392881
1733859302376682800,4.525682861328125,-0.0024308855645358562,-0.008918930776417255,0.0013397736474871635
1733859302386634000,4.535634033203125,-0.003434901125729084,0.0028692828491330147,0.004273620434105396
1733859302396584700,4.545584716796875,-0.001996527658775449,0.016917457804083824,0.005310655105859041
1733859302406536000,4.555535888671875,-0.0021677676122635603,0.03042687475681305,0.0019273392390459776
1733859302416486700,4.565486572265625,0.001637889537960291,0.028472114354372025,0.002094852039590478
1733859302426438000,4.57543798828125,0.0015529347583651543,0.018613358959555626,0.002222417388111353
1733859302436388600,4.585388671875,0.0036616255529224873,0.009142093360424042,0.0017592937219887972
1733859302446339800,4.59533984375,0.0038598026148974895,0.00817138608545065,0.005661426577717066
1733859302456290800,4.605290771484375,0.00011965958401560783,0.009781266562640667,0.007099799811840057
1733859302466241800,4.61524169921875,-0.003931847400963306,0.01676672138273716,0.013852247968316078
1733859302476193000,4.625193115234375,-0.004108414985239506,0.023735681548714638,0.013574480079114437
1733859302486143700,4.635143798828125,-0.002520089503377676,0.022737538442015648,0.010952095501124859
1733859302496095000,4.645094970703125,-0.002269752323627472,0.01781894639134407,0.009171505458652973
1733859302506045700,4.655045654296875,-0.00009128497913479805,0.007693874649703503,0.003863523481413722
1733859302515997000,4.664996826171875,0.0003244346007704735,-0.0017278562299907207,-0.006859960500150919
1733859302525948000,4.674947998046875,0.0026461700908839703,-0.014274809509515762,-0.013924846425652504
1733859302535897900,4.68489794921875,0.0008711735717952251,-0.025622539222240448,-0.008860312402248383
1733859302545848800,4.694848876953125,-0.0019523196388036013,-0.01825011894106865,-0.000509114470332861
1733859302555799800,4.7047998046875,-0.0013139599468559027,-0.000005600275471806526,0.005316816736012697
1733859302565750800,4.714750732421875,-0.005658365786075592,0.016013052314519882,0.004969784524291754
1733859302575702000,4.724701904296875,-0.004326252732425928,0.025578593835234642,0.005721861496567726
1733859302585652700,4.73465283203125,-0.0002654418349266052,0.026343729346990585,0.0073439208790659904
1733859302595604000,4.74460400390625,0.0024307426065206528,0.019347606226801872,0.003885539947077632
1733859302605555000,4.754554931640625,0.0021471031941473484,0.012037757784128189,0.00041149859316647053
1733859302615506000,4.764505859375,-0.0011853103060275316,0.006577211897820234,-0.00695720175281167
1733859302625457000,4.774456787109375,-0.002331541385501623,0.009438509121537209,-0.010546165518462658
1733859302635408000,4.784407958984375,-0.0043672616593539715,0.01949913240969181,-0.008442535065114498
1733859302645358800,4.79435888671875,-0.005956636276096106,0.025222264230251312,0.0005749287083745003
1733859302655309800,4.804309814453125,-0.004111065529286861,0.021092234179377556,0.004051685333251953
1733859302665260800,4.8142607421875,-0.0005237837322056293,0.010684603825211525,0.0050119138322770596
1733859302675212000,4.8242119140625,0.0018488261848688126,0.0003312991466373205,0.004333606921136379
1733859302685162800,4.834162841796875,0.0037321909330785275,-0.007105059921741486,-0.00035629700869321823
1733859302695114000,4.844114013671875,0.004776416812092066,-0.011412722989916801,-0.0022135856561362743
1733859302705064700,4.854064697265625,0.005025967955589294,-0.018203241750597954,-0.0032345796935260296
1733859302715016000,4.864015869140625,-0.0017656250856816769,-0.007400394417345524,-0.0031658699735999107
1733859302724966700,4.873966552734375,-0.003586697392165661,0.012366650626063347,-0.0004325601039454341
1733859302734918000,4.88391796875,-0.006189138628542423,0.02471892349421978,0.0038093230687081814
1733859302744868900,4.893868896484375,-0.004939054138958454,0.029755758121609688,0.007792721502482891
1733859302754819800,4.90381982421875,-0.002033012919127941,0.025470465421676636,0.009015911258757114
1733859302764769800,4.913769775390625,-0.004592307843267918,0.019591540098190308,0.003375263884663582
1733859302774721000,4.923720947265625,-0.0025483318604528904,0.008805204182863235,0.00007001450285315514
1733859302784671700,4.933671630859375,-0.00208442285656929,-0.005467219743877649,0.0047208997420966625
1733859302794623000,4.943623046875,-0.0025688516907393932,-0.00792025774717331,0.006949699018150568
1733859302804573700,4.95357373046875,-0.0014702922198921442,0.006399831734597683,0.002139810938388109
1733859302814525000,4.96352490234375,-0.005622959230095148,0.024121571332216263,-0.00033399940002709627
1733859302824475600,4.9734755859375,-0.010977515950798988,0.03064923919737339,0.006488935090601444
1733859302834427000,4.983427001953125,-0.001011700602248311,0.02739272639155388,0.009909233078360558
1733859302844377900,4.9933779296875,0.0012517324648797512,0.022389989346265793,0.004332137759774923
1733859302854328800,5.003328857421875,0.0029641450382769108,0.009087765589356422,0.0030820497777312994
1733859302864279800,5.01327978515625,0.0038038352504372597,-0.012424453161656857,0.002057676436379552
1733859302874230800,5.023230712890625,0.0048552509397268295,-0.02721565030515194,0.0033040358684957027
1733859302884181800,5.033181640625,0.005975115112960339,-0.027546145021915436,-0.00023518374655395746
1733859302894132700,5.0431328125,0.005768720060586929,-0.017439983785152435,-0.0014924620045349002
1733859302904083700,5.053083740234375,0.0021561202593147755,-0.0008495757356286049,0.004860056098550558
1733859302914035000,5.063034912109375,-0.00039252499118447304,0.019872747361660004,0.004914384335279465
1733859302923985700,5.072985595703125,-0.0003147453535348177,0.027388470247387886,0.005304941441863775
1733859302933937000,5.08293701171875,0.0013230987824499607,0.020331893116235733,0.004262846428900957
1733859302943888000,5.092887939453125,0.0004027090035378933,0.005350013263523579,0.0017922682454809546
1733859302953838800,5.1028388671875,0.0019276351667940617,-0.007175365462899208,0.0019342147279530764
1733859302963789800,5.112789794921875,-0.00039012101478874683,-0.012257217429578304,0.0007179754902608693
1733859302973740800,5.12274072265625,-0.004624014720320702,-0.005661632865667343,-0.0069396779872477055
1733859302983692000,5.132692138671875,-0.005608582869172096,0.006058143451809883,-0.004685688763856888
1733859302993641700,5.142641845703125,-0.007121791131794453,0.01566656306385994,0.002220154507085681
1733859303003592700,5.1525927734375,-0.0018505977932363749,0.0250408872961998,0.0010140822269022465
1733859303013544000,5.1625439453125,0.0014621084555983543,0.02794266678392887,-0.0014381564687937498
1733859303023494700,5.17249462890625,0.0003497111611068249,0.02048102766275406,0.0001496670302003622
1733859303033446000,5.18244580078125,0.0007632998749613762,0.011968233622610569,-0.00111267133615911
1733859303043396900,5.19239697265625,0.001385154202580452,0.0006671147421002388,-0.0019560460932552814
1733859303053347800,5.202347900390625,0.00016702432185411453,-0.00597773864865303,0.0015457443660125136
1733859303063298800,5.212298828125,0.001148922834545374,-0.004633115604519844,0.0006555108120664954
1733859303073249800,5.222249755859375,-0.00033765356056392193,-0.007969256490468979,-0.001258503063581884
1733859303083201000,5.232200927734375,-0.0015920056030154228,-0.012095563113689423,-0.002020819578319788
1733859303093151700,5.24215185546875,-0.0008559080306440592,-0.007696820423007011,-0.0044693294912576675
1733859303103103000,5.25210302734375,0.0007782168686389923,-0.0035710418596863747,0.0024814216885715723
1733859303113053700,5.2620537109375,0.00013905856758356094,-0.0008234584238380194,0.0029139190446585417
1733859303123003000,5.2720029296875,0.00033958349376916885,0.00020637502893805504,0.00678499648347497
1733859303132954000,5.2819541015625,0.0028552054427564144,-0.00016726646572351456,0.005910680629312992
1733859303142905000,5.291905029296875,0.004648580681532621,0.0023760562762618065,0.0076389252208173275
1733859303152856000,5.30185595703125,0.003462409134954214,0.007261358667165041,0.0039075701497495174
1733859303162807000,5.31180712890625,0.0029643974266946316,0.009570051915943623,-0.0013569300062954426
1733859303172758000,5.321758056640625,-0.001014897832646966,0.013779444620013237,-0.0008618482388556004
1733859303182709000,5.331708984375,-0.0028378176502883434,0.01502847857773304,0.0015310246963053942
1733859303192659200,5.3416591796875,-0.000801031943410635,0.013323789462447166,0.003883927594870329
1733859303202610000,5.35160986328125,-0.00141544034704566,0.003776873927563429,0.0010456547606736422
1733859303212561200,5.36156103515625,0.0003747362643480301,-0.013249514624476433,0.000783333380240947
1733859303222512000,5.37151220703125,-0.00001407647505402565,-0.0220003854483366,-0.0012215946335345507
1733859303232463000,5.381463134765625,0.00218516169115901,-0.0328650139272213,-0.0031928664539009333
1733859303242414000,5.3914140625,0.005339668598026037,-0.03689359128475189,-0.007420571055263281
1733859303252365000,5.401364990234375,0.005393730942159891,-0.029727021232247353,-0.008253075182437897
1733859303262316000,5.41131591796875,0.005252325441688299,-0.019258392974734306,-0.009317374788224697
1733859303272267000,5.42126708984375,0.0011228276416659355,-0.009225467219948769,-0.0046589733101427555
1733859303282218000,5.431218017578125,0.0008642254397273064,-0.010646806098520756,0.004014546982944012
1733859303292169200,5.441169189453125,0.0011206879280507565,-0.006845676340162754,0.0056073833256959915
1733859303302120000,5.451119873046875,0.005238204728811979,-0.0024280198849737644,0.0030718701891601086
1733859303312071200,5.4610712890625,0.007585248444229364,-0.005175603087991476,0.0006390725029632449
1733859303322022000,5.47102197265625,0.005019021220505238,-0.01260050293058157,0.00013146537821739912
1733859303331973000,5.48097314453125,0.007906154729425907,-0.00836181640625,-0.0031002804171293974
1733859303341923800,5.490923828125,0.005583619233220816,-0.0018948535434901714,-0.009918304160237312
1733859303351875000,5.500875,0.00035396916791796684,0.0014940191758796573,-0.009295656345784664
1733859303361826000,5.510825927734375,-0.0007491165306419134,-0.0009201422799378633,-0.004247148521244526
1733859303371777000,5.520777099609375,-0.0011515202932059765,-0.0030067290645092726,-0.0021003743167966604
1733859303381728000,5.53072802734375,-0.0011552448850125074,-0.011482499539852142,0.0025756864342838526
1733859303391679000,5.540678955078125,0.002821653615683317,-0.017034659162163734,0.0006467589410021901
1733859303401629000,5.55062890625,0.00540517782792449,-0.018384093418717384,-0.0028298585675656796
1733859303411580200,5.560580078125,0.008436920121312141,-0.024907240644097328,-0.00004845310468226671
1733859303421531000,5.57053076171875,0.008650783449411392,-0.02963460423052311,-0.0031111075077205896
1733859303431482000,5.580482177734375,0.0057996041141450405,-0.023055262863636017,-0.005521534942090511
1733859303441432800,5.590432861328125,0.001990477554500103,-0.014809058979153633,-0.005983033683151007
1733859303451384000,5.600384033203125,-0.0025922898203134537,-0.015589898452162743,-0.006360136903822422
1733859303461335000,5.6103349609375,-0.0017478130757808685,-0.01996655762195587,-0.0017593525117263198
1733859303471286000,5.6202861328125,0.004224591422826052,-0.025475841015577316,-0.0014799869386479259
1733859303481237000,5.630237060546875,0.005735673476010561,-0.03829202800989151,-0.006881975568830967
1733859303491188000,5.64018798828125,0.005962574388831854,-0.05681085214018822,-0.008904114365577698
1733859303501139000,5.650138916015625,0.010148530825972557,-0.07381512969732285,-0.009603689424693584
1733859303511090000,5.66008984375,0.010056118480861187,-0.07605058699846268,-0.010194378904998302
1733859303521041200,5.670041259765625,0.006120225880295038,-0.06453511118888855,-0.00533236563205719
1733859303530992000,5.6799921875,0.00363416550680995,-0.04834868013858795,-0.005731573794037104
1733859303540943000,5.689943115234375,-0.000172819709405303,-0.03509996831417084,-0.0068372017703950405
1733859303550894000,5.69989404296875,0.0002908366732299328,-0.0304865762591362,-0.003519968595355749
1733859303560845000,5.709844970703125,0.007733045611530542,-0.030782440677285194,-0.0037062675692141056
1733859303570796000,5.719796142578125,0.007275514770299196,-0.03220297396183014,-0.00886454526335001
1733859303580746000,5.72974609375,0.009391124360263348,-0.028169892728328705,-0.009818914346396923
1733859303590697000,5.739697021484375,0.012381056323647499,-0.025830838829278946,-0.008652184158563614
1733859303600648000,5.74964794921875,0.0074560814537107944,-0.022403597831726074,0.0002911812625825405
1733859303610599200,5.75959912109375,0.0056829494424164295,-0.012599969282746315,0.005824430845677853
1733859303620550100,5.769550048828125,0.00399130629375577,0.001531026093289256,0.00861503928899765
1733859303630501000,5.779501220703125,0.0016756877303123474,0.00730981957167387,0.013447345234453678
1733859303640452000,5.7894521484375,0.0011276057921350002,0.01659812033176422,0.01664678566157818
1733859303650403000,5.799403076171875,0.0004564891569316387,0.02008233405649662,0.013658186420798302
1733859303660354000,5.80935400390625,0.0017859344370663166,0.018045803532004356,0.010074479505419731
1733859303670305000,5.819304931640625,0.007921857759356499,0.009928220883011818,0.0028676989022642374
1733859303680256300,5.82925634765625,0.009946662001311779,-0.0035968997981399298,-0.0019965614192187786
1733859303690207000,5.83920703125,0.008723738603293896,-0.011505954898893833,-0.006762820761650801
1733859303700158200,5.849158203125,0.0016834074631333351,-0.008165815845131874,-0.004004164133220911
1733859303710109000,5.85910888671875,-0.0014484701678156853,0.007289573550224304,0.001755987061187625
1733859303720060200,5.86906005859375,-0.0037792669609189034,0.014088626950979233,0.004519171547144651
1733859303730011000,5.879010986328125,-0.005175562109798193,0.011560754850506783,0.009165322408080101
1733859303739962000,5.888962158203125,-0.0027339779771864414,0.0037821903824806213,0.010498612187802792
1733859303749913000,5.8989130859375,-0.0008671020623296499,-0.0016005910001695156,0.006988299544900656
1733859303759864000,5.908864013671875,0.006015300285071135,0.0009528358932584524,0.00532526383176446
1733859303769814000,5.91881396484375,0.009283265098929405,-0.002460537478327751,-0.002255690284073353
1733859303779765200,5.92876513671875,0.006476559676229954,-0.005526105407625437,-0.0029003662057220936
1733859303789716000,5.938716064453125,0.0057287439703941345,-0.0044520520605146885,0.003580702468752861
1733859303799667200,5.948667236328125,0.004813682287931442,0.0027028005570173264,0.007586516439914703
1733859303809618000,5.958617919921875,0.0019281473942101002,0.008776405826210976,0.005503391847014427
1733859303819569200,5.968569091796875,0.0008405107073485851,0.004984854720532894,0.00438402546569705
1733859303829520000,5.978519775390625,0.002475691493600607,0.0006114116404205561,0.001584510668180883
1733859303839471000,5.98847119140625,0.0013430514372885227,-0.004274148028343916,-0.0002101917052641511
1733859303849422000,5.998422119140625,0.0014644917100667953,-0.00372500391677022,-0.003265902865678072
1733859303859373000,6.008373046875,0.0018431921489536762,-0.005127160344272852,-0.0026538330130279064
1733859303869324000,6.018323974609375,-0.0017177204135805368,-0.0047884066589176655,-0.007074147928506136
1733859303879275000,6.02827490234375,-0.006697832141071558,-0.0027260559145361185,-0.0020428660791367292
1733859303889226000,6.03822607421875,-0.007352436892688274,-0.00009538535960018635,0.0024935624096542597
1733859303899177000,6.048177001953125,-0.007317019626498222,-0.003489601891487837,0.002919325139373541
1733859303909128000,6.0581279296875,-0.002886851318180561,-0.011115830391645432,-0.0009971196996048093
1733859303919079200,6.0680791015625,0.001246386207640171,-0.017888210713863373,-0.005459767300635576
1733859303929028900,6.07802880859375,0.004404629115015268,-0.0045969076454639435,-0.0051737441681325436
1733859303938980000,6.08797998046875,0.0033073993399739265,0.0009033035021275282,-0.003231015522032976
1733859303948931000,6.09793115234375,0.0027995342388749123,0.007171585690230131,0.00002070434857159853
1733859303958882000,6.107882080078125,0.0029460047371685505,0.007692220155149698,0.0053705740720033646
1733859303968833000,6.1178330078125,-0.0012300978414714336,0.011728240177035332,0.006324784830212593
1733859303978784000,6.127783935546875,-0.002208272460848093,0.014971189200878143,0.009112357161939144
1733859303988735000,6.13773486328125,-0.005099932663142681,0.010068044066429138,0.008285179734230042
1733859303998686000,6.14768603515625,-0.003805371467024088,0.0003224681131541729,0.005774996243417263
1733859304008637000,6.157636962890625,-0.00016403128392994404,-0.008183668367564678,-0.0001697116531431675
1733859304018588200,6.167588134765625,-0.000828225864097476,-0.0097799738869071,-0.004720333032310009
1733859304028539000,6.177538818359375,0.003262123093008995,-0.00016729370690882206,-0.00761225912719965
1733859304038490000,6.187489990234375,-0.00028440379537642,0.002305464120581746,-0.006499167997390032
1733859304048440800,6.19744091796875,-0.003723876317963004,0.001522494712844491,0.002656513825058937
1733859304058392000,6.20739208984375,-0.0014868280850350857,0.00629910733550787,0.008528894744813442
1733859304068343000,6.217343017578125,-0.004343068227171898,0.008506068959832191,0.010077256709337234
1733859304078294000,6.2272939453125,-0.006302621215581894,0.011694949120283127,0.012819778174161911
1733859304088245200,6.237245361328125,-0.0004255573730915785,0.009167076088488102,0.010956097394227982
1733859304098195200,6.2471953125,0.000761155504733324,0.009122096002101898,0.003961846232414246
1733859304108146000,6.25714599609375,-0.0011571194045245647,0.0020719096064567566,-0.003341606818139553
1733859304118097200,6.26709716796875,-0.0006580397021025419,-0.0019284188747406006,-0.003224613144993782
1733859304128048600,6.277048583984375,-0.0036857875529676676,0.009910663589835167,0.001136046601459384
1733859304137999600,6.28699951171875,-0.003580869175493717,0.020143570378422737,0.0019503532676026225
1733859304147950600,6.29695068359375,-0.011318683624267578,0.023749224841594696,0.0035032425075769424
1733859304157901600,6.306901611328125,-0.01171602588146925,0.02107062004506588,0.007126892451196909
1733859304167852500,6.3168525390625,-0.00732473935931921,0.016696378588676453,0.012242825701832771
1733859304177803500,6.326803466796875,-0.0021089401561766863,0.015677182003855705,0.006801072508096695
1733859304187754800,6.336754638671875,-0.0017323691863566637,0.009206498973071575,-0.00035244436003267765
1733859304197705500,6.34670556640625,-0.0006223649252206087,0.003302528988569975,-0.000782317016273737
1733859304207656700,6.35665673828125,-0.0030250689014792442,0.004030637443065643,-0.002415900118649006
1733859304217607400,6.366607421875,-0.003083126852288842,0.0017293841810896993,-0.0008937864331528544
1733859304227558700,6.37655859375,-0.004350525327026844,0.0025802641175687313,0.003337710164487362
1733859304237509400,6.38650927734375,-0.004164101555943489,0.002974435919895768,-0.0001662893919274211
1733859304247460600,6.396460693359375,-0.0032405173406004906,-0.0030685430392622948,-0.00034631905145943165
1733859304257410600,6.40641064453125,-0.0015566004440188408,-0.014691377989947796,-0.0007606691215187311
1733859304267361500,6.416361572265625,-0.0017174554523080587,-0.021647822111845016,-0.003532753325998783
1733859304277312500,6.4263125,-0.000010897871106863022,-0.024834545329213142,-0.008153751492500305
1733859304287263700,6.436263671875,0.00212895218282938,-0.018217921257019043,-0.006395266856998205
1733859304297214500,6.44621435546875,-0.0022029520478099585,-0.008305678144097328,-0.0054844277910888195
1733859304307165700,6.456165771484375,-0.0038818088360130787,-0.004336236976087093,-0.0025682663545012474
1733859304317116400,6.466116455078125,-0.0036921913269907236,-0.0026184788439422846,-0.0024952241219580173
1733859304327067600,6.476067626953125,-0.001990431221202016,-0.00043255602940917015,0.00020974862854927778
1733859304337018400,6.486018310546875,-0.004501792602241039,0.0010702450526878238,0.0014211878878995776
1733859304346969600,6.495969482421875,0.0012626196257770061,-0.0005154011305421591,-0.0005466219736263156
1733859304356920600,6.505920654296875,0.004263469483703375,-0.004531710874289274,-0.00080715655349195
1733859304366871600,6.51587158203125,0.0008743307553231716,-0.006764505058526993,0.004892008379101753
1733859304376822500,6.525822509765625,-0.0017952178604900837,0.003601550590246916,0.0062458631582558155
1733859304386773500,6.5357734375,-0.001829306362196803,0.020096370950341225,0.0028167767450213432
1733859304396724700,6.545724853515625,-0.0051843589171767235,0.02354571223258972,0.0037730704061686993
1733859304406674700,6.5556748046875,-0.006332447752356529,0.02052169293165207,0.00692358985543251
1733859304416625400,6.56562548828125,-0.004017362371087074,0.014095261693000793,0.006665593478828669
1733859304426576600,6.57557666015625,-0.0014293023850768805,0.006063966080546379,0.0029933606274425983
1733859304436527600,6.585527587890625,-0.000434342073276639,0.0035622036084532738,-0.0008701229235157371
1733859304446478600,6.595478515625,-0.0011382156517356634,0.008133785799145699,-0.004322112537920475
1733859304456429600,6.6054296875,-0.002997106174007058,0.0032873458694666624,-0.00084056390915066
1733859304466380500,6.615380615234375,-0.005310061387717724,-0.0025353895034641027,0.0006726441788487136
1733859304476331500,6.62533154296875,-0.00518488883972168,-0.007444108836352825,-0.0012703960528597236
1733859304486282500,6.635282470703125,-0.005592884961515665,-0.014522257260978222,-0.000793157727457583
1733859304496233700,6.645233642578125,-0.005313255358487368,-0.01501974556595087,0.003621828742325306
1733859304506184700,6.655184814453125,-0.0011648496147245169,-0.0041868058033287525,0.0017706656362861395
1733859304516135700,6.6651357421875,-0.00006975466385483742,0.003010931657627225,-0.004824992269277573
1733859304526086700,6.675086669921875,0.0009177457541227341,0.00983022153377533,-0.0009684688411653042
1733859304536037600,6.68503759765625,-0.00003247382119297981,0.016405507922172546,-0.0009334560018032789
1733859304545988600,6.694988525390625,-0.004735882859677076,0.016758643090724945,0.0022748541086912155
1733859304555938600,6.7049384765625,-0.005641625728458166,0.016362125054001808,0.0007586665451526642
1733859304565889500,6.7148896484375,-0.004638945683836937,0.011219294741749763,-0.00021072407253086567
1733859304575840500,6.724840576171875,-0.006633120588958263,0.0013743863673880696,-0.0016938385087996721
1733859304585791500,6.73479150390625,-0.004846938420087099,-0.005318670067936182,-0.0026112974155694246
1733859304595742700,6.74474267578125,-0.0015842998400330544,-0.012857540510594845,-0.008536984212696552
1733859304605693700,6.754693603515625,-0.002447962760925293,-0.010704907588660717,-0.008052288554608822
1733859304615644700,6.764644775390625,-0.0027212006971240044,-0.0066259936429560184,-0.005870779976248741
1733859304625595600,6.774595703125,0.0023920685052871704,-0.0038730837404727936,-0.003528264118358493
1733859304635546600,6.784546630859375,0.0028876811265945435,-0.0017950274050235748,-0.005305429920554161
1733859304645497600,6.79449755859375,0.0054901218973100185,-0.006649437826126814,-0.003415650688111782
1733859304655448600,6.804448486328125,0.003298340365290642,-0.007056104019284248,-0.001307454309426248
1733859304665399600,6.814399658203125,-0.0001238216646015644,-0.00718420185148716,-0.0015015987446531653
1733859304675350800,6.824350830078125,0.001364086288958788,-0.008668936789035797,-0.0022430168464779854
1733859304685301500,6.834301513671875,0.00025461334735155106,-0.01181812398135662,-0.006239888723939657
1733859304695251500,6.84425146484375,-0.0007752287201583385,-0.020455574616789818,-0.0094179417937994
1733859304705202700,6.85420263671875,-0.0016679202672094107,-0.023511020466685295,-0.006809376645833254
1733859304715153700,6.864153564453125,-0.004487145226448774,-0.01173475757241249,-0.004035822115838528
1733859304725104600,6.874104736328125,-0.0026437053456902504,0.010006756521761417,-0.001731388969346881
1733859304735055600,6.8840556640625,-0.0055713169276714325,0.023088449612259865,0.007238336373120546
1733859304745006600,6.894006591796875,-0.002650361740961671,0.02853328175842762,0.008623712696135044
1733859304754957600,6.90395751953125,-0.0008087872993201017,0.031190067529678345,0.006483741104602814
1733859304764908500,6.913908447265625,-0.003456768346950412,0.02942226454615593,0.003347868798300624
1733859304774859800,6.92385986328125,-0.004434680566191673,0.017693426460027695,0.002285460941493511
1733859304784810500,6.933810546875,-0.002630921546369791,0.008971573784947395,0.0043227793648839
1733859304794761700,6.94376171875,-0.001638894435018301,0.005141158122569323,0.0028099101036787033
1733859304804712400,6.95371240234375,-0.0033571659587323666,0.0065249367617070675,0.0010199997341260314
1733859304814663700,6.96366357421875,-0.003451440017670393,0.017187945544719696,0.005151827819645405
1733859304824614400,6.973614501953125,-0.0030426448211073875,0.023096168413758278,0.005190177354961634
1733859304834564600,6.983564697265625,-0.002821603324264288,0.017572246491909027,0.003990001045167446
1733859304844515600,6.993515625,0.0002703266218304634,0.0021123311016708612,0.002144163940101862
1733859304854466600,7.003466552734375,-0.0029899151995778084,-0.019847027957439423,-0.0016679236432537436
1733859304864417500,7.01341748046875,0.0015166858211159706,-0.03646115958690643,-0.0038061756640672684
1733859304874368800,7.02336865234375,-0.001228501321747899,-0.044084712862968445,-0.005997390951961279
1733859304884319500,7.033319580078125,-0.0012178488541394472,-0.038128286600112915,-0.002508650068193674
1733859304894270700,7.043270751953125,-0.0006077184807509184,-0.02395307645201683,0.00465654581785202
1733859304904221400,7.053221435546875,-0.0014119932893663645,-0.0016629518941044807,0.005710092838853598
1733859304914172700,7.063172607421875,0.0019766129553318024,0.023508980870246887,0.007894379086792469
1733859304924123600,7.07312353515625,0.00027698371559381485,0.03346547484397888,0.011541844345629215
1733859304934074600,7.08307470703125,0.00027085933834314346,0.02542431280016899,0.011930976063013077
1733859304944025600,7.093025634765625,0.0018325368873775005,0.010721268132328987,0.007252600509673357
1733859304953976600,7.1029765625,0.005268279928714037,-0.003126628929749131,0.002434748224914074
1733859304963926500,7.112926513671875,0.0013321279548108578,-0.014475955627858639,-0.0038524423725903034
1733859304973877800,7.122877685546875,-0.0018631326965987682,-0.014651178382337093,-0.004454625304788351
1733859304983828500,7.132828369140625,-0.0036104326136410236,-0.0014216599520295858,0.00007940665818750858
1733859304993779700,7.14277978515625,-0.007013152353465557,0.017386093735694885,-0.00046737061347812414
1733859305003730400,7.15273046875,-0.004519368521869183,0.029078969731926918,-0.00279230996966362
1733859305013681700,7.162681640625,-0.004447198007255793,0.024785444140434265,0.0037334919907152653
1733859305023632600,7.172632568359375,-0.00309990462847054,0.009179053828120232,0.006484536919742823
1733859305033583600,7.18258349609375,0.0016642240807414055,-0.00936987716704607,0.0020113056525588036
1733859305043534600,7.19253466796875,0.004215532448142767,-0.020272858440876007,-0.00174854532815516
1733859305053485600,7.202485595703125,0.001149968709796667,-0.023189296945929527,-0.0016636238433420658
1733859305063436500,7.2124365234375,0.0006841816939413548,-0.006936557590961456,-0.002413569949567318
1733859305073387500,7.222387451171875,0.0006397119723260403,0.0068013304844498634,0.002004670910537243
1733859305083338500,7.23233837890625,-0.0009454013779759407,0.01957118883728981,0.006084633991122246
1733859305093289700,7.242289794921875,-0.0021858992986381054,0.026727359741926193,0.00629411730915308
1733859305103239400,7.252239501953125,-0.00002367887645959854,0.01827581785619259,0.004618988372385502
1733859305113190700,7.262190673828125,0.0014562332071363926,0.0010246873134747148,0.0008964018779806793
1733859305123140600,7.272140625,0.00694500794634223,-0.021696871146559715,-0.005094911903142929
1733859305133091600,7.282091552734375,0.004775064531713724,-0.03224405273795128,-0.010125662200152874
1733859305143042600,7.29204248046875,0.0022605075500905514,-0.037026289850473404,-0.012743815779685974
1733859305152993800,7.301993896484375,-0.003154225181788206,-0.034753575921058655,-0.010101674124598503
1733859305162944500,7.311944580078125,-0.004337467718869448,-0.023204512894153595,-0.006559137254953384
1733859305172895700,7.321895751953125,-0.004853860475122929,-0.008504322730004787,-0.004496285226196051
1733859305182846500,7.331846435546875,-0.0019454220309853554,-0.0005555853713303804,-0.003916248679161072
1733859305192797700,7.341797607421875,0.0024834168143570423,-0.00469499547034502,-0.0025263233110308647
1733859305202748400,7.35174853515625,0.005448314361274242,-0.013259189203381538,-0.0028885132633149624
1733859305212699600,7.36169970703125,0.0066121225245296955,-0.0214601531624794,-0.011149655096232891
1733859305222649600,7.371649658203125,0.005351648200303316,-0.030955122783780098,-0.01541737001389265
1733859305232600600,7.3816005859375,0.0005867127329111099,-0.03691710904240608,-0.011882352642714977
1733859305242551600,7.391551513671875,-0.0038740818854421377,-0.03178040310740471,-0.0008366262773051858
1733859305252502800,7.401502685546875,-0.0036935191601514816,-0.008893734775483608,0.0037550085689872503
1733859305262453500,7.41145361328125,-0.002432245993986726,0.022307859733700752,0.0015943859471008182
1733859305272404700,7.42140478515625,-0.003213621210306883,0.03205958381295204,0.0022540357895195484
1733859305282355500,7.43135546875,0.000862613320350647,0.021794162690639496,0.002281732624396682
1733859305292306700,7.441306640625,0.004126050043851137,0.0090328399091959,0.00132561509963125
1733859305302257700,7.451257568359375,0.006360708270221949,-0.002393186092376709,-0.0021175858564674854
1733859305312208600,7.461208740234375,0.004384913016110659,-0.008797060698270798,-0.004920011851936579
1733859305322159600,7.47115966796875,-0.00039785774424672127,-0.011242374777793884,0.0022348365746438503
1733859305332110600,7.481110595703125,-0.006440571043640375,-0.0031828468199819326,0.005719770677387714
1733859305342061600,7.4910615234375,-0.010443301871418953,0.010198738425970078,0.011238107457756996
1733859305352011800,7.50101171875,-0.003640522249042988,0.017505647614598274,0.01064593717455864
1733859305361962500,7.51096240234375,-0.0018021420110017061,0.023459143936634064,0.001465755281969905
1733859305371913700,7.520913818359375,0.0021704966202378273,0.020733127370476723,-0.003258041338995099
1733859305381864400,7.530864501953125,0.005357235204428434,0.0011037656804546714,-0.006947850808501244
1733859305391815700,7.540815673828125,0.003568388521671295,-0.01585097797214985,-0.011360028758645058
1733859305401766700,7.5507666015625,0.0018413285724818707,-0.020955191925168037,-0.0049745673313736916
1733859305411717600,7.560717529296875,-0.0030085579492151737,-0.012864746153354645,0.001667036209255457
1733859305421668600,7.570668701171875,-0.009938102215528488,-0.00008503580465912819,0.007914279587566853
1733859305431619600,7.58061962890625,-0.011823086068034172,0.009655722416937351,0.008046003058552742
1733859305441570600,7.590570556640625,-0.007277070078998804,0.018120046705007553,0.008272637613117695
1733859305451521500,7.600521484375,-0.00020184251479804516,0.017095765098929405,0.0030893883667886257
1733859305461472500,7.610472412109375,0.0074392990209162235,0.007832758128643036,-0.0034745046868920326
1733859305471422700,7.620422607421875,0.007786314003169537,-0.007363520096987486,-0.0073949298821389675
1733859305481373400,7.63037353515625,0.0077972328290343285,-0.023511331528425217,-0.0071488539688289165
1733859305491324700,7.64032470703125,0.005853122565895319,-0.024057801812887192,-0.002220301888883114
1733859305501275600,7.650275634765625,0.0022445390932261944,-0.004591959994286299,-0.0002769933780655265
1733859305511226600,7.6602265625,-0.0017422176897525787,0.008834649808704853,0.0020148702897131443
1733859305521177600,7.670177490234375,-0.004049580544233322,0.0045171333476901054,0.0043107811361551285
1733859305531128600,7.680128662109375,-0.00010970188304781914,-0.006587975658476353,0.001776398392394185
1733859305541079600,7.69007958984375,0.005387861747294664,-0.013030694797635078,-0.004454599693417549
1733859305551030500,7.700030517578125,0.007957017049193382,-0.016398010775446892,-0.007333198096603155
1733859305560981500,7.7099814453125,0.006256854627281427,-0.015652058646082878,-0.00942937284708023
1733859305570932700,7.7199326171875,0.0004263962619006634,-0.011014963500201702,-0.010709554888308048
1733859305580883500,7.729883544921875,-0.004267158918082714,0.001812418457120657,0.000775061605963856
1733859305590833700,7.739833740234375,-0.005294079426676035,0.024555036798119545,0.009965194389224052
1733859305600784600,7.74978466796875,-0.007152167148888111,0.04691413789987564,0.012329015880823135
1733859305610735600,7.759735595703125,-0.007180393673479557,0.04324775189161301,0.0103587806224823
1733859305620686600,7.7696865234375,-0.004975296091288328,0.022360848262906075,0.006063101813197136
1733859305630637600,7.779637451171875,-0.0011531261261552572,0.0007969613652676344,0.0016457957681268454
1733859305640588500,7.789588623046875,0.004017401486635208,-0.014752703718841076,-0.006384167820215225
1733859305650539500,7.79953955078125,0.003801418002694845,-0.019345588982105255,-0.005378597415983677
1733859305660490500,7.809490478515625,0.0009382539428770542,-0.011796060018241405,-0.002382807433605194
1733859305670441700,7.819441650390625,-0.003118011401966214,0.0036351140588521957,-0.002940602134913206
1733859305680392400,7.829392333984375,-0.004559846594929695,0.01768648438155651,-0.0005996834952384233
1733859305690343700,7.83934375,-0.0031579420901834965,0.019492583349347115,0.0038755033165216446
1733859305700294400,7.84929443359375,-0.0010774806141853333,0.010959282517433167,0.003762851469218731
1733859305710244600,7.85924462890625,0.0008093654178082943,0.002370064612478018,0.0017844941467046738
1733859305720195600,7.869195556640625,0.0041487026028335094,-0.007937700487673283,-0.003513065865263343
1733859305730146600,7.879146484375,-0.000400785356760025,-0.010771535336971283,-0.003908918239176273
1733859305740097500,7.88909765625,-0.002239964436739683,-0.0063626728951931,0.004269117023795843
1733859305750048500,7.899048583984375,-0.00034219585359096527,0.0017378643387928605,0.006527211517095566
1733859305759999500,7.90899951171875,-0.0019757787231355906,0.015645423904061317,0.003914916887879372
1733859305769950700,7.91895068359375,-0.003115059109404683,0.021008441224694252,0.0003742228727787733
1733859305782389800,7.9313896484375,-0.002147532533854246,0.012058354914188385,0.0034067644737660885
1733859305792340500,7.941340576171875,0.0011204169131815434,0.0009562100749462843,0.00279830489307642
1733859305802291700,7.951291748046875,0.005329809617251158,-0.011745736934244633,-0.0034681130200624466
1733859305812242400,7.961242431640625,0.004212087951600552,-0.02361013926565647,-0.007530936971306801
1733859305822192600,7.971192626953125,0.002710331231355667,-0.026106853038072586,-0.006365004926919937
1733859305832143600,7.9811435546875,0.0013465182855725288,-0.020926449447870255,-0.0061989580281078815
1733859305842094600,7.991094482421875,0.0011723474599421024,-0.005944038741290569,-0.004827164113521576
1733859305852045600,8.001045654296876,-0.0008311353158205748,0.0004536376800388098,0.0037730932235717773
1733859305861996500,8.01099658203125,0.00013372767716646194,0.004896323196589947,0.004214112646877766
1733859305871947500,8.020947509765625,0.003964416217058897,0.006782913580536842,0.0010725262109190226
1733859305881898800,8.030898681640625,0.005606521386653185,0.007743781432509422,-0.0022910460829734802
1733859305891849500,8.040849365234376,0.002090071327984333,-0.0025178752839565277,-0.003960424568504095
1733859305901800700,8.05080078125,-0.001202927203848958,-0.008017568849027157,-0.0043662902899086475
1733859305911751400,8.06075146484375,-0.0019342168234288692,-0.009005110710859299,-0.0005542772123590112
1733859305921702700,8.07070263671875,0.0013657063245773315,-0.0034561490174382925,0.0012441554572433233
1733859305931652600,8.080652587890626,-0.0009802640415728092,-0.003978414461016655,0.0021052155643701553
1733859305941603600,8.090603515625,-0.0014692205004394054,-0.00706395274028182,0.002871406963095069
1733859305951554600,8.100554443359375,-0.001399198779836297,-0.0028795429971069098,0.0017772889696061611
1733859305961505500,8.110505615234375,0.003851489629596472,0.0032087096478790045,-0.002766862977296114
1733859305971456500,8.12045654296875,0.00467281648889184,0.002928786678239703,-0.0030359323136508465
1733859305981407700,8.13040771484375,0.005679757799953222,-0.0006694102194160223,-0.0006188472034409642
1733859305991358500,8.1403583984375,0.004535389598459005,-0.0014110759366303682,-0.004590062890201807
1733859306001309700,8.150309814453125,0.0019313502125442028,-0.0044622598215937614,-0.0034851175732910633
1733859306011260400,8.160260498046876,-0.002214123960584402,-0.0051645440980792046,0.00256041856482625
1733859306021211600,8.170211669921875,-0.00040131015703082085,-0.006187197752296925,0.0051420871168375015
1733859306031162600,8.18016259765625,0.0022802501916885376,-0.003682816168293357,0.0038255564868450165
1733859306041112600,8.190112548828125,0.005315721035003662,-0.003283874364569783,0.0045989383943378925
1733859306051063600,8.2000634765625,0.00475322874262929,-0.004076607525348663,0.0011890133609995246
1733859306061014500,8.2100146484375,0.008358616381883621,-0.006223381496965885,-0.0010120893130078912
1733859306070965500,8.219965576171875,0.008251577615737915,-0.007159545551985502,0.002269287593662739
1733859306080916700,8.229916748046875,0.0046350047923624516,0.00011834083124995232,0.0022703527938574553
1733859306090867500,8.239867431640626,0.001738536637276411,-0.0008302384521812201,0.0069059645757079124
1733859306100818700,8.249818603515624,0.0023167086765170097,0.0010094732278957963,0.010021329857409
1733859306110769400,8.259769287109375,0.001433339435607195,0.01139100268483162,0.013208149001002312
1733859306120720600,8.269720703125,0.0032608001492917538,0.019684620201587677,0.009634719230234623
1733859306130672000,8.279672119140624,0.0036847670562565327,0.021573366597294807,0.0015663047088310122
1733859306140623400,8.289623291015625,0.005026201251894236,0.010536693967878819,-0.0005991116631776094
1733859306150573300,8.2995732421875,0.004616625141352415,-0.008289781399071217,-0.0007993691833689809
1733859306160524300,8.309524169921875,0.014005599543452263,-0.013562041334807873,-0.000989518710412085
1733859306170475300,8.319475341796876,0.01727195829153061,-0.005902240052819252,0.00019286840688437223
1733859306180426200,8.32942626953125,0.015927329659461975,0.010786192491650581,0.01446075364947319
1733859306190377200,8.339377197265625,0.01177254505455494,0.015379844233393669,0.0347549133002758
1733859306200328400,8.349328369140625,0.005023563280701637,0.01140986941754818,0.042890071868896484
1733859306210279200,8.359279052734376,0.0027487012557685375,0.007735484279692173,0.04682792350649834
1733859306220230400,8.36923046875,0.0026672082021832466,-0.0011488210875540972,0.039835795760154724
1733859306230181000,8.37918115234375,0.002463987097144127,-0.016820140182971954,0.032900333404541016
1733859306240132400,8.38913232421875,0.0021036616526544094,-0.023641295731067657,0.03241004794836044
1733859306250083300,8.399083251953124,0.005995596293359995,-0.01495057437568903,0.03338983654975891
1733859306260033300,8.409033203125,0.005760439205914736,-0.00018654181621968746,0.02376517280936241
1733859306269984300,8.418984375,0.005845405627042055,0.008421558886766434,0.014030096121132374
1733859306279935200,8.428935302734375,0.009843876585364342,-0.0007287967018783092,0.008900848217308521
1733859306289886200,8.43888623046875,0.00741214444860816,-0.009772893972694874,0.009064938873052597
1733859306299837400,8.44883740234375,0.0005063014104962349,-0.004765884950757027,0.024507544934749603
1733859306309788200,8.4587880859375,0.0003238748759031296,0.004271818790584803,0.03457482531666756
1733859306319739400,8.468739501953126,-0.00020689330995082855,0.01777005009353161,0.02936648204922676
1733859306329690000,8.478690185546874,-0.0031502239871770144,0.024888161569833755,0.025412244722247124
1733859306339641300,8.488641357421875,-0.000326208071783185,0.014057883992791176,0.019714146852493286
1733859306349592300,8.49859228515625,0.0039383103139698505,-0.00901280902326107,0.015320115722715855
1733859306359543300,8.508543212890626,0.005510374438017607,-0.02273261733353138,0.01586313545703888
1733859306369493200,8.5184931640625,0.013968594372272491,-0.028280295431613922,0.01678091287612915
1733859306379444500,8.528444580078125,0.011548313312232494,-0.023992076516151428,0.012241021730005741
1733859306389395200,8.538395263671875,0.005863519851118326,-0.015449964441359043,0.013443071395158768
1733859306399346400,8.548346435546875,0.0006913947872817516,-0.008169946260750294,0.017649002373218536
1733859306409297200,8.558297119140626,0.004467745777219534,-0.009095365181565285,0.014056938700377941
1733859306419248400,8.568248291015625,0.003460538573563099,-0.020068388432264328,0.019565686583518982
1733859306429199000,8.57819921875,0.0031276606023311615,-0.030188709497451782,0.025420617312192917
1733859306439150300,8.588150390625,0.011013280600309372,-0.024240806698799133,0.019628774374723434
1733859306449101300,8.598101318359374,0.014520131051540375,-0.013748484663665295,0.011227566748857498
1733859306459052300,8.60805224609375,0.005604400299489498,-0.012632886879146099,0.013390319421887398
1733859306469002200,8.618002197265625,-0.002157386392354965,-0.01236656028777361,0.016756657510995865
1733859306478953500,8.627953369140625,-0.001698257401585579,-0.010950291529297829,0.02153223752975464
1733859306488904200,8.637904296875,0.004704010672867298,-0.008880543522536755,0.02144583687186241
1733859306498855400,8.64785546875,0.009180517867207527,-0.007820072583854198,0.01877734810113907
1733859306508806100,8.65780615234375,0.010228979401290417,-0.015614829026162624,0.01786096766591072
1733859306518757400,8.66775732421875,0.012298256158828735,-0.029292024672031403,0.02585098333656788
1733859306528708000,8.6777080078125,0.017342275008559227,-0.037445537745952606,0.027439499273896217
1733859306538659300,8.687659423828125,0.015483388677239418,-0.039552100002765656,0.03277008235454559
1733859306548610300,8.6976103515625,0.01128254272043705,-0.03826265037059784,0.034620512276887894
1733859306558561300,8.707561279296876,0.0062339878641068935,-0.04260146990418434,0.0345989391207695
1733859306568512300,8.71751220703125,0.0032853162847459316,-0.052454326301813126,0.03265443816781044
1733859306578462500,8.72746240234375,-0.003156870137900114,-0.06241374835371971,0.0166509710252285
1733859306588413200,8.7374130859375,-0.010240331292152405,-0.08085537701845169,0.011568555608391762
1733859306598364400,8.747364501953125,-0.01481697428971529,-0.0943078026175499,0.01401759684085846
1733859306608315100,8.757315185546876,-0.015918735414743423,-0.09484094381332397,0.019221844151616096
1733859306618266400,8.767266357421875,-0.011225446127355099,-0.08567514270544052,0.012969007715582848
1733859306628217300,8.77721728515625,-0.004481801763176918,-0.07806751877069473,0.0006348479073494673
1733859306638168300,8.787168212890625,0.00032413890585303307,-0.06940186023712158,-0.00528482673689723
1733859306648119300,8.797119384765624,0.0016304166056215763,-0.057064495980739594,-0.007632258348166943
1733859306658070300,8.8070703125,-0.0017826908733695745,-0.0466424822807312,-0.006092417985200882
1733859306668021200,8.817021240234375,-0.002090263646095991,-0.05270522087812424,-0.005669678095728159
1733859306677971500,8.826971435546875,0.0019984878599643707,-0.06858858466148376,-0.005633991677314043
1733859306687922200,8.836922119140626,0.0029657515697181225,-0.07234471291303635,-0.004962751176208258
1733859306697873400,8.846873291015624,0.003046711441129446,-0.0539419986307621,-0.002786682453006506
1733859306707824000,8.85682421875,0.00019791396334767342,-0.023396309465169907,-0.006492164451628923
1733859306717775400,8.866775390625,-0.006242674775421619,-0.0003573044668883085,-0.008775558322668076
1733859306727726300,8.876726318359376,-0.007559340447187424,0.008507290855050087,-0.010282334871590137
1733859306737677300,8.88667724609375,-0.007761208340525627,0.007272649556398392,-0.012607274577021599
1733859306747628300,8.896628173828125,-0.00723549909889698,-0.00046170526184141636,-0.011530517600476742
1733859306757579300,8.906579345703125,-0.003476979909464717,-0.01109996810555458,-0.006630834192037582
1733859306767530200,8.9165302734375,0.003052816726267338,-0.014160453341901302,-0.009600849822163582
1733859306777480400,8.92648046875,0.00380169739946723,-0.011121787130832672,-0.00598001666367054
1733859306787431200,8.93643115234375,0.003474127035588026,-0.004750968888401985,0.00108846474904567
1733859306797382400,8.94638232421875,0.0006674216128885746,0.00725322961807251,0.005617969203740358
1733859306807333000,8.9563330078125,-0.004868745803833008,0.011771786957979202,0.007678678724914789
1733859306817284400,8.966284423828125,-0.005094049032777548,0.006385276559740305,0.009360198862850666
1733859306827235300,8.9762353515625,-0.005314305890351534,0.007152566686272621,0.007282630540430546
1733859306837186300,8.986186279296875,-0.0065007442608475685,0.010373926721513271,0.00896202027797699
1733859306847137300,8.99613720703125,-0.0047691334038972855,0.012018375098705292,0.013345150277018547
1733859306857088300,9.006088134765625,-0.002834879793226719,0.011670565232634544,0.008312840014696121
1733859306867039200,9.016039306640625,-0.0015546823851764202,0.010948020033538342,0.007177992723882198
1733859306876990200,9.025990234375,-0.0003040619194507599,0.013282014057040215,0.006827253848314285
1733859306886940200,9.035940185546876,-0.00294328760355711,0.01686003804206848,0.0037294579669833183
1733859306896891400,9.045891357421874,-0.004813359118998051,0.009044726379215717,0.0018894800450652838
1733859306906842000,9.055842041015625,-0.005351574160158634,-0.007228008471429348,0.0017915770877152681
1733859306916793300,9.06579345703125,-0.0035653922241181135,-0.011333271861076355,0.0029593731742352247
1733859306926744300,9.075744384765626,-0.004114820156246424,-0.0059911939315497875,0.0015772597398608923
1733859306936695300,9.0856953125,-0.008006230928003788,0.0031141540966928005,0.00044142152182757854
1733859306946646300,9.095646240234375,-0.011504542082548141,0.012663140892982483,0.0003321648109704256
1733859306956597200,9.10559716796875,-0.013685670681297779,0.01740436628460884,0.004014784004539251
1733859306966548200,9.11554833984375,-0.011070971377193928,0.0071959225460886955,0.001129229785874486
1733859306976499200,9.125499267578125,-0.010114630684256554,-0.004283633548766375,-0.00138159841299057
1733859306986449200,9.13544921875,-0.0017464493867009878,-0.011460311710834503,0.0011844997061416507
1733859306996400400,9.145400390625,0.0038834726437926292,-0.004081491380929947,-0.0017415153561159968
1733859307006351400,9.155351318359376,0.00203176261857152,0.001266967155970633,-0.003072562627494335
1733859307016302300,9.16530224609375,0.001722036860883236,-0.005366167984902859,0.0015813115751370788
1733859307026253300,9.17525341796875,0.0006858287379145622,-0.010763389989733696,0.005399366375058889
1733859307036204300,9.185204345703125,-0.0015802551060914993,-0.008868817239999771,0.00368668744340539
1733859307046155300,9.1951552734375,-0.0016638876404613256,-0.010294387117028236,-0.0014883913099765778
1733859307056106200,9.205106201171875,0.0006173760630190372,-0.015177827328443527,-0.0013054320588707924
1733859307066057200,9.21505712890625,0.003825678490102291,-0.018570411950349808,0.0012656027683988214
1733859307076007400,9.22500732421875,0.007552240043878555,-0.018928341567516327,-0.0011892990441992879
1733859307085958100,9.234958251953126,0.005317329429090023,-0.01558530330657959,-0.0016572946915403008
1733859307095909400,9.244909423828124,0.003936213441193104,-0.015171447768807411,0.0048589278012514114
1733859307105860400,9.2548603515625,0.0034973053261637688,-0.014871802181005478,0.006682267878204584
1733859307115811300,9.264811279296875,0.0009651719592511654,-0.019532600417733192,0.0028917905874550343
1733859307125761800,9.27476171875,0.000380887184292078,-0.02999059669673443,-0.0006569523829966784
1733859307135712800,9.284712646484374,0.0005300245247781277,-0.03812788054347038,-0.007249074522405863
1733859307145663700,9.294663818359375,-0.003870603861287236,-0.03500102087855339,-0.011135670356452465
1733859307155615000,9.304614990234375,-0.006549477577209473,-0.031300291419029236,-0.012749013490974903
1733859307165565700,9.314565673828126,-0.00725462194532156,-0.032296162098646164,-0.020878884941339493
1733859307175516000,9.324515869140624,-0.005848206579685211,-0.03734711557626724,-0.025929303839802742
1733859307185467000,9.334466796875,-0.00318295625038445,-0.04852619394659996,-0.026072870939970016
1733859307195417900,9.34441796875,0.004205185454338789,-0.052476461976766586,-0.020366782322525978
1733859307205368800,9.354368896484376,0.007631078828126192,-0.043274179100990295,-0.019828740507364273
1733859307215319800,9.36431982421875,0.0029977108351886272,-0.032073188573122025,-0.013188148848712444
1733859307225270800,9.374270751953125,-0.0008161943405866623,-0.018774710595607758,-0.0031754793599247932
1733859307235221800,9.3842216796875,-0.004401874262839556,-0.005395255982875824,0.005304291378706694
1733859307245172700,9.3941728515625,-0.003551020985469222,0.009702261537313461,0.005931093357503414
1733859307255124000,9.4041240234375,-0.00562029704451561,0.01411991287022829,-0.0021414803341031075
1733859307265074700,9.41407470703125,-0.005433598533272743,0.007079555187374353,-0.00616723857820034
1733859307275025000,9.42402490234375,-0.006114302668720484,-0.0038625746965408325,-0.009977157227694988
1733859307284975900,9.433975830078126,-0.005809362977743149,-0.013079257681965828,-0.00819552130997181
1733859307294926800,9.4439267578125,-0.005739588290452957,-0.012324517592787743,-0.006691633723676205
1733859307304877800,9.4538779296875,-0.004357675090432167,-0.00875268317759037,-0.005381400231271982
1733859307314828800,9.463828857421875,-0.0045560807920992374,-0.00012750434689223766,-0.0029209055937826633
1733859307324779800,9.47377978515625,-0.006409895606338978,0.01059782225638628,-0.0008275952422991395
1733859307334730800,9.483730712890624,-0.003915845416486263,0.01713188923895359,-0.004264937248080969
1733859307344681700,9.493681640625,-0.0031816167756915092,0.016681289300322533,-0.010650789365172386
1733859307354633000,9.503633056640625,-0.0028143669478595257,0.008373292163014412,-0.01602105423808098
1733859307364582700,9.513582763671875,-0.003291586646810174,-0.00549967959523201,-0.02019106224179268
1733859307374534000,9.523533935546874,-0.0024545551277697086,-0.02012176625430584,-0.02181452512741089
1733859307384484900,9.53348486328125,-0.002353361342102289,-0.02754877880215645,-0.02169085666537285
1733859307394435800,9.543435791015625,-0.002171201165765524,-0.02575780265033245,-0.01713365502655506
1733859307404386800,9.55338671875,-0.002003979869186878,-0.013922132551670074,-0.011563601903617382
1733859307414337800,9.563337890625,-0.0018412608187645674,0.0020733452402055264,-0.0076847076416015625
1733859307424288800,9.573288818359375,-0.005511611700057983,0.00828566588461399,-0.00431607011705637
1733859307434239700,9.58323974609375,-0.004243947099894285,0.0033297897316515446,-0.00397145701572299
1733859307444190700,9.593190673828126,-0.006286581978201866,-0.006786244921386242,-0.004131794441491365
1733859307454142000,9.603141845703124,-0.0056937625631690025,-0.019767289981245995,-0.0052370065823197365
1733859307464092000,9.613091796875,-0.0034466064535081387,-0.029537059366703033,-0.0054087890312075615
1733859307474043000,9.62304296875,-0.00095734978094697,-0.028534647077322006,-0.006977391429245472
1733859307483993900,9.632993896484376,-0.00024652830325067043,-0.026167407631874084,-0.012122216634452343
1733859307493944800,9.64294482421875,-0.0009570596739649773,-0.026297636330127716,-0.012863107956945896
1733859307503895800,9.652895751953125,-0.0010744906030595303,-0.024497097358107567,-0.008844325318932533
1733859307513846800,9.6628466796875,-0.000639596488326788,-0.020051216706633568,-0.007228852715343237
1733859307523797800,9.6727978515625,0.00009220046922564507,-0.012313330546021461,-0.008913550525903702
1733859307533749000,9.6827490234375,0.0015822392888367176,-0.008856015279889107,-0.007924452424049377
1733859307543699700,9.69269970703125,0.0007708012126386166,-0.00445758830755949,-0.011300057172775269
1733859307553650000,9.70264990234375,-0.002187970792874694,-0.0038317448925226927,-0.010957840830087662
1733859307563601000,9.712600830078125,-0.0064484961330890656,-0.005056798458099365,-0.007762579713016748
1733859307573551900,9.7225517578125,-0.00657925708219409,-0.00872343871742487,-0.005236038938164711
1733859307583502800,9.7325029296875,-0.006824285723268986,-0.007806481793522835,-0.008676772005856037
1733859307593453800,9.742453857421875,-0.005812550894916058,-0.009766035713255405,-0.012924513779580593
1733859307603404800,9.75240478515625,-0.004657514858990908,-0.012447080574929714,-0.009715348482131958
1733859307613355800,9.762355712890624,-0.006488438230007887,-0.01142602413892746,-0.00760639226064086
1733859307623306800,9.772306640625,-0.0028638611547648907,-0.008174329064786434,-0.011274822056293488
1733859307633258000,9.782258056640625,-0.0066205160692334175,-0.0075386324897408485,-0.01472068578004837
1733859307643207700,9.792207763671875,-0.006855426821857691,-0.01083239633589983,-0.014959773048758507
1733859307653159000,9.802158935546874,-0.009383832104504108,-0.021062131971120834,-0.017488710582256317
1733859307663110000,9.81210986328125,-0.007674878463149071,-0.0275591854006052,-0.015873417258262634
1733859307673060900,9.822060791015625,-0.00736968033015728,-0.0326591357588768,-0.014035305939614773
1733859307683011800,9.83201171875,-0.008008318021893501,-0.031247109174728394,-0.01414851751178503
1733859307692962800,9.841962890625,-0.0068724798038601875,-0.02154335007071495,-0.011485622264444828
1733859307702913800,9.851913818359375,-0.002111801179125905,-0.007843004539608955,-0.006383243948221207
1733859307712864800,9.86186474609375,-0.0007631764747202396,0.0032972649205476046,-0.0035136882215738297
1733859307722815700,9.871815673828126,-0.0010164512787014246,0.0006303901318460703,-0.0027788663282990456
1733859307732765700,9.881765625,0.0009292541071772575,-0.0052376193925738335,-0.0009279694641008973
1733859307742716700,9.891716552734374,0.0008515184745192528,-0.00405841926112771,0.0038538817316293716
1733859307752668000,9.90166796875,0.002437963616102934,0.000877749640494585,0.0012415871024131775
1733859307762619000,9.911618896484375,0.0019303415901958942,-0.0012825673911720514,0.0011917665833607316
1733859307772569900,9.92156982421875,0.0008376464247703552,0.0002322387881577015,0.0008519471739418805
1733859307782520800,9.931520751953125,0.00014681601896882057,0.001162226195447147,-0.0027637286111712456
1733859307792471800,9.941471923828125,-0.0004273615777492523,-0.00018027331680059433,-0.006108925212174654
1733859307802422800,9.9514228515625,-0.0011887475848197937,-0.01103187631815672,-0.005024990066885948
1733859307812373800,9.961373779296874,-0.0007996598724275827,-0.021690644323825836,-0.003934158943593502
1733859307822323700,9.97132373046875,-0.0005530379712581635,-0.026361053809523582,-0.0029021534137427807
1733859307832274700,9.981274658203125,0.00255167530849576,-0.022592147812247276,-0.004124544560909271
1733859307842225700,9.9912255859375,0.004973034840077162,-0.019819285720586777,-0.00610856618732214
1733859307852177000,10.001177001953126,0.005995954852551222,-0.027746452018618584,-0.00414155563339591
1733859307862127900,10.0111279296875,0.00579299358651042,-0.034202173352241516,-0.003201832063496113
1733859307872078800,10.021078857421875,0.007724850904196501,-0.03801288828253746,-0.0033429795876145363
1733859307882029800,10.03102978515625,0.009811216965317726,-0.04290785267949104,-0.0023038950748741627
1733859307891980800,10.040980712890626,0.011328419670462608,-0.0478871650993824,-0.0036357417702674866
1733859307901930800,10.0509306640625,0.009034312330186367,-0.04693472012877464,-0.004840853624045849
1733859307911881700,10.0608818359375,0.01131424494087696,-0.04714643955230713,-0.000646108528599143
1733859307921832700,10.070832763671875,0.014958023093640804,-0.03768110275268555,0.0035714488476514816
1733859307931783700,10.08078369140625,0.017955943942070007,-0.030401088297367096,0.0009615511517040431
1733859307941735000,10.09073486328125,0.01780335046350956,-0.03548906743526459,0.005200101062655449
1733859307951686000,10.100685791015625,0.019286198541522026,-0.03627390041947365,0.011665456928312778
1733859307961636900,10.110636962890625,0.01915752701461315,-0.03793004900217056,0.014026745222508907
1733859307971587800,10.120587890625,0.019947154447436333,-0.030493708327412605,0.015372706577181816
1733859307981538800,10.130538818359375,0.018656346946954727,-0.020421946421265602,0.013769629411399364
1733859307991488800,10.14048876953125,0.015289580449461937,-0.015378719195723534,0.014813321642577648
1733859308001439700,10.150439697265625,0.01779826544225216,-0.009238782338798046,0.01566048339009285
1733859308011390700,10.160390625,0.015283176675438881,-0.004086097702383995,0.01442957203835249
1733859308021341700,10.170341796875,0.01721319556236267,0.0012710759183391929,0.016052259132266045
1733859308031292700,10.180292724609375,0.013344954699277878,0.007625645026564598,0.012011445127427578
1733859308041244000,10.190243896484375,0.010407176800072193,0.004300228785723448,0.006114451214671135
1733859308051195000,10.20019482421875,0.0035743042826652527,-0.002244489500299096,0.0052121724002063274
1733859308061145900,10.210145751953124,0.0027639088220894337,-0.009412129409611225,-0.0018647854449227452
1733859308071096800,10.220096923828125,0.0012674788013100624,-0.015813037753105164,-0.005863522179424763
1733859308081046800,10.230046875,-0.0007130904123187065,-0.013871632516384125,-0.005762303248047829
1733859308090997800,10.239997802734376,-0.0036641391925513744,-0.011366129852831364,-0.0063442038372159
1733859308100948700,10.24994873046875,-0.0028782240115106106,-0.01192488707602024,-0.0030979993753135204
1733859308110899700,10.259899658203125,-0.0018691523000597954,-0.012378423474729061,-0.0003525469219312072
1733859308120850700,10.2698505859375,0.0011279606260359287,-0.007478993386030197,0.003751212265342474
1733859308130802700,10.279802734375,0.002930388320237398,0.0030271774157881737,0.0005631422391161323
1733859308140753400,10.28975341796875,0.007945395074784756,-0.0020139331463724375,-0.000533375539816916
1733859308150704600,10.29970458984375,0.007989071309566498,-0.01110862847417593,-0.0019957171753048897
1733859308160654600,10.309654541015625,0.00780953885987401,-0.020166249945759773,-0.00007874309085309505
1733859308170605600,10.31960546875,0.006783157121390104,-0.022355901077389717,-0.0022497521713376045
1733859308180556500,10.329556640625,0.006953869480639696,-0.021566012874245644,-0.005994870793074369
1733859308190507800,10.3395078125,0.005553313065320253,-0.026687804609537125,-0.006708864122629166
1733859308200458500,10.34945849609375,0.0022651432082057,-0.03159286826848984,-0.0031815366819500923
1733859308210409700,10.35940966796875,0.001703216228634119,-0.034772418439388275,-0.0022840513847768307
1733859308220360400,10.3693603515625,-0.0006837816908955574,-0.03765501454472542,-0.0004937375197187066
1733859308230311700,10.379311767578125,0.0008736350573599339,-0.03963907063007355,0.0005230574170127511
1733859308240261600,10.38926171875,0.00018467148765921593,-0.041229505091905594,0.00025851931422948837
1733859308250212400,10.39921240234375,0.003378334455192089,-0.03788670524954796,0.0013517469633370638
1733859308260163600,10.40916357421875,0.004436665680259466,-0.030322780832648277,0.0009283993276767433
1733859308270114600,10.419114501953125,0.00668783625587821,-0.019830990582704544,-0.0018463482847437263
1733859308280065500,10.4290654296875,0.006417535711079836,-0.015528936870396137,-0.002962264232337475
1733859308290016800,10.439016845703126,0.00686441408470273,-0.013246607966721058,-0.0005518373800441623
1733859308299967500,10.448967529296874,0.006948031485080719,-0.014421051368117332,0.0009990588296204805
1733859308309918700,10.458918701171875,0.00807215180248022,-0.016704712063074112,-0.0000888423528522253
1733859308319868700,10.46886865234375,0.008826348930597305,-0.016864486038684845,0.0017738249152898788
1733859308329819400,10.4788193359375,0.005670769605785608,-0.019562534987926483,0.0005141496658325195
1733859308339770600,10.4887705078125,0.00524656567722559,-0.01559874415397644,-0.00002063706051558256
1733859308349721300,10.498721435546875,0.005315008573234081,-0.011658065021038055,0.00010692828800529242
1733859308359672600,10.508672607421875,0.006847620476037264,-0.00829283706843853,-0.0008427308639511466
1733859308369623600,10.51862353515625,0.0071331108920276165,-0.011143483221530914,-0.0021791053004562855
1733859308379574500,10.528574462890624,0.006086783949285746,-0.020884839817881584,-0.003455755766481161
1733859308389525800,10.53852587890625,0.007868971675634384,-0.027259914204478264,-0.0008168292697519064
1733859308399476500,10.5484765625,0.006056994665414095,-0.023137662559747696,0.0014134675730019808
1733859308409426400,10.558426513671876,0.008403506129980087,-0.016286682337522507,-0.0016723371809348464
1733859308419377700,10.568377685546874,0.0068846517242491245,-0.013759528286755085,-0.003170300740748644
1733859308429328400,10.578328369140625,0.006254015956073999,-0.009837225079536438,0.00040605850517749786
1733859308439279600,10.588279541015625,0.006668671499937773,-0.009739224798977375,0.002254069084301591
1733859308449230300,10.598230224609376,0.006785850506275892,-0.007679003290832043,0.003930795006453991
1733859308459181600,10.608181640625,0.009019759483635426,-0.008387208916246891,0.0048209382221102715
1733859308469132500,10.618132568359375,0.007253817282617092,-0.007756305858492851,0.0019351368537172675
1733859308479083500,10.62808349609375,0.006132603622972965,-0.009625013917684555,0.002924906089901924
1733859308489033500,10.638033447265625,0.006083335727453232,-0.019079236313700676,0.006973443552851677
1733859308498984400,10.647984375,0.005069439299404621,-0.029261253774166107,0.0047203367576003075
1733859308508935400,10.657935302734375,0.004207373596727848,-0.030858885496854782,0.0038281776942312717
1733859308518886700,10.66788671875,0.00047098100185394287,-0.022719498723745346,0.002420329488813877
1733859308528837400,10.67783740234375,-0.0008036079816520214,-0.010219684801995754,0.00048234721180051565
1733859308538788600,10.68778857421875,-0.0024744588881731033,-0.0022624500561505556,-0.0017514739884063601
1733859308548739300,10.6977392578125,-0.004795936401933432,0.0008987223263829947,-0.00037675013300031424
1733859308558690600,10.707690673828125,-0.003787635825574398,0.007327820174396038,0.001406453549861908
1733859308568640500,10.717640625,-0.0039197285659611225,0.01645340770483017,-0.001393061364069581
1733859308578591500,10.727591552734374,-0.0009018855635076761,0.02782411314547062,-0.0019489825936034322
1733859308588542500,10.73754248046875,0.0019269241020083427,0.02866620570421219,-0.004904025699943304
1733859308598493700,10.74749365234375,0.001512804999947548,0.02553112804889679,-0.00960073433816433
1733859308608444400,10.7574443359375,-0.0016467694658786058,0.020107600837945938,-0.008224677294492722
1733859308618395600,10.767395751953124,-0.003060095477849245,0.012334080412983894,-0.009089944884181023
1733859308628346400,10.777346435546875,-0.0035341382026672363,0.01041021291166544,-0.00817514955997467
1733859308638297600,10.787297607421875,-0.005472120363265276,0.011705574579536915,-0.007708563469350338
1733859308648247600,10.79724755859375,-0.007172282785177231,0.012011039070785046,-0.0075181471183896065
1733859308658198500,10.807198486328126,-0.008756881579756737,0.020168595016002655,-0.005163460969924927
1733859308668149500,10.8171494140625,-0.006144320592284203,0.028104282915592194,-0.004876106046140194
1733859308678100500,10.8271005859375,-0.005001539830118418,0.030090972781181335,0.0003861148143187165
1733859308688051500,10.837051513671875,-0.0022345157340168953,0.02505466900765896,0.002482288982719183
1733859308698002700,10.847002685546874,0.002820748370140791,0.01747577264904976,0.003744442481547594
1733859308707953400,10.856953369140625,0.005350751336663961,0.004069953225553036,-0.0008119597332552075
1733859308717903600,10.866903564453125,0.010005095042288303,-0.005092297215014696,-0.006225932389497757
1733859308727854600,10.8768544921875,0.007972304709255695,-0.00985323078930378,-0.009804155677556992
1733859308737805600,10.8868056640625,0.004397283308207989,-0.017918623983860016,-0.00982905924320221
1733859308747756500,10.896756591796875,0.00013595959171652794,-0.0238454882055521,-0.009380050003528595
1733859308757707500,10.90670751953125,-0.0021985648199915886,-0.02783064730465412,-0.005320550408214331
1733859308767658500,10.916658447265625,-0.005540032871067524,-0.02305959351360798,-0.0017737523885443807
1733859308777609500,10.926609375,-0.008540047332644463,-0.013739914633333683,-0.005270624067634344
1733859308787560400,10.936560546875,-0.008692912757396698,-0.0038276289124041796,-0.005086865741759539
1733859308797510700,10.9465107421875,-0.005833497270941734,0.006602137349545956,-0.005159922409802675
1733859308807461400,10.95646142578125,-0.004256106913089752,0.0069203851744532585,-0.010509946383535862
1733859308817412600,10.96641259765625,-0.0031378455460071564,-0.001981230452656746,-0.007408695761114359
1733859308827363600,10.976363525390624,-0.0032235991675406694,-0.01211455836892128,-0.005809201393276453
1733859308837314600,10.986314453125,-0.006603173911571503,-0.014601650647819042,-0.005012819077819586
1733859308847265500,10.996265625,-0.0069459229707717896,-0.008052670396864414,-0.0018836051458492875
1733859308857216500,11.006216552734376,-0.005183395929634571,0.00003927759826183319,0.0017258109292015433
1733859308867167500,11.01616748046875,-0.002716509625315666,0.0076708318665623665,0.0026736301369965076
1733859308877117700,11.02611767578125,0.0001114802435040474,0.009797128848731518,0.0050211199559271336
1733859308887068400,11.036068359375,-0.0007947934791445732,0.007132102735340595,0.0032535800710320473
1733859308897019600,11.04601953125,-0.0009319705422967672,-0.0011729300022125244,0.003139959182590246
1733859308906970600,11.055970703125,-0.0021343878470361233,-0.011367511004209518,0.0007689467165619135
1733859308916921600,11.065921630859375,-0.002994830720126629,-0.017270974814891815,-0.000621319399215281
1733859308926872600,11.07587255859375,-0.0036491695791482925,-0.00842288788408041,0.00039307877887040377
1733859308936823600,11.085823486328126,-0.0006222303491085768,0.008920961990952492,0.0017734861467033625
1733859308946773500,11.0957734375,0.002230015117675066,0.020680416375398636,-0.001384223927743733
1733859308956724700,11.105724853515625,0.0036603915505111217,0.016135476529598236,-0.0019872942939400673
1733859308966675500,11.115675537109375,0.002503780648112297,0.0027411077171564102,0.003141687484458089
1733859308976626700,11.125626708984376,-0.0004667250905185938,-0.0010789071675390005,0.008922040462493896
1733859308986577400,11.135577392578124,-0.0006219875067472458,0.010664035566151142,0.007624548859894276
1733859308996528600,11.145528564453125,0.00027819396927952766,0.023597097024321556,0.0069108991883695126
1733859309006479600,11.155479736328125,-0.002993233036249876,0.02434571087360382,0.005760413594543934
1733859309016430600,11.1654306640625,-0.005645958706736565,0.018555931746959686,0.007102645467966795
1733859309026380500,11.175380615234374,-0.0051580676808953285,0.009806916117668152,0.0030445209704339504
1733859309036331800,11.185331787109375,-0.006215381436049938,-0.00113303167745471,-0.00156550039537251
1733859309046282500,11.195282470703125,-0.004731467925012112,-0.010491912253201008,-0.002806000644341111
1733859309056233700,11.205233642578126,-0.0062441136687994,-0.01213672012090683,-0.0012438350822776556
1733859309066184400,11.215184326171874,-0.005236373282968998,0.00037134764716029167,-0.0040734438225626945
1733859309076135700,11.2251357421875,-0.00348217342980206,0.01411409117281437,-0.002899921964854002
1733859309086086400,11.23508642578125,-0.0035080062225461006,0.019624171778559685,-0.0008072099881246686
1733859309096036400,11.245036376953125,-0.005198064260184765,0.019259339198470116,0.0014130694326013327
1733859309105987600,11.254987548828124,-0.0026765831280499697,0.010211516171693802,0.0031798104755580425
1733859309115938300,11.264938232421875,-0.0038571441546082497,-0.002323475433513522,0.0026568076573312283
1733859309125889500,11.2748896484375,-0.0030600600875914097,-0.011018163524568081,0.0024940886069089174
1733859309135843300,11.28484326171875,-0.0008139193523675203,-0.015865691006183624,-0.0026804767549037933
1733859309145794300,11.294794189453125,-0.00184189947322011,-0.016639605164527893,-0.00027937046252191067
1733859309155745300,11.304745361328125,-0.0016262035351246595,-0.010213637724518776,0.000335241318680346
1733859309165696300,11.3146962890625,-0.0010024912189692259,0.0001852076966315508,-0.0031950450502336025
1733859309175646200,11.324646240234374,-0.002229957841336727,0.000551680801436305,-0.0019369670189917088
1733859309185597400,11.334597412109375,-0.002845148090273142,-0.003482475643977523,0.0016793393297120929
1733859309195548400,11.34454833984375,-0.0030674829613417387,-0.007509227842092514,0.003838986624032259
1733859309205499400,11.35449951171875,-0.004032080061733723,-0.005838893353939056,0.00080458092270419
1733859309215450400,11.364450439453124,-0.003794795600697398,-0.0038239415735006332,-0.0017507668817415833
1733859309225401300,11.3744013671875,-0.002857096493244171,-0.007315612398087978,-0.008028902113437653
1733859309235352300,11.384352294921875,-0.0030509745702147484,-0.018460143357515335,-0.006255770567804575
1733859309245302500,11.394302490234375,-0.00044959899969398975,-0.02161332592368126,-0.003065037075430155
1733859309255253200,11.404253173828126,-0.0016546761617064476,-0.015081393532454967,-0.0033214546274393797
1733859309265204500,11.41420458984375,-0.0032584317959845066,-0.0001338692381978035,-0.004461287520825863
1733859309275155200,11.4241552734375,-0.000997417140752077,0.007841777056455612,-0.0034502195194363594
1733859309285106400,11.4341064453125,-0.0014711935073137283,0.009295330382883549,-0.004113080445677042
1733859309295057400,11.444057373046874,-0.002332707867026329,0.0006442947778850794,-0.002251261845231056
1733859309305008400,11.45400830078125,-0.0028221970424056053,-0.0043209027498960495,-0.0021332837641239166
1733859309314958300,11.463958251953125,-0.00192551058717072,-0.0054380991496145725,-0.0007018346805125475
1733859309324909600,11.47390966796875,-0.0013864869251847267,-0.0022383108735084534,-0.001381739741191268
1733859309334860300,11.4838603515625,-0.001960749737918377,0.003927822224795818,-0.0022606654092669487
1733859309344811500,11.4938115234375,-0.0026023052632808685,0.009735643863677979,-0.0008633045945316553
1733859309354762200,11.50376220703125,-0.00528215616941452,0.009660422801971436,0.001373079139739275
1733859309364713500,11.51371337890625,-0.005819581914693117,0.005949308164417744,-0.00009432260412722826
1733859309374664200,11.523664306640624,-0.0062313387170434,0.004653455689549446,0.0008705811342224479
1733859309384614100,11.5336142578125,-0.007125095464289188,0.004345061257481575,-0.0011427686549723148
1733859309394565400,11.5435654296875,-0.0043194349855184555,0.0019194278866052628,-0.005069287493824959
1733859309404516000,11.55351611328125,-0.0018885016907006502,-0.0063566118478775024,-0.0061803581193089485
1733859309414467300,11.56346728515625,0.00030778953805565834,-0.01356789655983448,-0.0043401154689490795
1733859309424418600,11.57341845703125,0.003380012232810259,-0.021282806992530823,-0.002663122955709696
1733859309434369300,11.583369384765625,0.007163839880377054,-0.020862305536866188,-0.0029024071991443634
1733859309444320500,11.593320556640625,0.005219199229031801,-0.014325575903058052,-0.00492667593061924
1733859309454270500,11.6032705078125,0.00421920046210289,-0.008121766149997711,-0.005298450589179993
1733859309464221200,11.61322119140625,0.0028282320126891136,-0.006228524725884199,-0.005294722504913807
1733859309474172400,11.62317236328125,0.0006106295622885227,-0.004803217016160488,-0.0028058181051164865
1733859309484123100,11.633123046875,-0.0003928493242710829,-0.006340925581753254,-0.005483360029757023
1733859309494074400,11.643074462890626,-0.0017920774407684803,-0.001127517782151699,-0.0052961851470172405
