time,seconds_elapsed,z,y,x
1733859235545745200,0.0207451171875,0.033989280462265015,0.09145612269639969,-0.002922598272562027
1733859235555696000,0.030696044921875,0.033029209822416306,0.054530590772628784,0.019887642934918404
1733859235565646000,0.04064599609375,0.03500956669449806,0.023960236459970474,0.04084313288331032
1733859235575596000,0.050595947265625,0.027260031551122665,0.00864333100616932,0.05585324391722679
1733859235585547300,0.06054736328125,0.005779016297310591,-0.01767130196094513,0.07727862149477005
1733859235595497200,0.070497314453125,-0.02021396905183792,-0.04663637652993202,0.09856047481298447
1733859235605447200,0.080447265625,-0.04569800943136215,-0.0643257200717926,0.10595761239528656
1733859235615398100,0.090398193359375,-0.07729507982730865,-0.08463072776794434,0.1037469208240509
1733859235625348000,0.10034814453125,-0.09981504827737808,-0.08777289092540741,0.08245953172445297
1733859235635299300,0.11029931640625,-0.13165128231048584,-0.07939565181732178,0.047711413353681564
1733859235645249000,0.1202490234375,-0.17095579206943512,-0.074649378657341,0.01540327724069357
1733859235655199000,0.130198974609375,-0.22239181399345398,-0.06698666512966156,-0.024711651727557182
1733859235665150200,0.140150146484375,-0.2970353364944458,-0.059213485568761826,-0.06678105890750885
1733859235675100200,0.15010009765625,-0.36738407611846924,-0.0570661798119545,-0.12456073611974716
1733859235685050000,0.160050048828125,-0.42058926820755005,-0.16078421473503113,-0.15871065855026245
1733859235695001000,0.1700009765625,-0.3939533829689026,-0.8290458917617798,0.17587131261825562
1733859235704951000,0.179950927734375,-0.4269751012325287,-0.7151641845703125,0.6185128688812256
1733859235714901200,0.1899013671875,-0.3021221160888672,-0.31210753321647644,0.16655020415782928
1733859235724852000,0.19985205078125,-0.1257440596818924,-0.24357371032238007,-0.13856160640716553
1733859235734802000,0.209802001953125,0.02060861885547638,-0.21480916440486908,-0.11202826350927353
1733859235744753200,0.219753173828125,0.054081838577985764,-0.1450619250535965,-0.031163107603788376
1733859235754703000,0.229703125,-0.015115076676011086,-0.07521732896566391,-0.012862665578722954
1733859235764653300,0.2396533203125,-0.029951663687825203,-0.012166471220552921,-0.006455088034272194
1733859235774604000,0.24960400390625,-0.003936840686947107,0.0144699327647686,-0.00024486216716468334
1733859235784554000,0.259553955078125,0.014205537736415863,0.035244010388851166,-0.0029382447246462107
1733859235794504200,0.269504150390625,0.006641628220677376,0.042099252343177795,0.006623568944633007
1733859235804455200,0.279455078125,-0.00011434406042098999,0.02770908549427986,0.0225481316447258
1733859235814405000,0.289405029296875,0.0019309637136757374,0.008762559853494167,0.023077834397554398
1733859235824356000,0.299356201171875,0.0035235066898167133,-0.012609822675585747,0.014817414805293083
1733859235834306000,0.30930615234375,0.0010060202330350876,-0.033302050083875656,0.006150423549115658
1733859235844256300,0.31925634765625,-0.006454375106841326,-0.040444325655698776,-0.005223688669502735
1733859235854207000,0.32920703125,-0.011415312066674232,-0.04371681809425354,-0.017024686560034752
1733859235864157200,0.3391572265625,-0.017768889665603638,-0.04915059730410576,-0.019971346482634544
1733859235874107100,0.349107177734375,-0.01783413626253605,-0.0524798147380352,-0.020154837518930435
1733859235884058000,0.35905810546875,-0.01640261337161064,-0.0506916381418705,-0.021514510735869408
1733859235894008000,0.369008056640625,-0.007167569361627102,-0.05088178813457489,-0.02086416631937027
1733859235903959000,0.378958984375,-0.0028659675735980272,-0.0634971335530281,-0.01960335671901703
1733859235913909200,0.3889091796875,0.0029525067657232285,-0.07894346863031387,-0.02351287752389908
1733859235923859200,0.398859130859375,0.004147316329181194,-0.07895287126302719,-0.021661140024662018
1733859235933810000,0.408809814453125,-0.0018173656426370144,-0.05768992006778717,-0.01788344606757164
1733859235943760100,0.418760009765625,-0.007162781432271004,-0.028127290308475494,-0.009022828191518784
1733859235953711000,0.428711181640625,-0.0038783049676567316,-0.007607635576277971,0.0012487173080444336
1733859235963661300,0.438661376953125,-0.0029796664603054523,0.0038631604984402657,0.004362110979855061
1733859235973611000,0.448611083984375,-0.004379423800855875,0.004303114488720894,0.004525895230472088
1733859235983562200,0.458562255859375,-0.002785665914416313,-0.010832239873707294,0.0070687346160411835
1733859235993512200,0.46851220703125,-0.001089498633518815,-0.019660620018839836,0.004168285522609949
1733859236003462100,0.478462158203125,0.0012067952193319798,-0.021530328318476677,-0.005480760708451271
1733859236013413000,0.4884130859375,-0.003159990068525076,-0.026823893189430237,-0.009561256505548954
1733859236023363000,0.498363037109375,0.000513970386236906,-0.029280567541718483,-0.010773732326924801
1733859236033314300,0.508314208984375,0.0022293124347925186,-0.01914697326719761,-0.009290884248912334
1733859236043264300,0.51826416015625,-0.0012423025909811258,-0.013457185588777065,-0.0072594089433550835
1733859236053214000,0.5282138671875,-0.002413826994597912,-0.014219381846487522,-0.00597416702657938
1733859236063165200,0.538165283203125,-0.0038271392695605755,-0.016131017357110977,-0.0007875664159655571
1733859236073115400,0.548115478515625,-0.003378929104655981,-0.025666996836662292,-0.0020368555560708046
1733859236083066400,0.55806640625,-0.0005766961257904768,-0.027105674147605896,-0.0030052578076720238
1733859236093016300,0.568016357421875,0.0026161675341427326,-0.023558875545859337,-0.005912631284445524
1733859236102966300,0.57796630859375,0.004771962761878967,-0.01988803967833519,-0.010280984453856945
1733859236112917500,0.58791748046875,0.0063008833676576614,-0.019419057294726372,-0.01184133067727089
1733859236122867500,0.597867431640625,0.009390074759721756,-0.0351339653134346,-0.011359439231455326
1733859236132817200,0.607817138671875,0.006139952689409256,-0.05037230625748634,-0.014133388176560402
1733859236142768400,0.617768310546875,0.003182082436978817,-0.056737419217824936,-0.014907067641615868
1733859236152718300,0.62771826171875,0.0006358339451253414,-0.053903818130493164,-0.015621593222022057
1733859236162669300,0.63766943359375,-0.00336678815074265,-0.04874161630868912,-0.013296810910105705
1733859236172619300,0.647619384765625,-0.005117550492286682,-0.04513463005423546,-0.00784452073276043
1733859236182569200,0.6575693359375,-0.00024463701993227005,-0.039509762078523636,-0.0030900537967681885
1733859236192520400,0.6675205078125,0.005828968249261379,-0.03543565794825554,-0.004089005757123232
1733859236202470400,0.677470458984375,0.013717042282223701,-0.03610806167125702,-0.006451703608036041
1733859236212420400,0.68742041015625,0.015914149582386017,-0.04322908818721771,-0.006226932629942894
1733859236222371300,0.697371337890625,0.01877230405807495,-0.05729895457625389,-0.006873233709484339
1733859236232321300,0.7073212890625,0.011192681267857552,-0.05811441317200661,-0.008952096104621887
1733859236242272300,0.717272216796875,0.006472950801253319,-0.04816417023539543,-0.004549235571175814
1733859236252222200,0.72722216796875,0.004443887621164322,-0.03780074790120125,0.00014298793394118547
1733859236262172400,0.73717236328125,0.008044850081205368,-0.028744108974933624,-0.001603409880772233
1733859236272123400,0.747123291015625,0.0069268555380403996,-0.03138276934623718,-0.007542525418102741
1733859236282073300,0.7570732421875,0.006263808812946081,-0.03399006277322769,-0.0073526292107999325
1733859236292024300,0.7670244140625,0.005096278619021177,-0.03359537571668625,-0.009559324011206627
1733859236301974300,0.776974365234375,0.0035742847248911858,-0.03609999641776085,-0.012779749929904938
1733859236311924500,0.786924560546875,0.00020565232262015343,-0.03568561002612114,-0.008565563708543777
1733859236321875500,0.79687548828125,-0.002767077414318919,-0.035265639424324036,-0.0011238676961511374
1733859236331825200,0.8068251953125,-0.003482668660581112,-0.02693660371005535,0.0029803295619785786
1733859236341776400,0.8167763671875,0.00023217592388391495,-0.017075631767511368,-0.005429800134152174
1733859236351726300,0.826726318359375,0.0022993218153715134,-0.012198053300380707,-0.006307045463472605
1733859236361676500,0.836676513671875,0.002540257293730974,-0.009085030294954777,0.000053368392400443554
1733859236371627300,0.846627197265625,0.004276105668395758,-0.00026490679010748863,0.0021657878533005714
1733859236381577200,0.8565771484375,0.00625427532941103,-0.0004880616907030344,0.0017702149925753474
1733859236391527400,0.86652734375,0.004745061509311199,-0.0018590569961816072,0.006098118145018816
1733859236401478400,0.876478515625,0.0058799684047698975,-0.0035662339068949223,0.006869037635624409
1733859236411428400,0.886428466796875,0.0041430555284023285,-0.006923414766788483,0.005223470740020275
1733859236421379300,0.89637939453125,0.0018570246174931526,-0.011809268966317177,0.0035827907267957926
1733859236431329300,0.906329345703125,0.00176567817106843,-0.02030501887202263,0.0034983684308826923
1733859236441279500,0.916279541015625,0.0049792868085205555,-0.03014741837978363,-0.002974266652017832
1733859236451230200,0.926230224609375,0.00425543962046504,-0.03315838798880577,-0.0031023649498820305
1733859236461180400,0.936180419921875,-0.0017672441899776459,-0.02150159329175949,-0.007787748239934444
1733859236471131400,0.94613134765625,-0.008488530293107033,-0.012834870256483555,-0.0018795253708958626
1733859236481081300,0.956081298828125,-0.008066924288868904,-0.01378536969423294,0.00477900356054306
1733859236491031300,0.96603125,-0.006594995968043804,-0.013887900859117508,0.00012140115723013878
1733859236500982300,0.975982177734375,-0.005967823788523674,-0.00978139229118824,-0.0034218039363622665
1733859236510932500,0.985932373046875,-0.0017602953594177961,-0.012736435979604721,-0.002145883161574602
1733859236520883200,0.99588330078125,-0.0057768747210502625,0.0008992149960249662,-0.0017176470719277859
1733859236530833200,1.005833251953125,-0.009393448010087013,0.007260974030941725,0.00001180986873805523
1733859236540783400,1.015783447265625,-0.009754756465554237,0.0006832708604633808,0.004101383499801159
1733859236550734300,1.025734375,-0.008700944483280182,-0.007917940616607666,0.004654255695641041
1733859236560684500,1.0356845703125,-0.007000437937676907,-0.009107541292905807,0.001140617998316884
1733859236570635300,1.04563525390625,-0.007609236985445023,-0.00591387739405036,0.0033699502237141132
1733859236580585500,1.05558544921875,-0.004507904872298241,-0.003197327721863985,0.003102452727034688
1733859236590535400,1.065535400390625,-0.004048509523272514,-0.004088687710464001,0.001103484071791172
1733859236600486400,1.075486328125,-0.0010869421530514956,-0.014303332194685936,-0.0006303032860159874
1733859236610436400,1.085436279296875,-0.004106700420379639,-0.0244451817125082,0.0006251108134165406
1733859236620386300,1.09538623046875,-0.00505811395123601,-0.029288848862051964,0.0020009693689644337
1733859236630337500,1.105337646484375,-0.005702865310013294,-0.02807151898741722,-0.00343640660867095
1733859236640287500,1.11528759765625,-0.003112294478341937,-0.031651586294174194,-0.0032892744056880474
1733859236650238200,1.12523828125,0.003114975057542324,-0.03836861252784729,0.0005483406130224466
1733859236660188400,1.1351884765625,0.00870707631111145,-0.04129135236144066,-0.0019641052931547165
1733859236670138400,1.145138427734375,0.011139873415231705,-0.03995630890130997,-0.004961759317666292
1733859236680089600,1.155089599609375,0.011322539299726486,-0.03459853678941727,-0.01011386327445507
1733859236690039300,1.165039306640625,0.008013028651475906,-0.02262815833091736,-0.01398796308785677
1733859236699990300,1.174990234375,0.0009170938283205032,-0.025505829602479935,-0.013419048860669136
1733859236709940500,1.1849404296875,-0.008215418085455894,-0.016671592369675636,-0.005215713754296303
1733859236719890400,1.194890380859375,-0.011337127536535263,-0.00671930518001318,0.002671808935701847
1733859236729841400,1.20484130859375,-0.015871958807110786,-0.005914497189223766,0.005685175769031048
1733859236739791400,1.214791259765625,-0.011461285874247551,-0.015817072242498398,0.001992111327126622
1733859236749742300,1.224742431640625,-0.0041969818994402885,-0.025136537849903107,-0.007233611308038235
1733859236759692500,1.234692626953125,-0.0033080955035984516,-0.023118695244193077,-0.013223462738096714
1733859236769642200,1.244642333984375,-0.0010555938351899385,-0.010221272706985474,-0.015384351834654808
1733859236779593500,1.254593505859375,-0.006121108308434486,0.006541852373629808,-0.007730536162853241
1733859236789543400,1.26454345703125,-0.005623629782348871,0.02344892919063568,0.007292887661606073
1733859236799494100,1.274494140625,-0.003270866582170129,0.024722453206777573,0.013509020209312439
1733859236809444400,1.2844443359375,0.005539935547858477,0.010557632893323898,0.013643510639667511
1733859236819394300,1.294394287109375,0.008530136197805405,-0.0006426458712667227,0.013775747269392014
1733859236829345500,1.304345458984375,0.009367967024445534,-0.004534056875854731,0.0008809871505945921
1733859236839295500,1.31429541015625,0.00806347280740738,-0.009513849392533302,-0.0088315699249506
1733859236849246200,1.32424609375,0.004650897812098265,-0.018538502976298332,-0.0065756067633628845
1733859236859196400,1.334196533203125,-0.0014028700534254313,-0.0268631000071764,-0.0061005717143416405
1733859236869146400,1.344146484375,-0.00833880715072155,-0.029715612530708313,-0.005663813557475805
1733859236879097300,1.354097412109375,-0.015545366331934929,-0.027859441936016083,-0.0030185305513441563
1733859236889047300,1.36404736328125,-0.01404147781431675,-0.029869597405195236,-0.006518722511827946
1733859236898998300,1.373998291015625,-0.011466089636087418,-0.030560582876205444,-0.007356833666563034
1733859236908948500,1.383948486328125,-0.0043714288622140884,-0.025510163977742195,-0.009488428011536598
1733859236918898400,1.3938984375,0.001605943776667118,-0.021191349253058434,-0.007780852261930704
1733859236928849400,1.403849365234375,0.002676534466445446,-0.01834442839026451,-0.0036958293057978153
1733859236938799400,1.41379931640625,0.0031045367941260338,-0.01376576442271471,-0.0042772237211465836
1733859236948750300,1.423750244140625,-0.0010609135497361422,-0.006435945630073547,-0.003869493491947651
1733859236958700500,1.433700439453125,-0.0010056488681584597,-0.0049080015160143375,0.0053773438557982445
1733859236968650200,1.443650146484375,0.003769132774323225,-0.010999983176589012,0.011536702513694763
1733859236978601500,1.4536015625,0.006001557223498821,-0.024856606498360634,0.01359389629215002
1733859236988551400,1.463551513671875,0.008074828423559666,-0.03357579559087753,0.0036635021679103374
1733859236998502100,1.473502197265625,0.014083152636885643,-0.0376945324242115,-0.007300444412976503
1733859237008452400,1.483452392578125,0.012704966589808464,-0.04913121089339256,-0.011999858543276787
1733859237018402300,1.49340234375,0.01263432577252388,-0.05892476066946983,-0.01737343706190586
1733859237028353500,1.503353515625,0.010413248091936111,-0.07141924649477005,-0.021493880078196526
1733859237038303500,1.513303466796875,0.004828881938010454,-0.0733765959739685,-0.017748206853866577
1733859237048254200,1.523254150390625,-0.0020849506836384535,-0.06609471887350082,-0.014253874309360981
1733859237058204400,1.533204345703125,-0.008772481232881546,-0.050959475338459015,-0.011348748579621315
1733859237068153900,1.54315380859375,-0.004570279736071825,-0.04366267845034599,-0.009774553589522839
1733859237078104800,1.553104736328125,-0.005773583427071571,-0.04605884850025177,-0.006400759331882
1733859237088054800,1.5630546875,-0.004431083798408508,-0.04758350923657417,-0.005847353953868151
1733859237098005800,1.573005859375,-0.006606439594179392,-0.04950110614299774,-0.004479981958866119
1733859237107955700,1.582955810546875,-0.00814095325767994,-0.04443870484828949,-0.004234704654663801
1733859237117906700,1.59290673828125,-0.006967142224311829,-0.03668181970715523,-0.005247221793979406
1733859237127856600,1.602856689453125,-0.006398024968802929,-0.025099201127886772,-0.0041497331112623215
1733859237137806800,1.612806884765625,-0.004140008240938187,-0.018793312832713127,-0.0046229856088757515
1733859237147757800,1.6227578125,-0.000022761058062314987,-0.010335114784538746,-0.003910589963197708
1733859237157707800,1.632707763671875,-0.0046878382563591,-0.004016305319964886,-0.003424501046538353
1733859237167658800,1.64265869140625,-0.0054353876039385796,0.0028828796930611134,-0.0012718680081889033
1733859237177608700,1.652608642578125,0.0030293301679193974,0.0018133653793483973,-0.0025995688047260046
1733859237187559000,1.662558837890625,0.0022591440938413143,-0.0008979989215731621,-0.003253108588978648
1733859237197510000,1.672510009765625,-0.0023766180966049433,-0.00790434144437313,-0.004062405787408352
1733859237207459600,1.68245947265625,-0.003854139940813184,-0.0008131430950015783,-0.0029049955774098635
1733859237217410800,1.692410888671875,-0.008983276784420013,0.0032312385737895966,0.0009230186697095633
1733859237227360800,1.70236083984375,-0.010778512805700302,0.007452082820236683,0.005912983324378729
1733859237237311000,1.71231103515625,-0.015487730503082275,0.007671225816011429,0.006060704123228788
1733859237247261700,1.72226171875,-0.01612182892858982,0.001683374517597258,0.0044921026565134525
1733859237257211600,1.732211669921875,-0.012944184243679047,-0.008631372824311256,0.004738156683743
1733859237267163000,1.742162841796875,-0.008334252052009106,-0.024221250787377357,0.000010779593139886856
1733859237277112800,1.75211279296875,-0.01689484342932701,-0.034821879118680954,-0.00386536936275661
1733859237287063800,1.762063720703125,-0.019006196409463882,-0.04644843935966492,-0.011538202874362469
1733859237297013800,1.772013671875,-0.016619345173239708,-0.0584854818880558,-0.014148714952170849
1733859237306963700,1.781963623046875,-0.017814040184020996,-0.062225092202425,-0.016207605600357056
1733859237316914700,1.791914794921875,-0.016202116385102272,-0.05699663236737251,-0.01910902000963688
1733859237326864600,1.80186474609375,-0.015726476907730103,-0.04626702144742012,-0.012725421227514744
1733859237336815900,1.81181591796875,-0.013696601614356041,-0.034915387630462646,-0.004653750918805599
1733859237346765800,1.821765869140625,-0.016609834507107735,-0.026677964255213737,-0.005565883591771126
1733859237356715800,1.8317158203125,-0.016925379633903503,-0.02582782693207264,-0.004570108372718096
1733859237366666800,1.841666748046875,-0.009671729058027267,-0.021714041009545326,-0.0007098562782630324
1733859237376616700,1.85161669921875,-0.0018854828085750341,-0.02634000964462757,-0.0015943117905408144
1733859237386568000,1.86156787109375,0.002443485427647829,-0.03061092272400856,-0.004492363426834345
1733859237396517600,1.871517578125,0.005388650111854076,-0.04038656875491142,-0.007856292650103569
1733859237406467600,1.881467529296875,0.007552734576165676,-0.051169972866773605,-0.0036431713961064816
1733859237416418800,1.891418701171875,0.00978163443505764,-0.05614110082387924,0.001694962615147233
1733859237426368800,1.90136865234375,0.01104051060974598,-0.061877284198999405,-0.0016544951358810067
1733859237436319700,1.91131982421875,0.011229138821363449,-0.07676360011100769,-0.007922239601612091
1733859237446269700,1.921269775390625,0.013951156288385391,-0.09681588411331177,-0.012839767150580883
1733859237456221000,1.931220947265625,0.012448383495211601,-0.1165107861161232,-0.017589600756764412
1733859237466171000,1.9411708984375,0.014209000393748283,-0.1347332000732422,-0.022898346185684204
1733859237476120800,1.951120849609375,0.013293139636516571,-0.1623496413230896,-0.03181647136807442
1733859237486071800,1.96107177734375,0.004834141116589308,-0.18302057683467865,-0.040591321885585785
1733859237496021800,1.971021728515625,0.000618333462625742,-0.18757107853889465,-0.045951757580041885
1733859237505972700,1.98097265625,-0.005169248208403587,-0.20112070441246033,-0.054678138345479965
1733859237515922700,1.990922607421875,-0.00828475784510374,-0.22277124226093292,-0.06114118918776512
1733859237525872600,2.00087255859375,-0.0037499270401895046,-0.23850280046463013,-0.06426721066236496
1733859237535824000,2.010823974609375,0.0006098155863583088,-0.24089094996452332,-0.0633460134267807
1733859237545773800,2.02077392578125,0.00634946022182703,-0.23546263575553894,-0.06533513218164444
1733859237555724800,2.030724853515625,0.0071319215930998325,-0.2259911149740219,-0.06277547776699066
1733859237565674800,2.0406748046875,0.007130856160074472,-0.21045449376106262,-0.05020695552229881
1733859237575626000,2.0506259765625,0.00724042160436511,-0.19875575602054596,-0.0379185825586319
1733859237585576000,2.060575927734375,0.012163009494543076,-0.18134240806102753,-0.02987104468047619
1733859237595525600,2.070525634765625,0.016477128490805626,-0.17046219110488892,-0.015945028513669968
1733859237605476900,2.080476806640625,0.020399432629346848,-0.16312146186828613,-0.012448564171791077
1733859237615426800,2.0904267578125,0.022915003821253777,-0.16045214235782623,-0.01731673628091812
1733859237625377800,2.100377685546875,0.02082868292927742,-0.16203592717647552,-0.02374028041958809
1733859237635327700,2.11032763671875,0.01662006601691246,-0.17838451266288757,-0.02582535892724991
1733859237645277700,2.120277587890625,0.015691421926021576,-0.19874358177185059,-0.02986297756433487
1733859237655229000,2.13022900390625,0.018278291448950768,-0.225352481007576,-0.03043440543115139
1733859237665179000,2.140178955078125,0.015300877392292023,-0.24887724220752716,-0.031965989619493484
1733859237675129900,2.1501298828125,0.012844068929553032,-0.2671054005622864,-0.03594315052032471
1733859237685079800,2.160079833984375,0.009743085131049156,-0.2835165858268738,-0.03979168459773064
1733859237695030800,2.17003076171875,0.006554715801030397,-0.30316439270973206,-0.04301784187555313
1733859237704980700,2.179980712890625,0.0018608947284519672,-0.329163521528244,-0.0492299348115921
1733859237714930700,2.1899306640625,0.003241477534174919,-0.3551226854324341,-0.04743948578834534
1733859237724882000,2.1998818359375,0.0124520193785429,-0.3511907756328583,-0.044292427599430084
1733859237734831900,2.209831787109375,0.02727954462170601,-0.31713399291038513,-0.04611668363213539
1733859237744782600,2.219782470703125,0.03203248605132103,-0.2565164566040039,-0.047342538833618164
1733859237754732800,2.22973291015625,0.03146711364388466,-0.19112528860569,-0.03263825923204422
1733859237764683800,2.239683837890625,0.01872548647224903,-0.14415937662124634,-0.016191642731428146
1733859237774634000,2.249634033203125,0.010126255452632904,-0.12003343552350998,-0.0042763943783938885
1733859237784583700,2.259583740234375,0.0014230459928512573,-0.11565173417329788,0.0017921505495905876
1733859237794534700,2.26953466796875,-0.009442352689802647,-0.11900965869426727,-0.002126950304955244
1733859237804484900,2.27948486328125,-0.018625464290380478,-0.12324488162994385,-0.008095894008874893
1733859237814435800,2.289435791015625,-0.03316056355834007,-0.13001322746276855,-0.011965557932853699
1733859237824385800,2.2993857421875,-0.04813845083117485,-0.129193514585495,-0.008144721388816833
1733859237834335700,2.309335693359375,-0.05490736663341522,-0.1095489040017128,0.00202011875808239
1733859237844286700,2.31928662109375,-0.0526074580848217,-0.08837544173002243,0.005776507314294577
1733859237854237000,2.32923681640625,-0.04552823305130005,-0.07072704285383224,0.007088738959282637
1733859237864187600,2.339187744140625,-0.03989564627408981,-0.0638856515288353,0.01013326458632946
1733859237874137900,2.349137939453125,-0.042459163814783096,-0.05221952125430107,0.01297911349684
1733859237884088800,2.3590888671875,-0.020918985828757286,-0.03296779468655586,0.0014297834131866693
1733859237894038800,2.369038818359375,-0.0004190555773675442,-0.026595018804073334,0.0017928665038198233
1733859237903988700,2.37898876953125,0.010164080187678337,-0.026969995349645615,0.007022782228887081
1733859237913939700,2.388939697265625,0.008907639421522617,-0.04392893239855766,0.021748550236225128
1733859237923890000,2.398889892578125,0.01871446520090103,-0.07056640088558197,0.02789752185344696
1733859237933840600,2.408840576171875,0.028070293366909027,-0.10798231512308121,0.03203793615102768
1733859237943790600,2.41879052734375,0.03909578174352646,-0.1381348967552185,0.030323660001158714
1733859237953741800,2.428741943359375,0.046824853867292404,-0.16767212748527527,0.023602109402418137
1733859237963691800,2.43869189453125,0.05252375453710556,-0.1948574185371399,0.014460543170571327
1733859237973642000,2.44864208984375,0.053641099482774734,-0.21405136585235596,0.0025617172941565514
1733859237983592700,2.4585927734375,0.04908736050128937,-0.21874704957008362,-0.005935098044574261
1733859237993542700,2.468542724609375,0.039204396307468414,-0.20425893366336823,-0.006720375269651413
1733859238003494000,2.478493896484375,0.031088147312402725,-0.17469066381454468,-0.003804213833063841
1733859238013443600,2.488443603515625,0.024985605850815773,-0.14298933744430542,-0.006060801446437836
1733859238023394800,2.498394775390625,0.02520797960460186,-0.11990398913621902,-0.010087234899401665
1733859238033344800,2.5083447265625,0.02374587580561638,-0.10320097953081131,-0.013010317459702492
1733859238043294700,2.518294677734375,0.020891234278678894,-0.08452822268009186,-0.011029991321265697
1733859238053245700,2.52824560546875,0.017584726214408875,-0.07259997725486755,-0.010126914829015732
1733859238063195600,2.538195556640625,0.014352715574204922,-0.06572449207305908,-0.012094458565115929
1733859238073147600,2.548147705078125,0.014289622195065022,-0.06036311388015747,-0.014180328696966171
1733859238083097600,2.55809765625,0.005280414596199989,-0.057670656591653824,-0.00872404407709837
1733859238093048800,2.568048828125,-0.0023475573398172855,-0.048980049788951874,-0.007121179718524218
1733859238102998800,2.577998779296875,-0.00697826175019145,-0.03759210556745529,-0.0028337566182017326
1733859238112948700,2.58794873046875,-0.006186137907207012,-0.03074723295867443,-0.000923474901355803
1733859238122899700,2.597899658203125,-0.005246042273938656,-0.02280275896191597,-0.004305422771722078
1733859238132849700,2.607849609375,-0.0025826329365372658,-0.020784784108400345,-0.004771382547914982
1733859238142801000,2.61780078125,-0.00044011976569890976,-0.02742857299745083,-0.007387138903141022
1733859238152750800,2.627750732421875,0.0074301427230238914,-0.030928194522857666,-0.013552894815802574
1733859238162701800,2.637701904296875,0.011339662596583366,-0.03790727257728577,-0.015463180840015411
1733859238172651800,2.64765185546875,0.015983272343873978,-0.04342170059680939,-0.014681631699204445
1733859238182601700,2.657601806640625,0.020273357629776,-0.05426822230219841,-0.012921548448503017
1733859238192552700,2.667552734375,0.024177677929401398,-0.061255909502506256,-0.009466184303164482
1733859238202502700,2.677502685546875,0.02610979974269867,-0.06606131792068481,-0.013491552323102951
1733859238212454000,2.687453857421875,0.02611439675092697,-0.06726306676864624,-0.011686907149851322
1733859238222403800,2.69740380859375,0.0272465068846941,-0.06818611919879913,-0.0059603117406368256
1733859238232354600,2.7073544921875,0.02803824096918106,-0.07082448899745941,-0.007587858475744724
1733859238242304800,2.7173046875,0.028182316571474075,-0.0741686224937439,-0.008410775102674961
1733859238252254700,2.727254638671875,0.028905194252729416,-0.08782066404819489,-0.00040300143882632256
1733859238262206000,2.7372060546875,0.029328636825084686,-0.10037028789520264,0.00042710581328719854
1733859238272155600,2.74715576171875,0.02515357732772827,-0.10915009677410126,-0.004865575116127729
1733859238282106600,2.757106689453125,0.02429950051009655,-0.11441037058830261,-0.010903759859502316
1733859238292056800,2.767056884765625,0.014236312359571457,-0.11359311640262604,-0.019153878092765808
1733859238302007600,2.777007568359375,0.0037764813750982285,-0.09990579634904861,-0.021781619638204575
1733859238311957800,2.786957763671875,-0.004487963858991861,-0.07442013919353485,-0.02190127968788147
1733859238321907700,2.79690771484375,-0.008206801488995552,-0.036299120634794235,-0.023196907714009285
1733859238331858700,2.806858642578125,-0.009201685898005962,0.000768834026530385,-0.0234184842556715
1733859238341809000,2.816808837890625,-0.010483731515705585,0.013860400766134262,-0.01565350405871868
1733859238351759600,2.826759521484375,-0.015508581884205341,0.0078257592394948,-0.009233514778316021
1733859238361709800,2.836709716796875,-0.013644102960824966,-0.004642362240701914,-0.006727213505655527
1733859238371660800,2.846660888671875,-0.013370107859373093,-0.02128647267818451,-0.007990613579750061
1733859238381610800,2.85661083984375,-0.01419089362025261,-0.034853678196668625,-0.006881406996399164
1733859238391560700,2.866560791015625,-0.014410486444830894,-0.040806274861097336,-0.0029974556528031826
1733859238401511700,2.87651171875,-0.01937142387032509,-0.03054671362042427,-0.005498430225998163
1733859238411462000,2.8864619140625,-0.019389532506465912,-0.013060398399829865,-0.011254586279392242
1733859238421412600,2.89641259765625,-0.02021617814898491,0.0004844383802264929,-0.01593882031738758
1733859238431362600,2.906362548828125,-0.016953930258750916,0.0012447743210941553,-0.016839321702718735
1733859238441313800,2.916313720703125,-0.013817792758345604,-0.009890700690448284,-0.018059847876429558
1733859238451263700,2.926263671875,-0.00942432414740324,-0.027260057628154755,-0.02153944782912731
1733859238461214700,2.936214599609375,-0.006027462426573038,-0.040849633514881134,-0.02278687246143818
1733859238471164700,2.94616455078125,-0.0017425543628633022,-0.05244114622473717,-0.01774311065673828
1733859238481114600,2.956114501953125,0.001408764161169529,-0.06179976090788841,-0.011494802311062813
1733859238491065900,2.96606591796875,0.006057598162442446,-0.06686199456453323,-0.007741699926555157
1733859238501015600,2.976015625,0.008365226909518242,-0.06693416833877563,-0.005154172889888287
1733859238510966800,2.985966796875,0.010865767486393452,-0.059146083891391754,-0.002929012756794691
1733859238520916700,2.995916748046875,0.013828533701598644,-0.052343305200338364,-0.002131395973265171
1733859238530867700,3.00586767578125,0.014354045502841473,-0.050678692758083344,-0.0004915980389341712
1733859238540817700,3.015817626953125,0.014442996121942997,-0.048764146864414215,0.003609403735026717
1733859238550767600,3.025767578125,0.016917172819375992,-0.04499174654483795,0.007949573919177055
1733859238560718800,3.03571875,0.019057821482419968,-0.0448111817240715,0.005051522050052881
1733859238570668800,3.045668701171875,0.02333545871078968,-0.0499020479619503,0.0014582816511392593
1733859238580619800,3.055619873046875,0.022284310311079025,-0.05644011124968529,0.0023786702658981085
1733859238590569700,3.06556982421875,0.02039193920791149,-0.057579729706048965,0.0090669309720397
1733859238600521000,3.07552099609375,0.019916566088795662,-0.05098307877779007,0.010864298790693283
1733859238610470700,3.085470703125,0.016498472541570663,-0.03285712003707886,0.012276305817067623
1733859238620420600,3.095420654296875,0.015400185249745846,-0.024059901013970375,0.01295115053653717
1733859238630371800,3.105371826171875,0.012252836488187313,-0.023715004324913025,0.00827295333147049
1733859238640321800,3.11532177734375,0.01097132358700037,-0.026725707575678825,0.004255841486155987
1733859238650272800,3.125272705078125,0.006579092238098383,-0.0320788249373436,0.00020570901688188314
1733859238660222700,3.13522265625,0.005977217573672533,-0.04077271372079849,-0.003081963397562504
1733859238670173700,3.145173583984375,0.003396059386432171,-0.044176407158374786,0.0017315188888460398
1733859238680124000,3.1551240234375,-0.0011153353843837976,-0.03655816614627838,0.008477572351694107
1733859238690074600,3.16507470703125,0.0004143347032368183,-0.010628079995512962,0.008716374635696411
1733859238700024800,3.17502490234375,-0.004696803633123636,0.008166912943124771,0.010027449578046799
1733859238709974800,3.184974853515625,-0.004473097622394562,0.009619749151170254,0.014786423183977604
1733859238719925800,3.19492578125,-0.005580972880125046,0.0009165385272353888,0.01797795668244362
1733859238729875700,3.204875732421875,-0.002426144666969776,-0.0081971799954772,0.012957102619111538
1733859238739826700,3.21482666015625,0.0006237071938812733,-0.023914624005556107,0.0074536800384521484
1733859238749777000,3.22477685546875,0.0018264171667397022,-0.036024220287799835,0.002971841488033533
1733859238759727600,3.2347275390625,0.006065370049327612,-0.041079163551330566,-0.002067658118903637
1733859238769677600,3.244677490234375,0.003238182980567217,-0.03286200016736984,-0.0006558274617418647
1733859238779627800,3.254627685546875,0.005049398634582758,-0.019885744899511337,0.004061163403093815
1733859238789578800,3.264578857421875,0.010148528963327408,-0.00637274794280529,0.006176615599542856
1733859238799529000,3.274529052734375,0.015262063592672348,-0.0063019078224897385,0.007739624939858913
1733859238809479700,3.284479736328125,0.014352207072079182,-0.013610173016786575,0.00827375240623951
1733859238819429600,3.2944296875,0.01737036556005478,-0.022925909608602524,0.006662007421255112
1733859238829380900,3.304380859375,0.01839723438024521,-0.029911961406469345,0.004763093777000904
1733859238839330600,3.31433056640625,0.018535718321800232,-0.037975747138261795,0.0030570728704333305
1733859238849280800,3.32428076171875,0.017270861193537712,-0.034201882779598236,0.0034261816181242466
1733859238859231700,3.334231689453125,0.012629503384232521,-0.02121870592236519,0.005103972740471363
1733859238869181700,3.344181640625,0.011265167966485023,-0.010146000422537327,0.007597131188958883
1733859238879132700,3.354132568359375,0.010873682796955109,-0.00799523200839758,0.005421861074864864
1733859238889082600,3.36408251953125,0.00956098735332489,-0.015612021088600159,0.0025524115189909935
1733859238899033900,3.374033935546875,0.009541546925902367,-0.03549358248710632,0.0016818242147564888
1733859238908983800,3.38398388671875,0.007323714438825846,-0.05708689242601395,-0.0018186526140198112
1733859238918934800,3.393934814453125,0.006302391644567251,-0.08035732805728912,-0.007963097654283047
1733859238928884700,3.403884765625,0.006977941375225782,-0.10011570900678635,-0.015003873966634274
1733859238938834700,3.413834716796875,0.004381626378744841,-0.10928177088499069,-0.023767536506056786
1733859238948785700,3.42378564453125,0.0030774474143981934,-0.10922165215015411,-0.027966808527708054
1733859238958735600,3.433735595703125,0.005180279724299908,-0.10685703158378601,-0.03549237176775932
1733859238968686800,3.443686767578125,0.008313467726111412,-0.11066817492246628,-0.04267562925815582
1733859238978636800,3.45363671875,0.006118489895015955,-0.1213996484875679,-0.0472906157374382
1733859238988587800,3.463587890625,0.006970652844756842,-0.1300319880247116,-0.05061894655227661
1733859238998537700,3.473537841796875,0.004401500802487135,-0.12092531472444534,-0.05090497061610222
1733859239008487700,3.48348779296875,0.0002094893716275692,-0.09714509546756744,-0.045978471636772156
1733859239018439000,3.49343896484375,-0.00708410982042551,-0.07782439142465591,-0.04287295788526535
1733859239028388900,3.503388916015625,-0.018707815557718277,-0.06614691019058228,-0.04557233676314354
1733859239038339800,3.51333984375,-0.02619023248553276,-0.06673067808151245,-0.04462744668126106
1733859239048289800,3.523289794921875,-0.02451018989086151,-0.07351703196763992,-0.03780185803771019
1733859239058240800,3.53324072265625,-0.023078475147485733,-0.08243143558502197,-0.03160468488931656
1733859239068194600,3.543194580078125,-0.024309678003191948,-0.0920637995004654,-0.02652505785226822
1733859239078145800,3.553145751953125,-0.019240085035562515,-0.09679517149925232,-0.027414552867412567
1733859239088095700,3.563095703125,-0.018400074914097786,-0.10002527385950089,-0.0318630151450634
1733859239098045700,3.573045654296875,-0.019772933796048164,-0.0981442853808403,-0.028333527967333794
1733859239107996700,3.58299658203125,-0.020502492785453796,-0.09679175913333893,-0.020633263513445854
1733859239117946600,3.592946533203125,-0.02221117727458477,-0.09619148820638657,-0.01916000247001648
1733859239127897900,3.60289794921875,-0.021642783656716347,-0.10445159673690796,-0.017917104065418243
1733859239137847600,3.61284765625,-0.021162083372473717,-0.11544139683246613,-0.023653553798794746
1733859239147798500,3.622798583984375,-0.01631336845457554,-0.1230308935046196,-0.031113598495721817
1733859239157748700,3.632748779296875,-0.010447755455970764,-0.11868780851364136,-0.039708152413368225
1733859239167698700,3.64269873046875,-0.009007275104522705,-0.11126289516687393,-0.04616054892539978
1733859239177649700,3.652649658203125,-0.006484196521341801,-0.11273855715990067,-0.04237646237015724
1733859239187599600,3.662599609375,-0.004673779476433992,-0.112938292324543,-0.032834090292453766
1733859239197550600,3.672550537109375,-0.00019833724945783615,-0.11809470504522324,-0.02991020493209362
1733859239207500800,3.682500732421875,-0.00006501050665974617,-0.12927724421024323,-0.030628278851509094
1733859239217451500,3.692451416015625,-0.003351084887981415,-0.14655344188213348,-0.035745542496442795
1733859239227401700,3.702401611328125,-0.0008564514573663473,-0.15776866674423218,-0.034390516579151154
1733859239237352700,3.712352783203125,0.0027340222150087357,-0.15323010087013245,-0.03178142011165619
1733859239247302700,3.722302734375,0.011370871216058731,-0.13152965903282166,-0.03071812354028225
1733859239257252600,3.732252685546875,0.015857499092817307,-0.10342240333557129,-0.025385143235325813
1733859239267203600,3.74220361328125,0.021665731444954872,-0.07975248992443085,-0.016739800572395325
1733859239277153800,3.75215380859375,0.025182435289025307,-0.06870143860578537,-0.012881146743893623
1733859239287104500,3.7621044921875,0.027143392711877823,-0.06274186074733734,-0.00866030529141426
1733859239297054700,3.7720546875,0.024675972759723663,-0.05341307818889618,-0.006789701525121927
1733859239307005700,3.782005615234375,0.023685714229941368,-0.04191100224852562,-0.008336648344993591
1733859239316955600,3.79195556640625,0.022889960557222366,-0.02988549694418907,-0.013441662304103374
1733859239326905600,3.801905517578125,0.019773289561271667,-0.01748698391020298,-0.010827316902577877
1733859239336856600,3.811856689453125,0.012883158400654793,-0.00739467004314065,-0.00696280412375927
1733859239346806800,3.821806884765625,0.00559298787266016,0.003816301468759775,0.0007952934829518199
1733859239356757800,3.8317578125,0.0021660318598151207,0.010010814294219017,0.007023095618933439
1733859239366707500,3.84170751953125,-0.004647463094443083,0.005737260915338993,0.013102864846587181
1733859239376658700,3.85165869140625,-0.007193178869783878,-0.007514894939959049,0.01651836931705475
1733859239386608600,3.861608642578125,-0.010087719187140465,-0.037406861782073975,0.02064467966556549
1733859239396559600,3.8715595703125,-0.010490921325981617,-0.0674678236246109,0.01786567084491253
1733859239406509600,3.881509521484375,-0.008117222227156162,-0.0862167626619339,0.013467548415064812
1733859239416459500,3.89145947265625,-0.009142272174358368,-0.09093401581048965,0.003446871880441904
1733859239426410800,3.90141064453125,-0.016531165689229965,-0.10008485615253448,-0.006088230758905411
1733859239436360700,3.911360595703125,-0.021045755594968796,-0.10819151997566223,-0.014285441488027573
1733859239448799500,3.923799560546875,-0.023366164416074753,-0.09666738659143448,-0.015109755098819733
1733859239458749700,3.933749755859375,-0.020748741924762726,-0.0735284835100174,-0.013474680483341217
1733859239468700700,3.94370068359375,-0.01872234046459198,-0.051864732056856155,-0.017267022281885147
1733859239478650600,3.953650634765625,-0.014350350946187973,-0.038219861686229706,-0.022369377315044403
1733859239488600800,3.963600830078125,-0.009303927421569824,-0.02987457811832428,-0.019414067268371582
1733859239498551600,3.973551513671875,-0.0011590125504881144,-0.01508970744907856,-0.013798877596855164
1733859239508501800,3.983501708984375,0.0022615515626966953,0.010227899998426437,-0.010620128363370895
1733859239518452700,3.99345263671875,0.008452557027339935,0.03574652597308159,-0.0029012972954660654
1733859239528402700,4.003402587890625,0.009935937821865082,0.04484468325972557,0.004283112473785877
1733859239538353700,4.013353759765625,0.012127282097935677,0.04378707334399223,0.008004963397979736
1733859239548303600,4.0233037109375,0.01587248407304287,0.026342570781707764,0.007396431174129248
1733859239558254600,4.033254638671875,0.01642356999218464,0.00468774139881134,0.008049804717302322
1733859239568204500,4.04320458984375,0.01799456775188446,-0.009571888484060764,0.006993595510721207
1733859239578154500,4.053154541015625,0.015611252747476101,-0.01804346963763237,0.004852835088968277
1733859239588105700,4.063105712890625,0.009758423082530499,-0.011389029212296009,0.001101240050047636
1733859239598055700,4.0730556640625,0.010557491332292557,0.008243628777563572,-0.002568591386079788
1733859239608006700,4.083006591796875,0.006546505261212587,0.02739974670112133,-0.00024205399677157402
1733859239617956600,4.09295654296875,0.007182737346738577,0.041898176074028015,0.0004190449835732579
1733859239627907800,4.102907958984375,0.0061052232049405575,0.05282406136393547,-0.0009412976214662194
1733859239637857800,4.11285791015625,0.003853516187518835,0.04693589359521866,0.0031026098877191544
1733859239647808500,4.12280859375,-0.0017942492850124836,0.04365301877260208,0.005012096371501684
1733859239657758700,4.1327587890625,-0.006302953697741032,0.042402297258377075,0.006549462676048279
1733859239667708700,4.142708740234375,-0.012166701257228851,0.04055219888687134,0.007915398105978966
1733859239677659600,4.15265966796875,-0.017995493486523628,0.034181416034698486,0.003305362071841955
1733859239687609600,4.162609619140625,-0.020570237189531326,0.02741272933781147,-0.0015570373507216573
1733859239697560600,4.172560546875,-0.021532267332077026,0.021961919963359833,-0.005029447842389345
1733859239707510800,4.1825107421875,-0.018937550485134125,0.014813994988799095,-0.009380253963172436
1733859239717461500,4.19246142578125,-0.013770218938589096,0.0042454251088202,-0.013275031000375748
1733859239727411700,4.20241162109375,-0.010891340672969818,-0.00831430871039629,-0.011258486658334732
1733859239737361700,4.212361572265625,-0.010729033499956131,-0.019396072253584862,-0.009753893129527569
1733859239747312600,4.222312744140625,-0.008124994114041328,-0.020188363268971443,-0.006214551627635956
1733859239757262600,4.2322626953125,-0.008684352040290833,-0.01575261913239956,-0.0065295882523059845
1733859239767213600,4.242213623046875,-0.005736499093472958,-0.017460502684116364,-0.005502140149474144
1733859239777163800,4.252163818359375,-0.007448378950357437,-0.0239972323179245,-0.006890179589390755
1733859239787114500,4.262114501953125,-0.007374878507107496,-0.027015043422579765,-0.006521966308355331
1733859239797064400,4.272064453125,-0.005603610072284937,-0.034231942147016525,-0.006253252737224102
1733859239807015700,4.282015625,-0.0031814149115234613,-0.03948754072189331,-0.0028332117944955826
1733859239816965600,4.291965576171875,0.0025276034139096737,-0.03895224630832672,-0.001605228055268526
1733859239826915800,4.301915771484375,0.005815980024635792,-0.03684801608324051,-0.004490579478442669
1733859239836866600,4.311866455078125,0.011437113396823406,-0.030643384903669357,-0.005295653361827135
1733859239846816500,4.32181640625,0.014332085847854614,-0.026476867496967316,-0.0031304326839745045
1733859239856767700,4.331767822265625,0.016547570005059242,-0.027191128581762314,0.0003702923422679305
1733859239866717700,4.3417177734375,0.0162514578551054,-0.025557462126016617,0.005201294086873531
1733859239876668700,4.351668701171875,0.018456023186445236,-0.028309840708971024,0.0064465878531336784
1733859239886618600,4.36161865234375,0.018011707812547684,-0.0420561283826828,0.00929944310337305
1733859239896569900,4.37156982421875,0.016997842118144035,-0.055253688246011734,0.010548731312155724
1733859239906519600,4.38151953125,0.015234658494591713,-0.0592423714697361,0.009363175369799137
1733859239916469500,4.391469482421875,0.017610464245080948,-0.05863357335329056,0.0013688986655324697
1733859239926420700,4.401420654296875,0.01827383227646351,-0.05963543429970741,-0.004974572453647852
1733859239936370700,4.41137060546875,0.017741734161973,-0.06277450919151306,-0.011405573226511478
1733859239946321700,4.42132177734375,0.01783660426735878,-0.06930744647979736,-0.012850743718445301
1733859239956271600,4.431271728515625,0.013749451376497746,-0.07385053485631943,-0.014488854445517063
1733859239966222800,4.441222900390625,0.013715687207877636,-0.0688716322183609,-0.015934374183416367
1733859239976172800,4.4511728515625,0.010524953715503216,-0.0530410036444664,-0.012048022821545601
1733859239986123500,4.46112353515625,0.007731019519269466,-0.031073004007339478,-0.006478958763182163
1733859239996073700,4.47107373046875,0.000174832995980978,-0.017534559592604637,-0.003525246400386095
1733859240006023700,4.481023681640625,-0.004098288249224424,-0.01020007859915495,-0.0008709798566997051
1733859240015974700,4.490974609375,0.00025384966284036636,-0.011395838111639023,0.0013410418760031462
1733859240025924600,4.500924560546875,0.002068085130304098,-0.015804866328835487,-0.004216295201331377
1733859240035875600,4.51087548828125,0.00325319217517972,-0.022008700296282768,-0.00533002894371748
1733859240045825800,4.52082568359375,0.004987790249288082,-0.03190264850854874,-0.004706012085080147
1733859240055776500,4.530776611328125,0.005409102886915207,-0.03606836497783661,-0.004106801003217697
1733859240065726700,4.540726806640625,0.005389119498431683,-0.031121637672185898,-0.0012345261638984084
1733859240075672800,4.5506728515625,0.0054682157933712006,-0.014119483530521393,0.0006342139095067978
1733859240085622800,4.560622802734375,0.0031735440716147423,0.003659761045128107,0.006707039661705494
1733859240095573000,4.570572998046875,0.0012755091302096844,0.013848216272890568,0.008268184959888458
1733859240105523700,4.580523681640625,0.0010741031728684902,0.017069092020392418,0.008100144565105438
1733859240115473700,4.5904736328125,-0.00016080448403954506,0.013302317820489407,0.0048340437933802605
1733859240125425000,4.6004248046875,0.00030655087903141975,0.0012715891934931278,0.00244579347781837
1733859240135374800,4.610374755859375,0.0023441356606781483,-0.008644690737128258,0.0008348473347723484
1733859240145325800,4.620325927734375,0.002111906185746193,-0.010335182771086693,0.0020866997074335814
1733859240155275800,4.63027587890625,0.00018937001004815102,0.004345492925494909,-0.0006547583034262061
1733859240165227000,4.64022705078125,-0.004155308939516544,0.029587382450699806,-0.0008368188282474875
1733859240175177000,4.650177001953125,-0.007123135961592197,0.05183809623122215,0.005430930759757757
1733859240185126700,4.660126708984375,-0.011160559952259064,0.0631757527589798,0.008107145316898823
1733859240195078000,4.670077880859375,-0.008111240342259407,0.06295230984687805,0.0038492835592478514
1733859240205027800,4.68002783203125,-0.007913538254797459,0.05303996056318283,-0.002305997535586357
1733859240214978800,4.689978759765625,-0.008989721536636353,0.03608254715800285,-0.007731122430413961
1733859240224928800,4.6999287109375,-0.00786199513822794,0.012863680720329285,-0.015486788004636765
1733859240234880000,4.7098798828125,-0.008101413026452065,-0.01412852294743061,-0.020000845193862915
1733859240244830000,4.719829833984375,-0.008936773985624313,-0.03475182503461838,-0.02604648843407631
1733859240254780700,4.72978076171875,-0.012092620134353638,-0.03825601190328598,-0.028485944494605064
1733859240264731000,4.73973095703125,-0.015690233558416367,-0.03351810202002525,-0.02928195521235466
1733859240274680800,4.749680908203125,-0.01566440239548683,-0.02397865802049637,-0.030999427661299706
1733859240284632000,4.759632080078125,-0.012682503089308739,-0.01665927655994892,-0.03365014120936394
1733859240294582000,4.76958203125,-0.006620614789426327,-0.012028838507831097,-0.03583845868706703
1733859240304532700,4.77953271484375,-0.004848772659897804,-0.007807942107319832,-0.02819778211414814
1733859240314483000,4.78948291015625,0.0007491922006011009,0.0018068680074065924,-0.015344301238656044
1733859240324434000,4.799433837890625,0.0066696712747216225,0.014750012196600437,-0.005370922852307558
1733859240334383900,4.8093837890625,0.008207646198570728,0.009447125717997551,0.006447919644415379
1733859240344334800,4.8193349609375,0.01084127090871334,-0.011562834493815899,0.018275903537869453
1733859240354284800,4.829284912109375,0.01546451821923256,-0.037740375846624374,0.01723008044064045
1733859240364235000,4.839235107421875,0.016751091927289963,-0.05674602463841438,0.01482657715678215
1733859240374185700,4.849185791015625,0.014339333400130272,-0.06255997717380524,0.004771812818944454
1733859240384136000,4.859135986328125,0.010930994525551796,-0.05769782140851021,-0.013694100081920624
1733859240394087000,4.8690869140625,0.008079814724624157,-0.04870060086250305,-0.023433014750480652
1733859240404036900,4.879036865234375,-0.0022503030486404896,-0.0344618558883667,-0.03642429783940315
1733859240413987800,4.88898779296875,-0.016841229051351547,-0.025965042412281036,-0.050699640065431595
1733859240423937800,4.898937744140625,-0.031114740297198296,-0.024884020909667015,-0.06506245583295822
1733859240433889000,4.908888916015625,-0.049454331398010254,-0.040294937789440155,-0.07776706665754318
1733859240443838700,4.918838623046875,-0.06858869642019272,-0.06757453829050064,-0.090347521007061
1733859240453790000,4.9287900390625,-0.08281876891851425,-0.10180681198835373,-0.1016121655702591
1733859240463740000,4.938739990234375,-0.10045000165700912,-0.13384592533111572,-0.11495556682348251
1733859240473689900,4.94868994140625,-0.10771297663450241,-0.14871302247047424,-0.12121426314115524
1733859240483640800,4.958640869140625,-0.11426250636577606,-0.1426709145307541,-0.12509819865226746
1733859240493590800,4.9685908203125,-0.1148899495601654,-0.1251654326915741,-0.12427102029323578
1733859240503542000,4.9785419921875,-0.11517389863729477,-0.09656136482954025,-0.11756493151187897
1733859240513492000,4.988491943359375,-0.11410703510046005,-0.064928337931633,-0.11321678757667542
1733859240523442700,4.998442626953125,-0.11267761886119843,-0.046979766339063644,-0.1099492684006691
1733859240533393000,5.008392822265625,-0.1111481636762619,-0.04404789209365845,-0.1021624505519867
1733859240543343900,5.01834375,-0.1082523837685585,-0.05212409421801567,-0.09695702791213989
1733859240553293800,5.0282939453125,-0.10322114080190659,-0.06871798634529114,-0.09807582199573517
1733859240563243800,5.038243896484375,-0.09573277086019516,-0.09261325746774673,-0.10110402852296829
1733859240573195000,5.048195068359375,-0.0902453288435936,-0.11815696954727173,-0.09591326117515564
1733859240583145000,5.05814501953125,-0.07957573235034943,-0.1335691511631012,-0.07581286132335663
1733859240593095700,5.068095703125,-0.07046319544315338,-0.12962235510349274,-0.04807550832629204
1733859240603046000,5.0780458984375,-0.05364986136555672,-0.10744301229715347,-0.015066958963871002
1733859240612996900,5.087996826171875,-0.03807329759001732,-0.06630036979913712,0.019135484471917152
1733859240622947000,5.097947021484375,-0.023087307810783386,-0.02541160397231579,0.052482157945632935
1733859240632897800,5.107897705078125,-0.012254633009433746,0.0036647883243858814,0.08368322253227234
1733859240642847700,5.11784765625,-0.0009742106776684523,0.026332765817642212,0.10169204324483871
1733859240652798000,5.1277978515625,0.018251148983836174,0.04348086193203926,0.10396984964609146
1733859240662749000,5.1377490234375,0.03039303794503212,0.06520871073007584,0.10077603161334991
1733859240672699000,5.147698974609375,0.04443375766277313,0.09674639254808426,0.09729927033185959
1733859240682649900,5.15764990234375,0.056819215416908264,0.1288481056690216,0.10577820986509323
1733859240692599800,5.167599853515625,0.06340734660625458,0.15041093528270721,0.11522923409938812
1733859240702550800,5.17755078125,0.06492212414741516,0.1594872623682022,0.1247936263680458
1733859240712500700,5.187500732421875,0.06388722360134125,0.1425950974225998,0.11806408315896988
1733859240722452000,5.197451904296875,0.059009213000535965,0.0970579981803894,0.11117451637983322
1733859240732402000,5.20740185546875,0.05591941624879837,0.03943491727113724,0.11065014451742172
1733859240742352000,5.217351806640625,0.054421838372945786,-0.010048876516520977,0.10974136739969254
1733859240752302800,5.227302734375,0.052131254225969315,-0.03993513807654381,0.10381662845611572
1733859240762252800,5.237252685546875,0.04983249306678772,-0.04352787882089615,0.09570421278476715
1733859240772204000,5.2472041015625,0.053782228380441666,-0.0468115508556366,0.08674747496843338
1733859240782153700,5.25715380859375,0.05846009403467178,-0.053231652826070786,0.07644272595643997
1733859240792105000,5.26710498046875,0.06713934242725372,-0.07218536734580994,0.0683046355843544
1733859240802055000,5.277054931640625,0.07512978464365005,-0.08918710052967072,0.05675484612584114
1733859240812005600,5.287005615234375,0.0810217633843422,-0.09707751870155334,0.04561351239681244
1733859240821955800,5.296955810546875,0.08502168953418732,-0.1068488210439682,0.036527615040540695
1733859240831906800,5.30690673828125,0.08533886820077896,-0.10892875492572784,0.0285546462982893
1733859240841857000,5.31685693359375,0.08166282624006271,-0.10866487771272659,0.019235773012042046
1733859240851807000,5.326806884765625,0.07682492583990097,-0.1131184846162796,0.004392645321786404
1733859240861757700,5.3367578125,0.07067598402500153,-0.1292739361524582,-0.010122349485754967
1733859240871708000,5.3467080078125,0.056966304779052734,-0.1542740911245346,-0.025142043828964233
1733859240881659000,5.356658935546875,0.04952360689640045,-0.16975606977939606,-0.03645002841949463
1733859240891608800,5.36660888671875,0.04397118091583252,-0.16223371028900146,-0.04693276435136795
1733859240901559800,5.376559814453125,0.035452522337436676,-0.14204362034797668,-0.051069047302007675
1733859240911509800,5.386509765625,0.024722112342715263,-0.12788546085357666,-0.04574911668896675
1733859240921461000,5.3964609375,0.010329819284379482,-0.1286908984184265,-0.04132165387272835
1733859240931410700,5.40641064453125,-0.013619988225400448,-0.13758903741836548,-0.039392728358507156
1733859240941361000,5.41636083984375,-0.039859574288129807,-0.1497616320848465,-0.034420497715473175
1733859240951312000,5.426311767578125,-0.05277670547366142,-0.16016606986522675,-0.024192627519369125
1733859240961261800,5.43626171875,-0.05823134630918503,-0.16088330745697021,-0.018660269677639008
1733859240971212800,5.446212890625,-0.055815860629081726,-0.1515374779701233,-0.019755894318223
1733859240981162800,5.456162841796875,-0.04838176816701889,-0.13928435742855072,-0.020887216553092003
1733859240991114000,5.466114013671875,-0.03422360494732857,-0.12749160826206207,-0.022032909095287323
1733859241001064000,5.47606396484375,-0.027516426518559456,-0.11362462490797043,-0.017544306814670563
1733859241011015000,5.486014892578125,-0.013139883987605572,-0.09380271285772324,-0.006445848383009434
1733859241020964900,5.49596484375,-0.0037239245139062405,-0.07182841747999191,0.0033580176532268524
1733859241030916000,5.505916015625,0.00176937784999609,-0.05574612319469452,0.010847092606127262
1733859241040865800,5.51586572265625,0.007215086370706558,-0.044143665581941605,0.021749909967184067
1733859241050815700,5.525815673828125,0.01068172324448824,-0.036202650517225266,0.028461609035730362
1733859241060767000,5.53576708984375,0.013926828280091286,-0.030646713450551033,0.03343859314918518
1733859241070717000,5.545717041015625,0.016877876594662666,-0.03629474714398384,0.035155799239873886
1733859241080668700,5.555668701171875,0.014896128326654434,-0.04468957707285881,0.035815220326185226
1733859241090619000,5.565618896484375,0.011700069531798363,-0.04067885875701904,0.03224525228142738
1733859241100569600,5.575569580078125,0.00971162412315607,-0.01849980093538761,0.035758912563323975
1733859241110519600,5.58551953125,0.005403961054980755,0.015249906107783318,0.03452933579683304
1733859241120470800,5.595470703125,0.004571436904370785,0.05024857074022293,0.03372187912464142
1733859241130420700,5.605420654296875,-0.000374319264665246,0.07006008923053741,0.032931454479694366
1733859241140371000,5.615370849609375,-0.0002519316039979458,0.07640648633241653,0.030684376135468483
1733859241150321700,5.62532177734375,0.002136391121894121,0.07324264943599701,0.025534089654684067
1733859241160271600,5.635271728515625,0.006572489161044359,0.06187889352440834,0.023175587877631187
1733859241170222800,5.645222900390625,0.005296302493661642,0.052689388394355774,0.017550991848111153
1733859241180172800,5.6551728515625,0.0034346524626016617,0.04580633342266083,0.008547186851501465
1733859241190123800,5.665123779296875,-0.0007467768155038357,0.03860914334654808,-0.0010804064804688096
1733859241200073700,5.67507373046875,-0.0033059073612093925,0.029756145551800728,-0.007063650526106358
1733859241210025000,5.68502490234375,-0.008586956188082695,0.017159393057227135,-0.009492453187704086
1733859241219974700,5.694974609375,-0.015144860371947289,0.009011732414364815,-0.012035656720399857
1733859241229924600,5.704924560546875,-0.018554240465164185,0.005724325776100159,-0.014845557510852814
1733859241239875800,5.714875732421875,-0.022241611033678055,0.00976918637752533,-0.015249226242303848
1733859241249825800,5.72482568359375,-0.024895185604691505,0.014843041077256203,-0.015911554917693138
1733859241259776800,5.73477685546875,-0.02724306844174862,0.015492267906665802,-0.0185508131980896
1733859241269726700,5.744726806640625,-0.025777531787753105,0.007764041423797607,-0.01801498606801033
1733859241279677700,5.754677734375,-0.025014176964759827,-0.004937705118209124,-0.01998830772936344
1733859241289628000,5.7646279296875,-0.023682063445448875,-0.017517413944005966,-0.02087780460715294
1733859241299578600,5.77457861328125,-0.0215970017015934,-0.02452503703534603,-0.016603967174887657
1733859241309528800,5.78452880859375,-0.01949337124824524,-0.021292492747306824,-0.013392195105552673
1733859241319478800,5.794478759765625,-0.016489852219820023,-0.014498055912554264,-0.009267914108932018
1733859241329429500,5.804429443359375,-0.013053309172391891,-0.00032764230854809284,-0.006617269478738308
1733859241339379700,5.814379638671875,-0.006932957097887993,0.010909467935562134,-0.00538237439468503
1733859241349330700,5.82433056640625,-0.0051188115030527115,0.012200302444398403,-0.008657529950141907
1733859241359281000,5.834281005859375,-0.0030567492358386517,0.0015801646513864398,-0.01039399765431881
1733859241369231600,5.844231689453125,-0.00004284968599677086,-0.017757579684257507,-0.01274876482784748
1733859241379181600,5.854181640625,0.003383831586688757,-0.03626531362533569,-0.01723559945821762
1733859241389132800,5.8641328125,0.004909556824713945,-0.0500146821141243,-0.017314428463578224
1733859241399082800,5.874082763671875,0.001575286965817213,-0.05345512554049492,-0.017236458137631416
1733859241409033700,5.88403369140625,-0.0025334381498396397,-0.04294682294130325,-0.015091813169419765
1733859241418983700,5.893983642578125,-0.005421673879027367,-0.017024733126163483,-0.011375696398317814
1733859241428933600,5.90393359375,-0.007632097695022821,0.010663353838026524,-0.007542076520621777
1733859241438884600,5.913884521484375,-0.008494101464748383,0.029873039573431015,-0.003930685576051474
1733859241448834600,5.92383447265625,-0.011521317064762115,0.03403236344456673,-0.0028952485881745815
1733859241458785800,5.933785888671875,-0.015899695456027985,0.022480202838778496,-0.004292862489819527
1733859241468735700,5.94373583984375,-0.01538463868200779,0.0042101177386939526,-0.008477753959596157
1733859241478686700,5.953686767578125,-0.013747072778642178,-0.011721540242433548,-0.010209554806351662
1733859241488636700,5.96363671875,-0.018136493861675262,-0.01671896129846573,-0.010204761289060116
1733859241498588000,5.973587890625,-0.018546398729085922,-0.00177654973231256,-0.010474343784153461
1733859241508537900,5.983537841796875,-0.01944068819284439,0.02314877323806286,-0.010002698749303818
1733859241518487800,5.99348779296875,-0.015483662486076355,0.04051189869642258,-0.00839662179350853
1733859241528438800,6.003438720703125,-0.012761378660798073,0.042611539363861084,-0.008318057283759117
1733859241538388700,6.013388671875,-0.00999818928539753,0.036990903317928314,-0.001454588258638978
1733859241548340000,6.023340087890625,-0.0077755143865942955,0.022930745035409927,0.0008226807694882154
1733859241558289700,6.03328955078125,-0.0036525221075862646,0.01027513574808836,0.0008540423586964607
1733859241568240600,6.04324072265625,-0.0026551682967692614,0.006262018345296383,0.0024575316347181797
1733859241578190800,6.05319091796875,0.00009709177538752556,0.013300036080181599,0.0025982463266700506
1733859241588141600,6.0631416015625,0.0004041544161736965,0.03348306939005852,0.0011289803078398108
1733859241598091800,6.073091796875,-0.0017139601986855268,0.055928874760866165,0.0040643904358148575
1733859241608041700,6.083041748046875,-0.0012891858350485563,0.07500749081373215,0.008366194553673267
1733859241617992700,6.09299267578125,-0.0017129478510469198,0.08058374375104904,0.01084265299141407
1733859241627943000,6.10294287109375,-0.0035657091066241264,0.07621695846319199,0.012690354138612747
1733859241637893600,6.1128935546875,-0.008095912635326385,0.06074543297290802,0.01232968457043171
1733859241647843800,6.12284375,-0.007671670988202095,0.04011419042944908,0.01133739110082388
1733859241657794800,6.132794921875,-0.005302930250763893,0.029595868661999702,0.0069304038770496845
1733859241667744500,6.14274462890625,-0.0036586944479495287,0.025461310520768166,0.003980420064181089
1733859241677695700,6.15269580078125,-0.0024956290144473314,0.028831660747528076,0.0016038685571402311
1733859241687645700,6.162645751953125,-0.0039545088075101376,0.03404080122709274,0.0034920498728752136
1733859241697596000,6.172595947265625,-0.0036694009322673082,0.029804246500134468,0.000783278257586062
1733859241707546600,6.182546630859375,-0.002549541648477316,0.018606454133987427,-0.002712919842451811
1733859241717496600,6.19249658203125,0.0014677736908197403,0.0019070650450885296,-0.004459037445485592
1733859241727447800,6.20244775390625,0.0006975876167416573,-0.013371756300330162,-0.005743479356169701
1733859241737397800,6.212397705078125,0.000967725645750761,-0.016152961179614067,-0.009863575920462608
1733859241747348700,6.2223486328125,0.000678772572427988,-0.013358505442738533,-0.017478620633482933
1733859241757298700,6.232298583984375,-0.005813559517264366,-0.007098077796399593,-0.01808885484933853
1733859241767250000,6.24225,-0.008372857235372066,-0.003649817081168294,-0.016102401539683342
1733859241777199900,6.252199951171875,-0.006991326808929443,-0.004472917877137661,-0.016338791698217392
1733859241787150600,6.262150634765625,-0.006892523728311062,-0.003497401950880885,-0.01674971915781498
1733859241797100800,6.272100830078125,-0.00610628817230463,-0.003714765189215541,-0.012338465079665184
1733859241807050800,6.28205078125,-0.0036529838107526302,-0.0032556361984461546,-0.009667580015957355
1733859241817001700,6.292001708984375,-0.004952434916049242,-0.00241001695394516,-0.010536916553974152
1733859241826951700,6.30195166015625,-0.0017103024292737246,-0.005904350895434618,-0.008171763271093369
1733859241836902700,6.311902587890625,0.0004398329183459282,-0.0012782884296029806,-0.00641533313319087
1733859241846852900,6.321852783203125,-0.0013540724758058786,0.012692388147115707,-0.006145821418613195
1733859241856803600,6.331803466796875,-0.004464235622435808,0.025499962270259857,-0.00333779351785779
1733859241866753800,6.34175390625,-0.009538356214761734,0.027161775156855583,0.0012692089658230543
1733859241876704800,6.351704833984375,-0.010645058006048203,0.03150488808751106,0.0011217034189030528
1733859241886655000,6.361655029296875,-0.012110595591366291,0.03378215804696083,0.0008442020043730736
1733859241896604700,6.371604736328125,-0.01404235977679491,0.029798535630106926,0.0016999553190544248
1733859241906555600,6.3815556640625,-0.011805570684373379,0.02633695863187313,0.0011875631753355265
1733859241916505900,6.391505859375,-0.008162412792444229,0.02062957175076008,-0.0007577827200293541
1733859241926456600,6.40145654296875,-0.005284867715090513,0.013678720220923424,-0.0035373240243643522
1733859241936406800,6.41140673828125,-0.0033418559469282627,0.003403548849746585,-0.004483742639422417
1733859241946357800,6.421357666015625,0.0005130697973072529,-0.0037584903184324503,-0.005643283016979694
1733859241956307700,6.4313076171875,0.0012517832219600677,-0.0039326283149421215,-0.007777980994433165
1733859241966258700,6.4412587890625,0.0022499356418848038,-0.007499932777136564,-0.005659435875713825
1733859241976208600,6.451208740234375,0.0015894193202257156,-0.01372202392667532,-0.004809102509170771
1733859241986158800,6.461158935546875,0.001207255758345127,-0.01790265366435051,-0.003952363505959511
1733859241996109800,6.47110986328125,0.0016363202594220638,-0.017055071890354156,-0.0021188503596931696
1733859242006059500,6.4810595703125,0.000767863355576992,-0.007328675128519535,-0.0014690388925373554
1733859242016010800,6.4910107421875,-0.0006726402789354324,0.005284056067466736,0.0015363383572548628
1733859242025960700,6.500960693359375,-0.005238896235823631,0.01945180632174015,0.003500686027109623
1733859242035911700,6.51091162109375,-0.0034594726748764515,0.024507703259587288,0.003740980289876461
1733859242045861600,6.520861572265625,-0.00501342723146081,0.01759786531329155,0.0023766430094838142
1733859242055812900,6.530812744140625,-0.001107996329665184,0.0014027159195393324,-0.00019418878946453333
1733859242065762800,6.5407626953125,-0.0008027981966733932,-0.015087044797837734,-0.002184369135648012
1733859242075711700,6.550711669921875,0.0026021781377494335,-0.02508285455405712,-0.006646218243986368
1733859242085662700,6.560662841796875,0.0016282601282000542,-0.033099234104156494,-0.010172775946557522
1733859242095612400,6.5706123046875,-0.0012992036063224077,-0.04076612740755081,-0.013053417205810547
1733859242105563600,6.580563720703125,-0.003831336973235011,-0.04154403880238533,-0.011107445694506168
1733859242115513600,6.590513671875,-0.003651705337688327,-0.02587907202541828,-0.009104335680603981
1733859242125464600,6.600464599609375,-0.0049201687797904015,-0.000923388171941042,-0.004913319833576679
1733859242135414500,6.61041455078125,-0.0023529077880084515,0.020680274814367294,0.0009518385631963611
1733859242145365800,6.62036572265625,-0.0036019303370267153,0.031279124319553375,0.007422787137329578
1733859242155315700,6.630315673828125,-0.0023633327800780535,0.029534615576267242,0.011563237756490707
1733859242165266400,6.640266357421875,-0.001040540635585785,0.017932288348674774,0.009748294949531555
1733859242175216600,6.650216552734375,0.004944952670484781,-0.0005214172415435314,0.005424884147942066
1733859242185166600,6.66016650390625,0.005183305125683546,-0.019495641812682152,-0.00007108156569302082
1733859242195117800,6.670117919921875,0.007592480164021254,-0.025633113458752632,-0.002507671480998397
1733859242205067500,6.680067626953125,0.005521339830011129,-0.02015099674463272,-0.0019422825425863266
1733859242215018500,6.6900185546875,0.00233908137306571,-0.0059278192929923534,-0.001124066999182105
1733859242224968700,6.69996875,0.0057753585278987885,0.011751042678952217,0.0002674347488209605
1733859242234919400,6.70991943359375,0.008280854672193527,0.016423910856246948,0.004227980971336365
1733859242244869600,6.71986962890625,0.009825753048062325,0.004123302176594734,0.007127364166080952
1733859242254820600,6.729820556640625,0.016072778031229973,-0.01962600275874138,0.008513182401657104
1733859242264770600,6.7397705078125,0.020978854969143867,-0.03829636052250862,0.007833543233573437
1733859242274720800,6.749720703125,0.019933320581912994,-0.053111009299755096,0.007013377267867327
1733859242284671500,6.75967138671875,0.019930925220251083,-0.060695428401231766,0.001605562400072813
1733859242294621700,6.76962158203125,0.017242901027202606,-0.05748358741402626,0.0017021517269313335
1733859242304572700,6.77957275390625,0.012030561454594135,-0.039526425302028656,0.002676602452993393
1733859242314522600,6.789522705078125,0.005348399747163057,-0.012928353622555733,0.00046369433403015137
1733859242324473600,6.7994736328125,0.0024881651625037193,0.0017235606210306287,0.004690131172537804
1733859242334423600,6.809423583984375,0.0018513859249651432,0.00812706258147955,0.004382557235658169
1733859242344374800,6.819374755859375,0.0028351577930152416,0.0045733400620520115,0.002852571429684758
1733859242354324500,6.829324462890625,0.00418711407110095,-0.0037923785857856274,0.002514135092496872
1733859242364274400,6.8392744140625,0.0033122655004262924,-0.010631908662617207,0.0017087952001020312
1733859242374225700,6.8492255859375,0.004489630926400423,-0.01714295521378517,-0.003097295528277755
1733859242384175600,6.859175537109375,0.004255272913724184,-0.020184285938739777,-0.0027132679242640734
1733859242394126600,6.869126708984375,0.0012381491251289845,-0.017395423725247383,-0.002609256189316511
1733859242404076500,6.87907666015625,-0.0005965027958154678,-0.006331321783363819,-0.002710456494241953
1733859242414027800,6.88902783203125,-0.0002818126231431961,0.0030620819889009,-0.0010541286319494247
1733859242423977700,6.898977783203125,-0.0011587915942072868,0.01029655896127224,0.0004193984204903245
1733859242433928700,6.9089287109375,-0.0006584310904145241,0.011328833177685738,0.0013334874529391527
1733859242443878700,6.918878662109375,0.004582669585943222,0.002214164473116398,-0.00144738529343158
1733859242453828600,6.92882861328125,0.005494370590895414,-0.014315162785351276,-0.0009510481031611562
1733859242463779600,6.938779541015625,0.006829147692769766,-0.033114150166511536,-0.00455137575045228
1733859242473729500,6.9487294921875,0.008285339921712875,-0.04392071068286896,-0.006798637565225363
1733859242483680800,6.9586806640625,0.00783633068203926,-0.043725233525037766,-0.009119582362473011
1733859242493630700,6.968630615234375,0.003702276386320591,-0.03428502380847931,-0.00598976481705904
1733859242503581400,6.97858154296875,0.002370163332670927,-0.0260436050593853,-0.004029411822557449
1733859242513531600,6.98853173828125,0.002276301383972168,-0.027117842808365822,-0.004173658322542906
1733859242523482600,6.998482666015625,0.0020693736150860786,-0.034300122410058975,-0.0013057001633569598
1733859242533432800,7.008432861328125,0.002890811301767826,-0.037031274288892746,0.0013911859132349491
1733859242543382500,7.018382568359375,0.006991812959313393,-0.03229963779449463,0.001355233252979815
1733859242553333500,7.02833349609375,0.009891422465443611,-0.027101730927824974,0.0018372014164924622
1733859242563283700,7.03828369140625,0.012689605355262756,-0.030730819329619408,0.002689945511519909
1733859242573234400,7.048234375,0.013637565076351166,-0.02955726534128189,0.004104337655007839
1733859242583184600,7.0581845703125,0.012831160798668861,-0.019411420449614525,0.00640903739258647
1733859242593135600,7.068135498046875,0.006994967814534903,-0.007038275711238384,0.008828798308968544
1733859242603085600,7.07808544921875,0.004385869484394789,0.0013211207697167993,0.00931562390178442
1733859242613036500,7.08803662109375,0.001817462034523487,0.002761476906016469,0.008509200066328049
1733859242622986500,7.097986572265625,0.0004238300025463104,0.006059269420802593,0.008066050708293915
1733859242632936700,7.107936767578125,0.0019697570241987705,0.002397635718807578,0.005149029195308685
1733859242642887700,7.1178876953125,0.0024611102417111397,-0.005784394219517708,0.0010179337114095688
1733859242652837600,7.127837646484375,0.003441943321377039,-0.015241192653775215,0.0012151611736044288
1733859242662788600,7.13778857421875,0.0033964035101234913,-0.017329378053545952,-0.0011957986280322075
1733859242672738600,7.147738525390625,0.0012499140575528145,-0.014061077497899532,-0.0023564225994050503
1733859242682689800,7.157689697265625,-0.0000553010031580925,-0.009198945015668869,-0.001080768066458404
1733859242692639500,7.167639404296875,-0.0031725310254842043,-0.010171531699597836,-0.0008314963197335601
1733859242702590700,7.1775908203125,-0.0033272607252001762,-0.014271200634539127,-0.00037636200431734324
1733859242712540700,7.187540771484375,-0.0016352585516870022,-0.022738255560398102,-0.0018612558487802744
1733859242722490600,7.19749072265625,0.0006310916505753994,-0.026506362482905388,-0.0029741907492280006
1733859242732441600,7.207441650390625,0.0018698745407164097,-0.027177128940820694,-0.0016656859079375863
1733859242742391600,7.2173916015625,0.0032262224704027176,-0.02492782473564148,-0.0008949671173468232
1733859242752342800,7.2273427734375,0.0064086043275892735,-0.025271572172641754,0.000011755968444049358
1733859242762292700,7.237292724609375,0.009699206799268723,-0.02391788735985756,-0.0007211460033431649
1733859242772243500,7.247243408203125,0.007604992017149925,-0.019603364169597626,0.0006744337733834982
1733859242782193700,7.257193603515625,0.007254253141582012,-0.016299981623888016,0.004440143704414368
1733859242792144600,7.26714453125,0.004882784094661474,-0.012320021167397499,0.008322067558765411
1733859242802094600,7.277094482421875,0.004769067745655775,-0.005798205733299255,0.007030168082565069
1733859242812045600,7.287045654296875,0.00614313455298543,0.0009075349662452936,0.002795200329273939
1733859242821995500,7.29699560546875,0.007828116416931152,0.0009669235441833735,0.004853823687881231
1733859242831945700,7.30694580078125,0.004829795099794865,-0.002498634858056903,0.006835069507360458
1733859242841896400,7.316896484375,0.008445835672318935,-0.0035745517816394567,0.004655804485082626
1733859242851846700,7.3268466796875,0.009317951276898384,-0.0017017682548612356,0.001399564789608121
1733859242861797600,7.336797607421875,0.005358096212148666,0.0026924475096166134,0.004401213489472866
1733859242871747600,7.34674755859375,0.004788603167980909,0.004655168391764164,0.0022517407778650522
1733859242881698600,7.356698486328125,0.0026900325901806355,0.0077460333704948425,0.004246181808412075
1733859242891648500,7.3666484375,0.00019332487136125565,0.006852990016341209,0.0036534706596285105
1733859242901599700,7.376599853515625,-0.0013830000534653664,0.0006829781923443079,0.005714491009712219
1733859242911549700,7.3865498046875,-0.006032666191458702,-0.0009883029852062464,0.003677156288176775
1733859242921499600,7.396499755859375,-0.006008964031934738,-0.007528227753937244,-0.0018409135518595576
1733859242931450600,7.40645068359375,-0.005806273780763149,-0.013376014307141304,-0.00484780129045248
1733859242941400600,7.416400634765625,-0.0026022247038781643,-0.019826188683509827,-0.004791076295077801
1733859242951351600,7.4263515625,-0.00018419325351715088,-0.021651703864336014,-0.0037901634350419044
1733859242961301500,7.436301513671875,0.0006278045475482941,-0.01597224734723568,-0.002034873701632023
1733859242971252700,7.446252685546875,0.003947648219764233,-0.006285413168370724,0.002229365985840559
1733859242981202700,7.45620263671875,0.00480305589735508,0.007735331077128649,0.004695985931903124
1733859242991153700,7.466153564453125,0.0036942115984857082,0.013825995847582817,0.004502361640334129
1733859243001103600,7.476103515625,0.003177824430167675,0.007267961744219065,0.005595056805759668
1733859243011053600,7.486053466796875,0.005850306712090969,0.004786612465977669,0.005534432828426361
1733859243021004800,7.4960048828125,0.002985011786222458,0.0020933574996888638,0.006471066735684872
1733859243030954500,7.50595458984375,0.0077923801727592945,-0.0008369851857423782,0.0033043872099369764
1733859243040905700,7.51590576171875,0.004180334974080324,0.0014237723080441356,0.003304653335362673
1733859243050855700,7.525855712890625,0.001045773271471262,0.008841940201818943,0.002550992649048567
1733859243060806400,7.535806396484375,-0.0011753032449632883,0.012292332015931606,0.0009277958888560534
1733859243070756600,7.545756591796875,-0.0032906222622841597,0.011046137660741806,0.0006382397841662169
1733859243080708400,7.555708251953125,-0.005010491702705622,0.0075928159058094025,0.0005815144395455718
1733859243090658300,7.565658203125,-0.006695724558085203,0.005799861624836922,-0.0004553757607936859
1733859243100608300,7.575608154296875,-0.003696472616866231,0.003964411094784737,-0.001226094551384449
1733859243110559200,7.585559326171875,-0.004855643957853317,-0.0003456166014075279,-0.001681205932982266
1733859243120509400,7.595509521484375,-0.003415406681597233,0.0003958074375987053,0.0003044470213353634
1733859243130460200,7.605460205078125,0.00031130295246839523,0.008668201044201851,0.001974081387743354
1733859243140410000,7.61541015625,-0.0003582155331969261,0.013276800513267517,0.0029133781790733337
1733859243150361300,7.625361328125,-0.00038361665792763233,0.01866772398352623,0.0025073217693716288
1733859243160311300,7.635311279296875,-0.0005495315417647362,0.00976078025996685,0.00514065520837903
1733859243170262300,7.64526220703125,0.0013557584024965763,0.00023231655359268188,0.0009348592720925808
1733859243180212200,7.655212158203125,0.0005086068995296955,-0.00743598910048604,-0.0006108393426984549
1733859243190162200,7.665162109375,-0.0017666437197476625,-0.012864071875810623,-0.0031621898524463177
1733859243200113400,7.675113525390625,-0.0026311057154089212,-0.013218538835644722,-0.003051934763789177
1733859243210063000,7.68506298828125,-0.0039169080555438995,-0.006827649660408497,-0.0019873958081007004
1733859243220014300,7.695014404296875,-0.0007671876810491085,0.001996734645217657,0.0003463323228061199
1733859243229964300,7.70496435546875,-0.0001298410352319479,0.006953558884561062,-0.0006984125357121229
1733859243239915300,7.714915283203125,0.0017415620386600494,0.0036325969267636538,-0.00047177751548588276
1733859243249865200,7.724865234375,0.0035287155769765377,-0.004066535737365484,0.003526877611875534
1733859243259816200,7.734816162109375,0.0030615972355008125,-0.0028902175836265087,0.003545253537595272
1733859243269766400,7.744766357421875,0.005518428515642881,-0.003981279209256172,0.004007201176136732
1733859243279716400,7.75471630859375,0.002738088835030794,-0.004043864086270332,0.002462834119796753
1733859243289667300,7.764667236328125,0.0030368235893547535,-0.0017630828078836203,0.002442331286147237
1733859243299617300,7.7746171875,-0.0007174345664680004,0.002039644867181778,0.004740373231470585
1733859243309568300,7.784568359375,-0.0015651446301490068,0.007722664158791304,0.00353696895763278
1733859243319518200,7.794518310546875,-0.0031297518871724606,0.01138211414217949,0.0016525161918252707
1733859243329469200,7.80446923828125,-0.0015183589421212673,0.0066375890746712685,0.0008422444807365537
1733859243339419400,7.81441943359375,-0.0012339332606643438,-0.004256337881088257,-0.0015324961859732866
1733859243349370400,7.824370361328125,-0.0012143086642026901,-0.01058751717209816,-0.0020203315652906895
1733859243359320000,7.834320068359375,0.00036760885268449783,-0.01811360940337181,-0.004729032516479492
1733859243369270300,7.844270263671875,-0.0016809662338346243,-0.01978522725403309,-0.00658898102119565
1733859243379221200,7.85422119140625,-0.0007810841780155897,-0.016828851774334908,-0.00879647396504879
1733859243389171500,7.86417138671875,-0.0007477945182472467,-0.00934670027345419,-0.008097660727798939
1733859243399122200,7.8741220703125,-0.0026812495198100805,-0.005171928554773331,-0.0036781453527510166
1733859243409072000,7.884072021484375,-0.003238335717469454,0.001357126166112721,0.000509219360537827
1733859243419023400,7.8940234375,-0.0012356385122984648,0.014514739625155926,0.0034378976561129093
1733859243428973300,7.903973388671875,-0.001085649710148573,0.022025451064109802,0.0026385283563286066
1733859243438924300,7.91392431640625,0.00042516179382801056,0.017414720728993416,0.003940015099942684
1733859243448874200,7.923874267578125,0.0006802217103540897,0.01332841720432043,0.004086494445800781
1733859243458824400,7.933824462890625,-0.0032630027271807194,0.006818769965320826,-0.00026147987227886915
1733859243468775200,7.943775146484375,-0.0019814895931631327,-0.0018325084820389748,-0.0019376733107492328
1733859243478725000,7.95372509765625,-0.001147913048043847,-0.006693929433822632,-0.0034592931624501944
1733859243488676400,7.96367626953125,-0.0031287723686546087,-0.007138943299651146,-0.006614605896174908
1733859243498626300,7.973626220703125,-0.002929284702986479,-0.0058978404849767685,-0.0073728314600884914
1733859243508577300,7.983577392578125,-0.002315159887075424,0.002275667153298855,-0.005699567496776581
1733859243518527200,7.99352734375,-0.003556701820343733,0.005391282960772514,-0.005195610225200653
1733859243528478500,8.003478515625,-0.0013044665101915598,0.005436023697257042,-0.004260041750967503
1733859243538428400,8.013428466796874,-0.0034594726748764515,0.004500172566622496,-0.0012870676582679152
1733859243548378000,8.023378173828124,-0.00011001504026353359,0.010811598040163517,0.000766495824791491
1733859243558329300,8.033329345703125,-0.000033253803849220276,0.015956886112689972,0.0013495911844074726
1733859243568279300,8.043279296875,-0.0017137082759290934,0.01739419437944889,0.0035339160822331905
1733859243578230300,8.053230224609376,-0.0017352947033941746,0.015396729111671448,0.005161418579518795
1733859243588180200,8.06318017578125,-0.002586707239970565,0.02406691573560238,0.005988330114632845
1733859243598131200,8.073131103515625,-0.003480002749711275,0.02888728678226471,0.003280166070908308
1733859243608081400,8.083081298828125,-0.002456283662468195,0.021516723558306694,0.0031797648407518864
1733859243618032000,8.0930322265625,-0.0018302612006664276,0.008148965425789356,0.00429565878584981
1733859243627982300,8.102982421875,-0.004561865236610174,-0.0024410944897681475,-0.000846905168145895
1733859243637932300,8.112932373046876,-0.0055042714811861515,-0.010838819667696953,-0.0067032258957624435
1733859243647883300,8.12288330078125,-0.0044541871175169945,-0.014988558366894722,-0.009683037176728249
1733859243657833200,8.132833251953125,-0.006495090667158365,-0.01594739407300949,-0.012071633711457253
1733859243667784200,8.1427841796875,-0.008837606757879257,-0.006546170450747013,-0.008600203320384026
1733859243677734400,8.152734375,-0.006518308073282242,0.01142807025462389,-0.0040474385023117065
1733859243687685400,8.162685302734374,-0.00360321206972003,0.03148407116532326,0.000046372879296541214
1733859243697635000,8.172635009765624,-0.0038123116828501225,0.03939200937747955,0.0030926954932510853
1733859243707586300,8.18258642578125,-0.0011701895855367184,0.03661593049764633,0.007279717363417149
1733859243717536300,8.192536376953125,-0.0007784625049680471,0.03135167434811592,0.007539022713899612
1733859243727486500,8.202486572265625,0.0018498110584914684,0.03352507948875427,0.0077707176096737385
1733859243737437200,8.212437255859374,0.0005555800162255764,0.03661278262734413,0.006518919486552477
1733859243747387100,8.22238720703125,-0.0008255350403487682,0.03902667388319969,0.006571650039404631
1733859243757338400,8.23233837890625,-0.0013484719675034285,0.03774705529212952,0.003682685550302267
1733859243767288300,8.242288330078125,-0.0015226427931338549,0.03577951341867447,0.005563942715525627
1733859243777239300,8.2522392578125,-0.0008432704489678144,0.035085760056972504,0.005497097037732601
1733859243787189200,8.262189208984376,0.00021232804283499718,0.0319787859916687,0.007110068574547768
1733859243797140500,8.272140380859375,0.0014195390976965427,0.02702849917113781,0.0043576909229159355
1733859243807090200,8.282090087890625,-0.00039629871025681496,0.02124577760696411,0.002058237325400114
1733859243817040100,8.2920400390625,-0.0011835291516035795,0.016810815781354904,-0.0023721978068351746
1733859243826991400,8.301991455078126,-0.0055904630571603775,0.01310719270259142,-0.0008290080586448312
1733859243836941300,8.31194140625,-0.004586184863001108,0.0074655525386333466,-0.0007488470291718841
1733859243846892300,8.321892333984374,-0.005579641554504633,0.005168193019926548,0.0011934777721762657
1733859243856842200,8.33184228515625,-0.0025923738721758127,0.004213183652609587,0.0027503615710884333
1733859243866793500,8.34179345703125,-0.0017603135202080011,0.004151093307882547,-0.0009923926554620266
1733859243876743400,8.351743408203125,-0.0008921229746192694,0.001472219591960311,-0.0016962660010904074
1733859243886694100,8.361694091796876,-0.00009684637188911438,-0.0037876677233725786,0.00042072206269949675
1733859243896644400,8.371644287109374,0.004167673643678427,-0.012225095182657242,0.000021780608221888542
1733859243906595300,8.38159521484375,0.001589273102581501,-0.02033606730401516,0.00037571159191429615
1733859243916545300,8.391545166015625,0.002488090191036463,-0.01684572920203209,-0.0016815804410725832
1733859243926495200,8.4014951171875,-0.0006420987192541361,-0.004474320448935032,-0.0017789960838854313
1733859243936446200,8.4114462890625,-0.0028165699914097786,0.009606610983610153,-0.0021614262368530035
1733859243946396400,8.421396484375,-0.004484404344111681,0.018565308302640915,-0.0004738337593153119
1733859243956347100,8.43134716796875,-0.0043062386102974415,0.01986466534435749,0.0019115596078336239
1733859243966297300,8.44129736328125,-0.0023784658405929804,0.011702589690685272,0.0016529907006770372
1733859243976248300,8.451248291015625,0.0006410260684788227,0.010658631101250648,0.001946737407706678
1733859243986198300,8.4611982421875,-0.0002747878897935152,0.008759231306612492,-0.000029420945793390274
1733859243996149200,8.471149169921874,-0.0006862462032586336,0.0021013286896049976,-0.0008286354131996632
1733859244006099200,8.48109912109375,0.0014093481004238129,-0.005693444982171059,-0.00047354341950267553
1733859244016049400,8.49104931640625,0.00006098952144384384,-0.008483638055622578,-0.0014040517853572965
1733859244026000400,8.50100048828125,-0.0009509955998510122,-0.008308783173561096,0.0009468666976317763
1733859244035950000,8.5109501953125,-0.0012588570825755596,0.005164148285984993,0.0002741521457210183
1733859244045901300,8.5209013671875,-0.001931007718667388,0.020012684166431427,0.002867033239454031
1733859244055851300,8.530851318359375,-0.003287089290097356,0.030348412692546844,0.005256953649222851
1733859244065802200,8.54080224609375,-0.0018694179598242044,0.033412329852581024,0.005350425373762846
1733859244075751700,8.550751708984375,-0.002368228044360876,0.026858823373913765,0.00648546451702714
1733859244085702700,8.56070263671875,-0.0005707591772079468,0.01711496338248253,0.00733786728233099
1733859244095652900,8.57065283203125,-0.000901523744687438,0.00797685980796814,0.004950876347720623
1733859244105602800,8.580602783203124,-0.00036332220770418644,-0.0023825536482036114,0.0028918995521962643
1733859244115553800,8.5905537109375,0.0009573395363986492,-0.008882265537977219,0.003292439039796591
1733859244125503700,8.600503662109375,0.001233173068612814,-0.006540232338011265,0.003784864442422986
1733859244135454700,8.610454833984376,0.002340781968086958,0.00002978648990392685,0.002502552466467023
1733859244145405000,8.620405029296874,-0.00001009274274110794,0.0100247822701931,-0.000980522483587265
1733859244155355600,8.630355712890625,-0.0019105246756225824,0.015819553285837173,-0.0010497646871954203
1733859244165305900,8.640305908203125,-0.0017323032952845097,0.00933117512613535,0.003659789450466633
1733859244175256800,8.6502568359375,-0.002242565155029297,0.004319638945162296,0.003036343492567539
1733859244185206500,8.66020654296875,-0.00026765838265419006,-0.00023403530940413475,0.0011134631931781769
1733859244195157800,8.67015771484375,0.0001637735404074192,-0.0036607247311621904,0.0011219852603971958
1733859244205107700,8.680107666015624,0.000761896837502718,0.0007446925155818462,0.002883047563955188
1733859244215058000,8.690057861328125,0.00015256553888320923,0.009778134524822235,0.0030484299641102552
1733859244225008600,8.700008544921875,-0.0014064260758459568,0.02137245610356331,0.003239997196942568
1733859244234958600,8.70995849609375,0.002905498258769512,0.030798714607954025,0.00344985444098711
1733859244244909800,8.719909912109374,0.003118667285889387,0.031986936926841736,0.0027227094396948814
1733859244254859800,8.72985986328125,0.0030504902824759483,0.031032193452119827,0.004442579112946987
1733859244264810800,8.739810791015625,0.003824272658675909,0.02493700385093689,0.0027886340394616127
1733859244274760700,8.7497607421875,0.002294819336384535,0.021220296621322632,0.005271499045193195
1733859244284712000,8.7597119140625,0.0019347663037478924,0.017179662361741066,0.0018750117160379887
1733859244294662000,8.769661865234376,0.0005203611217439175,0.015259258449077606,0.0019786087796092033
1733859244304611600,8.779611572265624,0.0007002898491919041,0.013807985931634903,0.0005344520322978497
1733859244314562800,8.789562744140625,-0.0028385184705257416,0.013683349825441837,0.0007696091197431087
1733859244324512800,8.7995126953125,-0.0018464671447873116,0.014458047226071358,0.0006144338985905051
1733859244334463700,8.809463623046875,-0.002833701204508543,0.015148870646953583,0.0004996516508981586
1733859244344413700,8.81941357421875,-0.004821383394300938,0.01425016950815916,0.0005107609322294593
1733859244354364700,8.82936474609375,-0.0012572749983519316,0.009264732711017132,0.0000031624222174286842
1733859244364315000,8.83931494140625,-0.0025227151345461607,0.005040626972913742,-0.0006745309801772237
1733859244374265600,8.849265625,-0.002029497642070055,-0.000848421361297369,0.00011349841952323914
1733859244384215800,8.8592158203125,-0.003039127681404352,0.0008835562039166689,0.0004392634145915508
1733859244394166800,8.869166748046876,-0.0010745138861238956,0.009017915464937687,0.0013210360193625093
1733859244404116700,8.87911669921875,-0.002633169759064913,0.009513997472822666,-0.0000493503175675869
1733859244414066700,8.889066650390625,-0.0030012186616659164,0.005084628239274025,-0.0016224796418100595
1733859244424017700,8.899017578125,-0.0022673411294817924,-0.004883360117673874,-0.0028498878236860037
1733859244433967900,8.9089677734375,-0.0029909219592809677,-0.013313597068190575,-0.006130103953182697
1733859244443918600,8.918918701171876,-0.003687469521537423,-0.017436690628528595,-0.009093806147575378
1733859244453868500,8.92886865234375,-0.0024040923453867435,-0.01651657000184059,-0.008786211721599102
1733859244463819800,8.93881982421875,-0.0040116687305271626,-0.011069541797041893,-0.013240424916148186
1733859244473769700,8.948769775390625,-0.0055656228214502335,-0.003227065084502101,-0.012250527739524841
1733859244483720700,8.958720703125,-0.007285120896995068,-0.002255537547171116,-0.014571959152817726
1733859244493670700,8.968670654296876,-0.00934321153908968,-0.0000483095645904541,-0.011978039517998695
1733859244503620600,8.97862060546875,-0.0111678596585989,0.0056338924914598465,-0.013802471570670605
1733859244513571800,8.98857177734375,-0.008238382637500763,0.005890354979783297,-0.012148382142186165
1733859244523521500,8.998521484375,-0.009231671690940857,0.003932350315153599,-0.010614408180117607
1733859244533472800,9.00847265625,-0.009926224127411842,-0.0029149034526199102,-0.010190965607762337
1733859244543422700,9.018422607421876,-0.00917765311896801,-0.0068743545562028885,-0.011150781996548176
1733859244553373700,9.028373779296874,-0.008146209642291069,-0.00700325146317482,-0.012786495499312878
1733859244563323600,9.03832373046875,-0.003531230380758643,-0.007213125936686993,-0.008293481543660164
1733859244573275000,9.04827490234375,-0.0007048174738883972,-0.005885274149477482,-0.008366186171770096
1733859244583224800,9.058224853515625,0.00311452429741621,-0.007664312142878771,-0.006005480885505676
1733859244593175600,9.068175537109376,0.002106784377247095,-0.0023262719623744488,-0.0029276658315211535
1733859244603125800,9.078125732421874,0.0043975175358355045,0.0012303558178246021,-0.0010850783437490463
1733859244613075700,9.08807568359375,0.004213759209960699,0.000325147295370698,-0.002008928684517741
1733859244623027000,9.09802685546875,0.0034369961358606815,-0.006732366047799587,-0.002233855426311493
1733859244632977000,9.107976806640625,0.0017048763111233711,-0.014236087910830975,0.00009694299660623074
1733859244642927600,9.117927734375,0.004183760844171047,-0.011389525607228279,0.0011058731470257044
1733859244652877800,9.1278779296875,0.004752878099679947,-0.004758787341415882,0.005034302361309528
1733859244662828800,9.137828857421875,0.0019228383898735046,0.004511951468884945,0.007740378845483065
1733859244672778800,9.14777880859375,0.0037732026539742947,0.01828768476843834,0.007446632254868746
1733859244682729700,9.157729736328125,0.004902303218841553,0.024497512727975845,0.003117023501545191
1733859244692679700,9.1676796875,0.0036681941710412502,0.016184190288186073,0.0038938673678785563
1733859244702630700,9.177630615234374,0.00450301356613636,0.0018779321108013391,0.004358095582574606
1733859244712580600,9.18758056640625,0.0027551809325814247,-0.00802343524992466,0.0010600367095321417
1733859244722530800,9.19753076171875,0.0018207826651632786,-0.011389663442969322,0.002840940374881029
1733859244732481800,9.207481689453125,0.000035665929317474365,-0.011467693373560905,0.00206276448443532
1733859244742431700,9.217431640625,-0.0022840637248009443,-0.006730115041136742,0.002821066416800022
1733859244752382700,9.2273828125,-0.0012624752707779408,0.0023467366117984056,0.0031944415532052517
1733859244762332700,9.237332763671875,0.0006794696673750877,0.012516386806964874,0.004222489427775145
1733859244772284000,9.247283935546875,0.003302417229861021,0.013125983998179436,0.005797483026981354
1733859244782233600,9.257233642578125,0.0066267699003219604,0.006363840773701668,0.006484468467533588
1733859244792184800,9.267184814453126,0.006666184403002262,-0.006810284219682217,0.006323080509901047
1733859244802134800,9.277134765625,0.0065178233198821545,-0.013721010647714138,0.00433932151645422
1733859244812084700,9.287084716796874,0.006144981365650892,-0.019868651404976845,0.002893757540732622
1733859244822035700,9.29703564453125,0.003453692886978388,-0.0227961502969265,0.0011799403000622988
1733859244831985700,9.306985595703125,0.00003659119829535484,-0.020419811829924583,-0.00041342899203300476
1733859244841937000,9.31693701171875,0.0008276998996734619,-0.020057808607816696,-0.0015739328227937222
1733859244851886800,9.326886962890624,-0.0003864353056997061,-0.01204036083072424,-0.0048874374479055405
1733859244861837600,9.336837646484375,-0.0013576585333794355,-0.005162607878446579,-0.002581189386546612
1733859244871787800,9.346787841796875,0.0004833848215639591,-0.0023380594793707132,0.0012385825393721461
1733859244881738800,9.35673876953125,0.0042890566401183605,-0.0018109255470335484,0.00016155513003468513
1733859244891688700,9.366688720703126,0.004789198283106089,-0.006787574850022793,0.0017301569459959865
1733859244901639700,9.3766396484375,0.004420084413141012,-0.017357394099235535,0.0007724842289462686
1733859244911589600,9.386589599609374,0.006502676289528608,-0.029213519766926765,0.0007900610798969865
1733859244921539800,9.396539794921875,0.007554514799267054,-0.032117463648319244,0.0000280928798019886
1733859244931490600,9.406490478515625,0.005186166148632765,-0.030293462797999382,-0.002006828784942627
1733859244941440800,9.416440673828125,0.0031156823970377445,-0.01781432144343853,-0.005591965280473232
1733859244951391700,9.426391845703124,-0.000013798009604215622,-0.007817348465323448,-0.0052931588143110275
1733859244961341700,9.436341796875,-0.0006923477631062269,-0.008297799155116081,-0.0033801232930272818
1733859244971292700,9.446292724609375,-0.001769330119714141,-0.013572722673416138,-0.0008008517324924469
1733859244981242600,9.45624267578125,0.00012378022074699402,-0.018265467137098312,-0.000712305773049593
1733859244991193900,9.46619384765625,0.0017624231986701488,-0.018327785655856133,0.0012160891201347113
1733859245001143800,9.476143798828126,0.004520752001553774,-0.019266614690423012,0.0021464091259986162
1733859245011094800,9.4860947265625,0.007212141994386911,-0.025288021191954613,0.0013045838568359613
1733859245021044700,9.496044677734375,0.006787079386413097,-0.02957196533679962,0.0005883737467229366
1733859245030994700,9.50599462890625,0.00776392687112093,-0.030091017484664917,-0.0009416121756657958
1733859245040945700,9.515945556640625,0.004935765638947487,-0.024015627801418304,0.0028695359360426664
1733859245050895600,9.5258955078125,0.002327998634427786,-0.011471874080598354,0.0018604642245918512
1733859245060846800,9.535846923828124,0.0016011516563594341,-0.0004287608899176121,-0.0003547456581145525
1733859245070796800,9.545796875,-0.0008095419034361839,-0.005098880268633366,0.00041863624937832355
1733859245080748300,9.555748291015625,-0.00124386977404356,-0.014005151577293873,-0.00023148616310209036
1733859245090698200,9.5656982421875,0.001650453545153141,-0.02275203727185726,-0.000435217865742743
1733859245100649200,9.575649169921874,0.0028975908644497395,-0.027975788339972496,-0.0018726267153397202
1733859245110599200,9.58559912109375,0.0048097409307956696,-0.0264428723603487,0.0012054548133164644
1733859245120550100,9.595550048828125,0.005872853100299835,-0.019235918298363686,0.002045181579887867
1733859245130500400,9.605500244140625,0.005486428737640381,-0.007626665756106377,0.0035996688529849052
1733859245140450300,9.6154501953125,0.006169875152409077,0.00347751472145319,0.00261254096403718
1733859245150401300,9.6254013671875,0.004416449926793575,0.007398487068712711,0.005965993274003267
1733859245160351200,9.635351318359374,0.0023632687516510487,0.005003158003091812,0.0023056447971612215
1733859245170302200,9.64530224609375,0.005911930464208126,-0.0018648677505552769,0.001174334087409079
1733859245180252400,9.65525244140625,0.00533716706559062,-0.012896094471216202,-0.001220663427375257
1733859245190203100,9.665203125,0.005523588042706251,-0.02089250274002552,-0.0026984517462551594
1733859245200153300,9.6751533203125,0.0038354508578777313,-0.0253931675106287,-0.001879483344964683
1733859245210104300,9.685104248046875,0.002888164483010769,-0.02081785723567009,-0.0014336701715365052
1733859245220054300,9.69505419921875,0.003888022620230913,-0.011176143772900105,-0.0020999417174607515
1733859245230004200,9.705004150390625,0.002905316650867462,-0.006445837207138538,-0.0009244224056601524
1733859245239955200,9.714955078125,0.0031928671523928642,-0.005299828946590424,0.0009592372225597501
1733859245249905400,9.724905517578126,0.004288224969059229,-0.005990919657051563,0.003568602493032813
1733859245259856100,9.734856201171874,0.004311566706746817,-0.014844800345599651,0.0052210139110684395
1733859245269806000,9.74480615234375,0.005666849669069052,-0.027279896661639214,0.005035125184804201
1733859245279757300,9.75475732421875,0.005999956279993057,-0.0368245467543602,0.003167165908962488
1733859245289707300,9.764707275390625,0.007532073184847832,-0.03503357246518135,-0.002143177203834057
1733859245299658200,9.774658203125,0.007984146475791931,-0.025401974096894264,-0.006610236130654812
1733859245309608200,9.784608154296874,0.0029821968637406826,-0.009230991825461388,-0.0034597169142216444
1733859245319559400,9.794559326171875,0.001953940838575363,0.00553499162197113,-0.0006027932977303863
1733859245329509400,9.80450927734375,0.0034109563566744328,0.013670682907104492,-0.0024211998097598553
1733859245339460000,9.814460205078126,0.0025312909856438637,0.007835445925593376,0.002207553945481777
1733859245349410300,9.824410400390626,0.003023176919668913,-0.002691496629267931,0.00389306852594018
1733859245359360300,9.8343603515625,0.0015321294777095318,-0.014894220978021622,0.0014666842762380838
1733859245369311200,9.844311279296875,0.002372623421251774,-0.023143095895648003,0.0005087453173473477
1733859245379261200,9.85426123046875,0.0006377361714839935,-0.030191531404852867,0.0006502305623143911
1733859245389212200,9.864212158203125,-0.0017950613982975483,-0.026740340515971184,-0.0008467321749776602
1733859245399162400,9.874162353515626,-0.002528762212023139,-0.014091125689446926,0.0005532915238291025
1733859245409113000,9.884113037109374,-0.0007556295022368431,0.0017019527731463313,-0.00107896002009511
1733859245419063300,9.894063232421875,-0.00020790984854102135,0.0032887293491512537,0.0015481691807508469
1733859245429014300,9.90401416015625,0.0030510001815855503,-0.0017864566762000322,0.002113558351993561
1733859245438964200,9.913964111328125,0.007069820072501898,-0.011886756867170334,0.003139197826385498
1733859245448915200,9.923915283203126,0.008932434022426605,-0.01740535907447338,-0.0007130649173632264
1733859245458865200,9.933865234375,0.009103776887059212,-0.023693766444921494,0.0005057876696810126
1733859245468815400,9.9438154296875,0.007135966792702675,-0.026815524324774742,0.0002780873328447342
1733859245478766000,9.95376611328125,0.00925596896559,-0.02518370747566223,0.0007180545944720507
1733859245488716000,9.963716064453125,0.005217551253736019,-0.017156673595309258,0.0018301906529814005
1733859245498667300,9.973667236328126,0.0038242554292082787,-0.009290010668337345,0.00036358111537992954
1733859245508617200,9.9836171875,0.0025073224678635597,-0.0036137495189905167,0.0017968943575397134
1733859245518568200,9.993568115234375,0.0008156825788319111,0.001862508594058454,0.000763587886467576
1733859245528518100,10.00351806640625,-0.0005838086362928152,0.006541682407259941,0.002253360114991665
1733859245538469400,10.013469482421876,-0.0022729591000825167,0.004762998782098293,0.0015443896409124136
1733859245548419300,10.02341943359375,-0.002050585113465786,-0.002923416905105114,0.00037126720417290926
1733859245558370300,10.033370361328124,-0.0003329154569655657,-0.007406905759125948,-0.0008824252290651202
1733859245568320300,10.0433203125,-0.0004338494036346674,-0.003641995135694742,0.0012680774088948965
1733859245578270200,10.053270263671875,-0.0017207590863108635,0.005663138814270496,0.0015786085277795792
1733859245588221200,10.06322119140625,-0.0019202297553420067,0.010521276853978634,0.003440424334257841
1733859245598171100,10.073171142578126,-0.001719380496069789,0.014019305817782879,0.005217990837991238
1733859245608122400,10.083122314453124,0.000008478295058012009,0.020333660766482353,0.005097083747386932
1733859245618072300,10.093072265625,0.0014699436724185944,0.021593205630779266,0.004335848148912191
1733859245628023000,10.10302294921875,-0.0009359561372548342,0.01505887322127819,0.001466558314859867
1733859245637973200,10.11297314453125,-0.0004362694453448057,0.004548306576907635,-0.001990386750549078
1733859245647924200,10.12292431640625,-0.0021252462174743414,-0.00655308086425066,-0.006026673596352339
1733859245657874400,10.13287451171875,-0.003236816730350256,-0.013406296260654926,-0.007365508936345577
1733859245667825200,10.1428251953125,-0.005687723867595196,-0.013693119399249554,-0.004298612475395203
1733859245677775000,10.152775146484375,-0.0015806884039193392,-0.013349773362278938,-0.0039080046117305756
1733859245687725300,10.162725341796875,-0.0031977598555386066,-0.008283108472824097,-0.0017263428308069706
1733859245697676300,10.17267626953125,0.00037870462983846664,0.002111215377226472,0.0014537862734869123
1733859245707626200,10.182626220703124,0.0014447681605815887,0.011726558208465576,0.0018878815462812781
1733859245717577200,10.1925771484375,0.0010817190632224083,0.0133981853723526,0.004257152788341045
1733859245727527200,10.202527099609375,0.0031991987489163876,0.00771207083016634,0.004543175920844078
1733859245737478100,10.21247802734375,0.0033438783138990402,0.00500491913408041,0.00580071285367012
1733859245747428000,10.222427978515626,0.004373722709715366,0.008140258491039276,0.004814011510461569
1733859245757379300,10.23237939453125,0.002946471329778433,0.012905924580991268,0.003851680550724268
1733859245767329300,10.242329345703125,-0.0001340070739388466,0.017975784838199615,0.004896705038845539
1733859245777279200,10.252279296875,-0.0028927591629326344,0.023861462250351906,0.00600054394453764
1733859245787230200,10.262230224609375,-0.003238969948142767,0.025615420192480087,0.0009293525945395231
1733859245797180200,10.27218017578125,-0.00569018954411149,0.018782049417495728,-0.00000825186725705862
1733859245807131400,10.28213134765625,-0.005190047901123762,0.011565414257347584,-0.003768901340663433
1733859245817081000,10.2920810546875,-0.0033454596996307373,0.002539451699703932,-0.005984955001622438
1733859245827032300,10.3020322265625,-0.005560677032917738,-0.0048976922407746315,-0.006459530908614397
1733859245836982300,10.311982177734375,-0.005022581201046705,-0.008236220106482506,-0.003976000938564539
1733859245846933200,10.321933349609376,-0.005680914502590895,-0.004009251948446035,-0.002888366114348173
1733859245856883200,10.33188330078125,-0.002476530149579048,0.002020096406340599,0.00018358149100095034
1733859245866834200,10.341834228515625,-0.0015414943918585777,0.009569359011948109,0.0005281945923343301
1733859245876784400,10.351784423828125,-0.002827348653227091,0.012166609987616539,-0.0020509203895926476
1733859245886734300,10.361734375,0.000006787478923797607,0.0028703140560537577,-0.0013555691111832857
1733859245896685000,10.37168505859375,0.00013569556176662445,-0.009277250617742538,-0.001220960752107203
1733859245906635300,10.38163525390625,0.001595374196767807,-0.015673896297812462,-0.002949352376163006
1733859245916586200,10.391586181640625,0.0033198059536516666,-0.012986446730792522,-0.002793503226712346
1733859245926536400,10.401536376953125,0.0009969966486096382,-0.0045724548399448395,-0.0014195782132446766
1733859245936487200,10.411487060546875,0.0008709365501999855,0.007371887564659119,0.0012757277581840754
1733859245946437000,10.42143701171875,-0.0014819661155343056,0.01912734843790531,0.00448297243565321
1733859245956388400,10.431388427734374,0.0007651066407561302,0.029547221958637238,0.004755373112857342
1733859245966338000,10.441338134765624,-0.0019332082010805607,0.031586673110723495,0.0056115793995559216
1733859245976289300,10.451289306640625,-0.0025574355386197567,0.027617670595645905,0.0025557326152920723
1733859245986239200,10.4612392578125,-0.0018639483023434877,0.01450266782194376,0.002126431092619896
1733859245996190200,10.471190185546876,-0.0015541149768978357,-0.0006626190152019262,-0.0019703127909451723
1733859246006140200,10.48114013671875,-0.0018374754581600428,-0.013003174215555191,-0.005741083063185215
1733859246016090000,10.491090087890624,-0.0017681862227618694,-0.018827008083462715,-0.00582293514162302
1733859246026041300,10.501041259765625,-0.0004659004043787718,-0.015166492201387882,-0.006385128013789654
1733859246035991300,10.5109912109375,-0.003148362971842289,-0.009150936268270016,-0.004616652149707079
1733859246045942300,10.5209423828125,-0.003990987315773964,-0.0018232485745102167,-0.0029343334026634693
1733859246055892200,10.530892333984376,-0.002767890226095915,0.0019325660541653633,-0.0020341495983302593
1733859246065843500,10.540843505859375,-0.0006402907893061638,0.006588304415345192,0.0017443435499444604
1733859246075793200,10.550793212890625,0.00013684295117855072,0.010494079440832138,0.0015196593012660742
1733859246085743900,10.560743896484375,0.002165905199944973,0.01444514561444521,0.0034376680850982666
1733859246095694000,10.570694091796875,0.002104096580296755,0.017239883542060852,0.00540965236723423
1733859246105644000,10.58064404296875,0.0016026231460273266,0.019067877903580666,0.007186512928456068
1733859246115595000,10.590594970703124,-0.000487056327983737,0.01489188801497221,0.0033395052887499332
1733859246125545000,10.600544921875,0.000203767791390419,0.006946347188204527,0.0015698346542194486
1733859246135496000,10.610495849609375,-0.0011409088037908077,-0.003320639254525304,-0.002024539513513446
1733859246145446100,10.620446044921875,-0.0028908720705658197,-0.006788606755435467,-0.004458668641746044
1733859246155396900,10.63039697265625,-0.00448972824960947,-0.004274203907698393,-0.006055301986634731
1733859246165347000,10.64034716796875,-0.007833327166736126,0.00079698720946908,-0.004597487859427929
1733859246175298000,10.650298095703125,-0.007843203842639923,0.004680424928665161,-0.004279591608792543
1733859246185248000,10.660248046875,-0.006375802215188742,0.0074983155354857445,-0.0031349649652838707
1733859246195199000,10.670198974609375,-0.005582991521805525,0.00940549373626709,-0.002225882839411497
1733859246205149000,10.68014892578125,-0.0026636344846338034,0.005785192828625441,-0.0014466417487710714
1733859246215100200,10.69010009765625,0.0012693344615399837,-0.0016192826442420483,0.001582558499649167
1733859246225049900,10.7000498046875,0.0017417790368199348,-0.009742988273501396,0.001240075915120542
1733859246234999800,10.709999755859375,0.003451170865446329,-0.007811867631971836,0.0007915241876617074
1733859246244951000,10.719950927734375,0.0031334557570517063,-0.0002215916756540537,0.002316450234502554
1733859246254901000,10.72990087890625,0.002163727767765522,0.013789242133498192,0.0018952583195641637
1733859246264852000,10.73985205078125,-0.0017798813059926033,0.03237278014421463,0.003523248713463545
1733859246274802000,10.749802001953125,-0.0025651673786342144,0.038446515798568726,0.006403299979865551
1733859246284753200,10.759753173828125,-0.0019225466530770063,0.0321342907845974,0.005206741392612457
1733859246294703000,10.769703125,-0.0008109433110803366,0.019719164818525314,0.0032328066881746054
1733859246304653800,10.77965380859375,0.0011858949437737465,0.005993500351905823,0.003998998086899519
1733859246314604000,10.78960400390625,0.003035680390894413,-0.004213031847029924,0.0017708254745230079
1733859246324555000,10.799554931640625,0.002309702802449465,-0.009598210453987122,0.002512249629944563
1733859246334505000,10.8095048828125,0.0010541295632719994,-0.004136326722800732,0.0010499582858756185
1733859246344455000,10.819454833984375,-0.00021912786178290844,0.015359610319137573,0.002062492072582245
1733859246354406000,10.829406005859376,-0.0034816411789506674,0.02714552730321884,0.0013359945733100176
1733859246364356000,10.839356201171874,-0.006161579862236977,0.02015260048210621,0.003791429102420807
1733859246374306800,10.849306884765625,-0.004762621596455574,0.004046866204589605,0.002264905022457242
1733859246384257000,10.859257080078125,-0.0015220872592180967,-0.00857997965067625,-0.0024699291680008173
1733859246394208000,10.8692080078125,0.001104637049138546,-0.01643436774611473,-0.0043157050386071205
1733859246404158000,10.879157958984376,0.0025528636761009693,-0.019526030868291855,-0.004429688677191734
1733859246414109000,10.88910888671875,0.004903901368379593,-0.017515983432531357,-0.002615697216242552
1733859246424059000,10.899058837890625,0.0044924430549144745,-0.007326462306082249,-0.001604761229828
1733859246434010000,10.909010009765625,0.0019010473042726517,0.007855517789721489,-0.0008758400799706578
1733859246443960000,10.9189599609375,0.0025007911026477814,0.024183625355362892,0.0008019513916224241
1733859246453911000,10.9289111328125,-0.005433494690805674,0.02831360511481762,0.001748431590385735
1733859246463861000,10.938861083984374,-0.004837745800614357,0.024086901918053627,0.0017798568587750196
1733859246473811000,10.94881103515625,-0.00440155528485775,0.015856880694627762,0.002863710280507803
1733859246483762000,10.958761962890625,-0.0019011134281754494,0.009569156914949417,0.0029135113582015038
1733859246493712000,10.9687119140625,-0.0007338568102568388,0.011657534167170525,-0.0009344484424218535
1733859246503663000,10.9786630859375,-0.0016872684936970472,0.015267714858055115,-0.0003078066511079669
1733859246513613000,10.988613037109374,-0.0010431113187223673,0.020015986636281013,0.0005278610624372959
1733859246523564000,10.99856396484375,-0.0003426999319344759,0.024710873141884804,-0.00020051351748406887
1733859246533514000,11.008513916015625,-0.0016846053767949343,0.0203586146235466,0.0010117895435541868
1733859246543465000,11.01846484375,-0.002161843702197075,0.012955292128026485,-0.002652986440807581
1733859246553415200,11.028415283203126,-0.002656860277056694,0.0031451198738068342,-0.004459310322999954
1733859246563366000,11.038365966796874,-0.002144201658666134,-0.0030254244338721037,-0.006033770740032196
1733859246573316000,11.048316162109375,-0.004160805605351925,-0.0017988120671361685,-0.0063431039452552795
1733859246583266000,11.05826611328125,-0.004393299575895071,0.0024449352640658617,-0.004770773462951183
1733859246593217000,11.068217041015625,-0.004152677953243256,0.006597771774977446,-0.0045990170910954475
1733859246603167000,11.0781669921875,-0.0030764942057430744,0.02162039652466774,-0.0004833682905882597
1733859246613118000,11.088117919921874,-0.003195082303136587,0.03294413164258003,-0.0002761264331638813
1733859246623068200,11.098068115234375,-0.003569522872567177,0.035013142973184586,-0.000726999482139945
1733859246633019000,11.108018798828125,-0.002308368682861328,0.022778023034334183,-0.0008751272689551115
1733859246642968800,11.11796875,-0.0008588102646172047,0.007624638266861439,-0.002539603039622307
1733859246652920000,11.127920166015626,0.0013467497192323208,-0.012869137339293957,-0.0025952549185603857
1733859246662870000,11.1378701171875,0.00029773078858852386,-0.022655189037322998,-0.0026980529073625803
1733859246672821000,11.147821044921875,0.0022760904394090176,-0.021398823708295822,-0.001881456933915615
1733859246682771000,11.15777099609375,-0.0006158363539725542,-0.01265646331012249,-0.0019688087049871683
1733859246692721000,11.167720947265625,-0.0035516112111508846,0.002049818402156234,-0.00026335392612963915
1733859246702672100,11.177672119140626,-0.0051537686958909035,0.0165571216493845,0.0001797960139811039
1733859246712621800,11.187621826171876,-0.0048181647434830666,0.024355890229344368,0.003839150071144104
1733859246722573000,11.197572998046875,-0.003463681321591139,0.023427778854966164,0.005658621899783611
1733859246732523000,11.20752294921875,0.0021799267269670963,0.016778141260147095,0.002252215286716819
1733859246742474000,11.217473876953125,0.000658462755382061,0.004013875499367714,0.0023848407436162233
1733859246752424000,11.227423828125,0.002364266198128462,-0.00973488762974739,-0.0029749739915132523
1733859246762375000,11.237375,0.001803671009838581,-0.023160947486758232,-0.002684689126908779
1733859246772325000,11.2473251953125,0.000687663909047842,-0.019962498918175697,-0.005116031039506197
1733859246782275800,11.25727587890625,-0.002019705483689904,-0.013697411864995956,-0.002235556021332741
1733859246792226000,11.26722607421875,-0.00331844761967659,-0.001389484154060483,-0.002940649399533868
1733859246802176000,11.277176025390625,-0.0023810151033103466,0.005311561748385429,-0.002679926110431552
1733859246812127000,11.287126953125,-0.002030148170888424,0.007440483197569847,-0.002515209373086691
1733859246822077000,11.297076904296874,0.0004886696115136147,-0.002110944129526615,-0.0032049682922661304
1733859246832028000,11.30702783203125,-0.001074361614882946,-0.009158611297607422,-0.0024123440962284803
1733859246841978000,11.31697802734375,0.0006641498766839504,-0.009893111884593964,-0.003036322770640254
1733859246851928800,11.3269287109375,-0.0010844499338418245,-0.010279478505253792,-0.0007717886473983526
1733859246861878800,11.336878662109376,0.0014855004847049713,-0.006929222494363785,0.0003073242260143161
1733859246871830000,11.346830078125,0.0022760778665542603,0.0032824832014739513,0.0021806948352605104
1733859246881780000,11.356780029296875,-0.00039054499939084053,0.012995829805731773,0.0023743067868053913
1733859246891731000,11.36673095703125,-0.0018206164240837097,0.01687149703502655,0.0005227824440225959
1733859246901681000,11.376680908203125,-0.0007694668602198362,0.010419456288218498,0.0005571371875703335
1733859246911632100,11.386632080078124,-0.0010008583776652813,-0.0011105388402938843,0.0018204841762781143
1733859246921582000,11.39658203125,0.0002321852371096611,-0.004674114752560854,-0.0008173768874257803
1733859246931532000,11.406531982421875,0.0004562968388199806,0.0013068749103695154,-0.0014433854958042502
1733859246941483000,11.41648291015625,-0.002348278183490038,0.007129610050469637,-0.002586947288364172
1733859246951433000,11.426432861328125,-0.002989581786096096,0.007378811948001385,-0.00024866557214409113
1733859246961384000,11.436384033203124,-0.0030564269982278347,0.007661639712750912,-0.0011251118266955018
1733859246971334000,11.446333984375,-0.004760328680276871,0.007300176657736301,0.0010179682867601514
1733859246981285000,11.45628515625,-0.006969687063246965,0.0056604682467877865,-0.002052656374871731
1733859246991235000,11.466235107421875,-0.003193116979673505,-0.001968301832675934,-0.004896140191704035
1733859247001185800,11.476185791015626,-0.004673302173614502,-0.016173336654901505,-0.004581088200211525
1733859247011136000,11.486135986328126,-0.0013861721381545067,-0.026273183524608612,-0.008168063126504421
1733859247021087000,11.4960869140625,0.0015182713977992535,-0.026950690895318985,-0.005955509375780821
1733859247031037200,11.506037109375,0.0019483817741274834,-0.028753574937582016,-0.0077087050303816795
1733859247040987100,11.515987060546875,0.0027135079726576805,-0.032240185886621475,-0.008655991405248642
1733859247050937900,11.525937744140625,0.0028027696534991264,-0.0328223891556263,-0.0044871727004647255
1733859247060888000,11.53588818359375,0.004088543821126223,-0.029730722308158875,-0.0011728687677532434
1733859247070839000,11.545839111328124,0.0013225618749856949,-0.01266943197697401,-0.0004943814128637314
1733859247080789000,11.5557890625,0.0036056898534297943,-0.001841285265982151,0.0008358674822375178
1733859247090740200,11.565740234375,0.003497854806482792,-0.0030722145456820726,-0.0007363767363131046
1733859247100690200,11.575690185546875,0.004506127443164587,-0.00272387289442122,0.0006367492023855448
1733859247110641000,11.585640869140626,0.0038940999656915665,-0.005169510841369629,-0.0005832951283082366
1733859247120591000,11.595591064453124,0.004203027114272118,-0.004736213944852352,-0.0020712031982839108
1733859247130542000,11.6055419921875,-0.0013899833429604769,-0.006010117009282112,-0.0020916424691677094
1733859247140492300,11.6154921875,-0.003708265023306012,-0.005044721066951752,-0.0028495783917605877
1733859247150443000,11.625443115234376,-0.005785713903605938,-0.0007591396570205688,-0.00671839015558362
1733859247160393000,11.63539306640625,-0.0110049769282341,0.010790190659463406,-0.007886984385550022
1733859247170343200,11.64534326171875,-0.013068048283457756,0.02212713286280632,-0.007076211739331484
1733859247180294100,11.655294189453125,-0.01693975180387497,0.03217683732509613,-0.008086880668997765
1733859247190244000,11.665244140625,-0.015505848452448845,0.04204612597823143,-0.012217951007187366
1733859247200195000,11.675195068359375,-0.01716313324868679,0.043934572488069534,-0.015681125223636627
1733859247210145000,11.68514501953125,-0.014433902688324451,0.03822261095046997,-0.017968429252505302
1733859247220096000,11.695095947265624,-0.015915419906377792,0.027600590139627457,-0.021375145763158798
1733859247230046000,11.7050458984375,-0.011815737932920456,0.01546010933816433,-0.024879630655050278
1733859247239997200,11.7149970703125,-0.008973345160484314,0.00014080782420933247,-0.022993579506874084
1733859247249947100,11.724947021484375,-0.00712924636900425,-0.010397222824394703,-0.021982096135616302
