time,seconds_elapsed,z,y,x
1733860438279214000,0.012214111328125,-0.06547946482896805,-0.03424469009041786,-0.1449444591999054
1733860438289164300,0.022164306640625,-0.05211034044623375,-0.06150870770215988,-0.13220705091953278
1733860438299115300,0.032115234375,-0.04675738885998726,-0.08133140951395035,-0.09439229965209961
1733860438309065200,0.042065185546875,-0.05078129097819328,-0.08477069437503815,-0.03928133472800255
1733860438319016200,0.05201611328125,-0.07838308811187744,-0.08943681418895721,0.024403369054198265
1733860438328967400,0.061967529296875,-0.11435061693191528,-0.10065633803606033,0.09038498252630234
1733860438338917400,0.07191748046875,-0.14869873225688934,-0.11670055240392685,0.15151411294937134
1733860438348868000,0.0818681640625,-0.18555253744125366,-0.14736808836460114,0.21498709917068481
1733860438358818300,0.091818359375,-0.22810879349708557,-0.18523292243480682,0.28539761900901794
1733860438368769300,0.101769287109375,-0.2774967551231384,-0.2180435210466385,0.33455902338027954
1733860438378719200,0.11171923828125,-0.32983317971229553,-0.22795739769935608,0.34821945428848267
1733860438388670200,0.121670166015625,-0.39396828413009644,-0.21914230287075043,0.32052040100097656
1733860438398621400,0.131621337890625,-0.4670158624649048,-0.22895605862140656,0.2859981060028076
1733860438408571100,0.141571044921875,-0.5399494171142578,-0.35082635283470154,0.377619206905365
1733860438418522400,0.1515224609375,-0.7056755423545837,-0.6145138740539551,0.5970959067344666
1733860438428472300,0.161472412109375,-0.8614851832389832,-0.523218035697937,0.691666305065155
1733860438438423000,0.171423095703125,-0.8379526734352112,-0.5508486032485962,0.6587411165237427
1733860438448374300,0.181374267578125,-0.6936017274856567,-1.1342130899429321,0.741872251033783
1733860438458324200,0.19132421875,-0.47507068514823914,-1.1406705379486084,0.5410163998603821
1733860438468275200,0.201275146484375,-0.21106445789337158,-0.7733159065246582,0.08747085183858871
1733860438478225200,0.21122509765625,-0.009243454784154892,-0.38127732276916504,-0.21828880906105042
1733860438488176400,0.22117626953125,0.06617027521133423,-0.13746553659439087,-0.22914005815982819
1733860438498127000,0.231127197265625,0.08040060847997665,-0.06568217277526855,-0.09696310013532639
1733860438508077000,0.2410771484375,0.07256747037172318,-0.053796492516994476,0.020845629274845123
1733860438518028300,0.2510283203125,0.04005001112818718,-0.006735775154083967,0.05748060345649719
1733860438527978200,0.260978271484375,0.00749492971226573,0.07202272117137909,0.0280475914478302
1733860438537929200,0.27092919921875,-0.006184397265315056,0.11933165043592453,-0.015124646946787834
1733860438547879200,0.280879150390625,-0.005104167852550745,0.1190812811255455,-0.02816406451165676
1733860438557830400,0.290830322265625,-0.004215470980852842,0.09875417500734329,-0.011228756979107857
1733860438567781000,0.300781005859375,-0.007206098176538944,0.06371810287237167,0.019418271258473396
1733860438577731000,0.31073095703125,-0.008468170650303364,0.028993146494030952,0.04275235906243324
1733860438587682300,0.320682373046875,-0.008465111255645752,0.010650699026882648,0.042947784066200256
1733860438597632300,0.33063232421875,-0.007181734312325716,0.002714479109272361,0.024510186165571213
1733860438607583200,0.340583251953125,-0.0029849258717149496,-0.007539453450590372,0.0012818066170439124
1733860438617534200,0.3505341796875,0.00009581912308931351,-0.02573603391647339,-0.018417861312627792
1733860438627484400,0.360484375,-0.0000135018490254879,-0.049791377037763596,-0.025062136352062225
1733860438637435100,0.37043505859375,-0.000808988232165575,-0.06887558847665787,-0.02411804534494877
1733860438647385300,0.38038525390625,-0.00745765445753932,-0.0811375305056572,-0.020289847627282143
1733860438657336300,0.39033642578125,-0.00987633690237999,-0.073941670358181,-0.011291824281215668
1733860438667286300,0.400286376953125,-0.008196914568543434,-0.051948241889476776,0.0004773613763973117
1733860438677237200,0.4102373046875,-0.006715397350490093,-0.02279275469481945,0.008787223137915134
1733860438687188200,0.420188232421875,-0.003669025842100382,0.004397740121930838,0.011132773011922836
1733860438697138400,0.430138427734375,-0.003141986206173897,0.020709602162241936,0.008097834885120392
1733860438707089200,0.440089111328125,-0.0021843293216079473,0.02202453650534153,0.00469646230340004
1733860438717039400,0.450039306640625,-0.00039814715273678303,0.0214836485683918,0.006238432601094246
1733860438726990300,0.459990234375,0.0009126104414463043,0.019298819825053215,0.004967355169355869
1733860438736941300,0.46994140625,-0.00004213303327560425,0.011477380990982056,0.004143639467656612
1733860438746891300,0.479891357421875,-0.003246363950893283,0.00446842797100544,0.0009229082497768104
1733860438756842200,0.48984228515625,-0.006767329294234514,-0.0003785251174122095,-0.0011415742337703705
1733860438766792200,0.499792236328125,-0.008759554475545883,-0.008181101642549038,-0.0004860730841755867
1733860438776743200,0.5097431640625,-0.005404504481703043,-0.006211160682141781,0.0012300678063184023
1733860438786693400,0.519693359375,-0.0029779854230582714,-0.005616659298539162,0.0012073102407157421
1733860438796644000,0.52964404296875,-0.0028530829586088657,-0.008541875518858433,0.0030499515123665333
1733860438806595300,0.53959521484375,-0.0016146623529493809,-0.014511911198496819,-0.0003568129613995552
1733860438816545300,0.549545166015625,0.0017118919640779495,-0.017542056739330292,0.0023295176215469837
1733860438826496300,0.559496337890625,0.004328164737671614,-0.011877769604325294,0.007046435959637165
1733860438836446200,0.5694462890625,0.004860264714807272,-0.006456639617681503,0.0039310697466135025
1733860438846397200,0.579397216796875,0.005216929595917463,-0.0029327813535928726,0.0007728512864559889
1733860438856348200,0.58934814453125,0.003427018877118826,-0.003641981165856123,-0.0008972170762717724
1733860438866298000,0.599298095703125,-0.0005363000091165304,-0.004328133538365364,0.00014398724306374788
1733860438876249300,0.609249267578125,-0.0012817189563065767,-0.007167329546064138,-0.002490411512553692
1733860438886199300,0.61919921875,-0.001955830492079258,-0.010684264823794365,-0.0017913528718054295
1733860438896150300,0.629150390625,-0.0029459940269589424,-0.013783917762339115,-0.0025857738219201565
1733860438906101200,0.639101318359375,-0.002350861206650734,-0.01769167184829712,-0.00696961022913456
1733860438916051200,0.64905126953125,-0.0016826740466058254,-0.02238442748785019,-0.006929929368197918
1733860438926002200,0.659002197265625,-0.002322496147826314,-0.029688753187656403,-0.0030754890758544207
1733860438935952100,0.6689521484375,-0.005054366774857044,-0.031929004937410355,-0.00030207308009266853
1733860438945903400,0.6789033203125,-0.005098810885101557,-0.028784748166799545,0.00003167404793202877
1733860438955853300,0.688853271484375,-0.004034345503896475,-0.024151647463440895,-0.001196575816720724
1733860438965804300,0.69880419921875,-0.000023020431399345398,-0.015636639669537544,-0.0016180374659597874
1733860438975755300,0.70875537109375,0.0029764981009066105,-0.012502631172537804,0.000951114110648632
1733860438985705200,0.718705322265625,0.006141381338238716,-0.015485096722841263,-0.00013233267236500978
1733860438995656200,0.72865625,0.007970440201461315,-0.020324591547250748,-0.0016846891958266497
1733860439005606100,0.738606201171875,0.005914125591516495,-0.024837128818035126,-0.0027994101401418447
1733860439015557400,0.748557373046875,0.001948945689946413,-0.026347141712903976,-0.0033999530132859945
1733860439025508000,0.758508056640625,0.0017073475755751133,-0.02117924951016903,-0.005619380623102188
1733860439035458300,0.768458251953125,-0.0012407719623297453,-0.01507768128067255,-0.005539485719054937
1733860439045409300,0.7784091796875,0.0005957935936748981,-0.007476246915757656,-0.004720347933471203
1733860439055359500,0.788359375,0.0002977857366204262,-0.0021232934668660164,-0.002232423285022378
1733860439065310200,0.798310302734375,0.001879736315459013,-0.00036961957812309265,-0.000006941729225218296
1733860439075260200,0.80826025390625,0.0022533778101205826,-0.00011608656495809555,-0.0001534156035631895
1733860439085211400,0.81821142578125,0.002009366173297167,0.0007196483202278614,0.00010968325659632683
1733860439095162000,0.828162109375,0.001685259398072958,-0.0023448511492460966,0.0005232720868662
1733860439105112300,0.8381123046875,0.0051634167321026325,-0.006948304828256369,-0.0005946091841906309
1733860439115063300,0.848063232421875,0.00481480872258544,-0.01479424349963665,-0.0030521743465214968
1733860439125013200,0.85801318359375,0.00567630585283041,-0.016402363777160645,-0.00009150814730674028
1733860439134964200,0.867964111328125,0.0055532678961753845,-0.020074598491191864,0.0023982811253517866
1733860439144915500,0.87791552734375,0.003970202058553696,-0.02113117091357708,0.0008597677806392312
1733860439154865200,0.887865234375,0.0027161194011569023,-0.021601751446723938,-0.005705190356820822
1733860439164816100,0.897816162109375,0.0007585454732179642,-0.02375057525932789,-0.005143646616488695
1733860439174766300,0.907766357421875,-0.001579709816724062,-0.02653357945382595,-0.006873902399092913
1733860439184717000,0.917717041015625,-0.005042382515966892,-0.025675902143120766,-0.007110977545380592
1733860439194667300,0.927667236328125,-0.007518056780099869,-0.02352646365761757,-0.005973008461296558
1733860439204619000,0.937618896484375,-0.008155180141329765,-0.0152542470023036,-0.004949093796312809
1733860439214569700,0.94756982421875,-0.006667272187769413,-0.0062421103939414024,-0.0044212546199560165
1733860439224519700,0.957519775390625,-0.004219934809952974,0.004617398604750633,-0.007355524227023125
1733860439234471000,0.967470947265625,-0.0038020845968276262,0.01269529853016138,-0.001881130738183856
1733860439244420900,0.9774208984375,-0.0013295500539243221,0.016394253820180893,0.003406355157494545
1733860439254371800,0.987371826171875,0.0003333278000354767,0.011998441070318222,0.003039904171600938
1733860439264322800,0.99732275390625,0.0007277075201272964,0.008385881781578064,0.0022807575296610594
1733860439274273000,1.00727294921875,0.0017157401889562607,0.005127770826220512,0.0015076419804245234
1733860439284223700,1.0172236328125,0.0005013677291572094,0.0024753911420702934,0.002189727732911706
1733860439294173700,1.027173583984375,0.0019831503741443157,-0.0003046826459467411,0.00019422126933932304
1733860439304125000,1.037125,-0.001436964375898242,-0.0038562300615012646,-0.002573430072516203
1733860439314075000,1.047074951171875,-0.0024348509032279253,-0.009064840152859688,-0.001922020921483636
1733860439324025900,1.05702587890625,-0.001770972739905119,-0.012383522465825081,-0.002208170248195529
1733860439333976800,1.066976806640625,-0.00313078286126256,-0.014515649527311325,-0.0036731751170009375
1733860439343926800,1.0769267578125,-0.002840876579284668,-0.012129807844758034,-0.004193434491753578
1733860439353877800,1.086877685546875,-0.004284842871129513,-0.012902390211820602,-0.003969728946685791
1733860439363828000,1.096827880859375,-0.0033352109603583813,-0.010065563023090363,0.001143055153079331
1733860439373779000,1.106779052734375,-0.0015034889802336693,-0.006127281114459038,0.004672276321798563
1733860439383730000,1.11672998046875,-0.0009510365780442953,-0.0030019774567335844,0.004993598908185959
1733860439393680000,1.126679931640625,0.0015973420813679695,-0.00099075841717422,0.0016004655044525862
1733860439403630800,1.136630859375,0.0015680734068155289,-0.0022551207803189754,0.0012166097294539213
1733860439413580800,1.146580810546875,0.00033156806603074074,-0.005018949508666992,-0.000056381337344646454
1733860439423531800,1.15653173828125,-0.0010337287094444036,-0.003221350023522973,0.0009554022108204663
1733860439433482000,1.16648193359375,-0.0027709086425602436,-0.0008474080823361874,0.0005447427975013852
1733860439443432700,1.1764326171875,-0.0029551491606980562,-0.000042893923819065094,-0.004318771883845329
1733860439453384000,1.186384033203125,-0.0020014711190015078,0.0007611142937093973,-0.0016172609757632017
1733860439463334000,1.196333984375,-0.0011166681069880724,0.0014460248639807105,0.0016716441605240107
1733860439473284600,1.20628466796875,0.0006093266420066357,0.00016557704657316208,0.005005389451980591
1733860439483234800,1.21623486328125,0.0026480252854526043,-0.0010170163586735725,0.0016336876433342695
1733860439493185800,1.226185791015625,0.002753220032900572,-0.004676998592913151,0.0014573864173144102
1733860439503136800,1.23613671875,0.003103977534919977,-0.006499552633613348,0.0011920328252017498
1733860439513086700,1.246086669921875,0.0027364613488316536,-0.007805300410836935,0.0011949623003602028
1733860439523038000,1.256037841796875,0.005521776154637337,-0.010343513451516628,0.001990085933357477
1733860439532988000,1.26598779296875,0.003568347543478012,-0.00873363297432661,0.002186094643548131
1733860439542939000,1.27593896484375,0.003523640800267458,-0.0031777648255228996,0.0010232371278107166
1733860439552888800,1.285888916015625,0.0025723595172166824,-0.00008503580465912819,0.0019593380857259035
1733860439562839800,1.29583984375,0.004210728220641613,0.005056055262684822,-0.001095813000574708
1733860439572790800,1.305790771484375,-0.00005991663783788681,0.008272887207567692,-0.002583188470453024
1733860439582740700,1.31574072265625,-0.0019096089527010918,0.012309654615819454,-0.0011755148880183697
1733860439592692000,1.32569189453125,-0.003979417495429516,0.01300447341054678,-0.001474587945267558
1733860439602642000,1.335641845703125,-0.0032019231002777815,0.012583098374307156,-0.004624335095286369
1733860439612593000,1.345593017578125,-0.005840050522238016,0.012526638805866241,-0.004689316265285015
1733860439622544000,1.3555439453125,-0.006123342551290989,0.0076492889784276485,-0.00015712459571659565
1733860439632493800,1.365493896484375,-0.004869793076068163,0.006421305704861879,0.003340937662869692
1733860439642444800,1.37544482421875,-0.0031222128309309483,0.0022938076872378588,0.0023211936932057142
1733860439652394800,1.385394775390625,-0.0013477485626935959,-0.002662068698555231,0.000006107729859650135
1733860439662346000,1.395345947265625,-0.0018804287537932396,-0.010274565778672695,-0.0006614062003791332
1733860439672296000,1.4052958984375,-0.0004673553630709648,-0.013683145865797997,0.0005490004550665617
1733860439682247000,1.415246826171875,-0.0011311618145555258,-0.012532458640635014,0.0019013299606740475
1733860439692198000,1.425197998046875,-0.006664677523076534,-0.008044766262173653,0.0012568449601531029
1733860439702147800,1.43514794921875,-0.006256085820496082,-0.007148892618715763,-0.0037420671433210373
1733860439712098800,1.445098876953125,-0.007992466911673546,-0.006472183391451836,-0.007042789366096258
1733860439722048800,1.455048828125,-0.007320985198020935,-0.008034978061914444,-0.00759043637663126
1733860439732000000,1.465,-0.005346784368157387,-0.01050532702356577,-0.0023690436501055956
1733860439741950700,1.47495068359375,-0.006180926226079464,-0.01654670760035515,-0.0027147484943270683
1733860439751901000,1.48490087890625,-0.006948715541511774,-0.017793068662285805,-0.0035488507710397243
1733860439761852000,1.494851806640625,-0.00883236899971962,-0.013736007735133171,-0.005290824454277754
1733860439771801900,1.5048017578125,-0.0081080486997962,-0.008925894275307655,-0.0034301243722438812
1733860439781752800,1.5147529296875,-0.005957313813269138,-0.002338814316317439,-0.004808454774320126
1733860439791704000,1.5247041015625,-0.0020075796637684107,-0.0011393262539058924,-0.002395364223048091
1733860439801653800,1.53465380859375,0.00034445710480213165,0.0013715376844629645,0.00018628127872943878
1733860439811604700,1.544604736328125,0.00047148996964097023,0.005262948572635651,0.0020483634434640408
1733860439821555000,1.554554931640625,0.0032025487162172794,0.005326727405190468,0.0024973934050649405
1733860439831505700,1.564505615234375,0.003869670443236828,0.004874522797763348,-0.0028920455370098352
1733860439841455900,1.574455810546875,0.00583193963393569,0.004277680069208145,-0.005177352577447891
1733860439851406800,1.58440673828125,0.006455651950091124,0.0069280583411455154,-0.002615923760458827
1733860439861357800,1.59435791015625,0.004968937952071428,0.0022260553669184446,-0.0030503342859447002
1733860439871307800,1.604307861328125,0.0020746146328747272,0.0021541500464081764,0.0003984594950452447
1733860439881258800,1.6142587890625,0.0009271935559809208,0.0023237387649714947,0.0026862509548664093
1733860439891209000,1.624208984375,-0.0005471324548125267,-0.00296183698810637,0.0017773141153156757
1733860439901159700,1.63415966796875,-0.003071113023906946,-0.007496753707528114,-0.00358184683136642
1733860439911111000,1.64411083984375,-0.0029547330923378468,-0.014554929919540882,-0.0046170176938176155
1733860439921060900,1.654060791015625,-0.0040892972610890865,-0.018665775656700134,-0.005999031942337751
1733860439931011800,1.66401171875,-0.004935649689286947,-0.020298294723033905,-0.006029125768691301
1733860439940961800,1.6739619140625,-0.004711901303380728,-0.022349869832396507,-0.008449288085103035
1733860439950912800,1.683912841796875,-0.0028857719153165817,-0.019993240013718605,-0.00610384251922369
1733860439960863000,1.693863037109375,-0.00295494613237679,-0.016898417845368385,-0.009014653041958809
1733860439970813700,1.703813720703125,-0.0034942361526191235,-0.012387288734316826,-0.005190620198845863
1733860439980765000,1.713764892578125,-0.005157566629350185,-0.008540516719222069,-0.0023090781178325415
1733860439990715000,1.72371484375,-0.002620639279484749,-0.003664802061393857,0.0028324206359684467
1733860440000665900,1.733665771484375,-0.005104936193674803,0.0019691684283316135,0.005114849656820297
1733860440010615800,1.74361572265625,-0.005861540324985981,0.00615858705714345,0.0013893535360693932
1733860440020567000,1.753567138671875,-0.004589797463268042,0.007287989370524883,-0.0006385492160916328
1733860440030517800,1.763517822265625,-0.0037176122423261404,0.006193696521222591,-0.0015605355147272348
1733860440040467700,1.7734677734375,-0.003877518232911825,0.005339683033525944,0.00040224194526672363
1733860440050419000,1.7834189453125,-0.004098827019333839,0.005042740143835545,0.0023857643827795982
1733860440060369000,1.793368896484375,-0.0008159975986927748,0.002620887942612171,0.003317655296996236
1733860440070319900,1.80331982421875,0.004886096343398094,-0.0023613537196069956,0.003633772488683462
1733860440080269800,1.813269775390625,0.005457560997456312,-0.005994819570332766,0.0030935551039874554
1733860440090221000,1.823220947265625,0.005817087832838297,-0.012915842235088348,0.004323402885347605
1733860440100171800,1.833171875,0.0064024003222584724,-0.01876704767346382,0.004028907045722008
1733860440110121700,1.843121826171875,0.006242610514163971,-0.017333202064037323,0.003915456123650074
1733860440120073000,1.853072998046875,0.00358790485188365,-0.005487690679728985,0.007067550905048847
1733860440130022700,1.863022705078125,0.0025537991896271706,0.01616913452744484,0.008635087870061398
1733860440139974000,1.872973876953125,0.00041050277650356293,0.04687881097197533,0.01175890676677227
1733860440149924900,1.8829248046875,0.0023697903379797935,0.08406985551118851,0.014599966816604137
1733860440159874800,1.892874755859375,0.0028387950733304024,0.11562179028987885,0.013453783467411995
1733860440169825800,1.90282568359375,0.0013492894358932972,0.13889648020267487,0.012448173016309738
1733860440179775700,1.912775634765625,0.0010506464168429375,0.15277907252311707,0.011798459105193615
1733860440189726700,1.922726806640625,-0.0004636270459741354,0.15632666647434235,0.01728297397494316
1733860440199676400,1.932676513671875,0.00010986952111124992,0.15051719546318054,0.017403677105903625
1733860440209627600,1.942627685546875,0.00022438541054725647,0.13926374912261963,0.017757080495357513
1733860440219578600,1.95257861328125,-0.0036501591093838215,0.12161996960639954,0.013704558834433556
1733860440229528600,1.962528564453125,-0.004320743028074503,0.09451352059841156,0.009171325713396072
1733860440239479600,1.9724794921875,-0.00582545343786478,0.06191046163439751,0.006038744933903217
1733860440249429800,1.9824296875,-0.006253156810998917,0.02617749758064747,-0.001096396241337061
1733860440259380500,1.99238037109375,-0.010637602768838406,-0.001003745011985302,-0.005980195943266153
1733860440269331700,2.002331787109375,-0.012629913166165352,-0.01793665438890457,-0.006140784826129675
1733860440279281700,2.01228173828125,-0.014008383266627789,-0.026311488822102547,-0.007529162801802158
1733860440289232600,2.022232666015625,-0.012851505540311337,-0.028823649510741234,-0.008728117682039738
1733860440299182600,2.0321826171875,-0.012959246523678303,-0.02751982770860195,-0.007839714176952839
1733860440309133600,2.042133544921875,-0.0071935029700398445,-0.023676620796322823,-0.010140152648091316
1733860440319084500,2.05208447265625,-0.005281868856400251,-0.01911316066980362,-0.008775564841926098
1733860440329034500,2.062034423828125,-0.003945760894566774,-0.020346472039818764,-0.006588310934603214
1733860440338985700,2.07198583984375,-0.0015511473175138235,-0.022008903324604034,-0.005320458672940731
1733860440348935700,2.081935791015625,-0.001544489525258541,-0.020939644426107407,-0.0033995206467807293
1733860440358886700,2.09188671875,0.0027988767251372337,-0.0203231330960989,-0.0031991784926503897
1733860440368836600,2.101836669921875,0.004066009074449539,-0.022396935150027275,-0.0035941253881901503
1733860440378787600,2.11178759765625,0.004484877455979586,-0.02699526958167553,-0.004427285399287939
1733860440388738600,2.121738525390625,0.0034299995750188828,-0.03204302489757538,-0.00047222478315234184
1733860440398688500,2.1316884765625,0.008922317996621132,-0.033576495945453644,-0.00499089527875185
1733860440408639700,2.1416396484375,0.01105098333209753,-0.036537930369377136,-0.008880708366632462
1733860440418589700,2.151589599609375,0.009982656687498093,-0.04394785687327385,-0.010389522649347782
1733860440428540700,2.161540771484375,0.012928912416100502,-0.05131709203124046,-0.011408713646233082
1733860440438490600,2.17149072265625,0.012044290080666542,-0.058965057134628296,-0.010627872310578823
1733860440448441600,2.181441650390625,0.011660261079668999,-0.06042766571044922,-0.011198854073882103
1733860440458392600,2.191392578125,0.011307576671242714,-0.055913832038640976,-0.013913508504629135
1733860440468342500,2.201342529296875,0.009033236652612686,-0.050312671810388565,-0.010003721341490746
1733860440478293800,2.211293701171875,0.008493615314364433,-0.03921192139387131,-0.004563881084322929
1733860440488243500,2.221243408203125,0.010232659056782722,-0.029762493446469307,-0.00521475775167346
1733860440498194700,2.231194580078125,0.009780222550034523,-0.021083004772663116,-0.006914242170751095
1733860440508145700,2.241145751953125,0.010765058919787407,-0.01652633585035801,-0.0058820005506277084
1733860440518095600,2.251095703125,0.01045666541904211,-0.01755458302795887,-0.0014241356402635574
1733860440528046600,2.261046630859375,0.006492815911769867,-0.022689424455165863,0.00004353246185928583
1733860440537996500,2.27099658203125,0.00263028172776103,-0.021604903042316437,-0.002872214652597904
1733860440547947500,2.280947509765625,0.0011319871991872787,-0.021658431738615036,-0.006363885477185249
1733860440557898500,2.2908984375,-0.001574965426698327,-0.018933691084384918,-0.00733644375577569
1733860440567848700,2.3008486328125,-0.001982961781322956,-0.015826314687728882,-0.0025893589481711388
1733860440577799700,2.310799560546875,-0.0017978227697312832,-0.01485588401556015,-0.001095375744625926
1733860440587749600,2.32074951171875,-0.0027299290522933006,-0.014668397605419159,-0.00029296521097421646
1733860440597700600,2.33070068359375,-0.001412159763276577,-0.016116522252559662,-0.0015622565988451242
1733860440607650600,2.340650634765625,-0.0036212517879903316,-0.01864093355834484,-0.0008011250756680965
1733860440617601500,2.3506015625,-0.0034418413415551186,-0.020730258896946907,0.0010320076253265142
1733860440627552500,2.360552490234375,-0.001232749316841364,-0.022869043052196503,-0.005614177323877811
1733860440637502700,2.370502685546875,-0.0006796265952289104,-0.026301993057131767,-0.005718022584915161
1733860440647453400,2.380453369140625,0.0021049748174846172,-0.033067487180233,-0.007310060318559408
1733860440657403600,2.390403564453125,0.0017935330979526043,-0.04040949046611786,-0.0011291035916656256
1733860440667354600,2.400354736328125,0.0028595966286957264,-0.04645433649420738,0.005229726433753967
1733860440677305600,2.4103056640625,0.002873064950108528,-0.048893872648477554,0.000052926247008144855
1733860440687255600,2.420255615234375,0.0008836835622787476,-0.051961835473775864,-0.005013205111026764
1733860440697206800,2.430206787109375,0.0002878662198781967,-0.052476976066827774,-0.007744388654828072
1733860440707156700,2.44015673828125,-0.0014397262129932642,-0.050977881997823715,-0.005578439682722092
1733860440717107500,2.450107421875,0.0007706801407039165,-0.05042834207415581,-0.00791161973029375
1733860440727058700,2.46005859375,-0.00043120444752275944,-0.04821418970823288,-0.005657253786921501
1733860440737008600,2.470008544921875,-0.00015248451381921768,-0.040757954120635986,-0.007157025393098593
1733860440746959600,2.479959716796875,-0.0030915490351617336,-0.03386116400361061,-0.0058736479841172695
1733860440756909600,2.48990966796875,-0.0013422546908259392,-0.023369692265987396,-0.004022887907922268
1733860440766860800,2.49986083984375,0.0006495234556496143,-0.011956448666751385,0.0010576248168945312
1733860440776810800,2.509810791015625,0.0026749763637781143,-0.0012518127914518118,0.0006371753988787532
1733860440786761500,2.519761474609375,0.003990311175584793,0.00969697441905737,-0.0006203693337738514
1733860440796712700,2.529712646484375,0.0033411639742553234,0.01271029096096754,0.00012571318075060844
1733860440806662700,2.53966259765625,0.0038559529930353165,0.012700437568128109,0.002697261516004801
1733860440816613600,2.549613525390625,0.0034719244576990604,0.009061352349817753,0.002317582257091999
1733860440826563600,2.5595634765625,0.002048464957624674,-0.001758272061124444,0.0033295834437012672
1733860440836514800,2.569514892578125,0.001593712717294693,-0.011088044382631779,0.0021733881440013647
1733860440846465500,2.579465576171875,0.0005239211022853851,-0.0173328910022974,0.0025904392823576927
1733860440856415500,2.58941552734375,-0.0003679385408759117,-0.026187118142843246,0.002769547514617443
1733860440866366700,2.59936669921875,-0.0011346626561135054,-0.031044190749526024,0.00021504343021661043
1733860440876316700,2.609316650390625,0.00017719902098178864,-0.03690672665834427,-0.0012210870627313852
1733860440886267600,2.619267578125,-0.000598313519731164,-0.040022626519203186,-0.0029175204690545797
1733860440896217600,2.629217529296875,-0.0020222102757543325,-0.038694433867931366,-0.003994254395365715
1733860440906168600,2.63916845703125,-0.0009138027671724558,-0.03726165369153023,-0.0036911864299327135
1733860440916119600,2.64911962890625,-0.0029389038681983948,-0.034428831189870834,-0.005812538787722588
1733860440926069800,2.65906982421875,-0.0009370057377964258,-0.03350125253200531,-0.005351545289158821
1733860440936020700,2.669020751953125,0.0022620167583227158,-0.02609102427959442,-0.00534447655081749
1733860440945970400,2.678970458984375,0.0027970457449555397,-0.024021748453378677,-0.0014860890805721283
1733860440955921700,2.688921630859375,0.006142430007457733,-0.019395386800169945,-0.0003656083717942238
1733860440965872600,2.69887255859375,0.006945905275642872,-0.017124509438872337,0.00441130343824625
1733860440975822600,2.708822509765625,0.004822812508791685,-0.013947754167020321,0.00702414195984602
1733860440985773600,2.718773681640625,0.002951675560325384,-0.014617272652685642,0.0033252774737775326
1733860440995723800,2.728723876953125,-0.0012925376649945974,-0.015354206785559654,0.001836326322518289
1733860441005674500,2.738674560546875,-0.0012379428371787071,-0.009164752438664436,0.0012634804006665945
1733860441015624400,2.74862451171875,-0.002698787022382021,-0.005634147208184004,-0.0014246145728975534
1733860441025575700,2.75857568359375,-0.0031195662450045347,-0.0031922953203320503,-0.003558339085429907
1733860441035526400,2.7685263671875,-0.0012091617099940777,-0.003538694465532899,-0.0036892136558890343
1733860441045476600,2.7784765625,-0.0001905027311295271,-0.0048348549753427505,-0.002498780842870474
1733860441055427600,2.788427490234375,0.0023081572726368904,-0.008578912355005741,0.0014213069807738066
1733860441065377800,2.798377685546875,0.0019006934016942978,-0.014492727816104889,0.0031606173142790794
1733860441075328500,2.80832861328125,0.00017270026728510857,-0.01882162317633629,0.0044474112801253796
1733860441085279700,2.81827978515625,-0.001741047017276287,-0.021439511328935623,0.0022002358455210924
1733860441095229700,2.828229736328125,-0.0001665863674134016,-0.025590579956769943,0.001987981842830777
1733860441105180700,2.8381806640625,0.0005990723147988319,-0.028924323618412018,-0.0014134072698652744
1733860441115130600,2.848130615234375,0.00019022682681679726,-0.030580252408981323,-0.0007733996026217937
1733860441125081600,2.85808154296875,0.00013509951531887054,-0.027891259640455246,0.00015284784603863955
1733860441135031800,2.86803173828125,0.00036390218883752823,-0.02512599527835846,0.0013999775983393192
1733860441144982500,2.877982421875,-0.0005359796341508627,-0.020354676991701126,0.0011435151100158691
1733860441154933800,2.887933837890625,0.000935764517635107,-0.018077697604894638,-0.001122653717175126
1733860441164883700,2.8978837890625,0.0005469429306685925,-0.01755518652498722,-0.003953327424824238
1733860441174834700,2.907834716796875,-0.0009307467844337225,-0.017997056245803833,-0.0025696512311697006
1733860441184784600,2.91778466796875,-0.0009587099775671959,-0.018356850370764732,0.001623229356482625
1733860441194735600,2.927735595703125,-0.00024604680947959423,-0.018185218796133995,0.004017501138150692
1733860441204686300,2.937686279296875,-0.000693990383297205,-0.021742669865489006,0.00015538523439317942
1733860441214636500,2.947636474609375,0.0013077431358397007,-0.024660998955368996,-0.0019149638246744871
1733860441224587500,2.95758740234375,-0.00016871304251253605,-0.02503916807472706,0.000007039401680231094
1733860441234537700,2.967537841796875,0.0001076357439160347,-0.023696228861808777,0.002905879635363817
1733860441244488400,2.977488525390625,0.0009840824641287327,-0.02384323626756668,0.0008640341111458838
1733860441254439700,2.987439697265625,-0.001766841160133481,-0.02128414809703827,-0.0009329994209110737
1733860441264389600,2.9973896484375,-0.0016733640804886818,-0.01671682670712471,-0.000996915390715003
1733860441274340400,3.00734033203125,-0.0005300077609717846,-0.011361097916960716,0.0025018728338181973
1733860441284290600,3.01729052734375,0.0005597579292953014,-0.007387661375105381,-0.0010220217518508434
1733860441294241500,3.027241455078125,0.0008368929848074913,-0.0054030208848416805,-0.0009667952544987202
1733860441304191500,3.03719140625,-0.00020040851086378098,-0.0036788899451494217,0.002559229964390397
1733860441314142500,3.047142578125,0.00014821579679846764,-0.0010053515434265137,0.005359882488846779
1733860441324093700,3.05709375,0.0012965705245733261,0.0005448744632303715,0.005640313029289246
1733860441334043400,3.06704345703125,0.0010762936435639858,-0.0013068036641925573,0.003899260424077511
1733860441343994400,3.076994384765625,0.0020550056360661983,-0.003931349143385887,0.0002888130256906152
1733860441353944600,3.086944580078125,0.002107887528836727,-0.002726083155721426,0.0005126363830640912
1733860441363895300,3.096895263671875,0.001863675657659769,-0.00890088826417923,0.003040508832782507
1733860441373846500,3.106846435546875,0.0019225827418267727,-0.010874052532017231,0.0032471215818077326
1733860441383796500,3.11679638671875,0.004997468087822199,-0.012572882696986198,0.0042207734659314156
1733860441393747500,3.12674755859375,0.0041920277290046215,-0.01374847162514925,0.0029158354736864567
1733860441403697400,3.136697509765625,0.00045774318277835846,-0.011975872330367565,-0.001712472178041935
1733860441413648600,3.146648681640625,0.00182645907625556,-0.00947536900639534,-0.003261038800701499
1733860441423598600,3.1565986328125,0.002102628815919161,-0.0042406595312058926,-0.0014442303217947483
1733860441433549300,3.16654931640625,0.00026839273050427437,-0.0019464076030999422,-0.0028698816895484924
1733860441443500500,3.17650048828125,0.0013419128954410553,-0.0013282878790050745,-0.0004858202300965786
1733860441453450500,3.186450439453125,0.0009362809360027313,-0.00024383165873587132,-0.0004321676678955555
1733860441463401500,3.1964013671875,0.0005301488563418388,0.0019636626821011305,-0.0020838601049035788
1733860441473351400,3.206351318359375,-0.00036272709257900715,-0.0002549360506236553,0.0003065078053623438
1733860441483302700,3.216302734375,-0.004760671406984329,-0.003220898564904928,0.0000734811183065176
1733860441493253400,3.22625341796875,-0.0024857339449226856,-0.006130294408649206,-0.002241139765828848
1733860441503203300,3.236203369140625,-0.005397900473326445,-0.0033235889859497547,-0.00672244094312191
1733860441513154600,3.246154541015625,0.00034340890124440193,-0.0006178526673465967,-0.004293349571526051
1733860441523104500,3.2561044921875,0.003036131151020527,-0.0008183887694031,-0.000749215018004179
1733860441533055500,3.266055419921875,0.004717687144875526,-0.0029163050930947065,0.0003331532934680581
1733860441543006500,3.27600634765625,0.007555285468697548,-0.010822964832186699,0.0009928182698786259
1733860441552956700,3.285956787109375,0.005714674014598131,-0.01597028598189354,-0.001815475057810545
1733860441562907400,3.295907470703125,0.004384159576147795,-0.018424922600388527,-0.0072919996455311775
1733860441572857300,3.305857421875,0.00316825695335865,-0.01851298101246357,-0.00766290258616209
1733860441582808600,3.31580859375,0.0016800826415419579,-0.017833875492215157,-0.008009113371372223
1733860441592758500,3.325758544921875,-0.0004919914063066244,-0.01755717396736145,-0.0065630171447992325
1733860441602709500,3.33570947265625,0.00044677266851067543,-0.015892697498202324,-0.0036191593389958143
1733860441612660500,3.345660400390625,0.0001631295308470726,-0.012178377248346806,0.0017113516805693507
1733860441622610700,3.355610595703125,0.00047205621376633644,-0.007088277488946915,0.00407117884606123
1733860441632561400,3.3655615234375,0.0032362686470150948,-0.006612700410187244,0.0017685831990092993
1733860441642511600,3.37551171875,0.004229894373565912,-0.006310964003205299,0.004249583929777145
1733860441652462600,3.385462646484375,0.0045577287673950195,-0.0036758899223059416,0.005231136456131935
1733860441662413600,3.39541357421875,0.00227300263941288,0.00004321429878473282,0.0026763661298900843
1733860441672363500,3.405363525390625,0.004199500195682049,0.0015927834901958704,-0.0009320068638771772
1733860441682314500,3.415314453125,0.002219173591583967,-0.002822471084073186,-0.003908355720341206
1733860441692264400,3.425264404296875,0.0026694140397012234,-0.0072067794390022755,-0.0013380399905145168
1733860441702215400,3.43521533203125,0.00246914429590106,-0.012076636776328087,-0.0013148703146725893
1733860441712166700,3.445166748046875,-0.00001443503424525261,-0.01221422478556633,0.00308707682415843
1733860441722116400,3.455116455078125,-0.0005414746701717377,-0.01110528502613306,0.0014260632451623678
1733860441732067600,3.465067626953125,0.00023278826847672462,-0.008308475837111473,0.001998735126107931
1733860441742017500,3.475017578125,0.00010389136150479317,-0.004844502545893192,0.002510061953216791
1733860441751968300,3.48496826171875,-0.0017712898552417755,-0.0019094070885330439,0.00031593453604727983
1733860441761918500,3.49491845703125,-0.0007731369696557522,0.0030131798703223467,-0.0035800037439912558
1733860441771869400,3.504869384765625,-0.0034039891324937344,0.009070085361599922,-0.0019686066079884768
1733860441781820400,3.5148203125,0.00015053199604153633,0.013401716947555542,0.00029454752802848816
1733860441791770400,3.524770263671875,-0.000610884977504611,0.01574918068945408,0.0035801921039819717
1733860441801721600,3.5347216796875,0.0013430765829980373,0.012397591955959797,0.0017793625593185425
1733860441811671600,3.544671630859375,0.004406994674354792,0.00539016630500555,-0.00039656669832766056
1733860441821622500,3.55462255859375,0.0068003772757947445,-0.0007550776936113834,0.0006734913913533092
1733860441831573500,3.564573486328125,0.004305163398385048,-0.003348270198330283,0.004036278463900089
1733860441841523500,3.5745234375,0.0028265761211514473,0.0001684341114014387,0.004751337692141533
1733860441851474400,3.584474365234375,0.0021678083576261997,0.0014974238583818078,0.003032785840332508
1733860441861424400,3.59442431640625,0.004190478939563036,0.0031919933389872313,-0.0009102905169129372
1733860441871375600,3.604375732421875,0.0008476302027702332,0.00014950009062886238,-0.0025258013047277927
1733860441881326300,3.614326416015625,0.0009831851348280907,0.0007002418860793114,-0.0026813303120434284
1733860441891276500,3.624276611328125,0.000027857720851898193,0.0008111817296594381,-0.003649519057944417
1733860441901227500,3.6342275390625,0.0010284073650836945,0.006903695408254862,-0.0005115163512527943
1733860441911177500,3.644177490234375,0.0006233570165932178,0.008711705915629864,0.00021453341469168663
1733860441921128400,3.65412841796875,0.003212215844541788,0.012017222121357918,-0.0012906852643936872
1733860441931078400,3.664078369140625,0.0047526233829557896,0.012413890101015568,0.0027390015311539173
1733860441941029600,3.674029541015625,0.0020316713489592075,0.013485013507306576,0.002899324055761099
1733860441950980400,3.68398046875,0.0018993774428963661,0.014217880554497242,0.002510522957891226
1733860441960930600,3.6939306640625,0.00169857544824481,0.00956959929317236,-0.0012562521733343601
1733860441970881500,3.703881591796875,0.00011246278882026672,0.0037329799961298704,-0.001759035512804985
1733860441980831500,3.71383154296875,-0.0019999565556645393,-0.0017384844832122326,0.00019625737331807613
1733860441990782500,3.723782470703125,-0.002111924346536398,-0.0043214233592152596,0.0006876401603221893
1733860442000733700,3.733733642578125,-0.001047991681843996,-0.004071352072060108,0.0018117603613063693
1733860442010683600,3.74368359375,-0.0030723903328180313,-0.004449985921382904,-0.0030458851251751184
1733860442020634400,3.75363427734375,-0.0017493318300694227,-0.008864708244800568,-0.003938576206564903
1733860442030584600,3.76358447265625,0.0008920030668377876,-0.012284619733691216,-0.0040457481518387794
1733860442040535600,3.77353564453125,-0.000419071177020669,-0.012445741333067417,-0.001460617408156395
1733860442050486500,3.783486572265625,0.0005393675528466702,-0.008588667027652264,0.0001083731185644865
1733860442060436500,3.7934365234375,0.0017766719684004784,-0.005631759762763977,0.0016364948824048042
1733860442070387700,3.8033876953125,0.0006646709516644478,-0.002570386277511716,0.0006675949553027749
1733860442080337400,3.81333740234375,0.0014934465289115906,0.00010848743841052055,-0.002982533536851406
1733860442090288400,3.823288330078125,-0.002309482078999281,-0.0024023752193897963,-0.00584381353110075
1733860442100238600,3.833238525390625,-0.0020410355646163225,-0.005054617300629616,-0.0043543074280023575
1733860442110189300,3.843189208984375,-0.002321265172213316,-0.007257549092173576,0.00037571252323687077
1733860442120140500,3.853140625,-0.002690911991521716,-0.0012308161240071058,0.002351778093725443
1733860442130090500,3.863090576171875,-0.003859668504446745,0.0047789569944143295,0.0015838064718991518
1733860442140041500,3.87304150390625,-0.003425839589908719,0.007513224612921476,-0.0020708495285362005
1733860442149991400,3.882991455078125,-0.00289745582267642,0.008836792781949043,-0.0014761881902813911
1733860442159942400,3.8929423828125,-0.003523564897477627,0.009368360042572021,-0.0006415536627173424
1733860442169893400,3.902893310546875,-0.00025645014829933643,0.0069531663320958614,-0.00276351161301136
1733860442179843300,3.91284326171875,-0.0009890857618302107,0.00443115271627903,0.0024421692360192537
1733860442189794600,3.922794677734375,-0.003222661791369319,0.0022902286145836115,0.001047011581249535
1733860442199744800,3.932744873046875,-0.0032210638746619225,-0.0009598932228982449,0.0006264984840527177
1733860442209695700,3.94269580078125,-0.0040567717514932156,-0.007396096363663673,-0.0022701937705278397
1733860442219646700,3.952646728515625,-0.002592565957456827,-0.010260858573019505,-0.005472378805279732
1733860442229597000,3.962596923828125,-0.002895328216254711,-0.013896338641643524,-0.003792164847254753
1733860442239547600,3.972547607421875,-0.002831944962963462,-0.01590995490550995,-0.002195599488914013
1733860442249497600,3.98249755859375,-0.005005449987947941,-0.01583627425134182,-0.004284660331904888
1733860442259448800,3.99244873046875,-0.004210496321320534,-0.017066121101379395,-0.0034319162368774414
1733860442269398800,4.002398681640625,-0.006112426519393921,-0.014161588624119759,-0.007298748940229416
1733860442279349800,4.012349853515625,-0.004744094796478748,-0.012985004112124443,-0.00687157828360796
1733860442289300700,4.02230078125,-0.004995760507881641,-0.007942719385027885,-0.00547439232468605
1733860442299251000,4.0322509765625,-0.004633836913853884,-0.0014225025661289692,0.002184060402214527
1733860442309201700,4.04220166015625,-0.005691644735634327,0.0033818399533629417,0.0016551564913243055
1733860442319151600,4.052151611328125,-0.008015654981136322,0.006077297963202,0.0004417732125148177
1733860442329102800,4.062102783203125,-0.009316209703683853,0.007325859274715185,-0.002783093135803938
1733860442339053600,4.072053466796875,-0.009378260932862759,0.006422781385481358,-0.0016142316162586212
1733860442349003800,4.082003662109375,-0.006363462656736374,0.004445331171154976,0.0009681358351372182
1733860442358954800,4.091954833984375,-0.0027386341243982315,-0.0018503814935684204,-0.0013634616043418646
1733860442368904700,4.10190478515625,-0.00031350809149444103,-0.006540626287460327,-0.001812873175367713
1733860442378855700,4.111855712890625,0.001116875559091568,-0.00927063263952732,-0.0006149834953248501
1733860442388807000,4.121806884765625,0.003480170387774706,-0.008555332198739052,-0.0018286677077412605
1733860442398756900,4.1317568359375,0.0049337237142026424,-0.010599841363728046,-0.0038931502494961023
1733860442408707800,4.141707763671875,0.0024916999973356724,-0.009787483140826225,-0.004925587214529514
1733860442418657800,4.15165771484375,0.0016157864592969418,-0.009863915853202343,-0.0038371530827134848
1733860442428608800,4.16160888671875,0.0005126367323100567,-0.007468365132808685,-0.0020033239852637053
1733860442438558700,4.171558837890625,-0.0022666382137686014,-0.004937030375003815,-0.0023529971949756145
1733860442448509700,4.181509765625,-0.0022980794310569763,-0.0035760041791945696,-0.003178204642608762
1733860442458461000,4.1914609375,-0.0026727861259132624,-0.0002822068054229021,-0.0015989500097930431
1733860442468410600,4.20141064453125,-0.001353890635073185,-0.0008074345532804728,-0.0010890562552958727
1733860442478361900,4.21136181640625,-0.003165905363857746,-0.00331027340143919,-0.0037543480284512043
1733860442488311800,4.221311767578125,-0.0013323351740837097,-0.005749187432229519,-0.0014190939255058765
1733860442498262500,4.231262451171875,-0.0017491199541836977,-0.013421487994492054,-0.00386840314604342
1733860442508213800,4.2412138671875,-0.0020126700401306152,-0.0145111670717597,-0.0035332953557372093
1733860442518163700,4.251163818359375,-0.002603891771286726,-0.015302126295864582,-0.0024515194818377495
1733860442528114700,4.26111474609375,-0.005593055859208107,-0.013152939267456532,-0.0008223403710871935
1733860442538064600,4.271064697265625,-0.005464958027005196,-0.008879098109900951,-0.0028372881934046745
1733860442548015900,4.281015869140625,-0.005878150463104248,-0.009446419775485992,-0.006716408766806126
1733860442557966600,4.290966552734375,-0.0031878252048045397,-0.00912524200975895,-0.00957584474235773
1733860442567916500,4.30091650390625,-0.005321146920323372,-0.010774203576147556,-0.009724222123622894
1733860442577867800,4.31086767578125,-0.005518753547221422,-0.011771556921303272,-0.00019889441318809986
1733860442587817700,4.320817626953125,-0.006251576356589794,-0.00929606519639492,0.002738483250141144
1733860442597768700,4.330768798828125,-0.006748522166162729,-0.007243567146360874,-0.004154575988650322
1733860442607718700,4.34071875,-0.008534571155905724,-0.0020950729958713055,-0.007054271176457405
1733860442617670000,4.350669921875,-0.008352678269147873,0.0004668880719691515,-0.006944015622138977
1733860442627620600,4.36062060546875,-0.007730529643595219,-0.0005651041865348816,-0.004340365529060364
1733860442637570800,4.37057080078125,-0.003116337116807699,-0.00220374739728868,0.0009015343966893852
1733860442647521800,4.380521728515625,-0.0002114269882440567,-0.0024404670111835003,0.005070158746093512
1733860442657471700,4.3904716796875,0.003029373474419117,-0.002287867944687605,-0.00009158009197562933
1733860442667422700,4.400422607421875,0.005549482069909573,0.0009390842169523239,-0.0017909712623804808
1733860442677373700,4.410373779296875,0.00453774631023407,0.0006019279826432467,0.0005592684028670192
1733860442687324000,4.420323974609375,0.0029179551638662815,-0.0006611575372517109,0.0015652747824788094
1733860442697274600,4.430274658203125,0.0014156661927700043,-0.003219656180590391,0.0008765813545323908
1733860442707224800,4.440224853515625,-0.0024751806631684303,-0.006456620991230011,-0.0002766030374914408
1733860442717175800,4.45017578125,-0.0029359073378145695,-0.00807742029428482,0.00006907526403665543
1733860442727126800,4.460126708984375,-0.0017445567063987255,-0.004250522702932358,0.0020927865989506245
1733860442737076700,4.47007666015625,-0.0014444184489548206,0.00009389198385179043,0.0008690640097483993
1733860442747027700,4.48002783203125,0.002092822454869747,0.009853439405560493,0.0013828396331518888
1733860442756978000,4.48997802734375,0.00397274736315012,0.016910282894968987,-0.00042890897020697594
1733860442766928600,4.4999287109375,0.006028359290212393,0.02125926874577999,0.001099918270483613
1733860442776878800,4.50987890625,0.005436605308204889,0.02310830168426037,0.0034584137611091137
1733860442786829800,4.519829833984375,0.0043973056599497795,0.018234113231301308,0.004700822290033102
1733860442796780800,4.52978076171875,0.004624740220606327,0.01061081513762474,0.004482975695282221
1733860442806730800,4.539730712890625,0.003608444705605507,0.003194728633388877,0.0026612291112542152
1733860442816682000,4.549681884765625,0.0015956275165081024,-0.0034389393404126167,-0.0009257826022803783
1733860442826631700,4.559631591796875,0.0014630351215600967,-0.003548945765942335,-0.0013634616043418646
1733860442836582700,4.569582763671875,-0.0005375314503908157,-0.0011515677906572819,0.0006783838616684079
1733860442846534000,4.579533935546875,-0.0016886163502931595,0.001634933054447174,0.004025156144052744
1733860442856483600,4.589483642578125,-0.0021781055256724358,0.00412232568487525,0.004671238828450441
1733860442866434800,4.599434814453125,-0.0011977753601968288,0.0032457238994538784,0.001669489429332316
1733860442876384800,4.609384765625,0.002615871373564005,0.0002155792899429798,0.0010785339400172234
1733860442886335700,4.619335693359375,0.0008913879282772541,-0.002792803104966879,-0.0012753552291542292
1733860442896286700,4.62928662109375,0.0008730120025575161,-0.0023792143911123276,-0.003582984209060669
1733860442906236700,4.639236572265625,0.0033148149959743023,-0.006897508166730404,-0.0027999638114124537
1733860442916187600,4.649187744140625,0.004065560642629862,-0.006802965886890888,-0.0018662596121430397
1733860442926137600,4.6591376953125,-0.00033453782089054585,-0.004894127603620291,0.0016062831273302436
1733860442936088800,4.6690888671875,0.00002312473952770233,-0.0026504145935177803,0.0041906144469976425
1733860442946039600,4.67903955078125,0.000628435518592596,0.0040438491851091385,0.004063586238771677
1733860442955989800,4.68898974609375,0.002042307984083891,0.007616213522851467,0.0030814125202596188
1733860442965940700,4.698940673828125,0.0020624124445021152,0.006884307134896517,0.0018326977733522654
1733860442975890700,4.708890625,0.0006144517101347446,0.00016195629723370075,0.0024311100132763386
1733860442985841700,4.718841552734375,0.0004920465871691704,-0.008014267310500145,-0.0001647728495299816
1733860442995791600,4.72879150390625,0.000339713878929615,-0.014802932739257812,0.0015521671157330275
1733860443005742800,4.738742919921875,-0.0007134827319532633,-0.014928411692380905,0.0019983418751507998
1733860443015693600,4.748693603515625,-0.0004692708607763052,-0.012715324759483337,0.0035022287629544735
1733860443025643800,4.758643798828125,-0.001735121477395296,-0.005906127393245697,0.005448515992611647
1733860443035594800,4.7685947265625,-0.00281316926702857,0.003488439368084073,0.00827705953270197
1733860443045545000,4.778544921875,-0.00392370717599988,0.011478189378976822,0.00698569230735302
1733860443055495700,4.78849560546875,-0.0025106340181082487,0.015647366642951965,0.007446952164173126
1733860443065447000,4.798447021484375,-0.002038904931396246,0.01707305572926998,0.007836312055587769
1733860443075396900,4.80839697265625,-0.0014114642981439829,0.015048520639538765,0.010657664388418198
1733860443085347600,4.81834765625,0.0006417999975383282,0.012350879609584808,0.01065654493868351
1733860443095297800,4.8282978515625,0.0002713543362915516,0.004984043538570404,0.008600052446126938
1733860443105248800,4.838248779296875,0.00010434119030833244,-0.005204925779253244,0.005938343703746796
1733860443115199700,4.84819970703125,-0.0031713470816612244,-0.021726910024881363,0.0025428133085370064
1733860443125149700,4.858149658203125,-0.0018729071598500013,-0.03613321855664253,0.005272048059850931
1733860443135101000,4.868100830078125,-0.00444525433704257,-0.04598957672715187,0.0036613682750612497
1733860443145051000,4.87805078125,-0.006150809116661549,-0.05190974846482277,-0.000008755712769925594
1733860443155001600,4.888001708984375,-0.008037392050027847,-0.05756523832678795,-0.010099472478032112
1733860443164951800,4.897951904296875,-0.007853280752897263,-0.05974335968494415,-0.019285593181848526
1733860443174902800,4.90790283203125,-0.0005096143577247858,-0.04950883239507675,-0.012038333341479301
1733860443184853800,4.917853759765625,-0.0018611683044582605,-0.0297167357057333,0.0007182982517406344
1733860443194803700,4.9278037109375,-0.0035333670675754547,-0.00980507954955101,0.0012748988810926676
1733860443204754700,4.937754638671875,-0.0036136647686362267,0.005530666094273329,-0.004511045292019844
1733860443214704600,4.94770458984375,-0.0016842044424265623,0.012271925806999207,-0.007310826331377029
1733860443224655600,4.957655517578125,-0.0035376327577978373,0.013021002523601055,-0.003961591981351376
1733860443234606600,4.967606689453125,-0.00203507742844522,0.01112856063991785,-0.0007982894312590361
1733860443244556500,4.977556640625,-0.0005644294433295727,0.00672579649835825,0.0025433956179767847
1733860443254507500,4.987507568359375,-0.0004725505132228136,-0.0014429176226258278,0.0013875836739316583
1733860443264457500,4.99745751953125,0.0019341674633324146,-0.010739083401858807,-0.002629009075462818
1733860443274408700,5.00740869140625,0.0011637145653367043,-0.015628911554813385,-0.0025280755944550037
1733860443284359700,5.017359619140625,0.00018769875168800354,-0.019356025382876396,-0.0034179603680968285
1733860443294309600,5.0273095703125,-0.00015771295875310898,-0.01924976520240307,-0.003762307111173868
1733860443304260600,5.037260498046875,0.0010559218935668468,-0.01742871291935444,-0.0046575190499424934
1733860443314210600,5.04721044921875,0.00036989152431488037,-0.020793616771697998,-0.003009021980687976
1733860443324161500,5.05716162109375,0.0009377431124448776,-0.020985130220651627,-0.0031128644477576017
1733860443334112800,5.06711279296875,0.001969185657799244,-0.01992306485772133,-0.003595961956307292
1733860443344062500,5.0770625,0.00016051670536398888,-0.018818728625774384,-0.005851542577147484
1733860443354013700,5.087013671875,0.00002789124846458435,-0.01644159108400345,-0.003976144827902317
1733860443363963600,5.096963623046875,0.002566216979175806,-0.011077347211539745,-0.0017737760208547115
1733860443373914400,5.106914306640625,0.003353447187691927,-0.006102562882006168,-0.001218773191794753
1733860443383864600,5.116864501953125,0.0030967844650149345,-0.005294860806316137,-0.0006983706261962652
1733860443393815600,5.126815673828125,0.0022589536383748055,-0.006443482358008623,-0.0005566903855651617
1733860443403766500,5.1367666015625,0.0005557630211114883,-0.008302723988890648,0.00005256372969597578
1733860443413716500,5.146716552734375,-0.0008240207098424435,-0.008295799605548382,0.0015367433661594987
1733860443423667700,5.156667724609375,-0.0017249507363885641,-0.008345202542841434,0.001128464937210083
1733860443433617700,5.16661767578125,-0.002407252788543701,-0.009299945086240768,-0.00045425165444612503
1733860443443568400,5.176568359375,-0.0029175470117479563,-0.006472449749708176,-0.0018328470177948475
1733860443453519600,5.18651953125,-0.001102070091292262,-0.005091334693133831,-0.003253643400967121
1733860443463469600,5.196469482421875,-0.0019550479482859373,0.0012347210431471467,-0.001792490016669035
1733860443473420500,5.206420654296875,-0.0012051018420606852,0.004652888514101505,-0.0025536215398460627
1733860443483370500,5.21637060546875,0.0001277616247534752,0.005926704034209251,-0.0006912215612828732
1733860443493321700,5.22632177734375,-0.001545502571389079,0.0091661736369133,-0.00041292118839919567
1733860443503272400,5.2362724609375,-0.0027185105718672276,0.009730169549584389,0.0027785804122686386
1733860443513222700,5.24622265625,-0.0019896032754331827,0.01136721484363079,0.005096329376101494
1733860443523173600,5.256173583984375,-0.0009027672931551933,0.0072387829422950745,0.001167900743894279
1733860443533123600,5.26612353515625,-0.0010596276260912418,0.0007529205176979303,-0.0008582321461290121
1733860443543074600,5.276074462890625,-0.0007756317500025034,-0.007096661254763603,-0.0035703135654330254
1733860443553025500,5.286025634765625,0.00021879281848669052,-0.013758291490375996,-0.0026533869095146656
1733860443562975700,5.295975830078125,-0.0019750704523175955,-0.013674428686499596,-0.0012398327235132456
1733860443572926500,5.305926513671875,-0.00019448110833764076,-0.010229894891381264,-0.0003615221939980984
1733860443582876700,5.315876708984375,0.001650992315262556,-0.00496903620660305,-0.0016368066426366568
1733860443592827600,5.32582763671875,-0.0017261623870581388,-0.0041834041476249695,-0.0050427233800292015
1733860443602777600,5.335777587890625,-0.0009407005272805691,-0.007065667770802975,-0.004980955272912979
1733860443612728600,5.345728515625,-0.0010911691933870316,-0.012220482341945171,-0.004150048829615116
1733860443622679600,5.355679443359375,-0.002923155901953578,-0.012696782127022743,-0.0014688645023852587
1733860443632629800,5.365629638671875,-0.0016837206203490496,-0.008151564747095108,-0.00027896417304873466
1733860443642580500,5.37558056640625,-0.0011061830446124077,-0.006889046169817448,0.0012914212420582771
1733860443652530700,5.38553076171875,0.0017362087965011597,-0.003821617690846324,-0.0029062533285468817
1733860443662481700,5.395481689453125,0.0015735914930701256,-0.004705700092017651,-0.001502953004091978
1733860443672432600,5.4054326171875,0.0027299360372126102,-0.006152062676846981,-0.002246507443487644
1733860443682382600,5.415382568359375,0.0015464588068425655,-0.011631142348051071,-0.0005975139793008566
1733860443692333800,5.425333740234375,-0.00005303556099534035,-0.015094583854079247,-0.0005818011704832315
1733860443702283500,5.435283447265625,-0.0015513778198510408,-0.018112042918801308,-0.00007290730718523264
1733860443712234500,5.445234375,-0.0022949324920773506,-0.01733706332743168,-0.0015000952407717705
1733860443722185700,5.455185791015625,-0.0031200444791465998,-0.01877407170832157,-0.0038128038868308067
1733860443732135400,5.465135498046875,-0.002932557836174965,-0.013640829361975193,-0.003743029199540615
1733860443742086700,5.475086669921875,-0.0008553131483495235,-0.008542336523532867,-0.004279645159840584
1733860443752036600,5.48503662109375,-0.0009767534211277962,-0.003868755651637912,-0.00008250365499407053
1733860443761987600,5.494987548828125,-0.0012271897867321968,0.003578827017918229,0.002762119984254241
1733860443771937500,5.5049375,-0.0013675382360816002,0.004703213460743427,-0.0008384739048779011
1733860443781888500,5.514888427734375,0.0014981720596551895,0.005318590439856052,-0.002670347224920988
1733860443791839500,5.524839599609375,-0.0003828187473118305,-0.0013584867119789124,-0.0011363665107637644
1733860443801789400,5.53478955078125,0.0018065497279167175,-0.005166693590581417,0.0014387746341526508
1733860443811740700,5.54474072265625,0.00106885377317667,-0.004695313982665539,0.004135757684707642
1733860443821690600,5.554690673828125,-0.0007029946427792311,-0.0029097781516611576,0.005260280333459377
1733860443831641600,5.5646416015625,-0.00045558693818747997,-0.0016908491961658,0.002459699986502528
1733860443841592600,5.574592529296875,-0.0011075111106038094,-0.000964766601100564,0.0022098314948379993
1733860443851542500,5.58454248046875,0.0013383361510932446,0.0004861236084252596,0.0007333749672397971
1733860443861493500,5.594493408203125,-0.00031094509176909924,-0.002593608573079109,-0.0018540150485932827
1733860443871443500,5.604443359375,0.0010203691199421883,-0.00347138661891222,-0.00032429536804556847
1733860443881394700,5.614394775390625,0.0021399008110165596,-0.006143619306385517,0.0006234284956008196
1733860443891345400,5.624345458984375,0.0015920884907245636,-0.0075646815821528435,0.0033877897076308727
1733860443901295600,5.634295654296875,0.0033621680922806263,-0.006433585658669472,0.008486246690154076
1733860443911246600,5.64424658203125,0.0020239297300577164,-0.006556357257068157,0.009290787391364574
1733860443921196800,5.65419677734375,0.0029447530396282673,-0.0026571715716272593,0.005414659157395363
1733860443931147500,5.6641474609375,0.0027908221818506718,-0.0050689298659563065,0.004129151813685894
1733860443941098800,5.6740986328125,0.00015317928045988083,-0.008894535712897778,-0.0005648841615766287
1733860443951048700,5.684048583984375,0.0012810276821255684,-0.011923881247639656,0.0009166322997771204
1733860443960999400,5.69399951171875,0.0010020239278674126,-0.014513996429741383,0.0016681589186191559
1733860443970949600,5.70394970703125,0.002257704734802246,-0.015410949476063251,0.002154185902327299
1733860443980900600,5.713900634765625,0.004294359125196934,-0.014490367844700813,0.0033443996217101812
1733860443990850600,5.7238505859375,0.005663224495947361,-0.011271404102444649,0.00352469552308321
1733860444000801500,5.733801513671875,0.007867889478802681,-0.010059702210128307,0.004698074422776699
1733860444010752800,5.743752685546875,0.0064931646920740604,-0.011909534223377705,0.0064578913152217865
1733860444020702700,5.75370263671875,0.004086097702383995,-0.008667754009366035,0.0040154242888092995
1733860444030653400,5.7636533203125,0.0028416020795702934,-0.010185755789279938,-0.0006506999488919973
1733860444040603600,5.773603759765625,0.0023428788408637047,-0.012107664719223976,-0.0032890834845602512
1733860444050554600,5.7835546875,0.0023276987485587597,-0.010983544401824474,-0.0040193223394453526
1733860444060505600,5.793505615234375,-0.0011627920903265476,-0.008769328705966473,-0.0056176939979195595
1733860444070455600,5.80345556640625,-0.0021854457445442677,-0.011861258186399937,-0.002888486720621586
1733860444080406800,5.81340673828125,-0.002725784434005618,-0.013656770810484886,-0.0005831816233694553
1733860444090356500,5.8233564453125,-0.0029582784045487642,-0.011747018434107304,0.0004048510454595089
1733860444100307500,5.833307373046875,-0.0031689517199993134,-0.007822166197001934,0.0003708675503730774
1733860444110258700,5.8432587890625,-0.0020147378090769053,-0.0034878707956522703,0.00014769472181797028
1733860444120208400,5.85320849609375,0.0016062618233263493,-0.00047139660455286503,0.001901573734357953
1733860444130159600,5.86315966796875,0.00723751587793231,-0.003321245312690735,0.0034946766681969166
1733860444140109600,5.873109619140625,0.008695263415575027,-0.004696466028690338,0.0035026436671614647
1733860444150060500,5.883060546875,0.009741353802382946,-0.008567370474338531,0.0028259344398975372
1733860444160011500,5.893011474609375,0.00974917784333229,-0.013190532103180885,-0.002532264683395624
1733860444169961700,5.902961669921875,0.008582713082432747,-0.016325870528817177,-0.004435892216861248
1733860444179912400,5.912912353515625,0.00578314671292901,-0.015860997140407562,-0.0023108203895390034
1733860444189862400,5.9228623046875,0.0024848217144608498,-0.012340564280748367,0.0005672576371580362
1733860444199813600,5.932813720703125,-0.00036261044442653656,-0.005090244114398956,-0.0006652658339589834
1733860444209763800,5.942763916015625,-0.00045795156620442867,-0.002293658209964633,-0.0030458655674010515
1733860444219714600,5.952714599609375,-0.00126601941883564,-0.0009311514440923929,-0.002627236070111394
1733860444229665800,5.962665771484375,0.00016463082283735275,-0.0034321260172873735,0.00006521970499306917
1733860444239615700,5.97261572265625,0.0020484235137701035,-0.005433159880340099,0.0010367040522396564
1733860444249566700,5.982566650390625,0.002599431201815605,-0.0058904243633151054,0.0018782628467306495
1733860444259516700,5.9925166015625,0.005110451485961676,-0.005532062612473965,0.0018405024893581867
1733860444269468000,6.002468017578125,0.007854040712118149,-0.005734728649258614,0.002171267056837678
1733860444279418600,6.012418701171875,0.003995583392679691,-0.0006753590423613787,0.002123392652720213
1733860444289368600,6.02236865234375,0.005967121571302414,0.0005361128132790327,0.003940201364457607
1733860444299319800,6.03231982421875,0.0014125499874353409,0.00213455967605114,0.0030827855225652456
1733860444309269800,6.042269775390625,0.0023449226282536983,0.0009278813377022743,0.0018995431018993258
1733860444319220700,6.052220703125,0.0034219115041196346,-0.0014038460794836283,0.00004297273699194193
1733860444329171700,6.062171630859375,0.002845603507012129,-0.0021055887918919325,-0.00021029380150139332
1733860444339122000,6.072121826171875,0.0021014604717493057,-0.0004761109594255686,-0.0012485289480537176
1733860444349072600,6.08207275390625,-0.0013127122074365616,-0.00538245216012001,-0.0007276146207004786
1733860444359022800,6.09202294921875,-0.00028343312442302704,-0.005543823353946209,-0.0013637212105095387
1733860444368973800,6.101973876953125,-0.0012568184174597263,-0.005664996802806854,0.00019609229639172554
1733860444378924800,6.1119248046875,-0.0024106507189571857,0.002767575439065695,0.004440343007445335
1733860444388874800,6.121874755859375,0.0001616966910660267,0.012455889023840427,0.004637949168682098
1733860444398825700,6.13182568359375,-0.0006022460293024778,0.016630738973617554,0.0029195640236139297
1733860444408775700,6.141775634765625,0.0024396167136728764,0.006047869101166725,0.0019778702408075333
1733860444418726700,6.1517265625,0.0028447401709854603,-0.005635309498757124,-0.0026058258954435587
1733860444428678000,6.161677978515625,0.004013335332274437,-0.01579366996884346,-0.00006437103729695082
1733860444438627800,6.1716279296875,0.0023759319446980953,-0.017655186355113983,0.003856672439724207
1733860444448578800,6.181578857421875,0.0014555435627698898,-0.019127914682030678,0.002280081156641245
1733860444458528800,6.19152880859375,0.002988711465150118,-0.020289968699216843,-0.001439712941646576
1733860444468479700,6.201479736328125,0.005850278306752443,-0.01955360546708107,-0.003206720342859626
1733860444478429700,6.2114296875,0.00501432828605175,-0.01502916868776083,-0.0049566118977963924
1733860444488380700,6.221380615234375,0.0032941922545433044,-0.007428240962326527,-0.0019349895883351564
1733860444498332000,6.231331787109375,0.0006159660406410694,0.0026368494145572186,-0.001031143357977271
1733860444508281600,6.241281494140625,0.00004019029438495636,0.009842297993600368,0.002562526147812605
1733860444518232800,6.25123291015625,-0.001566511346027255,0.01435503363609314,0.0010338001884520054
1733860444528182800,6.261182861328125,0.0037491582334041595,0.015617105178534985,0.003570194821804762
1733860444538133800,6.2711337890625,0.006849229801446199,0.012271968647837639,0.003392060287296772
1733860444548084700,6.281084716796875,0.006052145268768072,0.006826602853834629,0.0042975349351763725
1733860444558034700,6.29103466796875,0.006062663160264492,0.003888268955051899,0.003732186509296298
1733860444567985700,6.300985595703125,0.004434672184288502,-0.001496642827987671,0.0024773050099611282
1733860444577935600,6.310935546875,0.0029665911570191383,-0.007968580350279808,0.0023032883182168007
1733860444587886800,6.320886962890625,0.004274469800293446,-0.01682039350271225,-0.0020432567689567804
1733860444597837600,6.330837646484375,0.00014464138075709343,-0.019120799377560616,-0.0035314506385475397
1733860444607787800,6.340787841796875,0.00013771699741482735,-0.01853836514055729,-0.0040281303226947784
1733860444617738800,6.35073876953125,-0.002153020817786455,-0.01611468195915222,-0.0031703580170869827
1733860444627688700,6.360688720703125,-0.0023415726609528065,-0.011547893285751343,-0.002100300043821335
1733860444637639700,6.3706396484375,-0.0020537497475743294,-0.007185868453234434,0.00021370069589465857
1733860444647590700,6.380590576171875,-0.000970375956967473,-0.003914707340300083,0.000488805235363543
1733860444657540900,6.390540771484375,0.00048430729657411575,0.0006768146995455027,-0.0009215848986059427
1733860444667491600,6.40049169921875,0.0004952265881001949,-0.001464633271098137,-0.0038369474932551384
1733860444677441800,6.41044189453125,0.0022833216935396194,-0.006987788714468479,-0.0014838296920061111
1733860444687392800,6.420392822265625,0.0029832003638148308,-0.012030750513076782,-0.0029245999176055193
1733860444697342700,6.4303427734375,0.0029254984110593796,-0.01124662347137928,-0.0019655833020806313
1733860444707293700,6.440293701171875,0.003336157649755478,-0.009831685572862625,-0.0005362648516893387
1733860444717245000,6.450244873046875,-0.00036668567918241024,-0.0081965122371912,-0.0012078424915671349
1733860444727195000,6.46019482421875,-0.0010535148903727531,-0.011134246364235878,-0.0034888398367911577
1733860444737145600,6.4701455078125,-0.0017144957091659307,-0.014424856752157211,-0.0033729213755577803
1733860444747095800,6.480095703125,-0.001884937984868884,-0.013676507398486137,-0.002402465557679534
1733860444757046800,6.490046875,-0.001991883385926485,-0.008585668168962002,-0.00041870842687785625
1733860444766997800,6.499997802734375,-0.0029162666760385036,-0.00007473817095160484,0.0007466907845810056
1733860444776947700,6.50994775390625,-0.0006265458650887012,0.00874914787709713,0.004418104887008667
1733860444786899000,6.51989892578125,-0.00039458461105823517,0.013158276677131653,0.002724334131926298
1733860444796849000,6.529848876953125,0.0024522151798009872,0.011612767353653908,0.002702608471736312
1733860444806799600,6.539799560546875,0.003045301418751478,0.011373614892363548,0.003321527037769556
1733860444816750800,6.549750732421875,0.003918122500181198,0.005584788043051958,0.0035655552055686712
1733860444826700800,6.55970068359375,0.0037700505927205086,-0.0035844752565026283,0.0017399583011865616
1733860444836651800,6.56965185546875,0.0016891867853701115,-0.010037915781140327,0.0022278898395597935
1733860444846601700,6.579601806640625,0.001032983884215355,-0.013734116218984127,0.0020164349116384983
1733860444856553000,6.589552978515625,0.0009735953062772751,-0.016099002212285995,-0.002104806946590543
1733860444866503700,6.599503662109375,-0.0007193202618509531,-0.01885925978422165,-0.005060513969510794
1733860444876453600,6.60945361328125,-0.0033251107670366764,-0.020836450159549713,-0.005594510585069656
1733860444886404900,6.61940478515625,-0.004049224313348532,-0.018135204911231995,-0.004131902940571308
1733860444896354600,6.6293544921875,-0.0059977937489748,-0.015205761417746544,-0.0024461012799292803
1733860444906305800,6.639305908203125,-0.005852651782333851,-0.012987881898880005,-0.003390192287042737
1733860444916256800,6.6492568359375,-0.006059224717319012,-0.005693657323718071,-0.0021850988268852234
1733860444926206700,6.659206787109375,-0.004640558734536171,-0.004719207063317299,-0.0032889791764318943
1733860444936157700,6.66915771484375,-0.0010955124162137508,-0.004444959573447704,-0.0006871037185192108
1733860444946108000,6.67910791015625,-0.0006723359692841768,-0.0034569271374493837,0.0009856277611106634
1733860444956058600,6.68905859375,0.0005578920245170593,-0.002818361157551408,0.005053308792412281
1733860444966008600,6.699008544921875,0.002756331581622362,-0.004725184291601181,0.005570495035499334
1733860444975959800,6.708959716796875,0.0002993387170135975,-0.008898772299289703,0.0003427733900025487
1733860444985910500,6.71891064453125,-0.0013289179187268019,-0.011440493166446686,-0.004162495955824852
1733860444995860700,6.72886083984375,-0.004257249180227518,-0.010972084477543831,-0.007824252359569073
1733860445005811700,6.738811767578125,-0.005657272879034281,-0.0032792771235108376,-0.008431985974311829
1733860445015762000,6.748761962890625,-0.011129616759717464,0.007670350838452578,-0.006034698337316513
1733860445025712600,6.758712646484375,-0.0142002422362566,0.0215667262673378,-0.0009147711098194122
1733860445035664000,6.768663818359375,-0.01067548431456089,0.033194851130247116,0.001258387346751988
1733860445045613800,6.77861376953125,-0.008970261551439762,0.039688970893621445,0.0029961001127958298
1733860445055564500,6.788564453125,-0.008468788117170334,0.0370713472366333,0.0025204592384397984
1733860445065514800,6.7985146484375,-0.007630159147083759,0.0275604035705328,0.004269357305020094
1733860445075465700,6.8084658203125,-0.00903420988470316,0.020067615434527397,0.002456400776281953
1733860445085416700,6.818416748046875,-0.006674915552139282,0.011589709669351578,-0.0004981101956218481
1733860445095366700,6.82836669921875,-0.007475033402442932,0.005695515777915716,-0.0016167215071618557
1733860445105318000,6.83831787109375,-0.009482257068157196,0.0011247324291616678,-0.0008217678405344486
1733860445115267800,6.848267822265625,-0.00898539274930954,-0.002310435986146331,-0.0034796942491084337
1733860445125218600,6.858218505859375,-0.006931031122803688,-0.006160834804177284,-0.005525534972548485
1733860445135169800,6.868169677734375,-0.003112404840067029,-0.010348079726099968,-0.0057655759155750275
1733860445145119700,6.87811962890625,-0.001886818092316389,-0.012974489480257034,-0.005582883954048157
1733860445155070700,6.88807080078125,-0.002608252689242363,-0.01658760942518711,-0.002550004282966256
1733860445165020700,6.898020751953125,-0.0017792105209082365,-0.020760515704751015,-0.005193191580474377
1733860445174972000,6.907971923828125,0.0010442184284329414,-0.02443019673228264,-0.0053507182747125626
1733860445184922600,6.917922607421875,0.0031443871557712555,-0.02372206375002861,-0.007032237946987152
1733860445194872800,6.927872802734375,0.002662345767021179,-0.02053944021463394,-0.0038123612757772207
1733860445204823600,6.937823486328125,0.0015147896483540535,-0.01267326157540083,-0.0009055212140083313
1733860445214773500,6.9477734375,0.0016494817100465298,-0.0036232753191143274,0.0014947677263990045
1733860445224724500,6.957724365234375,0.002129383385181427,0.0025131802540272474,0.0017389795975759625
1733860445234674400,6.96767431640625,0.0028664888814091682,0.005122704431414604,0.0007817010628059506
1733860445244625700,6.977625732421875,0.001832383219152689,0.0037098973989486694,-0.002938734833151102
1733860445254576400,6.987576416015625,0.00059920409694314,0.003182522254064679,-0.005281742662191391
1733860445264526600,6.997526611328125,-0.006728217005729675,-0.001116352155804634,-0.0009442523587495089
1733860445274477600,7.0074775390625,-0.00964429508894682,-0.0014889729209244251,0.0003163156798109412
1733860445284427500,7.017427490234375,-0.013548756018280983,0.0015816519735381007,0.0013890370028093457
1733860445294378500,7.02737841796875,-0.014305856078863144,0.006859892979264259,-0.0002966842148452997
1733860445304329500,7.03732958984375,-0.01368534006178379,0.010721742175519466,-0.0001717819832265377
1733860445314279700,7.04727978515625,-0.012223158963024616,0.01332453265786171,0.0013947748811915517
1733860445324230400,7.05723046875,-0.013014383614063263,0.015843350440263748,0.00039928522892296314
1733860445334180600,7.0671806640625,-0.010701710358262062,0.015531236305832863,0.0036741034127771854
1733860445344131600,7.077131591796875,-0.008826312609016895,0.013299240730702877,0.0052054207772016525
1733860445354082600,7.08708251953125,-0.00615053903311491,0.009082342498004436,0.002492619678378105
1733860445364032500,7.097032470703125,-0.004635466728359461,0.0016880759503692389,-0.0009116989094763994
1733860445373983500,7.1069833984375,-0.004282569047063589,-0.01108778640627861,-0.004941860679537058
1733860445383933400,7.116933349609375,-0.0019861250184476376,-0.019881010055541992,-0.0060827587731182575
1733860445393884400,7.126884521484375,-0.0013258105609565973,-0.02855432592332363,-0.006722339428961277
1733860445403835600,7.136835693359375,-0.002627830021083355,-0.03973587602376938,-0.006764151155948639
1733860445413785300,7.146785400390625,-0.0030135903507471085,-0.04638532176613808,-0.007953209802508354
1733860445423736600,7.156736572265625,-0.0002899754326790571,-0.042339447885751724,-0.0037185174878686666
1733860445433686500,7.1666865234375,0.000880618579685688,-0.033266257494688034,0.0011054901406168938
1733860445443637500,7.176637451171875,0.00331314979121089,-0.020397327840328217,0.0017539698164910078
1733860445453588500,7.18658837890625,0.0045572808012366295,-0.005359205882996321,0.0033588940277695656
1733860445463538400,7.196538330078125,0.008842573501169682,0.008368058130145073,0.004470763728022575
1733860445473489400,7.206489501953125,0.010301033966243267,0.015763062983751297,0.005183926783502102
1733860445483439400,7.216439453125,0.01446861494332552,0.017433930188417435,0.0063791535794734955
1733860445493390600,7.226390625,0.012332737445831299,0.017704391852021217,0.006685463711619377
1733860445503340500,7.236340576171875,0.008877018466591835,0.0140494704246521,0.005946969147771597
1733860445513291500,7.24629150390625,0.005074396729469299,0.015478327870368958,0.0086237583309412
1733860445523242500,7.256242431640625,0.003691416699439287,0.02001582272350788,0.00928635336458683
1733860445533192400,7.2661923828125,0.0012590307742357254,0.023650173097848892,0.00950248446315527
1733860445543143400,7.276143310546875,0.0012174854055047035,0.02663877233862877,0.010089978575706482
1733860445553093400,7.28609326171875,0.0040723844431340694,0.026825061067938805,0.008472715504467487
1733860445563044600,7.296044677734375,0.005567216780036688,0.020550120621919632,0.006321680266410112
1733860445572995300,7.305995361328125,0.0077420747838914394,0.011408896185457706,0.0036062109284102917
1733860445582945500,7.315945556640625,0.00711436802521348,0.0007306858897209167,0.0021747618447989225
1733860445592896500,7.325896484375,0.0041662584990262985,-0.005967042874544859,0.0037616253830492496
1733860445602846500,7.335846435546875,0.004110331647098064,-0.009760448709130287,0.003175729885697365
1733860445612797400,7.34579736328125,0.0015135863795876503,-0.012791838496923447,-0.00039016129449009895
1733860445622748700,7.355748779296875,0.0016877572052180767,-0.017344247549772263,-0.0030368107836693525
1733860445632698600,7.36569873046875,0.0004903352819383144,-0.018851296976208687,-0.0027686499524861574
1733860445642649300,7.3756494140625,0.0024150018580257893,-0.017995622009038925,-0.0014820769429206848
1733860445652599600,7.385599609375,0.0009965146891772747,-0.016114458441734314,-0.002352941781282425
1733860445662550500,7.395550537109375,0.00015175994485616684,-0.01512562669813633,-0.003670673817396164
1733860445672501500,7.40550146484375,0.002477336209267378,-0.010751034133136272,-0.006219769362360239
1733860445682451500,7.415451416015625,-0.0035310215316712856,-0.004152253270149231,-0.00481175584718585
1733860445692402700,7.425402587890625,-0.0038989242166280746,0.0005886298604309559,-0.006120320875197649
1733860445702352600,7.4353525390625,-0.0025622835382819176,0.008590363897383213,-0.007113414350897074
1733860445712303400,7.445303466796875,-0.0031976974569261074,0.008564256131649017,-0.005768712144345045
1733860445722254600,7.455254638671875,-0.004376679193228483,0.005861680023372173,-0.0030126068741083145
1733860445732204500,7.46520458984375,-0.007409087847918272,0.0034956568852066994,-0.0025715441443026066
1733860445742155500,7.475155517578125,-0.010912476107478142,0.002659690799191594,-0.0018980305176228285
1733860445752105500,7.48510546875,-0.010024985298514366,-0.0003816918469965458,-0.004248996265232563
1733860445762056700,7.495056640625,-0.009285958483815193,-0.0014634677208960056,-0.007860242389142513
1733860445772007400,7.50500732421875,-0.006287263240665197,0.00045867590233683586,-0.00354618183337152
1733860445781957400,7.514957275390625,-0.00475621223449707,0.003913328517228365,-0.002475324785336852
1733860445791908600,7.52490869140625,-0.0030100783333182335,0.0037412005476653576,-0.0049593341536819935
1733860445801858300,7.5348583984375,-0.006581377238035202,-0.0034163114614784718,-0.005665870849043131
1733860445811809500,7.5448095703125,-0.0020647014025598764,-0.017334360629320145,-0.006315447390079498
1733860445821759500,7.554759521484375,-0.001614094479009509,-0.021264920011162758,-0.0068163881078362465
1733860445831710500,7.56471044921875,0.0020259302109479904,-0.01959832012653351,-0.0023635118268430233
1733860445841661400,7.574661376953125,-0.002356567420065403,-0.013951621018350124,0.0024839742109179497
1733860445851611600,7.584611572265625,-0.004123327322304249,-0.006366792134940624,0.0022645825520157814
1733860445861562400,7.594562255859375,-0.004360881168395281,0.0019092471338808537,0.00021927477791905403
1733860445871512300,7.60451220703125,-0.0010707967448979616,0.01022069901227951,-0.006791426334530115
1733860445881463600,7.614463623046875,-0.0010971620213240385,0.011402875185012817,-0.006829509045928717
1733860445891414500,7.62441455078125,0.0006229560822248459,0.007497349753975868,-0.006325485184788704
1733860445901364500,7.634364501953125,-0.004053820855915546,-0.001998151419684291,-0.005893787369132042
1733860445911315500,7.6443154296875,-0.00449109124019742,-0.008009309880435467,-0.004784058779478073
1733860445921265700,7.654265625,-0.005242635030299425,-0.01272044237703085,-0.003970196936279535
1733860445931216400,7.66421630859375,-0.006754985079169273,-0.013716091401875019,-0.0020786793902516365
1733860445941167600,7.674167724609375,-0.006905985996127129,-0.013384261168539524,-0.0039407615549862385
1733860445951117600,7.68411767578125,-0.007298595272004604,-0.0126288291066885,-0.0038159997202455997
1733860445961068300,7.694068359375,-0.00820273905992508,-0.008892946876585484,-0.0033664582297205925
1733860445971018500,7.7040185546875,-0.006726352963596582,-0.004640779457986355,-0.0008864616975188255
1733860445980969500,7.713969482421875,-0.003788620000705123,0.000974761787801981,0.0002118259435519576
1733860445990920400,7.72392041015625,-0.0045958333648741245,-0.0003790450282394886,-0.0036954486276954412
1733860446000870400,7.733870361328125,-0.005760699976235628,-0.003418510779738426,-0.0060744499787688255
1733860446010821600,7.743821533203125,-0.00522617157548666,-0.010605334304273129,-0.007921742275357246
1733860446020771600,7.753771484375,-0.006014733575284481,-0.016550840809941292,-0.008095648139715195
1733860446030722300,7.763722412109375,-0.005462895147502422,-0.013764658942818642,-0.008054758422076702
1733860446040673500,7.773673583984375,-0.007058128714561462,-0.012700991705060005,-0.0027374911587685347
1733860446050623500,7.78362353515625,-0.003901488147675991,-0.00826297141611576,-0.00022658053785562515
1733860446060574500,7.793574462890625,-0.0027035982348024845,-0.004454118199646473,-0.0022130326833575964
1733860446070524400,7.8035244140625,-0.0006683734245598316,-0.0014369022101163864,-0.0031810307409614325
1733860446080475600,7.8134755859375,-0.0016321714501827955,-0.005754152778536081,-0.0034193836618214846
1733860446090426400,7.82342626953125,0.0011045988649129868,-0.012017026543617249,-0.0017441688105463982
1733860446100376600,7.83337646484375,0.0013520065695047379,-0.017580904066562653,-0.0035801518242806196
1733860446110327600,7.84332763671875,-0.00029896083287894726,-0.020078780129551888,0.00024154060520231724
1733860446120277500,7.853277587890625,-0.0015996487345546484,-0.018849998712539673,-0.0025111029390245676
1733860446130228500,7.863228515625,-0.0016566403210163116,-0.014386007562279701,-0.00243413751013577
1733860446140179500,7.873179443359375,-0.0025304234586656094,-0.00839096587151289,-0.0017731408588588238
1733860446150129700,7.883129638671875,-0.0011234111152589321,0.002859116531908512,-0.0007983162067830563
1733860446160080400,7.893080322265625,-0.0012083661276847124,0.011632900685071945,-0.0006353307981044054
1733860446170030600,7.903030517578125,-0.0015950887463986874,0.015414748340845108,0.004715794697403908
1733860446179981600,7.912981689453125,0.0012702061794698238,0.016283204779028893,0.0022771377116441727
1733860446189931500,7.922931640625,-0.0004283932503312826,0.01289687305688858,0.0013212710618972778
1733860446199882500,7.932882568359375,-0.002240674337372184,0.005971855483949184,-0.0004119141958653927
1733860446209833000,7.9428330078125,-0.0021073599345982075,-0.0022030523978173733,-0.0018561987672001123
1733860446219783200,7.952783203125,-0.005310077220201492,-0.006281949579715729,-0.0018673839513212442
1733860446229734000,7.96273388671875,-0.00315506337210536,-0.00665824580937624,-0.004955124109983444
1733860446239684000,7.97268408203125,-0.0038826388772577047,-0.008725924417376518,-0.004030474461615086
1733860446249635000,7.982635009765625,-0.0038004524540156126,-0.00915690790861845,-0.00285264290869236
1733860446259586000,7.9925859375,-0.003015086054801941,-0.007222653366625309,-0.00007310183718800545
1733860446269536000,8.002535888671876,-0.0021776510402560234,-0.010833300650119781,-0.0008901988621801138
1733860446279487000,8.012487060546874,-0.00254756398499012,-0.01618012972176075,-0.002338958438485861
1733860446289437000,8.02243701171875,-0.0005421722307801247,-0.018431315198540688,-0.002875176491215825
1733860446299388000,8.032387939453125,-0.0007179407402873039,-0.022762946784496307,-0.0014181609731167555
1733860446309339100,8.042339111328126,0.0006626746617257595,-0.021772267296910286,-0.0005482295528054237
1733860446319289000,8.0522890625,-0.0013442838098853827,-0.020763995125889778,-0.0031767694745212793
1733860446329240000,8.062239990234374,0.0013295621611177921,-0.01606033742427826,-0.0020927200093865395
1733860446339190000,8.07218994140625,0.00001689000055193901,-0.00853664055466652,-0.0010375757701694965
1733860446349141000,8.08214111328125,0.0007582977414131165,-0.004365855827927589,0.004262309521436691
1733860446359092000,8.092092041015626,-0.0021575973369181156,0.003481947584077716,0.002899836516007781
1733860446369042000,8.1020419921875,-0.0009496996644884348,0.007350513711571693,-0.0004653006326407194
1733860446378993200,8.1119931640625,0.0003400691784918308,0.00914069078862667,-0.00011056754738092422
1733860446388942800,8.12194287109375,-0.0003127036616206169,0.012688836082816124,0.001600637217052281
1733860446398894000,8.13189404296875,0.0018087704665958881,0.015499535948038101,0.005379662849009037
1733860446408844000,8.141843994140626,0.0002567763440310955,0.0180721003562212,0.0058906180784106255
1733860446418795000,8.151794921875,0.0020573395304381847,0.021222619339823723,0.0048866067081689835
1733860446428746000,8.16174609375,0.0023365849629044533,0.021102700382471085,0.005840661935508251
1733860446438696000,8.171696044921875,0.0013943584635853767,0.01674630306661129,0.0033561992458999157
1733860446448647000,8.18164697265625,0.0009927046485245228,0.009285482577979565,0.001965015195310116
1733860446458596900,8.191596923828126,0.0007527540437877178,0.0064508141949772835,0.0052369749173521996
1733860446468548000,8.201548095703124,0.0008170413784682751,0.0049262382090091705,0.004972874186933041
1733860446478498800,8.211498779296875,0.001920389011502266,0.006462882272899151,0.006700732745230198
1733860446488449000,8.221448974609375,-0.0005067079328000546,0.006610767915844917,0.005962061230093241
1733860446498400000,8.23139990234375,0.0020842812955379486,0.008359399624168873,0.00011322693899273872
1733860446508350000,8.241349853515626,0.00005075475201010704,0.011308818124234676,-0.0014614830724895
1733860446518301000,8.251301025390624,0.00010321894660592079,0.011984462849795818,0.0017601428553462029
1733860446528252000,8.261251953125,-0.0004864668007940054,0.010201497003436089,0.00221548811532557
1733860446538202000,8.2712021484375,-0.002889170777052641,0.008034216240048409,0.004046677611768246
1733860446548152800,8.28115283203125,-0.001840017968788743,0.006778339855372906,0.006100464146584272
1733860446558103000,8.29110302734375,-0.0019300328567624092,0.008799678646028042,0.0031291753984987736
1733860446568054000,8.301053955078125,-0.0016371503006666899,0.012434129603207111,0.0015203391667455435
1733860446578005000,8.3110048828125,-0.0017668462824076414,0.012662895023822784,-0.000242939917370677
1733860446587955000,8.320954833984375,-0.002320380648598075,0.012775614857673645,-0.0002616213168948889
1733860446597906200,8.33090625,0.0022253687493503094,0.009339338168501854,-0.0006539050955325365
1733860446607856000,8.340856201171874,0.006200483534485102,0.009557940997183323,0.004289012867957354
1733860446617806800,8.350806884765625,0.007845785468816757,0.01282324269413948,0.008347404189407825
1733860446627758000,8.360758056640625,0.008339907042682171,0.018131006509065628,0.007628968916833401
1733860446637708000,8.3707080078125,0.008534051477909088,0.028764741495251656,0.009977877140045166
1733860446647659000,8.380658935546874,0.007301338016986847,0.042764414101839066,0.010433029383420944
1733860446657609000,8.39060888671875,0.007204399444162846,0.0629892572760582,0.012443982064723969
1733860446667560200,8.400560302734375,0.0072922674007713795,0.08028144389390945,0.01194004062563181
1733860446677511000,8.410510986328125,0.00854475237429142,0.09477516263723373,0.012014077045023441
1733860446687460900,8.4204609375,0.007448296528309584,0.09815779328346252,0.010748262517154217
1733860446697412000,8.430412109375,0.008138587698340416,0.09230576455593109,0.011420443654060364
1733860446707362000,8.440362060546875,0.005578717216849327,0.07979584485292435,0.011039684526622295
1733860446717313000,8.45031298828125,0.0025610891170799732,0.06246239319443703,0.010728627443313599
1733860446727264000,8.460263916015625,0.0018070507794618607,0.04414895176887512,0.00703652435913682
1733860446737214200,8.470214111328126,0.0006613587029278278,0.026529209688305855,0.004415974020957947
1733860446747165000,8.4801650390625,-0.0023075654171407223,0.010432016104459763,0.0013617179356515408
1733860446757115000,8.490114990234375,0.00035612843930721283,-0.004669172689318657,-0.0005538938567042351
1733860446767066000,8.500066162109375,-0.0005227334331721067,-0.025122903287410736,-0.0006033757235854864
1733860446777017000,8.51001708984375,-0.00297257537022233,-0.039140984416007996,-0.001622833777219057
1733860446786967000,8.519967041015626,-0.0027898475527763367,-0.04476546868681908,-0.0011426471173763275
1733860446796918000,8.52991796875,-0.004237275570631027,-0.04575536400079727,-0.0016363973263651133
1733860446806868000,8.539867919921875,-0.003950503654778004,-0.04318951070308685,-0.002731578191742301
1733860446816819000,8.54981884765625,-0.00315341935493052,-0.038464002311229706,-0.0028048150707036257
1733860446826770200,8.559770263671876,-0.0013029461260885,-0.031857818365097046,-0.0024341403041034937
1733860446836719900,8.569719970703124,-0.0006163830403238535,-0.021081870421767235,-0.005046967417001724
1733860446846671000,8.579671142578125,-0.0006185565143823624,-0.014247515238821507,-0.006000713910907507
1733860446856621000,8.58962109375,0.0003700088709592819,-0.007869509980082512,-0.0003188599366694689
1733860446866571800,8.59957177734375,0.0027199178002774715,-0.005304585676640272,0.0028657286893576384
1733860446876522000,8.60952197265625,0.004803309217095375,-0.007624731864780188,0.0030060773715376854
1733860446886473000,8.619472900390624,0.005444076843559742,-0.0077124955132603645,0.0011649210937321186
1733860446896424000,8.629423828125,0.007077393122017384,-0.00820145197212696,-0.0026537857484072447
1733860446906374000,8.639373779296875,0.0066278730519115925,-0.009617325849831104,-0.0000577468890696764
1733860446916325000,8.6493251953125,0.0065122912637889385,-0.01007006410509348,-0.0012689526192843914
1733860446926275000,8.659275146484376,0.006646248046308756,-0.004755192436277866,-0.0019794839899986982
1733860446936225800,8.669225830078124,0.0033220909535884857,-0.005835637450218201,-0.0017150319181382656
1733860446946177000,8.679177001953125,0.0010038414038717747,-0.00014953897334635258,-0.003395077306777239
1733860446956127000,8.689126953125,0.0005588270723819733,0.004043607972562313,-0.005756768397986889
1733860446966078000,8.699077880859376,-0.0019402832258492708,0.00709346029907465,-0.0027372767217457294
1733860446976028000,8.70902783203125,0.0010350001975893974,0.009164067916572094,-0.00224459171295166
1733860446985979100,8.718979248046875,-0.0009667917620390654,0.009898117743432522,0.0019936487078666687
1733860446995929900,8.728929931640625,-0.00011111795902252197,0.008870670571923256,0.002998193260282278
1733860447005879800,8.7388798828125,-0.0004961953964084387,0.0046088057570159435,0.0021316716447472572
1733860447015831000,8.7488310546875,0.001059090718626976,0.001537115778774023,0.0014483043923974037
1733860447025781000,8.758781005859374,-0.0012593772262334824,-0.005258513148874044,-0.00018225924577564
1733860447035732000,8.76873193359375,-0.0030128024518489838,-0.01042584516108036,-0.0030861699488013983
1733860447045683000,8.778682861328125,-0.0031772563233971596,-0.012620623223483562,-0.0022797253914177418
1733860447055633200,8.788633056640625,-0.003386580850929022,-0.013202258385717869,-0.0020850482396781445
1733860447065583900,8.798583984375,-0.004459101241081953,-0.0070199621841311455,-0.002074149437248707
1733860447075534000,8.8085341796875,-0.002327240537852049,-0.0022193475160747766,0.00020152167417109013
1733860447085485000,8.818485107421875,-0.00216320576146245,0.0014358494663611054,-0.0004832486156374216
1733860447095436000,8.82843603515625,-0.002932859119027853,0.003880365053191781,-0.0012068294454365969
1733860447105386000,8.838385986328126,-0.0006903077010065317,0.004114506766200066,0.0026900125667452812
1733860447115337000,8.8483369140625,-0.0014754075091332197,0.005752351135015488,0.003288425039499998
1733860447125287200,8.858287109375,-0.00031021074391901493,0.004522203467786312,0.0017531311605125666
1733860447135238000,8.86823779296875,0.0013116542249917984,0.0007317261770367622,-0.0015225568786263466
1733860447145189000,8.878189208984375,0.0017217975109815598,-0.002667807275429368,-0.0038839103654026985
1733860447155139000,8.88813916015625,0.0022357874549925327,-0.011577146127820015,-0.004323598463088274
1733860447165090000,8.898090087890624,0.0008275401778519154,-0.016230236738920212,-0.0027665714733302593
1733860447175040000,8.9080400390625,-0.0006153606809675694,-0.016955150291323662,-0.00122087262570858
1733860447184991000,8.917990966796875,0.003199302591383457,-0.015272540971636772,0.00029185472521930933
1733860447194941000,8.92794091796875,0.0038882624357938766,-0.012376086786389351,-0.000016272999346256256
1733860447204892200,8.93789208984375,0.0045196982100605965,-0.011517483741044998,-0.0029793058056384325
1733860447214843400,8.947843505859375,0.005288019776344299,-0.008372023701667786,-0.0029564027208834887
1733860447224793000,8.95779296875,0.004189145285636187,-0.005617626942694187,-0.0019666398875415325
1733860447234744300,8.967744384765625,0.005738839041441679,-0.005377942696213722,0.000040850951336324215
1733860447244694300,8.9776943359375,0.003984196577221155,-0.00461606215685606,0.0008078501559793949
1733860447254645000,8.98764501953125,0.002051540184766054,-0.0006777793169021606,0.004277416504919529
1733860447264596200,8.99759619140625,0.001591456588357687,0.0023834682069718838,0.00327470013871789
1733860447274546200,9.007546142578125,0.003134758211672306,0.005479659419506788,0.001351098995655775
1733860447284497200,9.0174970703125,0.003315731417387724,0.008106526918709278,0.0017384319799020886
1733860447294447000,9.027447021484376,0.0044228071346879005,0.010631470009684563,0.0050191800110042095
1733860447304398300,9.0373984375,0.004371029790490866,0.012256855145096779,0.005349178798496723
1733860447314349000,9.04734912109375,0.003461293876171112,0.014448637142777443,0.0050455788150429726
1733860447324299000,9.057299072265625,0.0041192397475242615,0.01426879782229662,0.005554884672164917
1733860447334250200,9.067250244140626,0.0014843079261481762,0.009767257608473301,0.0026030370499938726
1733860447344200200,9.0772001953125,0.0008604507893323898,0.0041738953441381454,-0.0010701045393943787
1733860447354151200,9.087151123046874,-0.0011307946406304836,-0.0011215340346097946,-0.0008349474519491196
1733860447364102100,9.09710205078125,-0.00016066129319369793,-0.00038501364178955555,-0.0005783550441265106
1733860447374052400,9.10705224609375,-0.002116486895829439,-0.0022945001255720854,0.002223290503025055
1733860447384003000,9.117003173828126,-0.002705428982153535,-0.002575010061264038,0.0047507453709840775
1733860447393953300,9.126953369140624,-0.0009336278308182955,-0.006043244618922472,0.0023363232612609863
1733860447403904300,9.136904296875,0.0008051497861742973,-0.007553256582468748,-0.0009321742691099644
1733860447413855200,9.146855224609375,0.00010405713692307472,-0.009962273761630058,-0.0014670516829937696
1733860447423805200,9.15680517578125,0.004362685605883598,-0.010897558182477951,-0.002158551476895809
1733860447433756200,9.166756103515626,0.005407443270087242,-0.011864552274346352,-0.00048555387184023857
1733860447443706400,9.176706298828124,0.004387333989143372,-0.012427356094121933,0.002260811859741807
1733860447453657000,9.186656982421875,0.005946348421275616,-0.015191718004643917,0.00038568011950701475
1733860447463608300,9.1966083984375,0.005400575697422028,-0.01869278773665428,-0.003870827378705144
1733860447473558300,9.206558349609375,0.004335577599704266,-0.017498360946774483,-0.004899872466921806
1733860447483509200,9.21650927734375,0.0028549516573548317,-0.016181349754333496,-0.0006921011954545975
1733860447493459200,9.226459228515624,0.00021416088566184044,-0.009001465514302254,0.00045572128146886826
1733860447503410200,9.23641015625,-0.0010794354602694511,-0.00001910352148115635,-0.0000054370611906051636
1733860447513361200,9.246361083984375,-0.00033161998726427555,0.009668410755693913,0.0018150998512282968
1733860447523311000,9.25631103515625,0.0021275924518704414,0.0143108069896698,0.001748203532770276
1733860447533262300,9.266262451171874,0.002226129174232483,0.016432281583547592,0.000023806816898286343
1733860447543212300,9.27621240234375,0.0036256914027035236,0.014248059131205082,0.0000019079307094216347
1733860447553163300,9.286163330078125,0.0036368765868246555,0.01044453214854002,-0.0010519048664718866
1733860447563114200,9.2961142578125,0.0023056920617818832,0.0050747329369187355,0.00040541670750826597
1733860447573064200,9.306064208984376,0.0012793098576366901,0.0009628122206777334,0.0022888043895363808
1733860447583015200,9.31601513671875,-0.0014830343425273895,-0.0024941773153841496,0.0016422203043475747
1733860447592965000,9.325965087890625,-0.0025965021923184395,-0.0017253225669264793,0.002600958338007331
1733860447602916400,9.335916259765625,-0.0024095322005450726,-0.002428938401862979,0.0008987372275441885
1733860447612867000,9.3458671875,-0.002914201468229294,-0.0006651268340647221,0.0002683670027181506
1733860447622817300,9.3558173828125,-0.0014992475043982267,0.0006762989796698093,-0.001009079860523343
1733860447632768300,9.365768310546875,-0.002464643446728587,-0.00048190983943641186,-0.002873825142160058
1733860447642718200,9.37571826171875,-0.0028666751459240913,-0.0028959820047020912,-0.001457737060263753
1733860447652669200,9.385669189453125,-0.003477604128420353,-0.00033748336136341095,0.0006019518477842212
1733860447662619100,9.395619140625,-0.0034465184435248375,0.0007359366863965988,-0.0015860437415540218
1733860447672570000,9.405570068359374,-0.0014283747877925634,0.0034544914960861206,-0.0007146573625504971
1733860447682521000,9.41552099609375,-0.0027475403621792793,0.006043530069291592,0.0021950318478047848
1733860447692471300,9.42547119140625,-0.00217309664003551,0.006421698722988367,0.0028344567399472
1733860447702422000,9.435422119140625,-0.00025469413958489895,0.0030138627626001835,0.001828124513849616
1733860447712372200,9.445372314453126,0.00026515498757362366,-0.00558441923931241,-0.0013293193187564611
1733860447722323200,9.4553232421875,0.001345270313322544,-0.01039325725287199,-0.0024846158921718597
1733860447732274200,9.465274169921875,-0.0010616949293762445,-0.016218654811382294,-0.0017991182394325733
1733860447742224100,9.47522412109375,0.0010810084640979767,-0.018197214230895042,-0.00009464123286306858
1733860447752175000,9.485175048828125,-0.0011925320141017437,-0.01794048584997654,-0.0024238417390733957
1733860447762125300,9.495125244140626,-0.004115494433790445,-0.01626182347536087,-0.004769395105540752
1733860447772076000,9.505075927734374,-0.001866721548140049,-0.01426871307194233,-0.0032388765830546618
1733860447782027300,9.51502734375,-0.005211547017097473,-0.007676250301301479,-0.0011341357603669167
1733860447791977200,9.524977294921875,-0.0032890108413994312,0.002956419950351119,0.0021458135452121496
1733860447801928200,9.53492822265625,-0.0038221850991249084,0.01016227900981903,0.001416222658008337
1733860447811878100,9.544878173828126,-0.0007001613266766071,0.012750338762998581,0.0018319421214982867
1733860447821829400,9.554829345703125,-0.002382198115810752,0.010516471229493618,0.0019936668686568737
1733860447831780000,9.564780029296875,0.0009616669267416,0.007078330498188734,0.0005984369199723005
1733860447841730000,9.57472998046875,0.0012855073437094688,0.005467650480568409,0.002298598876222968
1733860447851681300,9.584681396484376,0.0032139020040631294,0.0020481515675783157,0.004676802083849907
1733860447861631200,9.59463134765625,0.0006597726605832577,0.0019339828286319971,0.002000413602218032
1733860447871582200,9.604582275390625,-0.0017980588600039482,-0.005048026330769062,-0.002192999701946974
1733860447881533200,9.614533203125,-0.0036731858272105455,-0.010609112679958344,-0.00567840039730072
1733860447891483400,9.6244833984375,-0.003815398784354329,-0.01581399515271187,-0.008526916615664959
1733860447901434000,9.63443408203125,-0.003698756918311119,-0.02180463634431362,-0.006083611864596605
1733860447911384000,9.644384033203124,-0.004243906121701002,-0.027794884517788887,-0.005843660794198513
1733860447921335300,9.654335205078125,-0.004394907504320145,-0.024095486849546432,-0.0033136578276753426
1733860447931286000,9.6642861328125,-0.0027283011004328728,-0.01909167319536209,0.00019266002345830202
1733860447941236200,9.674236328125,0.0020592682994902134,-0.007900144904851913,-0.0003115979488939047
1733860447951187200,9.684187255859374,0.0031381146982312202,0.002082447987049818,-0.0016610217280685902
1733860447961137400,9.694137451171875,0.0031386311165988445,0.010096707381308079,-0.000013395445421338081
1733860447971088100,9.704088134765625,0.003223319537937641,0.013949768617749214,0.0025080854538828135
1733860447981039400,9.714039306640625,0.0019807866774499416,0.013743855059146881,0.004052083007991314
1733860447990989300,9.7239892578125,0.001068920362740755,0.012579520232975483,0.005108825862407684
1733860448000940300,9.733940185546874,0.0008215946145355701,0.011186644434928894,0.004069486632943153
1733860448010890200,9.74389013671875,-0.0015337052755057812,0.0062363604083657265,0.0020263094920665026
1733860448020841200,9.75384130859375,-0.0019619192462414503,0.0017306865192949772,0.001993543468415737
1733860448030791200,9.763791259765625,-0.0023067984730005264,-0.001095459796488285,-0.003713877173140645
1733860448040742100,9.7737421875,0.00013434654101729393,-0.002816571621224284,-0.0050366525538265705
1733860448050693400,9.783693359375,-0.0022856679279357195,-0.006026213988661766,-0.0023641702719032764
1733860448060643000,9.79364306640625,0.0009268922731280327,-0.0039842333644628525,0.0006295631173998117
1733860448070594300,9.80359423828125,-0.00023690913803875446,-0.0019796716514974833,-0.00010493665467947721
1733860448080544300,9.813544189453125,0.0008713956922292709,0.0010064445668831468,-0.0007074254099279642
1733860448090495200,9.8234951171875,0.00004554912447929382,-0.002207192126661539,-0.00016067828983068466
1733860448100446200,9.8334462890625,0.001724273432046175,-0.00269115949049592,0.00010275281965732574
1733860448110396200,9.843396240234375,0.002511503640562296,-0.0036672079004347324,0.0034189210273325443
1733860448120347100,9.85334716796875,0.001982737798243761,-0.004060213454067707,0.0011389895807951689
1733860448130297000,9.863297119140626,0.0009337184019386768,-0.0003845181781798601,0.0042785899713635445
1733860448140248300,9.873248291015624,-0.0009160153567790985,0.003726417198777199,0.0019299846608191729
1733860448150199300,9.88319921875,-0.0018838080577552319,0.004723238758742809,-0.005033382214605808
1733860448160149000,9.89314892578125,-0.0032979948446154594,0.00472938921302557,-0.007756146136671305
1733860448170100200,9.903100341796875,-0.003267634892836213,0.009560363367199898,-0.006791282910853624
1733860448180050200,9.91305029296875,-0.003230212489143014,0.011216915212571621,-0.0028873928822577
1733860448190001200,9.923001220703124,-0.0029140952974557877,0.008533514104783535,-0.004697543568909168
1733860448199952100,9.9329521484375,-0.0021914192475378513,0.0013559460639953613,-0.008028977550566196
1733860448209902800,9.94290283203125,-0.0033682703506201506,-0.005669472739100456,-0.00484436983242631
1733860448219853600,9.952853515625,-0.0027031484059989452,-0.005543041042983532,-0.0017286969814449549
1733860448229803800,9.9628037109375,-0.0026269820518791676,-0.003521169302985072,0.000981868477538228
1733860448239754800,9.972754638671875,-0.003020839998498559,0.0018558797892183065,0.0004353803815320134
1733860448249705700,9.982705810546875,0.002745436504483223,-0.0004789135418832302,0.0008425777778029442
1733860448259655700,9.99265576171875,0.003649675752967596,-0.006493978668004274,-0.0008081542328000069
1733860448269607000,10.00260693359375,0.0038368962705135345,-0.011857319623231888,0.0011580577120184898
1733860448279556900,10.012556884765624,0.004326603375375271,-0.016758574172854424,0.0008358672494068742
1733860448289507800,10.0225078125,0.003711945377290249,-0.017743412405252457,0.002557600848376751
1733860448299458800,10.032458740234375,0.0002337135374546051,-0.015496963635087013,-0.0010556173510849476
1733860448309408800,10.04240869140625,-0.0012624501250684261,-0.012051365338265896,-0.0035901477094739676
1733860448319359700,10.05235986328125,-0.0009540985338389874,-0.005702504888176918,-0.0013640793040394783
1733860448329309700,10.062309814453124,-0.0018904658500105143,0.00039586820639669895,-0.00009854510426521301
1733860448339261000,10.072260986328125,0.001294158399105072,0.0089768311008811,0.0018797224620357156
1733860448349211600,10.082211669921875,0.002959699369966984,0.011383796110749245,0.0008522748830728233
1733860448359161900,10.092161865234376,0.002533908933401108,0.010635687969624996,0.0010386446956545115
1733860448369112800,10.10211279296875,-0.00004269974306225777,0.00525743467733264,-0.00008094811346381903
1733860448379062500,10.1120625,-0.000783171970397234,0.0023908670991659164,0.0003201557556167245
1733860448389013800,10.122013671875,-0.00020686397328972816,-0.0007764303591102362,0.002342293970286846
1733860448398964700,10.13196484375,-0.0015894635580480099,-0.0017930178437381983,0.0009760604589246213
1733860448408914700,10.141914794921876,-0.002065103966742754,-0.0025496219750493765,0.00016858999151736498
1733860448418865700,10.15186572265625,-0.004058359656482935,-0.0030217245221138,-0.0004357921425253153
1733860448428816000,10.16181591796875,-0.002490024082362652,-0.006461996119469404,-0.003170326119288802
1733860448438766600,10.1717666015625,-0.0021957997232675552,-0.005069273058325052,-0.0013091773726046085
1733860448448717800,10.1817177734375,-0.0014495819341391325,-0.0031379489228129387,-0.00033552548848092556
1733860448458667800,10.191667724609376,-0.001185412984341383,0.0004405491054058075,0.0006532344268634915
1733860448468618800,10.20161865234375,-0.0023082017432898283,-0.0013000930193811655,-0.00008579285349696875
1733860448478568700,10.211568603515625,-0.003245328553020954,-0.002037669997662306,-0.005440014414489269
1733860448488519700,10.221519775390625,-0.002908705035224557,-0.0028981375508010387,-0.0043166931718587875
1733860448498470000,10.231469970703126,-0.0038568542804569006,0.0005301826167851686,-0.0030937879346311092
1733860448508420600,10.241420654296874,-0.0039870827458798885,0.006493799388408661,0.0014777944888919592
1733860448518371800,10.251371826171875,-0.0019226637668907642,0.0071905143558979034,0.0037758187390863895
1733860448528321800,10.26132177734375,-0.0008563338778913021,0.00824672356247902,0.0023821864742785692
1733860448538272800,10.271272705078125,-0.0000752229243516922,0.0045184241607785225,-0.0005282361526042223
1733860448548222700,10.28122265625,0.00011466071009635925,0.0012565847719088197,-0.0013580771628767252
1733860448558173700,10.291173583984374,0.0007411572150886059,-0.0037639308720827103,-0.0012961358297616243
1733860448568124700,10.301124755859375,0.004361192230135202,-0.006297130137681961,0.000480991555377841
1733860448578074600,10.31107470703125,0.0020110453478991985,-0.008063527755439281,-0.000956336734816432
1733860448588025900,10.32102587890625,-0.0005743512883782387,-0.009242774918675423,-0.0020053558982908726
1733860448597975800,10.330975830078126,-0.002987049985677004,-0.010787194594740868,-0.005697756074368954
1733860448607926800,10.3409267578125,-0.0026168706826865673,-0.00576181011274457,-0.0004942051600664854
1733860448617877800,10.350877685546875,-0.004765135236084461,0.0006170640699565411,-0.0012457005213946104
1733860448627827700,10.36082763671875,-0.003552864072844386,0.004582244902849197,-0.0020185497123748064
1733860448637778700,10.37077880859375,-0.001768444199115038,0.005228946916759014,0.0012140756007283926
1733860448647728600,10.380728759765624,-0.0007053103763610125,0.00947855319827795,0.0004167251754552126
1733860448657680000,10.390679931640625,-0.0005874938797205687,0.008262904360890388,0.00020668585784733295
1733860448667630600,10.400630615234375,0.0010998849757015705,0.005671116057783365,0.0020498596131801605
1733860448677580800,10.410580810546875,0.001230347901582718,0.004724112339317799,0.0021890008356422186
1733860448687531800,10.42053173828125,-0.00042773643508553505,0.0024990413803607225,-0.0018563410267233849
1733860448697481700,10.430481689453124,0.0009168046526610851,0.0034992326982319355,-0.0011908304877579212
1733860448707432700,10.4404326171875,-0.0002938683610409498,0.004952786024659872,-0.0016654059290885925
1733860448717384000,10.450384033203125,-0.00019233650527894497,0.0027737533673644066,-0.00027787848375737667
1733860448727334000,10.460333984375,-0.0023367139510810375,0.0018339238595217466,0.0008238712907768786
1733860448737284600,10.47028466796875,-0.0006516280118376017,0.0012078994186595082,0.0006172929424792528
1733860448747234800,10.48023486328125,-0.0019784148316830397,0.0008789990097284317,-0.0002474354114383459
1733860448757185800,10.490185791015625,-0.0014237165451049805,0.00006661494262516499,-0.003270717803388834
1733860448767136800,10.50013671875,-0.00040186173282563686,-0.004119075369089842,-0.0012610964477062225
1733860448777086700,10.510086669921876,-0.0006293449550867081,-0.004046344198286533,-0.002677581273019314
1733860448787038000,10.520037841796874,0.00008731149137020111,-0.003521968377754092,0.0005853237817063928
1733860448796987600,10.529987548828124,0.0002786465920507908,-0.0007215773221105337,0.0014801699435338378
1733860448806938600,10.539938720703125,-0.00018287915736436844,0.0009570131078362465,-0.00021919328719377518
1733860448816889900,10.549889892578125,0.00032153958454728127,0.003640139242634177,0.00018196029122918844
1733860448826839800,10.55983984375,-0.00009391363710165024,0.005686512216925621,0.0015841146232560277
1733860448836790800,10.569790771484374,-0.00009321747347712517,0.005113580264151096,0.0006052982062101364
1733860448846740700,10.57974072265625,-0.001122795743867755,0.0015055297408252954,-0.0003486461937427521
1733860448856691700,10.589691650390625,-0.0013824868947267532,-0.0032633754890412092,-0.0032276995480060577
1733860448866642700,10.599642578125,0.0009155548177659512,-0.007775834761559963,-0.00423277635127306
1733860448876592600,10.609592529296876,-0.000811680918559432,-0.00919743999838829,0.0017657927237451077
1733860448886544000,10.6195439453125,-0.0008652103133499622,-0.0034679146483540535,0.0023194639943540096
1733860448896493600,10.62949365234375,-0.0005448150914162397,0.0036004832945764065,0.002464527264237404
1733860448906444800,10.63944482421875,0.001471197698265314,0.006978170946240425,0.0022365606855601072
1733860448916395800,10.649395751953126,0.001813489943742752,0.009252567775547504,0.0012993656564503908
1733860448926345700,10.659345703125,0.0008459636010229588,0.010219828225672245,0.0018466452602297068
1733860448936296700,10.669296630859375,-0.0013473215512931347,0.010600713081657887,0.00021079869475215673
1733860448946247000,10.679246826171875,0.0011107763275504112,0.009990583173930645,0.0017823301022872329
1733860448956197600,10.68919775390625,0.0017124353908002377,0.0077913799323141575,0.0016964765964075923
1733860448966148900,10.69914892578125,0.0020077796652913094,0.0070089432410895824,0.0020538729149848223
1733860448976098800,10.709098876953124,0.00023190956562757492,0.0031793175730854273,0.001967241521924734
1733860448986049500,10.719049560546875,0.0009419084526598454,0.0009238866623491049,-0.00010895892046391964
1733860448995999700,10.728999755859375,-0.0002555500250309706,0.0007989674340933561,-0.0007777434075251222
1733860449005950700,10.73895068359375,0.0015327627770602703,0.0010498370975255966,0.00013438926544040442
1733860449015901700,10.748901611328124,0.0027074371464550495,0.0016830406384542584,0.000018018879927694798
1733860449025851600,10.7588515625,-0.00048462790437042713,-0.0000030065421015024185,-0.0012677551712840796
1733860449035803000,10.768802978515625,-0.0008937143720686436,0.001971796154975891,-0.0010544599499553442
1733860449045752800,10.7787529296875,-0.0016367360949516296,0.003322018776088953,0.001254500588402152
1733860449055703600,10.78870361328125,-0.0034083439968526363,0.002560334512963891,-0.0019290795316919684
1733860449065653800,10.79865380859375,-0.00312098884023726,0.0009437957778573036,-0.004907825496047735
1733860449075604700,10.808604736328125,-0.003250709269195795,0.0007248269394040108,-0.00605630362406373
1733860449085555700,10.8185556640625,-0.004317305516451597,0.0035291356034576893,-0.004180373158305883
1733860449095505700,10.828505615234375,-0.010985998436808586,0.0008331506978720427,-0.004468833561986685
1733860449105457000,10.838456787109376,-0.015415367670357227,-0.003924853168427944,-0.01077360101044178
1733860449115406800,10.84840673828125,-0.014867918565869331,-0.007789847906678915,-0.011953543871641159
1733860449125357800,10.85835791015625,-0.01661521941423416,-0.015732459723949432,-0.01247285958379507
1733860449135308800,10.868308837890625,-0.01780272275209427,-0.021626034751534462,-0.011753540486097336
1733860449145258800,10.8782587890625,-0.01786903478205204,-0.029696743935346603,-0.00894843228161335
1733860449155209700,10.888209716796876,-0.014818156138062477,-0.035790976136922836,-0.006941271014511585
1733860449165159700,10.89815966796875,-0.01140238530933857,-0.035546764731407166,-0.0074057262390851974
1733860449175111000,10.90811083984375,-0.01159503310918808,-0.02981824427843094,-0.008669042959809303
1733860449185061600,10.9180615234375,-0.010275970213115215,-0.022636499255895615,-0.0044535258784890175
1733860449195011800,10.92801171875,-0.005446437746286392,-0.012543066404759884,-0.005484654568135738
1733860449204962800,10.937962890625,-0.002402710961177945,-0.006029773503541946,-0.004148812964558601
1733860449214912800,10.947912841796875,-0.0014236192218959332,-0.001728294650092721,-0.004332070238888264
1733860449224863700,10.95786376953125,-0.0007330616936087608,0.0044398526661098,-0.001268636086024344
1733860449234814700,10.967814697265625,-0.0013370665255934,0.011121191084384918,0.00028691638726741076
1733860449244765000,10.977764892578126,-0.0009213471785187721,0.015322860330343246,0.001230740686878562
1733860449254715600,10.987715576171874,-0.00030550966039299965,0.017435219138860703,0.001895435620099306
1733860449264665900,10.997665771484375,-0.0015753048937767744,0.015342773869633675,0.00012150395195931196
1733860449274616800,11.007616943359375,-0.0037426273338496685,0.00990236271172762,-0.0011139643611386418
1733860449284567800,11.01756787109375,-0.004738117102533579,0.005686046555638313,-0.001082539209164679
1733860449294517800,11.027517822265626,-0.0014984703157097101,0.000853115925565362,0.00036594050470739603
1733860449304468700,11.03746875,0.0003921077586710453,0.0014006617711856961,0.0006402460858225822
1733860449314418700,11.047418701171875,0.001054555643349886,0.0000684929545968771,-0.000876674079336226
1733860449324369700,11.05736962890625,0.003841021563857794,-0.003837565192952752,0.00008978694677352905
1733860449334321000,11.06732080078125,0.002939697355031967,-0.005261103622615337,0.0008372446754947305
1733860449344270600,11.0772705078125,0.0024909544736146927,-0.0034189948346465826,0.004115329589694738
1733860449354221800,11.087221923828125,0.0028238072991371155,-0.00020360946655273438,0.006617834325879812
1733860449364171800,11.097171875,0.001151875127106905,0.0011356942122802138,0.0028491951525211334
1733860449374122800,11.107122802734375,-0.0031958003528416157,-0.0011388782877475023,0.00006404158193618059
1733860449384073700,11.11707373046875,-0.003032814711332321,-0.005294741131365299,-0.005237779580056667
1733860449394023700,11.127023681640624,-0.002263064030557871,-0.008539853617548943,-0.004402449354529381
1733860449403974700,11.136974609375,-0.0009394728112965822,-0.009282342158257961,-0.0037113591097295284
1733860449413924600,11.146924560546875,-0.0007628640159964561,-0.007414817810058594,-0.003288382664322853
1733860449423875800,11.156875732421875,0.001078978180885315,-0.004045120440423489,-0.0009850143687799573
1733860449433826600,11.16682666015625,0.0011410298757255077,-0.003161216853186488,0.001987872179597616
1733860449443776800,11.17677685546875,0.002219344023615122,-0.0005417317152023315,0.004713617730885744
1733860449453727700,11.186727783203125,0.004527383018285036,0.00788683257997036,0.00633985223248601
1733860449463677700,11.196677734375,0.006463501136749983,0.010493534617125988,0.00576807139441371
1733860449473628700,11.206628662109376,0.003428011666983366,0.009977559559047222,0.003236523363739252
1733860449483578600,11.21657861328125,0.0032173553481698036,0.0051511130295693874,0.001273507485166192
1733860449493529900,11.22652978515625,0.0028469604440033436,-0.00007497030310332775,0.002373483031988144
1733860449503480600,11.23648046875,0.001468508504331112,-0.0022995087783783674,0.0015281956875696778
1733860449513430800,11.2464306640625,0.000012399628758430481,-0.002479855204001069,0.00022585911210626364
1733860449523381800,11.2563818359375,0.0004057483747601509,0.0017910563619807363,0.0008538324618712068
1733860449533331700,11.266331787109374,0.0020188316702842712,0.006375146098434925,0.0011483978014439344
1733860449543282700,11.27628271484375,0.002907528541982174,0.010701717808842659,0.0001997797517105937
1733860449553234000,11.28623388671875,0.0033196397125720978,0.01074307318776846,0.0037216986529529095
1733860449563183900,11.296183837890625,0.004437634255737066,0.008365935645997524,0.004364851862192154
1733860449573134600,11.306134521484376,0.003871866501867771,0.006937207654118538,0.002827975433319807
1733860449583084800,11.316084716796874,0.0021964721381664276,0.0035872170701622963,0.0022282316349446774
1733860449593035800,11.326035888671875,0.001350652426481247,0.0007429611869156361,0.0030098692514002323
1733860449602986800,11.33598681640625,-0.0007918607443571091,0.002149909036234021,0.0018018594710156322
1733860449612936700,11.345936767578126,-0.0015326119028031826,-0.00016085151582956314,-0.0034893439151346684
1733860449622888000,11.355887939453124,-0.0012244842946529388,-0.0022503677755594254,-0.004692293703556061
1733860449632838000,11.365837890625,-0.0015850721392780542,-0.0039613209664821625,-0.0008878241060301661
1733860449642788600,11.37578857421875,0.0010525225661695004,-0.004740562289953232,0.00017717410810291767
1733860449652739800,11.38573974609375,0.0010869265533983707,-0.005636208690702915,0.0008405158296227455
1733860449662689800,11.395689697265626,0.0026565934531390667,-0.008068740367889404,-0.002207738347351551
1733860449672640800,11.405640869140624,0.00138861034065485,-0.00781532097607851,-0.0020430192817002535
1733860449682590700,11.4155908203125,0.0008993875235319138,-0.009207887575030327,-0.0007540492806583643
1733860449692542000,11.4255419921875,0.0027094613760709763,-0.005304311402142048,0.0017928231973201036
1733860449702492700,11.43549267578125,0.0027257069014012814,0.0017924800049513578,-0.0006141418125480413
1733860449712442600,11.445442626953126,0.0009060166776180267,0.004267330281436443,-0.00020113785285502672
1733860449722393900,11.455393798828124,0.0018069641664624214,0.008379783481359482,-0.0001649188343435526
1733860449732343600,11.465343505859375,0.0019972361624240875,0.005589663982391357,0.00041128089651465416
1733860449742294800,11.475294677734375,0.003699794877320528,0.0038314450066536665,0.0009013025555759668
1733860449752245800,11.485245849609376,0.0026227030903100967,-0.001375245163217187,0.0032116312067955732
1733860449762195700,11.49519580078125,0.0020684991031885147,-0.003766497364267707,0.0014068069867789745
1733860449772146700,11.505146728515625,-0.000656353309750557,-0.0011065802536904812,0.0005068173632025719
1733860449782097000,11.515096923828125,0.0001455242745578289,-0.0036693401634693146,0.00047858792822808027
1733860449792047600,11.525047607421875,0.0007085641846060753,-0.0008381577208638191,-0.0007877983152866364
1733860449801998800,11.534998779296876,0.0011738184839487076,-0.0012938245199620724,0.000899846781976521
1733860449811948800,11.54494873046875,0.00019300123676657677,0.003266420681029558,0.0001557149225845933
1733860449821899800,11.554899658203125,0.00005025602877140045,0.0050776368007063866,0.00040605198591947556
1733860449831849700,11.564849609375,-0.00024188589304685593,0.00552678108215332,-0.0015224221860989928
1733860449841800700,11.57480078125,0.00042150774970650673,0.0023624130990356207,-0.001838273019529879
1733860449851751700,11.584751708984374,0.00148773193359375,-0.0013575740158557892,-0.00047322141472250223
