time,seconds_elapsed,z,y,x
1733862530493797000,0.012797119140625,0.08821038156747818,0.5245238542556763,0.0005140651483088732
1733862530503747800,0.022747802734375,-0.043358031660318375,1.0801066160202026,0.05881731957197189
1733862530513699000,0.032698974609375,-0.0841703861951828,1.4505960941314697,0.1860535591840744
1733862530523651000,0.042651123046875,-0.02988503687083721,1.6194181442260742,0.21180713176727295
1733862530533602000,0.05260205078125,-0.007366598583757877,1.1157655715942383,0.209864541888237
1733862530543553000,0.062552978515625,-0.05355619639158249,0.7576640844345093,0.15068058669567108
1733862530553504000,0.07250390625,-0.038970936089754105,0.63390052318573,0.08809792995452881
1733862530563455200,0.082455322265625,-0.013277556747198105,0.6128463745117188,0.047956109046936035
1733862530573406000,0.092406005859375,0.0030746706761419773,0.6054835319519043,0.02689819410443306
1733862530583357200,0.102357177734375,0.01541362889111042,0.554100513458252,0.020981715992093086
1733862530593308000,0.112307861328125,0.024582136422395706,0.49529701471328735,0.012697228230535984
1733862530603260200,0.12226025390625,0.004655034281313419,0.3821997344493866,0.03274231031537056
1733862530613211100,0.132211181640625,-0.004323529079556465,0.21879799664020538,0.041477400809526443
1733862530623162000,0.142162109375,-0.003246813081204891,0.08456455171108246,0.021208081394433975
1733862530633113000,0.152113037109375,0.0029617790132761,0.008552690967917442,0.0017325382214039564
1733862530643064000,0.16206396484375,0.004351416137069464,-0.012394668534398079,-0.009056193754076958
1733862530653015000,0.17201513671875,0.00522226095199585,-0.006092010997235775,-0.0066641042940318584
1733862530662966000,0.181966064453125,0.0031588440760970116,0.014302476309239864,-0.001581993536092341
1733862530672918000,0.19191796875,0.002884902060031891,0.03059227205812931,0.004182262346148491
1733862530682869000,0.201868896484375,-0.0011258185841143131,0.039154067635536194,0.010435364209115505
1733862530692820000,0.211820068359375,-0.0016133987810462713,0.042269330471754074,0.01230071671307087
1733862530702771000,0.22177099609375,0.0014785313978791237,0.03388010710477829,0.010832516476511955
1733862530712722200,0.23172216796875,0.00043311621993780136,0.023446930572390556,0.0031213383190333843
1733862530722673000,0.2416728515625,0.004247562028467655,0.014727476052939892,-0.0030769025906920433
1733862530732624100,0.2516240234375,0.003094208426773548,0.006881125271320343,-0.005052970722317696
1733862530742576000,0.261576171875,0.0011040279641747475,0.0031993049196898937,-0.008274597115814686
1733862530752527000,0.271527099609375,0.0026406277902424335,0.005430072546005249,-0.007236836943775415
1733862530762478000,0.28147802734375,0.0024137264117598534,0.01705983094871044,-0.010500009171664715
1733862530772429000,0.291428955078125,0.000539144966751337,0.024478290230035782,-0.015323602594435215
1733862530782380000,0.301380126953125,0.00184995261952281,0.034063007682561874,-0.01629192940890789
1733862530792331000,0.3113310546875,0.0013633668422698975,0.038549963384866714,-0.019447660073637962
1733862530802282000,0.321281982421875,0.0016046492382884026,0.037224773317575455,-0.021756619215011597
1733862530812234000,0.33123388671875,0.00189865380525589,0.03357546404004097,-0.025072749704122543
1733862530822185000,0.34118505859375,0.002090135123580694,0.024745488539338112,-0.02847360633313656
1733862530832136200,0.35113623046875,0.0038790148682892323,0.018536778166890144,-0.028192531317472458
1733862530842087000,0.3610869140625,0.0026318570598959923,0.0009524584747850895,-0.026116063818335533
1733862530852038100,0.3710380859375,-0.002057853387668729,0.016830751672387123,-0.02354847453534603
1733862530861989000,0.380989013671875,0.0015225005336105824,0.030696766451001167,-0.02600151300430298
1733862530871940000,0.390940185546875,0.005594446789473295,0.026044821366667747,-0.02452893555164337
1733862530881891000,0.40089111328125,0.00757956737652421,0.015061411075294018,-0.02133633755147457
1733862530891843000,0.410843017578125,0.008443700149655342,0.00893628690391779,-0.014291211031377316
1733862530901794000,0.4207939453125,0.012267200276255608,0.003387057688087225,-0.015141558833420277
1733862530911745000,0.4307451171875,0.012057343497872353,-0.00023217825219035149,-0.012827537022531033
1733862530921696000,0.440696044921875,0.01408826932311058,-0.005103365518152714,-0.007404009811580181
1733862530931647000,0.45064697265625,0.006414149887859821,0.003168041817843914,-0.007593285758048296
1733862530941598000,0.460597900390625,0.013441165909171104,0.01844925992190838,-0.005523476749658585
1733862530951549000,0.470548828125,0.018083395436406136,0.004296345170587301,0.00015709316357970238
1733862530961501200,0.480501220703125,0.018023207783699036,0.016504809260368347,0.005212039221078157
1733862530971452000,0.490451904296875,0.012159176170825958,0.03683115914463997,0.0021015445236116648
1733862530981403100,0.500403076171875,0.009491221979260445,0.010517530143260956,0.0020823697559535503
1733862530991354000,0.51035400390625,0.008107414469122887,-0.007048971951007843,0.0016187401488423347
1733862531001305000,0.52030517578125,0.011141020804643631,-0.019401513040065765,0.00222966936416924
1733862531011256000,0.530256103515625,0.012300001457333565,-0.011645525693893433,-0.0005154022946953773
1733862531021207000,0.54020703125,0.011576954275369644,0.012401754036545753,-0.0009638788178563118
1733862531031159000,0.550158935546875,0.008196739479899406,0.026792893186211586,0.0031802267767488956
1733862531041110000,0.560110107421875,0.006814293097704649,0.027377722784876823,0.005219142884016037
1733862531051061200,0.570061279296875,0.006581395864486694,0.03826397657394409,0.007166219409555197
1733862531061012000,0.580011962890625,0.0023762648925185204,0.027531437575817108,0.004511048085987568
1733862531070963200,0.589963134765625,0.004198887385427952,0.007413490675389767,0.0013537956401705742
1733862531080914000,0.599913818359375,0.0036747772246599197,-0.0021413981448858976,0.0008453981718048453
1733862531090865200,0.609865234375,0.004362414591014385,0.000990991247817874,-0.00013441708870232105
1733862531100817000,0.61981689453125,0.003410334698855877,0.0016996583435684443,-0.0010342993773519993
1733862531110768000,0.62976806640625,0.004227758385241032,0.0017711562104523182,-0.002703901845961809
1733862531120718800,0.63971875,0.0020796526223421097,-0.0033700764179229736,-0.0050323037430644035
1733862531130670000,0.649670166015625,0.0030808220617473125,-0.009154933504760265,-0.0055581312626600266
1733862531140621000,0.65962109375,0.002187864389270544,-0.009952283464372158,-0.005222839303314686
1733862531150572000,0.669572021484375,0.0020017181523144245,-0.010788536630570889,-0.004422331694513559
1733862531160523000,0.67952294921875,0.002948471810668707,-0.010965903289616108,-0.0022100438363850117
1733862531170475000,0.68947509765625,0.0015934556722640991,-0.008491294458508492,-0.0012845953460782766
1733862531180426200,0.69942626953125,0.0036141378805041313,-0.004731510765850544,-0.002824249677360058
1733862531190376400,0.70937646484375,0.0031191804446280003,-0.0055490341037511826,-0.0025583854876458645
1733862531200327700,0.71932763671875,0.002100787591189146,-0.004820925183594227,-0.0004347807262092829
1733862531210278400,0.7292783203125,0.003897622227668762,-0.005745308473706245,-0.0011389204300940037
1733862531220229600,0.739229736328125,0.001336726825684309,-0.003962588496506214,0.000130075728520751
1733862531230180600,0.7491806640625,0.0021700914949178696,-0.0016271418426185846,0.0015846916940063238
1733862531240131600,0.759131591796875,0.003295276779681444,0.002203282667323947,0.0031133461743593216
1733862531250083600,0.76908349609375,0.001853868830949068,0.006890428252518177,0.0034674755297601223
1733862531260034600,0.77903466796875,0.0009438665583729744,0.007754623889923096,0.004149777349084616
1733862531269985800,0.78898583984375,0.0006225733086466789,0.007207524497061968,0.003784004831686616
1733862531279936500,0.7989365234375,0.0030460497364401817,0.00810394436120987,0.006039169616997242
1733862531289887700,0.8088876953125,0.0010124510154128075,0.009458715096116066,0.003575783921405673
1733862531299838500,0.81883837890625,0.001093677245080471,0.00840170681476593,0.00323410052806139
1733862531309789700,0.828789794921875,0.0014177216216921806,0.004277947824448347,0.0012162253260612488
1733862531319741700,0.83874169921875,0.0009735063649713993,0.002849428215995431,-0.001124160480685532
1733862531329692700,0.848692626953125,-0.0005143750458955765,0.0006147071253508329,-0.0014419907238334417
1733862531339643600,0.8586435546875,-0.00013008108362555504,-0.0018148946110159159,-0.0023642436135560274
1733862531349594600,0.8685947265625,0.000421036034822464,-0.0045309485867619514,-0.0020708683878183365
1733862531359545600,0.878545654296875,-0.0007414338178932667,-0.005472642369568348,-0.0033390657044947147
1733862531369496600,0.88849658203125,0.00021287286654114723,-0.006822557188570499,-0.0057448577135801315
1733862531379447800,0.89844775390625,-0.0005051153711974621,-0.007785290479660034,-0.007789898663759232
1733862531389399600,0.908399658203125,-0.00021630432456731796,-0.012418682686984539,-0.008385119959712029
1733862531399350500,0.9183505859375,0.0011320537887513638,-0.01846618764102459,-0.010373702272772789
1733862531409301500,0.928301513671875,0.000908232294023037,-0.022476904094219208,-0.01082434318959713
1733862531419252700,0.938252685546875,0.001186266541481018,-0.035158343613147736,-0.011801989749073982
1733862531429203500,0.948203369140625,0.0018788226880133152,-0.031056057661771774,-0.01180416252464056
1733862531439154700,0.95815478515625,0.0028564687818288803,-0.02652362547814846,-0.015444970689713955
1733862531449105400,0.96810546875,0.0006770356558263302,-0.023937033489346504,-0.018593961372971535
1733862531459056600,0.978056640625,0.0015646670944988728,-0.0293232761323452,-0.01988719217479229
1733862531469008600,0.988008544921875,0.003564221318811178,-0.03488408029079437,-0.019719643518328667
1733862531478959600,0.997959716796875,0.003861962351948023,-0.04137340560555458,-0.017715616151690483
1733862531488910600,1.00791064453125,0.002887104172259569,-0.04054625704884529,-0.015381891280412674
1733862531498861600,1.017861572265625,0.0035614161752164364,-0.03423536196351051,-0.010031599551439285
1733862531508812500,1.0278125,0.0034958762116730213,-0.024689994752407074,-0.00768550718203187
1733862531518763500,1.037763427734375,0.0025065112859010696,-0.015917543321847916,-0.01011164765805006
1733862531528714800,1.04771484375,0.003969733603298664,-0.009358899667859077,-0.009555389173328876
1733862531538666800,1.057666748046875,0.0020136418752372265,-0.012758957222104073,-0.009402257390320301
1733862531548617700,1.06761767578125,0.002579545136541128,-0.014915453270077705,-0.007047328166663647
1733862531558568700,1.077568603515625,0.0005997512489557266,-0.013273879885673523,-0.005674202926456928
1733862531568519700,1.087519775390625,-0.0011205635964870453,-0.005981285125017166,0.0010056847240775824
1733862531578470700,1.097470703125,0.0005907835438847542,0.008822161704301834,0.0027758879587054253
1733862531588421600,1.107421630859375,0.0006301985122263432,0.03188993036746979,0.007841220125555992
1733862531598372600,1.11737255859375,-0.0016428094822913408,0.05326259508728981,0.013330262154340744
1733862531608324600,1.12732470703125,-0.0035873607266694307,0.06863468885421753,0.019968338310718536
1733862531618275600,1.137275634765625,-0.006139467936009169,0.0770268365740776,0.020636525005102158
1733862531628226600,1.1472265625,-0.00465146079659462,0.07671111822128296,0.01891659013926983
1733862531638177500,1.157177490234375,-0.005298608914017677,0.06895332783460617,0.01431198325008154
1733862531648128500,1.16712841796875,-0.0023581867571920156,0.04634595662355423,0.008165291510522366
1733862531658079700,1.177079833984375,-0.0027997386641800404,0.021700266748666763,-0.0005096892127767205
1733862531668030500,1.187030517578125,0.0004068124108016491,-0.0004375081043690443,-0.0054569728672504425
1733862531677981700,1.196981689453125,0.00010081520304083824,-0.01503961905837059,-0.006777101196348667
1733862531687933700,1.20693359375,0.000531777273863554,-0.021024154499173164,-0.007208268623799086
1733862531697884700,1.216884765625,0.00003563053905963898,-0.01967712678015232,-0.00395521754398942
1733862531707835600,1.226835693359375,0.0008647618815302849,-0.016489975154399872,-0.0044663092121481895
1733862531717786600,1.23678662109375,0.0011015171185135841,-0.01677306927740574,-0.00542850885540247
1733862531727737600,1.246737548828125,0.0021083420142531395,-0.021704263985157013,-0.00810563936829567
1733862531737688600,1.2566884765625,0.0018279110081493855,-0.02657092548906803,-0.009106721729040146
1733862531747639600,1.2666396484375,0.0030222763307392597,-0.03150828182697296,-0.008117355406284332
1733862531757591800,1.276591796875,0.00020704884082078934,-0.029311969876289368,-0.006280573084950447
1733862531767542500,1.28654248046875,-0.0004060720093548298,-0.019961999729275703,0.001027676509693265
1733862531777493800,1.29649365234375,-0.0003269761800765991,-0.005835262127220631,0.008545514196157455
1733862531787444500,1.306444580078125,-0.002697585616260767,0.013948868960142136,0.014666038565337658
1733862531797395700,1.316395751953125,-0.0005095324013382196,0.02853366918861866,0.01760190725326538
1733862531807346700,1.3263466796875,0.0007038535550236702,0.04191131889820099,0.018031422048807144
1733862531817297700,1.336297607421875,-0.001955579034984112,0.04509139806032181,0.017189595848321915
1733862531827249400,1.34624951171875,-0.004539031535387039,0.04216022789478302,0.01808548904955387
1733862531837200600,1.35620068359375,-0.0018553643021732569,0.03747332841157913,0.014189551584422588
1733862531847151600,1.366151611328125,-0.005103355273604393,0.02873283438384533,0.013793272897601128
1733862531857102600,1.3761025390625,-0.0022423213813453913,0.020771581679582596,0.009932221844792366
1733862531867053600,1.386053466796875,-0.00005342625081539154,0.014213977381587029,0.004232332110404968
1733862531877004500,1.396004638671875,-0.004506497643887997,0.012557223439216614,0.0017694407142698765
1733862531886955800,1.405955810546875,-0.002939554862678051,0.013183477334678173,0.0026530809700489044
1733862531896907500,1.415907470703125,-0.001468957168981433,0.013381616212427616,0.0024384302087128162
1733862531906858800,1.425858642578125,-0.001755984965711832,0.01181393675506115,0.004283731337636709
1733862531916809500,1.4358095703125,-0.0009269430302083492,0.008111875504255295,0.005960990209132433
1733862531926760700,1.4457607421875,-0.0023248970974236727,0.0050930604338645935,0.00918608158826828
1733862531936711400,1.45571142578125,-0.0013765455223619938,0.0054371412843465805,0.010510738007724285
1733862531946662700,1.46566259765625,-0.0014751988928765059,0.013296309858560562,0.012651266530156136
1733862531956613600,1.475613525390625,0.0025981059297919273,0.025714363902807236,0.007502576801925898
1733862531966564600,1.485564697265625,0.0013471213169395924,0.026446430012583733,0.0064904652535915375
1733862531976516600,1.4955166015625,-0.00004864111542701721,0.02052116207778454,0.0063807424157857895
1733862531986467600,1.505467529296875,-0.003352602245286107,0.008373254910111427,0.007519170176237822
1733862531996418800,1.515418701171875,-0.0032980074174702168,0.0013302594888955355,0.007709852419793606
1733862532006369500,1.52536962890625,-0.0011543233413249254,-0.001397331478074193,0.001287178136408329
1733862532016320800,1.53532080078125,-0.00208376650698483,-0.00939879845827818,-0.00430146511644125
1733862532026271500,1.545271484375,-0.0018803805578500032,-0.020992951467633247,-0.008173355832695961
1733862532036222700,1.55522265625,0.0004176609218120575,-0.030540917068719864,-0.008364304900169373
1733862532046174500,1.565174560546875,0.0021717878989875317,-0.03494245186448097,-0.008732815273106098
1733862532056125700,1.575125732421875,0.0015589944086968899,-0.03590118885040283,-0.009588222950696945
1733862532066076400,1.585076416015625,0.0029159202240407467,-0.042277343571186066,-0.01535274088382721
1733862532076027600,1.595027587890625,0.0059724305756390095,-0.056116461753845215,-0.018760520964860916
1733862532085978600,1.604978515625,0.008595039136707783,-0.06773335486650467,-0.02335132472217083
1733862532095929600,1.6149296875,0.007409932091832161,-0.07248549908399582,-0.02552339807152748
1733862532105880800,1.624880859375,0.008655075915157795,-0.07415921241044998,-0.024705955758690834
1733862532115832600,1.63483251953125,0.007697668857872486,-0.07303935289382935,-0.02366652339696884
1733862532125783800,1.64478369140625,0.006762590259313583,-0.06650368124246597,-0.022770794108510017
1733862532135734500,1.654734619140625,0.005915971472859383,-0.062493227422237396,-0.021748673170804977
1733862532145685800,1.664685791015625,0.006758071016520262,-0.05744060128927231,-0.017703285440802574
1733862532155636500,1.674636474609375,0.00551623897626996,-0.053506847470998764,-0.01773098111152649
1733862532165587700,1.684587646484375,0.00605278555303812,-0.04516386613249779,-0.012773249298334122
1733862532175538400,1.694538330078125,0.003738764673471451,-0.03679567947983742,-0.011572163552045822
1733862532185489700,1.70448974609375,0.0030285893008112907,-0.028123214840888977,-0.007868003100156784
1733862532195446000,1.714446044921875,0.002070383634418249,-0.018682310357689857,-0.005588337313383818
1733862532205397000,1.72439697265625,-0.0017383098602294922,-0.00837465189397335,-0.0002531192731112242
1733862532215348000,1.734347900390625,-0.00042244186624884605,0.007247717119753361,0.005764826200902462
1733862532225299000,1.744298828125,-0.0020898564253002405,0.025185193866491318,0.0059065441600978374
1733862532235250000,1.75425,-0.002103704959154129,0.03751935809850693,0.00960940308868885
1733862532245201200,1.764201171875,-0.0026134245563298464,0.044965535402297974,0.009160889312624931
1733862532255151900,1.77415185546875,-0.0038960028905421495,0.03995506465435028,0.009367017075419426
1733862532265104100,1.784104248046875,-0.0025099082849919796,0.025653544813394547,0.006523638963699341
1733862532275054800,1.794054931640625,-0.003453732468187809,0.01639479771256447,0.005230141803622246
1733862532285006000,1.804006103515625,-0.0017566948663443327,0.011011850088834763,0.005362993106245995
1733862532294956800,1.813956787109375,-0.00289226695895195,0.009415552020072937,0.004720105789601803
1733862532304908000,1.823907958984375,-0.0004649716429412365,0.007045485079288483,0.004207950085401535
1733862532314859000,1.83385888671875,-0.0001137005165219307,0.005217225290834904,0.004278790205717087
1733862532324810000,1.84381005859375,-0.0012158246245235205,0.0030511710792779922,0.004967856220901012
1733862532334762000,1.853761962890625,-0.001768430694937706,0.0015544744674116373,0.004630966577678919
1733862532344713000,1.863712890625,-0.0032216906547546387,0.000822841189801693,0.0048170071095228195
1733862532354664200,1.873664306640625,-0.0015162022318691015,0.005205605179071426,0.005046837963163853
1733862532364615000,1.883614990234375,-0.0024346106220036745,0.010121354833245277,0.006783605087548494
1733862532374566100,1.893566162109375,-0.00035414891317486763,0.01945892907679081,0.00528264744207263
1733862532384516900,1.903516845703125,-0.002836163155734539,0.022430894896388054,0.008207099512219429
1733862532394468000,1.913468017578125,0.0006038420833647251,0.02179546467959881,0.004566824994981289
1733862532404419800,1.923419921875,0.000522917602211237,0.014973160810768604,0.0016076333122327924
1733862532414371000,1.93337109375,0.0009684646502137184,0.0023894584737718105,-0.003090981859713793
1733862532424321800,1.94332177734375,0.0036981599405407906,-0.01328660175204277,-0.008514583110809326
1733862532434273000,1.95327294921875,0.004420408979058266,-0.026741424575448036,-0.012561522424221039
1733862532444224000,1.96322412109375,0.004728991538286209,-0.039690591394901276,-0.014933786354959011
1733862532454175000,1.973175048828125,0.0035872943699359894,-0.04598630964756012,-0.014689308591187
1733862532464126200,1.983126220703125,0.0015349811874330044,-0.03781190142035484,-0.011010691523551941
1733862532474077000,1.993076904296875,0.002013817895203829,-0.024326186627149582,-0.009004000574350357
1733862532484029000,2.00302880859375,0.0006798761896789074,-0.01783694699406624,-0.0035262969322502613
1733862532493980000,2.01297998046875,0.0007259487174451351,-0.011048016138374805,-0.0023694196715950966
1733862532503931100,2.02293115234375,0.0016273749060928822,-0.00863267108798027,-0.0020727808587253094
1733862532513881900,2.0328818359375,0.002732586581259966,-0.004815028514713049,-0.001836025738157332
1733862532523833000,2.0428330078125,0.0021070102229714394,-0.005281081888824701,-0.002964939922094345
1733862532533783800,2.05278369140625,0.0018694563768804073,-0.00833013467490673,-0.0022038081660866737
1733862532543735000,2.062735107421875,0.00022987322881817818,-0.011217735707759857,-0.00035762262996286154
1733862532553687000,2.07268701171875,0.000806447584182024,-0.0045286742970347404,0.002127372892573476
1733862532563638000,2.082637939453125,-0.0014203907921910286,0.004003866575658321,0.003025233978405595
1733862532573589000,2.092589111328125,-0.0013900308404117823,0.01218243408948183,0.005735533311963081
1733862532583540000,2.1025400390625,-0.000362565740942955,0.018040815368294716,0.0059716785326600075
1733862532593491200,2.1124912109375,0.0003402428701519966,0.01812310703098774,0.0031005246564745903
1733862532603442000,2.12244189453125,0.001219556201249361,0.0157767403870821,0.0010272562503814697
1733862532613393200,2.13239306640625,-0.0004664913285523653,0.00985147338360548,-0.0016063437797129154
1733862532623345000,2.142344970703125,0.0008209254592657089,0.00407204357907176,-0.0017410253640264273
1733862532633296100,2.152296142578125,-0.0009671207517385483,-0.00005026324652135372,-0.0016214493662118912
1733862532643246800,2.162246826171875,-0.0008566442411392927,-0.0012837357353419065,-0.001065988326445222
1733862532653198000,2.172197998046875,-0.0020193804521113634,0.0038809324614703655,-0.0012212505098432302
1733862532663148800,2.182148681640625,-0.00011090608313679695,0.009853479452431202,-0.0003088158555328846
1733862532673100000,2.19210009765625,0.00025048479437828064,0.008770371787250042,0.0009074498666450381
1733862532683051000,2.202051025390625,0.0009126816876232624,0.00736027117818594,0.0009170820703729987
1733862532693002000,2.212001953125,0.00012119021266698837,0.00698423245921731,0.0005865837447345257
1733862532702954000,2.2219541015625,0.0014263330958783627,0.002751215361058712,-0.0011455827625468373
1733862532712905000,2.231905029296875,-0.001808342058211565,-0.0007955825421959162,0.00023713044356554747
1733862532722856000,2.24185595703125,0.00021850038319826126,-0.001285928301513195,0.000907831359654665
1733862532732807000,2.251806884765625,-0.00022385083138942719,0.0032931107562035322,0.004280990920960903
1733862532742758100,2.261758056640625,-0.00021793833002448082,0.004479956813156605,0.0038450676947832108
1733862532752708900,2.271708984375,-0.0004994343034923077,0.006053086370229721,0.005396092776209116
1733862532762660000,2.28166015625,0.0013055941089987755,0.007943276315927505,0.005085304379463196
1733862532772612000,2.291612060546875,0.0008792220614850521,0.010331599041819572,0.004831238649785519
1733862532782563000,2.30156298828125,0.0014997650869190693,0.012910808436572552,0.006702526938170195
1733862532792514000,2.31151416015625,-0.0007604595739394426,0.011530226096510887,0.00745433708652854
1733862532802465000,2.321465087890625,-0.00019198842346668243,0.008882422000169754,0.007945572957396507
1733862532812416000,2.331416015625,0.0008501065894961357,0.008851262740790844,0.007233177311718464
1733862532822367000,2.341366943359375,0.0026177242398262024,0.0077323755249381065,0.002547882730141282
1733862532832318000,2.35131787109375,0.002227038610726595,0.007921459153294563,-0.00017919426318258047
1733862532842270000,2.36127001953125,0.002479497343301773,0.004746726248413324,-0.0012079346925020218
1733862532852221000,2.371220947265625,0.0016256882809102535,0.003535254392772913,-0.0007139183580875397
1733862532862172000,2.381171875,-0.0002769976854324341,-0.0028089953120797873,-0.0032330830581486225
1733862532872123000,2.391122802734375,0.0003736126236617565,-0.007329178042709827,-0.0040240418165922165
1733862532882073900,2.401073974609375,0.0005767578259110451,-0.01489109918475151,-0.005905868485569954
1733862532892025000,2.411025146484375,-0.0007183372508734465,-0.017245067283511162,-0.008394858799874783
1733862532901976000,2.42097607421875,-0.0009046464692801237,-0.014871470630168915,-0.0062514678575098515
1733862532911928000,2.430927978515625,0.000084717757999897,-0.008430881425738335,-0.0035701971501111984
1733862532921879000,2.440879150390625,-0.0015965790953487158,0.005304945167154074,0.0049056559801101685
1733862532931830000,2.450830078125,-0.0011283953208476305,0.019708918407559395,0.009536893106997013
1733862532941781000,2.460781005859375,-0.004322493448853493,0.03454085811972618,0.015125304460525513
1733862532951732000,2.47073193359375,-0.004838880151510239,0.04481799528002739,0.016325324773788452
1733862532961683000,2.480682861328125,-0.003597482806071639,0.048374243080616,0.015379833057522774
1733862532971634000,2.490634033203125,-0.0043921698816120625,0.044999487698078156,0.015076765790581703
1733862532981586000,2.5005859375,-0.002956079551950097,0.04081272333860397,0.01646909862756729
1733862532991537200,2.510537109375,-0.0029512858018279076,0.040343742817640305,0.013724710792303085
1733862533001488000,2.52048779296875,-0.0019766914192587137,0.03829153627157211,0.014692244119942188
1733862533011439000,2.530439208984375,-0.0008027700241655111,0.03292952477931976,0.016807859763503075
1733862533021390000,2.54039013671875,-0.0010244795121252537,0.04052188992500305,0.017837125808000565
1733862533031341000,2.550341064453125,-0.0004702757578343153,0.04534221068024635,0.01888747699558735
1733862533041292000,2.5602919921875,-0.0009804656729102135,0.05187477543950081,0.018650416284799576
1733862533051243000,2.570242919921875,-0.0014241482131183147,0.057267945259809494,0.019832327961921692
1733862533061195000,2.580195068359375,-0.000907303299754858,0.05627242103219032,0.018303295597434044
1733862533071146000,2.59014599609375,-0.0030439572874456644,0.048949260264635086,0.015439331531524658
1733862533081097000,2.600096923828125,0.00047583552077412605,0.03829159587621689,0.013339740224182606
1733862533091048000,2.6100478515625,-0.0007268479093909264,0.023651400581002235,0.008252836763858795
1733862533100999000,2.6199990234375,0.0011204075999557972,0.009050723165273666,0.0009810326155275106
1733862533110950000,2.629949951171875,0.003023236058652401,-0.0015515880659222603,-0.00268560741096735
1733862533120901000,2.639901123046875,0.005085685756057501,-0.009333550930023193,-0.007568897679448128
1733862533130852900,2.649852783203125,0.00541059160605073,-0.017307855188846588,-0.009475454688072205
1733862533140804000,2.65980419921875,0.005659420508891344,-0.02211879938840866,-0.009381561540067196
1733862533150754800,2.6697548828125,0.004084959160536528,-0.02686641365289688,-0.009898747317492962
1733862533160706000,2.6797060546875,0.0037949145771563053,-0.030889322981238365,-0.009619267657399178
1733862533170657000,2.689656982421875,0.005032484885305166,-0.030518880113959312,-0.008275968953967094
1733862533180608000,2.69960791015625,0.003885985352098942,-0.02899392880499363,-0.00765914237126708
1733862533190557000,2.709556884765625,0.003375457599759102,-0.026948357000947,-0.0068117245100438595
1733862533200509000,2.719509033203125,0.0036033433862030506,-0.021039148792624474,-0.007706467993557453
1733862533210460000,2.7294599609375,0.004507752601057291,-0.014645431190729141,-0.00422678142786026
1733862533220411000,2.739410888671875,0.004055478144437075,-0.007128492929041386,-0.001527360174804926
1733862533230361900,2.74936181640625,0.0008682073093950748,0.0021132086403667927,0.004222670570015907
1733862533240312800,2.759312744140625,0.0018764273263514042,0.014325256459414959,0.00490626972168684
1733862533250263800,2.769263916015625,-0.0000631529837846756,0.021663064137101173,0.006597909145057201
1733862533260214800,2.77921484375,-0.00008000293746590614,0.0234538521617651,0.005783201660960913
1733862533270166000,2.789166015625,0.00016607297584414482,0.022691922262310982,0.0058609661646187305
1733862533280118000,2.799117919921875,0.0005828132852911949,0.02161770686507225,0.004759940318763256
1733862533290069000,2.809069091796875,-0.0004318512510508299,0.021048855036497116,0.005517076700925827
1733862533300020000,2.81902001953125,0.00013100029900670052,0.02316080592572689,0.004839918576180935
1733862533309971000,2.828970947265625,-0.0012820728588849306,0.024577872827649117,0.004770143423229456
1733862533319922000,2.838921875,-0.0019886356312781572,0.026665320619940758,0.0025539768394082785
1733862533329873000,2.848872802734375,-0.0007840876933187246,0.02684907801449299,0.0027867371682077646
1733862533339823900,2.858823974609375,-0.0023564910516142845,0.030561869964003563,0.004430925007909536
1733862533349776100,2.868776123046875,-0.0010595316998660564,0.035098299384117126,0.005043984856456518
1733862533359726800,2.878726806640625,-0.0005828524008393288,0.03415187448263168,0.005085112527012825
1733862533369678000,2.888677978515625,0.0003433949314057827,0.02745375782251358,0.005964487791061401
1733862533379628800,2.89862890625,0.00022916309535503387,0.022748708724975586,0.0029092328622937202
1733862533389580000,2.908580078125,0.000024366192519664764,0.01982668787240982,0.0030344014521688223
1733862533399531000,2.918531005859375,-0.00005411636084318161,0.01634175330400467,0.002944575622677803
1733862533409482000,2.92848193359375,0.0013586906716227531,0.010610098950564861,-0.0001739861909300089
1733862533419433700,2.938433837890625,-0.0001351572573184967,0.006813684944063425,0.000021567335352301598
1733862533429385000,2.948385009765625,-0.001275789225474,0.00842303317040205,0.0026538358069956303
1733862533439336000,2.9583359375,-0.0013727552723139524,0.010884921066462994,0.0038007081020623446
1733862533449287000,2.968286865234375,-0.001047050580382347,0.010840979404747486,0.004968238063156605
1733862533459238000,2.97823779296875,0.0007562204264104366,0.006384607404470444,0.0017994171939790249
1733862533469188900,2.98818896484375,0.0005639400333166122,0.0009544224012643099,0.001133360667154193
1733862533479139800,2.998139892578125,0.0007169479504227638,-0.0027771745808422565,-0.0023021125234663486
1733862533489091800,3.008091796875,-0.00006868457421660423,-0.005709048360586166,0.0001282885205000639
1733862533499043000,3.01804296875,-0.0007508625276386738,-0.005597486160695553,0.0007527949055656791
1733862533508993800,3.027993896484375,-0.0031863232143223286,-0.004073625896126032,0.00040658400394022465
1733862533518945000,3.037945068359375,0.001015248242765665,-0.001476016128435731,-0.0007208425085991621
1733862533528895700,3.047895751953125,-0.0005152705125510693,0.0004664938896894455,0.0010158047080039978
1733862533538847000,3.057846923828125,0.000077791977673769,0.0025778147391974926,0.0031223983969539404
1733862533548798000,3.0677978515625,0.00016088224947452545,0.0035525315906852484,0.0032363818027079105
1733862533558749000,3.0777490234375,0.0016682734712958336,0.006010620854794979,0.0020405121613293886
1733862533568701000,3.087700927734375,0.0008847713470458984,0.006905443035066128,-0.0016708691837266088
1733862533578652000,3.09765185546875,0.000521551351994276,0.00890619307756424,0.00044539140071719885
1733862533588603100,3.10760302734375,0.00039824703708291054,0.011087854392826557,-0.0007311932276934385
1733862533598553900,3.117553955078125,-0.0005828258581459522,0.012416688725352287,0.001689466997049749
1733862533608505000,3.127505126953125,-0.0015807123854756355,0.01077431719750166,0.0011456494685262442
1733862533618455800,3.137455810546875,-0.0012074343394488096,0.011444862931966782,0.004067027010023594
1733862533628407000,3.147406982421875,-0.000206884928047657,0.014790859073400497,0.003176731988787651
1733862533638358800,3.15735888671875,0.00031206849962472916,0.015418969094753265,0.003012486267834902
1733862533648310000,3.16731005859375,0.0004409654065966606,0.013139568269252777,0.001940830028615892
1733862533658260700,3.1772607421875,0.00006243167445063591,0.0055236914195120335,0.0010682663414627314
1733862533668212000,3.1872119140625,0.0014845593832433224,-0.0014876129571348429,-0.001228709938004613
1733862533678162700,3.19716259765625,0.0011476073414087296,-0.003043286269530654,-0.0017496217042207718
1733862533688114000,3.207114013671875,0.0003364086151123047,-0.004673140123486519,-0.0033331371378153563
1733862533698065000,3.21706494140625,-0.0003011696971952915,-0.0056542083621025085,-0.002109604189172387
1733862533708017000,3.227016845703125,-0.0015640405472368002,-0.00626513734459877,-0.0030307916458696127
1733862533717968000,3.2369677734375,0.0008626319468021393,-0.0035804046783596277,-0.001618783688172698
1733862533727918800,3.2469189453125,0.0010395809076726437,-0.004776700399816036,-0.0021324739791452885
1733862533737870000,3.2568701171875,0.001427436713129282,-0.006973506882786751,-0.0028487511444836855
1733862533747820800,3.26682080078125,0.0020567416213452816,-0.010088339447975159,-0.002433564281091094
1733862533757772000,3.27677197265625,0.0014529279433190823,-0.011251519434154034,-0.0017482158727943897
1733862533767722800,3.28672265625,0.00175546295940876,-0.012090681120753288,-0.0028832550160586834
1733862533777675000,3.296675048828125,0.0007937103509902954,-0.009119883179664612,-0.0018698457861319184
1733862533787626000,3.3066259765625,-0.00020364345982670784,0.00011675851419568062,-0.0016354875406250358
1733862533797577000,3.316576904296875,-0.00024443119764328003,0.002881631487980485,-0.0006528194062411785
1733862533807528000,3.32652783203125,0.0003894013352692127,0.00548886600881815,-0.0007201973348855972
1733862533817479000,3.33647900390625,-0.00020068371668457985,0.0030126748606562614,0.00001970201265066862
1733862533827430000,3.346429931640625,-0.00009202677756547928,-0.0011378617491573095,-0.000556606100872159
1733862533837380900,3.356380859375,-0.0010681101121008396,-0.00668522622436285,-0.00080348108895123
1733862533847332000,3.36633203125,0.0028483346104621887,-0.012144172564148903,-0.0037998035550117493
1733862533857283800,3.376283935546875,0.0012712590396404266,-0.01399809680879116,-0.00399953406304121
1733862533867235000,3.386235107421875,-0.0009748509619385004,-0.011506975628435612,-0.0031670299358665943
1733862533877185800,3.396185791015625,0.001877462025731802,-0.004528922028839588,-0.0007682109717279673
1733862533887137000,3.406136962890625,0.0019821240566670895,-0.0003895710688084364,-0.0009764702990651131
1733862533897087700,3.416087646484375,0.0005760025233030319,-0.00037136184982955456,0.00029967655427753925
1733862533907039000,3.4260390625,0.0007160850800573826,-0.0009178423788398504,0.00011192366946488619
1733862533916991000,3.435990966796875,0.0009020394645631313,-0.0018679921049624681,0.0005961674032732844
1733862533926942000,3.44594189453125,0.0006072279065847397,-0.0032200792338699102,0.000025984598323702812
1733862533936893000,3.455892822265625,0.00016789371147751808,-0.0033192778937518597,-0.0024205907247960567
1733862533946844000,3.465843994140625,0.0022246530279517174,-0.004827425815165043,-0.001591282314620912
1733862533956795000,3.475794921875,-0.001297040842473507,-0.004067437723278999,-0.0027898449916392565
1733862533966745900,3.485745849609375,0.0001237555406987667,-0.0065377866849303246,-0.0038463210221379995
1733862533976697000,3.495697021484375,0.00007200799882411957,-0.00468168780207634,-0.0011427670251578093
1733862533986647800,3.505647705078125,0.0011266199871897697,-0.003944259136915207,-0.00048683048225939274
1733862533996599800,3.515599853515625,0.0005534607917070389,-0.006042251363396645,-0.001486811088398099
1733862534006551000,3.525551025390625,-0.000340296421200037,-0.0059556979686021805,-0.0025342325679957867
1733862534016502000,3.535501953125,0.0002492982894182205,-0.004111014306545258,0.0012100194580852985
1733862534026453000,3.545452880859375,-0.0009161010384559631,-0.002635357202962041,0.0021852690260857344
1733862534036404000,3.555404052734375,0.0003434177488088608,-0.00039068423211574554,0.0015521340537816286
1733862534046355000,3.56535498046875,-0.0006901549641042948,0.006078667007386684,0.0013862191699445248
1733862534056306000,3.575305908203125,0.0009634634479880333,0.00483337277546525,0.0020684199407696724
1733862534066258000,3.5852578125,0.0019725351594388485,0.00035713170655071735,0.0002950209891423583
1733862534076209000,3.595208984375,0.0003168368712067604,-0.0044637578539550304,-0.00012731668539345264
1733862534086160000,3.605159912109375,-0.00018969643861055374,-0.005845405627042055,-0.0002277179155498743
1733862534096110800,3.61511083984375,-0.0004770674277096987,-0.009178881533443928,-0.0001811259426176548
1733862534106061800,3.625061767578125,0.0002124249003827572,-0.011161338537931442,0.0006697539938613772
1733862534116012800,3.6350126953125,0.0010234033688902855,-0.010494653135538101,-0.001374253537505865
1733862534125964000,3.644964111328125,0.0014425846748054028,-0.008663464337587357,-0.0014714589342474937
1733862534135916000,3.654916015625,0.0011208606883883476,-0.008272606879472733,-0.0016528823180124164
1733862534145866800,3.66486669921875,0.002551244106143713,-0.00801401399075985,-0.0015756507636979222
1733862534155818000,3.67481787109375,-0.00048551266081631184,-0.009432762861251831,-0.0010102293454110622
1733862534165769000,3.68476904296875,0.002366200089454651,-0.009719319641590118,-0.0013093024026602507
1733862534175720000,3.694719970703125,0.0016346676275134087,-0.009493431076407433,-0.002463266719132662
1733862534185671000,3.7046708984375,0.0007571559399366379,-0.008837761357426643,-0.0027295826002955437
1733862534195623000,3.714622802734375,0.0021071922965347767,-0.00666671060025692,-0.0027558407746255398
1733862534205575000,3.724574951171875,0.0009276783093810081,-0.0040528178215026855,-0.0016804564511403441
1733862534215526000,3.73452587890625,0.0013824161142110825,-0.005525065585970879,-0.00038642529398202896
1733862534225476900,3.744476806640625,-0.0009731496684253216,-0.008860141970217228,0.0005067988531664014
1733862534235427800,3.754427734375,-0.0018202436622232199,-0.008275803178548813,-0.00005735177546739578
1733862534245379000,3.764379150390625,0.000524669885635376,-0.009079812094569206,-0.0015521841123700142
1733862534255329800,3.774329833984375,0.000898431520909071,-0.009537283331155777,-0.0026740364264696836
1733862534265281000,3.784281005859375,0.0042351060546934605,-0.008462431840598583,-0.004004817456007004
1733862534275231700,3.794231689453125,0.002007939387112856,-0.009227396920323372,-0.0026229340583086014
1733862534285184000,3.80418408203125,0.00012455228716135025,-0.011460456997156143,-0.0019211911130696535
1733862534295135000,3.814135009765625,-0.0005383463576436043,-0.0011289268732070923,0.0015624002553522587
1733862534305086000,3.8240859375,-0.00017642276361584663,0.009550083428621292,0.0016028803074732423
1733862534315037000,3.834036865234375,-0.0006882755551487207,0.011190980672836304,0.001091402256861329
1733862534324988000,3.84398779296875,-0.00177431246265769,0.007496644277125597,0.001471701543778181
1733862534334939000,3.85393896484375,-0.001232322072610259,0.00024168984964489937,-0.0007280523423105478
1733862534344889900,3.863889892578125,0.00040978286415338516,-0.005794364959001541,-0.0020415233448147774
1733862534354841900,3.873841796875,0.002499272581189871,-0.008174360729753971,-0.003817396704107523
1733862534364792800,3.883792724609375,0.00046887854114174843,-0.011768030934035778,-0.0038703936152160168
1733862534374744000,3.893744140625,0.0022138794884085655,-0.009051564149558544,-0.0030069565400481224
1733862534384694800,3.90369482421875,0.00020905211567878723,-0.005458427593111992,-0.0022812453098595142
1733862534394646000,3.91364599609375,0.002096623182296753,-0.005154210142791271,-0.003677807282656431
1733862534404596700,3.9235966796875,-0.00015241652727127075,-0.0034306119196116924,-0.0005227602086961269
1733862534414548000,3.9335478515625,-0.00201695179566741,-0.003239748068153858,-0.0005474237259477377
1733862534424500000,3.9435,-0.0008363726083189249,-0.0006357091479003429,0.001602546195499599
1733862534434451000,3.953450927734375,-0.00027530454099178314,0.002778711961582303,0.00007934798486530781
1733862534444402000,3.96340185546875,-0.000724579906091094,0.004689263645559549,0.0023014897014945745
1733862534454353000,3.973352783203125,-0.0005606287159025669,0.006766463629901409,0.002906679641455412
1733862534464303900,3.983303955078125,-0.000948385102674365,0.007654361426830292,0.0019737742841243744
1733862534474254800,3.9932548828125,-0.00024408195167779922,0.00670226477086544,0.0023319099564105272
1733862534484206000,4.0032060546875,-0.00004407856613397598,0.0060583120211958885,0.0003491865936666727
1733862534494158000,4.013157958984375,-0.000573260709643364,0.005607255268841982,0.0022752806544303894
1733862534504108800,4.02310888671875,0.00030238647013902664,0.005331618245691061,0.0014659459702670574
1733862534514060000,4.03306005859375,-0.00019212253391742706,0.004991757683455944,0.003351653227582574
1733862534524011000,4.043010986328125,-0.0013082532677799463,0.0051869675517082214,0.002223804360255599
1733862534533962000,4.0529619140625,-0.001551599008962512,0.008092371746897697,0.0018302635289728642
1733862534543913000,4.062912841796875,-0.0005284126382321119,0.007495025172829628,0.0016781969461590052
1733862534553864000,4.072864013671875,0.0007472587749361992,0.006840665824711323,0.000019541941583156586
1733862534563816000,4.08281591796875,-0.0005912459455430508,0.005521335639059544,0.002540490124374628
1733862534573767000,4.092766845703125,0.0013734716922044754,0.003090747632086277,0.001060226932168007
1733862534583718000,4.1027177734375,-0.0014188527129590511,0.00000973651185631752,0.0004213346401229501
1733862534593668900,4.1126689453125,-0.0013214037753641605,0.0017479030648246408,0.0021226401440799236
1733862534603619800,4.122619873046875,-0.0018156864680349827,0.002825950738042593,0.0010672294301912189
1733862534613570800,4.13257080078125,-0.001032140338793397,0.0020939307287335396,0.00037975492887198925
1733862534623521800,4.142521728515625,-0.0002819281071424484,0.002268634270876646,-0.0005614061374217272
1733862534633473000,4.15247314453125,-0.00037441588938236237,0.0022504781372845173,-0.0006796924863010645
1733862534643425000,4.162425048828125,-0.00003086822107434273,0.0025370344519615173,0.0000010114163160324097
1733862534653375700,4.172375732421875,0.0005729151889681816,0.0024345903657376766,-0.00043912092223763466
1733862534663327000,4.182326904296875,-0.00015359511598944664,-0.001004083314910531,0.0003560989862307906
1733862534673278000,4.19227783203125,-0.0003434563986957073,-0.0019104867242276669,0.0014150736387819052
1733862534683229000,4.20222900390625,0.00012659141793847084,0.0006046025082468987,0.0017833886668086052
1733862534693180000,4.212179931640625,0.0007140487432479858,0.0010694290976971388,0.0004040622152388096
1733862534703131000,4.222130859375,-0.001243374776095152,0.0013754263054579496,-0.0002558690030127764
1733862534713083100,4.232083251953125,0.0007376736029982567,0.004964918363839388,0.0001259148120880127
1733862534723033900,4.242033935546875,0.00024259183555841446,0.007066685240715742,0.002382144797593355
1733862534732985000,4.251985107421875,0.000478498637676239,0.010746029205620289,0.0006503704935312271
1733862534742935800,4.261935791015625,-0.00008928729221224785,0.01024375669658184,-0.00019012321718037128
1733862534752887000,4.271886962890625,0.0005637854337692261,0.0072511835023760796,0.00109089573379606
1733862534762837800,4.281837646484375,-0.0009004203602671623,0.007005906198173761,0.00156041095033288
1733862534772789000,4.2917890625,-0.0017918343655765057,0.004167771432548761,0.0031612711027264595
1733862534782740700,4.30174072265625,-0.0003249654546380043,0.0035890666767954826,0.001297324663028121
1733862534792692000,4.31169189453125,0.0011051027104258537,0.006958820391446352,0.0013885557418689132
1733862534802643000,4.321642822265625,-0.00008426466956734657,0.008666438981890678,0.0004298178246244788
1733862534812594000,4.331593994140625,0.000005550216883420944,0.00929691456258297,0.0017916826764121652
1733862534822545000,4.341544921875,-0.0006719578523188829,0.005323212593793869,0.0014409443829208612
1733862534832495900,4.351495849609375,-0.0012065805494785309,0.003306337632238865,0.004408390261232853
1733862534842446800,4.36144677734375,-0.00037540774792432785,-0.0011890782043337822,0.002641915576532483
1733862534852398800,4.37139892578125,-0.0008986836764961481,-0.00378805142827332,-0.0005954587832093239
1733862534862350000,4.38135009765625,-0.00007603317499160767,-0.003525197273120284,0.00002479134127497673
1733862534872300800,4.39130078125,0.001311207190155983,-0.0011505817528814077,0.0005396171472966671
1733862534882252000,4.401251953125,0.0008528772741556168,0.00168648362159729,-0.001064671203494072
1733862534892202800,4.41120263671875,-0.000135782640427351,0.0033883892465382814,0.00023255636915564537
1733862534902154000,4.421154052734375,0.0012972643598914146,0.002161737298592925,0.0011532111093401909
1733862534912105000,4.43110498046875,0.0003170599229633808,-0.0005813576281070709,0.0018191580893471837
1733862534922057000,4.441056884765625,0.0006752549670636654,-0.0030557005666196346,0.0010428467066958547
1733862534932008000,4.451008056640625,0.0024675284512341022,-0.004349242430180311,-0.0010845300275832415
1733862534941959000,4.460958984375,0.00097962049767375,-0.0031745214946568012,-0.00009942683391273022
1733862534951910100,4.47091015625,-0.0011922232806682587,-0.0027765624690800905,-0.0003429185599088669
1733862534961860900,4.48086083984375,0.000737236812710762,0.0009670432191342115,0.0012347381561994553
1733862534971812000,4.49081201171875,0.0003287545405328274,0.004940725397318602,0.0018295712070539594
1733862534981762800,4.5007626953125,0.0015705865807831287,0.009000448510050774,0.000046052271500229836
1733862534991715000,4.510715087890625,0.0002730381675064564,0.006926168687641621,-0.0004492898005992174
1733862535001665800,4.520665771484375,0.00004507135599851608,0.003525045933201909,-0.00003303750418126583
1733862535011617000,4.530616943359375,-0.000725453719496727,0.003884477075189352,-0.00005779066123068333
1733862535021567700,4.540567626953125,0.0011478136293590069,0.0021507591009140015,0.00048362999223172665
1733862535031519000,4.55051904296875,-0.0007185579743236303,0.0015251797158271074,-0.0006881665904074907
1733862535041469700,4.5604697265625,0.001447390764951706,-0.0005496889352798462,-0.0014048230368644
1733862535051421000,4.5704208984375,-0.0008313553407788277,-0.001557926181703806,-0.0014886597637087107
1733862535061373000,4.580373046875,0.0011878535151481628,0.00038165412843227386,-0.0003775889053940773
1733862535071324000,4.590323974609375,-0.0005417091306298971,0.0034448483493179083,-0.003012284869328141
1733862535081275000,4.60027490234375,0.00006575789302587509,0.0031500363256782293,-0.00024312990717589855
1733862535091225900,4.610225830078125,0.001217696350067854,0.003904246026650071,0.00019759463611990213
1733862535101177000,4.620177001953125,-0.0006262762472033501,0.0028994353488087654,0.0016897638561204076
1733862535111127800,4.6301279296875,0.0009212535806000233,0.0020415696781128645,0.0026148036122322083
1733862535121079000,4.6400791015625,0.0019164769910275936,0.0009952136315405369,0.0016813657712191343
1733862535131030800,4.65003076171875,0.00037205126136541367,-0.0003585123922675848,0.0014835807960480452
1733862535140982000,4.65998193359375,-0.00036537786945700645,-0.000582750653848052,-0.0006645249668508768
1733862535150933000,4.66993310546875,-0.0007209517061710358,0.002895145444199443,0.0020100795663893223
1733862535160884000,4.679884033203125,-0.0009087047073990107,0.0030283036176115274,0.0017016853671520948
1733862535170835000,4.6898349609375,-0.0002318187616765499,0.00572649110108614,0.0032328208908438683
1733862535180786000,4.699785888671875,-0.001262195874005556,0.0055483253672719,0.000581111409701407
1733862535190737000,4.70973681640625,0.00030107563361525536,0.007963000796735287,-0.000027253292500972748
1733862535200685300,4.719685302734375,-0.0007724442984908819,0.006320362910628319,0.001182620762847364
1733862535210637300,4.72963720703125,0.0008282512426376343,0.002129262313246727,-0.001546936109662056
1733862535220588500,4.739588623046875,0.0006934953853487968,0.0037311536725610495,0.0010451185517013073
1733862535230539300,4.749539306640625,-0.00038563506677746773,0.006965651176869869,-0.0006052046082913876
1733862535240490500,4.759490478515625,0.00023834360763430595,0.007906812243163586,0.0016113442834466696
1733862535250441200,4.769441162109375,0.0004673069342970848,0.007863664999604225,0.0004270225763320923
1733862535260392400,4.779392333984375,0.00012668874114751816,0.00822026189416647,0.002249423647299409
1733862535270343400,4.789343505859375,-0.0011259145103394985,0.009085322730243206,0.001635227003134787
1733862535280295400,4.79929541015625,-0.0002651805989444256,0.006188336294144392,0.001194473821669817
1733862535290246400,4.809246337890625,-0.0013285977765917778,0.004780997987836599,0.002100735204294324
1733862535300197400,4.819197265625,-0.00019835215061903,0.005927222315222025,-0.0010473874863237143
1733862535310148400,4.8291484375,-0.0006208887789398432,0.0036357068456709385,0.0018400931730866432
1733862535320099300,4.839099365234375,-0.00039611803367733955,0.003636505687609315,0.00001156679354608059
1733862535330050600,4.849050537109375,0.0013937298208475113,0.00829366035759449,0.0019263114081695676
1733862535340001300,4.859001220703125,-0.00141191016882658,0.009443879127502441,0.0005952634382992983
1733862535349953500,4.86895361328125,-0.000885852612555027,0.010919122025370598,0.0019767878111451864
1733862535359904300,4.878904296875,-0.0009875854011625051,0.011345228180289268,0.0020771888084709644
1733862535369855500,4.88885546875,0.00041997944936156273,0.012867478653788567,0.00280911847949028
1733862535379806200,4.89880615234375,-0.00043409643694758415,0.012926068156957626,0.0011672797845676541
1733862535389757400,4.90875732421875,-0.000576843973249197,0.013923180289566517,0.0024358585942536592
1733862535399708200,4.918708251953125,-0.00251988647505641,0.013856069184839725,0.0038585192523896694
1733862535409659400,4.928659423828125,-0.0005960327107459307,0.011848608031868935,0.001346680335700512
1733862535419611400,4.938611328125,-0.00038031674921512604,0.011617712676525116,0.0012465454638004303
1733862535429562400,4.948562255859375,-0.002656741999089718,0.010556750930845737,0.0010700277052819729
1733862535439513300,4.958513427734375,-0.0010979939252138138,0.01391579583287239,0.0013885416556149721
1733862535449464300,4.96846435546875,-0.0008524197619408369,0.012963779270648956,0.004767951555550098
1733862535459415600,4.97841552734375,-0.0018588283564895391,0.015499108470976353,0.004055555909872055
1733862535469366300,4.9883662109375,-0.0006317102815955877,0.016634518280625343,0.0034235352650284767
1733862535479317500,4.9983173828125,-0.0010341138113290071,0.0130357900634408,0.0002549061318859458
1733862535489269200,5.008269287109375,0.00026929937303066254,0.007075783796608448,-0.00034420343581587076
1733862535499220500,5.018220458984375,0.0015910263173282146,0.001275419257581234,-0.0018499548314139247
1733862535509171500,5.02817138671875,-0.0016078129410743713,-0.003306817961856723,0.00047336239367723465
1733862535519122400,5.038122314453125,0.00041512446478009224,-0.00030463654547929764,0.0007641795091331005
1733862535529073400,5.048073486328125,-0.0011382766533643007,0.003132645972073078,0.0022475402802228928
1733862535539024400,5.0580244140625,0.0007331268861889839,0.005569172091782093,0.0004930498544126749
1733862535548975400,5.067975341796875,-0.0017129536718130112,0.006981317885220051,-0.0003805651795119047
1733862535558927400,5.07792724609375,-0.00003782520070672035,0.007313679903745651,0.00008415651973336935
1733862535568878300,5.08787841796875,-0.0019347292836755514,0.007135927677154541,0.0023328412789851427
1733862535578829300,5.097829345703125,-0.00058024562895298,0.006589446682482958,0.004063629545271397
1733862535588780300,5.1077802734375,-0.0008288112003356218,0.006602924317121506,0.0039335279725492
1733862535598731300,5.117731201171875,-0.0001611565239727497,0.006043127737939358,0.002894628793001175
1733862535608682500,5.1276826171875,-0.0006913086399435997,0.006771116051822901,0.003686415497213602
1733862535618633200,5.13763330078125,-0.00009715743362903595,0.007160469889640808,0.002323942258954048
1733862535628585200,5.147585205078125,0.001856185495853424,0.008493340574204922,0.002909853123128414
1733862535638536400,5.157536376953125,-0.0009262850508093834,0.011006565764546394,0.0016669558826833963
1733862535648487400,5.1674873046875,-0.00099316262640059,0.013374052941799164,0.0010546342236921191
1733862535658438400,5.1774384765625,-0.0009311109315603971,0.013301881030201912,0.0035952897742390633
1733862535668389400,5.187389404296875,0.00020422087982296944,0.015165070071816444,0.0029164948500692844
1733862535678340400,5.19734033203125,-0.0003318735398352146,0.015526195988059044,0.0032089101150631905
1733862535688291300,5.207291259765625,-0.0008968831971287727,0.013131622225046158,0.003047030884772539
1733862535698243300,5.217243408203125,-0.000542948953807354,0.012821097858250141,0.0021836338564753532
1733862535708194300,5.2271943359375,0.00001568533480167389,0.01152502465993166,0.0026245105545967817
1733862535718145300,5.237145263671875,0.0005136965773999691,0.012205994687974453,0.0036399737000465393
1733862535728096500,5.247096435546875,-0.00019441917538642883,0.012736291624605656,0.001981714041903615
1733862535738047500,5.257047607421875,-0.0012077521532773972,0.010612687095999718,0.0012836996465921402
1733862535747998500,5.26699853515625,-0.0012276978231966496,0.008375303819775581,0.0003846503095701337
1733862535757949400,5.276949462890625,-0.0010229006875306368,0.008861863054335117,-0.00004784704651683569
1733862535767900400,5.286900390625,-0.0006275470368564129,0.010502037592232227,0.0002300146734341979
1733862535777852400,5.296852294921875,-0.0004845352377742529,0.005957352928817272,0.002015664242208004
1733862535787803400,5.306803466796875,-0.0010960835497826338,0.00046489154919981956,0.0016900055343285203
1733862535797754400,5.31675439453125,0.000956414733082056,-0.0008762760553508997,-0.0001070954604074359
1733862535807705300,5.326705322265625,-0.0003254953771829605,-0.002973186783492565,0.0005107916658744216
1733862535817656300,5.33665625,-0.000024291686713695526,-0.0004658205434679985,-0.0014034885680302978
1733862535827607300,5.346607177734375,0.00037904223427176476,0.0010405464563518763,0.0006304290145635605
1733862535837558300,5.356558349609375,-0.00047929445281624794,0.006337840110063553,0.0018506894120946527
1733862535847510300,5.36651025390625,-0.0007801936008036137,0.008273686282336712,0.0024523294996470213
1733862535857461500,5.37646142578125,0.000029940158128738403,0.008570096455514431,0.0003066206118091941
1733862535867412200,5.386412109375,-0.001129521057009697,0.009269285947084427,0.0021040597930550575
1733862535877363500,5.396363525390625,-0.001296501373872161,0.009002436883747578,0.0006664854008704424
1733862535887314400,5.406314453125,-0.00028656190261244774,0.00930079072713852,0.0027014780789613724
1733862535897265400,5.416265380859375,0.0008439496159553528,0.010312259197235107,0.0012652353616431355
1733862535907216400,5.42621630859375,-0.00015871739014983177,0.013267260044813156,0.001999177737161517
1733862535917168400,5.43616845703125,-0.001403212547302246,0.015551453456282616,0.002837274456396699
1733862535927119400,5.446119384765625,-0.0014684346970170736,0.01687484234571457,0.0017166462494060397
1733862535937070300,5.4560703125,-0.0010639005340635777,0.017207736149430275,0.0015174418222159147
1733862535947021600,5.466021484375,-0.002634916454553604,0.01692858710885048,0.00309642031788826
1733862535956972300,5.47597216796875,-0.0001350073143839836,0.015125894919037819,0.003570463042706251
1733862535966923500,5.485923583984375,0.0007897154428064823,0.013596943579614162,0.0030831899493932724
1733862535976874200,5.495874267578125,-0.0022769144270569086,0.0118986451998353,0.0017228474607691169
1733862535986826500,5.505826416015625,0.0004557427018880844,0.010544794611632824,-0.000028527923859655857
1733862535996777200,5.515777099609375,-0.0007527999114245176,0.010842269286513329,0.0014207642525434494
1733862536006728400,5.525728515625,0.001164879184216261,0.010256556794047356,0.0017335133161395788
1733862536016679200,5.53567919921875,-0.00028760917484760284,0.010229924693703651,0.0018477628473192453
1733862536026630400,5.54563037109375,-0.0013280035927891731,0.010702332481741905,0.0023126844316720963
1733862536036581400,5.555581298828125,0.00002221902832388878,0.007938770577311516,0.0032977876253426075
1733862536046532400,5.565532470703125,0.0009517394937574863,0.005569043569266796,0.0017818078631535172
1733862536056484400,5.575484375,-0.0017396509647369385,0.0037692789919674397,0.0003343798452988267
1733862536066435300,5.585435302734375,-0.002238535089418292,0.0028281807899475098,0.0015510895755141973
1733862536076386600,5.595386474609375,-0.0001969556324183941,0.0026369658298790455,0.002038181759417057
1733862536086337300,5.605337158203125,-0.0004903723020106554,0.0024791681207716465,0.0010397997684776783
1733862536096288500,5.61528857421875,-0.0015196839813143015,0.001813377719372511,0.0013561833184212446
1733862536106239200,5.6252392578125,0.0005179913714528084,0.003712412901222706,0.0009806586895138025
1733862536116190500,5.6351904296875,0.00031692255288362503,0.005865312181413174,0.0029934756457805634
1733862536126142200,5.64514208984375,-0.0003295624628663063,0.006609607487916946,0.0037845103070139885
1733862536136093400,5.655093505859375,-0.0006408859044313431,0.005841551814228296,0.0010371934622526169
1733862536146044200,5.665044189453125,-0.00034778518602252007,0.00825711153447628,0.0016693775542080402
1733862536155995400,5.674995361328125,-0.002455144189298153,0.0023576770909130573,0.0013082529185339808
1733862536165946400,5.6849462890625,0.00011014286428689957,-0.0024915041867643595,0.0007062951917760074
1733862536175897300,5.6948974609375,0.0011849948205053806,-0.003388989483937621,-0.0003477840218693018
1733862536185848600,5.7048486328125,-0.0005895791109651327,-0.0011060233227908611,-0.0009026372572407126
1733862536195804200,5.71480419921875,0.0007372079417109489,-0.0008905739523470402,0.0008081774576567113
1733862536205755100,5.724755126953125,0.0012431950308382511,-0.0019626214634627104,0.0009292135364376009
1733862536215706000,5.7347060546875,0.00040057068690657616,-0.0016912452410906553,0.0014988636830821633
1733862536225657300,5.7446572265625,0.0005792812444269657,-0.0028920944314450026,-0.0023613034281879663
1733862536235608000,5.754608154296875,0.00009085750207304955,-0.005250856280326843,-0.0036135215777903795
1733862536245559300,5.764559326171875,-0.001161147840321064,-0.011010033078491688,-0.0016827229410409927
1733862536255510000,5.774510009765625,-0.000988308573141694,-0.012985032983124256,-0.0011716624721884727
1733862536265462300,5.784462158203125,0.00038987724110484123,-0.010591117665171623,-0.00009654427412897348
1733862536275413000,5.7944130859375,0.00017058709636330605,-0.009329169988632202,0.0007648608298040926
1733862536285364200,5.8043642578125,-0.00033996719866991043,-0.0076176077127456665,0.0006327299633994699
1733862536295315000,5.81431494140625,-0.0004978924989700317,-0.0032476268243044615,-0.00004477822221815586
1733862536305266200,5.82426611328125,0.0007794182747602463,-0.0010164303239434958,-0.0006226369878277183
1733862536315217000,5.834216796875,-0.00010022381320595741,0.0006717476062476635,0.0015710089355707169
1733862536325168000,5.844168212890625,-0.001254782546311617,0.0022232718765735626,0.0014625631738454103
1733862536335119000,5.854119140625,-0.0008499820251017809,0.0013473581057041883,0.0012247429694980383
1733862536345071000,5.864071044921875,-0.0010938786435872316,-0.0003653625026345253,-0.0008437972282990813
1733862536355022000,5.87402197265625,-0.00024193339049816132,0.00030575389973819256,0.00015835021622478962
1733862536364973000,5.88397314453125,-0.00043933046981692314,-0.0010551782324910164,0.0016597291687503457
1733862536374924300,5.89392431640625,0.0011987797915935516,-0.002213386818766594,-0.0020252868998795748
1733862536384875000,5.903875,0.0023061567917466164,-0.00260329432785511,-0.0009805943118408322
1733862536394826200,5.913826171875,0.0019511571153998375,-0.0032720142044126987,-0.0001566122518852353
1733862536404777000,5.92377685546875,-0.000782219460234046,-0.005570714361965656,-0.0026585664600133896
1733862536414729200,5.933729248046875,0.0004524220712482929,-0.004827692173421383,-0.0013163330731913447
1733862536424680200,5.94368017578125,-0.00021931156516075134,-0.007936395704746246,-0.0004198699025437236
1733862536434631200,5.953631103515625,0.001061935443431139,-0.007714021485298872,-0.0004425066290423274
1733862536444582100,5.96358203125,0.0019688010215759277,-0.00905742309987545,-0.0013880260521546006
1733862536454533000,5.973533203125,0.0005464064888656139,-0.005178263410925865,-0.0030831280164420605
1733862536464484000,5.983484130859375,0.0012907711789011955,-0.006423620041459799,0.0013783411122858524
1733862536474435000,5.99343505859375,-0.00038009602576494217,-0.0021985149942338467,-0.0025303803849965334
1733862536484387000,6.003386962890625,0.001877826638519764,-0.0014610199723392725,-0.002067707711830735
1733862536494338000,6.013338134765625,-0.0005512423813343048,-0.004962810315191746,-0.0018306863494217396
1733862536504289000,6.0232890625,0.0011715474538505077,-0.01002638228237629,-0.0038391686975955963
1733862536514240000,6.033239990234375,0.0003177383914589882,-0.0103310476988554,-0.0027691107243299484
1733862536524191200,6.043191162109375,0.0002189837396144867,-0.009468229487538338,-0.004191813059151173
1733862536534142000,6.053141845703125,0.0011263228952884674,-0.009308439679443836,-0.0037971327546983957
1733862536544093200,6.06309326171875,0.00018650759011507034,-0.010812712833285332,-0.0034807478077709675
1733862536554045200,6.073045166015625,0.0025109145790338516,-0.009366350248456001,-0.002343045547604561
1733862536563996200,6.08299609375,0.001824178732931614,-0.009035339578986168,-0.003116465639322996
1733862536573947100,6.092947021484375,0.0017677200958132744,-0.007840380072593689,-0.0020064599812030792
1733862536583898000,6.102898193359375,0.0009352113120257854,-0.007626074831932783,-0.0010487084509804845
1733862536593849000,6.11284912109375,-0.0007260688580572605,-0.004922166932374239,0.0007332126260735095
1733862536603800000,6.122800048828125,0.0006611025892198086,-0.0033727444242686033,-0.0006499987794086337
1733862536613751300,6.132751220703125,0.0012360787950456142,-0.0025809865910559893,-0.000018030754290521145
1733862536623703000,6.142703125,0.0005462034605443478,0.00029184180311858654,0.00003295321948826313
1733862536633654000,6.152654052734375,0.0002604462206363678,0.0015144990757107735,-0.00028902292251586914
1733862536643605200,6.162605224609375,0.0007245452143251896,0.0017523054266348481,-0.00010073627345263958
1733862536653556200,6.17255615234375,-0.00045203929767012596,-0.0010128547437489033,-0.001446697860956192
1733862536663507200,6.182507080078125,-0.00032011233270168304,-0.002611557487398386,-0.0005026297876611352
1733862536673458200,6.192458251953125,-0.00023888610303401947,-0.0029183533042669296,0.00005796551704406738
1733862536683409200,6.2024091796875,0.000618587713688612,-0.005056051537394524,-0.0004042030777782202
1733862536693361200,6.212361083984375,-0.0006775727961212397,-0.0038722767494618893,-0.0011139356065541506
1733862536703312100,6.22231201171875,0.0014885053969919682,-0.003517865901812911,-0.0009599904296919703
1733862536713263000,6.23226318359375,0.0000685080885887146,-0.004930140450596809,-0.000512312981300056
1733862536723214000,6.242214111328125,0.0007751919329166412,-0.004958203062415123,-0.0024490186478942633
1733862536733165000,6.2521650390625,0.0008231289684772491,-0.0059606172144412994,-0.0018245074898004532
1733862536743116000,6.262115966796875,0.0005355062894523144,-0.003973287530243397,-0.0012979282764717937
1733862536753067000,6.27206689453125,0.0013616187497973442,-0.0029775311704725027,-0.0006691558519378304
1733862536763019000,6.28201904296875,0.0007802164182066917,-0.0018973613623529673,-0.00004288391210138798
1733862536772970200,6.29197021484375,0.0007810154929757118,-0.0050915563479065895,0.0006695116171613336
1733862536782921000,6.3019208984375,0.0006934059783816338,-0.005222680978477001,-0.0001480414066463709
1733862536792872200,6.3118720703125,-0.0008333844598382711,-0.006022161804139614,-0.0030167982913553715
1733862536802823200,6.3218232421875,0.0013281567953526974,-0.011147962883114815,-0.0031470321118831635
1733862536812774100,6.331774169921875,0.0006644967943429947,-0.012606043368577957,-0.0031158733181655407
1733862536822725000,6.34172509765625,0.0016245418228209019,-0.016250519081950188,-0.003529079258441925
1733862536832677000,6.351677001953125,0.0008562197908759117,-0.017485693097114563,-0.003615099471062422
1733862536842628000,6.361628173828125,0.0021514594554901123,-0.01736478880047798,-0.002418952528387308
1733862536852579000,6.3715791015625,0.0017487891018390656,-0.014949035830795765,-0.001426392118446529
1733862536862530300,6.3815302734375,0.000722026452422142,-0.011517279781401157,-0.0014938715612515807
1733862536872481000,6.39148095703125,-0.00004203431308269501,-0.006558740511536598,-0.0009655003668740392
1733862536882432300,6.401432373046875,-0.00009282398968935013,-0.0013041626662015915,-0.0012929695658385754
1733862536892383000,6.411383056640625,0.00013887090608477592,0.003805111860856414,0.0005917494418099523
1733862536902335200,6.421335205078125,0.0014910460449755192,0.0057481261901557446,0.0004598918603733182
1733862536912286000,6.431285888671875,-0.001389695331454277,0.0028913533315062523,0.0003714748891070485
1733862536922237200,6.4412373046875,-0.0002661608159542084,0.0000024829059839248657,-0.00006266625132411718
1733862536932188200,6.451188232421875,0.0005461033433675766,0.0003162031061947346,-0.00023364124353975058
1733862536942139100,6.46113916015625,0.0004936493933200836,0.0004341602325439453,0.000333576463162899
1733862536952090000,6.471090087890625,0.0005114921368658543,0.000549741555005312,0.00009256030898541212
1733862536962041000,6.481041015625,-0.0009308622684329748,0.00453492347151041,0.0002364619867876172
1733862536971993000,6.4909931640625,0.00040338141843676567,0.006781832315027714,-0.0003699397202581167
1733862536981944000,6.500944091796875,-0.002106832806020975,0.005757312756031752,0.00014955282676964998
1733862536991895300,6.510895263671875,-0.0010905705858021975,0.0023961372207850218,-0.0011548635084182024
1733862537001846000,6.520845947265625,-0.00018885359168052673,-0.0021997217554599047,-0.0003864193568006158
1733862537011797200,6.53079736328125,-0.0007939236238598824,-0.006701529026031494,-0.0005510026821866632
1733862537021748000,6.540748046875,-0.002289453987032175,-0.009883787482976913,-0.0010646841255947948
1733862537031699200,6.55069921875,0.0006623938679695129,-0.007508781272917986,-0.0009733376791700721
1733862537041650200,6.560650146484375,0.0016469918191432953,-0.00578979542478919,0.0022949394769966602
1733862537051602200,6.570602294921875,0.00042486703023314476,-0.004590574186295271,0.0006602912908419967
1733862537061553000,6.580552978515625,-0.0005407200660556555,-0.006294660270214081,-0.0011067972518503666
1733862537071504100,6.590504150390625,0.0006981822662055492,-0.006265099160373211,-0.0014636607374995947
1733862537081455000,6.600455078125,0.0005591255612671375,-0.004529804456979036,-0.0011018322547897696
1733862537091406000,6.610406005859375,-0.00001185620203614235,-0.004833670798689127,-0.001147905015386641
1733862537101357300,6.620357421875,0.00048540346324443817,-0.0030323369428515434,-0.0005684049101546407
1733862537111308000,6.63030810546875,-0.00029596826061606407,-0.0013287127949297428,-0.00018517591524869204
1733862537121260300,6.64026025390625,0.0021838704124093056,-0.0006695699412375689,0.0000042102765291929245
1733862537131211000,6.6502109375,-0.0001852777786552906,-0.0018181910272687674,-0.0004786208737641573
1733862537141162200,6.660162353515625,0.0006506079807877541,-0.0016209539026021957,0.0007933948654681444
1733862537151113000,6.670113037109375,0.0006580646149814129,0.0004970580339431763,-0.000041506136767566204
1733862537161064200,6.680064208984375,-0.0014450722374022007,-0.0006993799470365047,0.001957204658538103
1733862537171015000,6.690014892578125,0.00040129758417606354,0.0002455099020153284,-0.00017518841195851564
1733862537180966100,6.699966064453125,0.0009893779642879963,0.0006312129553407431,0.0004656814271584153
1733862537190918100,6.709918212890625,-0.0007091863080859184,0.002968935761600733,-0.0006163608049973845
1733862537200865000,6.719864990234375,0.0011456501670181751,0.0043035512790083885,-0.0009290901944041252
1733862537210816300,6.729816162109375,0.0007411162368953228,0.003965063486248255,0.001332466141320765
1733862537220767000,6.73976708984375,0.0007762978784739971,0.005307527258992195,0.00023501680698245764
1733862537230718200,6.74971826171875,-0.0009616811294108629,0.0035495744086802006,0.00016976927872747183
1733862537240669000,6.7596689453125,0.00036335457116365433,-0.000008718110620975494,-0.002154621994122863
1733862537250620200,6.7696201171875,-0.00015649432316422462,-0.0032638998236507177,-0.0013500810600817204
1733862537260572200,6.779572265625,-0.0012602615170180798,-0.0033308560959994793,-0.002097227144986391
1733862537270523100,6.789523193359375,0.001448705792427063,-0.005530361086130142,-0.0016325052129104733
1733862537280474000,6.79947412109375,-0.0002920152619481087,-0.00532588642090559,-0.0014837862690910697
1733862537290425000,6.809425048828125,-0.0019780625589191914,-0.004171671345829964,-0.001409483957104385
1733862537300376000,6.8193759765625,0.0008360906504094601,-0.0027674499433487654,-0.002367064356803894
1733862537310327000,6.8293271484375,0.00022622663527727127,-0.002905934350565076,-0.0012964734341949224
1733862537320278300,6.8392783203125,0.0013415939174592495,-0.0027784856501966715,-0.0016243929276242852
1733862537330230300,6.849230224609375,0.0012901951558887959,-0.0029446666594594717,-0.0007319677388295531
1733862537340181000,6.859180908203125,-0.0003482988104224205,-0.0024366641882807016,0.0006026455666869879
1733862537350132200,6.86913232421875,-0.0019800178706645966,0.000017172424122691154,0.0004601663677021861
1733862537360083200,6.879083251953125,-0.00047432887367904186,-0.0010470636188983917,0.002364030107855797
1733862537370034200,6.8890341796875,0.0011163773015141487,0.0013034422881901264,0.0010084810201078653
1733862537379985200,6.898985107421875,0.001246100291609764,0.0013876603916287422,0.0008263078052550554
1733862537389936000,6.90893603515625,-0.001317458227276802,0.0008824588730931282,0.00021750922314822674
1733862537399888100,6.91888818359375,0.0005818689242005348,0.0032065531704574823,0.000905778375454247
1733862537409839000,6.928839111328125,0.0004226118326187134,0.0022225151769816875,0.001233347225934267
1733862537419790000,6.9387900390625,0.0008018650114536285,0.0013050609268248081,0.0007124743424355984
1733862537429741000,6.948740966796875,0.0012428844347596169,0.0023146653547883034,-0.00014746049419045448
1733862537439692000,6.958692138671875,0.0013278527185320854,0.001052917679771781,0.001964183524250984
1733862537449643000,6.96864306640625,-0.0008423575200140476,0.0004569021984934807,0.000028065522201359272
1733862537459594000,6.978593994140625,0.0010164864361286163,0.0003142193891108036,0.000004565226845443249
1733862537469546000,6.9885458984375,0.00045242905616760254,0.0021520666778087616,-0.0002143465681001544
1733862537479497200,6.998497314453125,0.000028125010430812836,0.005427101626992226,0.0003027406055480242
1733862537489448200,7.0084482421875,-0.0004821366164833307,0.005699809640645981,0.0009189960546791553
1733862537499399200,7.018399169921875,-0.001185623463243246,0.004003413021564484,0.0016343924216926098
1733862537509350100,7.02835009765625,-0.0010135832708328962,0.0017405248945578933,-0.000756859895773232
1733862537519301000,7.038301025390625,0.0005358834750950336,-0.0006507064681500196,0.0003095566062256694
1733862537529252000,7.048252197265625,0.0013761105947196484,-0.0004802641924470663,0.0004903852241113782
1733862537539204000,7.0582041015625,-0.0004147067666053772,0.004801063798367977,0.0015869945054873824
1733862537549155300,7.0681552734375,0.0003885026089847088,0.007821355015039444,0.0007212008349597454
1733862537559106000,7.07810595703125,-0.0013556096237152815,0.008272151462733746,0.0029021757654845715
1733862537569057300,7.088057373046875,-0.0001497301273047924,0.00769664254039526,0.0022710065823048353
1733862537579008000,7.098008056640625,0.000023234635591506958,0.008308307267725468,0.0010343921603634953
1733862537588959200,7.107959228515625,-0.0009799781255424023,0.010443096980452538,-0.0004740222357213497
1733862537598910200,7.11791015625,0.00004510022699832916,0.013194660656154156,0.0019383677281439304
1733862537608862200,7.1278623046875,-0.0005618343129754066,0.013678823597729206,-0.001165812835097313
1733862537618813000,7.13781298828125,0.00009650690481066704,0.011446107178926468,0.0007636102382093668
1733862537628764200,7.14776416015625,-0.0012800809927284718,0.007557359524071217,0.0008738652104511857
1733862537638715100,7.157715087890625,0.00010083336383104324,0.009351085871458054,0.001045825076289475
1733862537648666000,7.167666015625,0.0002084248699247837,0.009510076604783535,-0.0002929458860307932
1733862537658617000,7.1776171875,0.0013373205438256264,0.007568486966192722,-0.00004163000266999006
1733862537668568000,7.187568115234375,0.00038603926077485085,0.0029993015341460705,0.0008816879708319902
1733862537678520300,7.197520263671875,0.00029782112687826157,-0.0013252226635813713,0.000956836505793035
1733862537688471000,7.207470947265625,0.0011873170733451843,-0.002462392207235098,0.00031847681384533644
1733862537698422300,7.21742236328125,-0.0002938946709036827,-0.004503914620727301,-0.00015582307241857052
1733862537708373000,7.227373046875,0.00026164064183831215,-0.0032612839713692665,-0.001136399107053876
1733862537718324200,7.23732421875,0.0006123469211161137,-0.00038977968506515026,0.00047863833606243134
1733862537728275000,7.24727490234375,0.00009782426059246063,0.0019324969034641981,-0.0013309797504916787
1733862537738226200,7.25722607421875,0.0002133524976670742,0.002399865537881851,0.00029309699311852455
1733862537748178000,7.267177978515625,-0.00028199562802910805,0.005132535006850958,0.0004899046616628766
1733862537758129200,7.277129150390625,0.000478528905659914,0.009077099151909351,0.0014961608685553074
1733862537768080100,7.287080078125,-0.001934028696268797,0.015421547926962376,0.002033320488408208
1733862537778031000,7.297031005859375,0.0013309642672538757,0.01617223583161831,0.005399356130510569
1733862537787982300,7.306982421875,-0.0007684053853154182,0.018121670931577682,0.0027654897421598434
1733862537797933000,7.31693310546875,-0.00036834273487329483,0.01858292892575264,0.0022196241188794374
1733862537807884300,7.32688427734375,-0.00041734473779797554,0.014763424172997475,0.0020499806851148605
1733862537817836000,7.3368359375,0.0003012120723724365,0.011907367035746574,-0.00015643646474927664
1733862537827787300,7.346787353515625,0.00016112951561808586,0.008818100206553936,0.0014499822864308953
1733862537837738000,7.356738037109375,0.001758561935275793,0.004757024347782135,0.001924952957779169
1733862537847689200,7.366689208984375,-0.0003573191352188587,0.005751715041697025,0.0018847392639145255
1733862537857640000,7.376639892578125,0.0005096630193293095,0.009026743471622467,0.001390407094731927
1733862537867591200,7.386591064453125,0.0004827650263905525,0.01310723926872015,0.0033230630215257406
1733862537877542100,7.396542236328125,-0.00023137079551815987,0.013896606862545013,0.0038387407548725605
1733862537887493000,7.4064931640625,-0.0009805180598050356,0.00857667624950409,0.000302861793898046
1733862537897445000,7.416445068359375,-0.00038531748577952385,0.0063877408392727375,0.0011201298329979181
1733862537907396000,7.42639599609375,-0.0018093094695359468,0.006356582045555115,0.002937471028417349
1733862537917347000,7.43634716796875,-0.0001816251315176487,0.005775767378509045,0.0016694357618689537
1733862537927298000,7.446298095703125,-0.0010732514783740044,0.010691696777939796,0.001938148750923574
1733862537937249300,7.456249267578125,-0.0014690607786178589,0.01293203141540289,0.0015739998780190945
1733862537947200000,7.466199951171875,0.0004327022470533848,0.014219669625163078,0.0018022328149527311
1733862537957151200,7.476151123046875,-0.00041686929762363434,0.010207126848399639,0.0007868678076192737
1733862537967103000,7.48610302734375,-0.0015939862933009863,0.009718703106045723,0.0007309414213523269
1733862537977054200,7.49605419921875,0.00015327008441090584,0.007260770536959171,0.0023775554727762938
1733862537987005200,7.506005126953125,0.0007615359500050545,0.0077681029215455055,0.002472097519785166
1733862537996956200,7.5159560546875,-0.0017171965446323156,0.00791463628411293,0.0030868886969983578
1733862538006907100,7.5259072265625,-0.0006066584028303623,0.00917138159275055,0.0029049948789179325
1733862538016858000,7.535858154296875,-0.0011358377523720264,0.011327888816595078,0.0036828648298978806
1733862538026809000,7.54580908203125,0.0008380971848964691,0.012051468715071678,0.0018644583178684115
1733862538036761000,7.555760986328125,-0.0009908052161335945,0.012842219322919846,0.001903050229884684
1733862538046712000,7.565712158203125,0.00022359611466526985,0.015007102862000465,0.002658589044585824
1733862538056663000,7.5756630859375,0.0006764507852494717,0.013933968730270863,0.002063799649477005
1733862538066614300,7.5856142578125,0.00030067889019846916,0.010133904404938221,0.0020864366088062525
1733862538076565000,7.59556494140625,-0.0009799252729862928,0.007579776458442211,0.0015518948202952743
1733862538086516200,7.60551611328125,0.0001146337017416954,0.006349928677082062,0.0005055388901382685
1733862538096467000,7.615467041015625,0.00042105279862880707,0.005330563522875309,0.0012575096916407347
1733862538106419200,7.625419189453125,0.0006271814927458763,0.004740673583000898,0.0009347345912829041
1733862538116370200,7.6353701171875,0.0007044184021651745,0.004075757693499327,0.0023837853223085403
1733862538126321200,7.645321044921875,-0.0002604448236525059,0.006656094454228878,0.002239441964775324
1733862538136272100,7.655272216796875,0.000513024628162384,0.00885048508644104,0.0010071916040033102
1733862538146223000,7.66522314453125,0.0004789363592863083,0.011936290189623833,0.002470864914357662
1733862538156174000,7.675174072265625,0.0016676015220582485,0.012661454267799854,0.003397536464035511
1733862538166125000,7.685125,-0.0002743755467236042,0.014191706664860249,0.0028396041598170996
1733862538176077000,7.6950771484375,-0.0021337345242500305,0.01431326661258936,0.0044952696189284325
1733862538186028000,7.705028076171875,-0.0005361041985452175,0.016308506950736046,0.004324028268456459
1733862538195979300,7.714979248046875,-0.00100572663359344,0.013683167286217213,0.005499965511262417
1733862538205930500,7.724930419921875,0.0002944287844002247,0.01342297624796629,0.003581157885491848
1733862538215881500,7.734881591796875,-0.0000029476359486579895,0.011380571871995926,0.0014464030973613262
1733862538225832400,7.74483251953125,-0.0005060187540948391,0.012080450542271137,0.0025311086792498827
1733862538235783400,7.754783447265625,-0.0018544606864452362,0.009058134630322456,0.0011534483637660742
1733862538245735400,7.7647353515625,-0.0028142640367150307,0.006386184599250555,-0.0008990499190986156
1733862538255686400,7.774686279296875,0.000007954426109790802,0.004072199109941721,-0.0008004073752090335
1733862538265637400,7.784637451171875,-0.001960387686267495,0.004769947379827499,-0.0017650044756010175
1733862538275588400,7.79458837890625,-0.0013029747642576694,0.0077697597444057465,0.001437074621208012
1733862538285539300,7.804539306640625,-0.0013461180496960878,0.013287829235196114,0.0020032627508044243
1733862538295490300,7.814490234375,-0.0013206098228693008,0.015195023268461227,0.004008772782981396
1733862538305441300,7.824441162109375,-0.0007400407921522856,0.018326368182897568,0.006295362953096628
1733862538315393500,7.8343935546875,-0.00029094936326146126,0.018220145255327225,0.0025952248834073544
1733862538325344300,7.84434423828125,0.00021398579701781273,0.014750045724213123,0.0022831023670732975
1733862538335295500,7.85429541015625,0.0013906010426580906,0.01424176711589098,0.0030666780658066273
1733862538345246200,7.86424609375,-0.002438758499920368,0.01165477279573679,0.002638175617903471
1733862538355197400,7.874197509765625,-0.0002850852906703949,0.009481409564614296,0.005556611344218254
1733862538365148400,7.8841484375,-0.0019759261049330235,0.007054470479488373,0.003539799712598324
1733862538375099400,7.894099365234375,-0.00021350709721446037,0.008556906133890152,0.005391329992562532
1733862538385051100,7.904051025390625,-0.0005551907233893871,0.010367856360971928,0.003407541196793318
1733862538395002400,7.91400244140625,-0.0018731229938566685,0.008671190589666367,0.004004002548754215
1733862538404953600,7.92395361328125,0.0007367748767137527,0.008021112531423569,0.002943265251815319
1733862538414904300,7.933904296875,-0.00014195870608091354,0.006702035665512085,0.0020582631696015596
1733862538424855600,7.94385546875,-0.0013222717680037022,0.0053768465295434,0.0019413504051044583
1733862538434806300,7.95380615234375,-0.0010264355223625898,0.002225773874670267,0.0003949992824345827
1733862538444757500,7.963757568359375,0.00024282699450850487,-0.0010078365448862314,0.0006080522434785962
1733862538454709200,7.973709228515625,-0.0009400309063494205,-0.0025051445700228214,-0.0006148013053461909
1733862538464660500,7.983660400390625,0.001861081924289465,-0.0046601747162640095,-0.0006907013012096286
1733862538474611200,7.993611083984375,-0.0002547134645283222,-0.003772919764742255,-0.00015890621580183506
1733862538484562400,8.0035625,0.0000315764918923378,-0.002728427993133664,-0.001509927911683917
1733862538494513200,8.01351318359375,0.0005892850458621979,-0.002629289636388421,-0.0005804297979921103
1733862538504464400,8.02346435546875,-0.0002117939293384552,-0.003377371234819293,-0.0010363629553467035
1733862538514415400,8.033415283203125,0.00038899946957826614,-0.002632897114381194,-0.002589315641671419
1733862538524367400,8.043367431640625,0.000424419529736042,-0.0025319636333733797,-0.0006231036968529224
1733862538534318300,8.053318359375,-0.0013824990019202232,-0.003310328582301736,-0.0006964383646845818
1733862538544269300,8.063269287109375,0.0011530965566635132,-0.00279367552138865,-0.0012884591706097126
1733862538554220500,8.073220458984375,-0.0005417224019765854,-0.004922741092741489,-0.002949012443423271
1733862538564171300,8.083171142578125,-0.0011883378028869629,-0.004240971989929676,-0.0012874662643298507
1733862538574122500,8.09312255859375,0.0008293208666145802,-0.003362133866176009,-0.00046824291348457336
1733862538584073200,8.1030732421875,0.0011699395254254341,-0.003933115862309933,-0.0016789159271866083
1733862538594025500,8.113025390625,-0.0007014700677245855,-0.00629979046061635,-0.0003199815982952714
1733862538603976400,8.1229765625,0.0020474446937441826,-0.005564758088439703,-0.0038622519932687283
1733862538613927400,8.132927490234374,0.001228314358741045,-0.00515575148165226,-0.0019880710169672966
1733862538623878400,8.14287841796875,-0.0007136627100408077,-0.006526746787130833,-0.002938553225249052
1733862538633829400,8.152829345703125,0.0013540205545723438,-0.010657347738742828,-0.0032467921264469624
1733862538643780400,8.1627802734375,0.00042857229709625244,-0.014685643836855888,-0.002216681372374296
1733862538653731300,8.1727314453125,0.001672456506639719,-0.015755686908960342,-0.0021148754749447107
1733862538663683300,8.182683349609375,0.002154488582164049,-0.012628601863980293,-0.002288247225806117
1733862538673634300,8.19263427734375,-0.0007969876751303673,-0.011563688516616821,-0.0011839871294796467
1733862538683585300,8.202585205078124,0.00022087246179580688,-0.007405428681522608,-0.002541133901104331
1733862538693536300,8.212536376953125,0.0022179419174790382,-0.0026679672300815582,-0.0015430935891345143
1733862538703487500,8.222487548828125,-0.0012774572242051363,0.002315339632332325,-0.00022642675321549177
1733862538713438200,8.232438232421876,0.00001512281596660614,0.0005127235781401396,0.00138151238206774
1733862538723389400,8.242389404296874,-0.000037874095141887665,-0.002187189180403948,-0.00003129453398287296
1733862538733341400,8.252341552734375,0.00025966810062527657,-0.004289734177291393,-0.0018043891759589314
1733862538743292400,8.26229248046875,0.0004921620711684227,-0.004009569529443979,-0.003110137302428484
1733862538753243400,8.272243408203124,0.0003875452093780041,-0.0035892592277377844,-0.002051682211458683
1733862538763194400,8.2821943359375,-0.000541631830856204,-0.0014387567061930895,-0.0019643306732177734
1733862538773145300,8.292145263671875,0.001541102770715952,0.0011637094430625439,-0.0009512598626315594
1733862538783096300,8.302096435546876,-0.00025999313220381737,0.0015227035619318485,-0.000777621753513813
1733862538793047600,8.312047607421874,0.00041869934648275375,0.000864590285345912,-0.0007861863123252988
1733862538802999300,8.321999267578125,0.0012093917466700077,-0.002105633495375514,-0.0000921664759516716
1733862538812950300,8.3319501953125,0.0020392327569425106,-0.004420186392962933,-0.002096461597830057
1733862538822901500,8.341901611328124,0.000014421530067920685,-0.004668764304369688,-0.001735261408612132
1733862538832852500,8.3518525390625,0.0013892585411667824,-0.0061325570568442345,-0.0010628124000504613
1733862538842803500,8.361803466796875,0.0005410416051745415,-0.005109370686113834,-0.00260025542229414
1733862538852754400,8.37175439453125,0.0003843698650598526,-0.004467344842851162,-0.0005571926012635231
1733862538862705400,8.381705322265624,-0.002156019676476717,0.0008259534370154142,0.0002084663137793541
1733862538872657400,8.391657470703125,-0.0005304499063640833,0.0001332701649516821,-0.001214229385368526
1733862538882608400,8.4016083984375,-0.00008570216596126556,-0.0017415951006114483,-0.0012733513722196221
1733862538892559400,8.411559326171876,-0.0011518693063408136,-0.00610627606511116,-0.0026558018289506435
1733862538902510300,8.42151025390625,0.0011392482556402683,-0.00998650211840868,-0.0032627363689243793
1733862538912461300,8.43146142578125,-0.001372970174998045,-0.011572492308914661,-0.0019736881367862225
1733862538922412300,8.441412353515625,-0.0012070552911609411,-0.015044189058244228,-0.0043998281471431255
1733862538932363300,8.45136328125,0.0016069011762738228,-0.019558679312467575,-0.003159367246553302
1733862538942315300,8.461315185546875,0.0011855890043079853,-0.018071305006742477,-0.005442229099571705
1733862538952266500,8.4712666015625,0.0004024910740554333,-0.02013162523508072,-0.005111424718052149
1733862538962217200,8.48121728515625,0.00259533803910017,-0.018494846299290657,-0.0036256471648812294
1733862538972168400,8.49116845703125,0.00268165348097682,-0.015405866317451,-0.0028909193351864815
1733862538982119400,8.501119384765625,0.0029061581008136272,-0.010941077023744583,-0.002489048521965742
1733862538992070400,8.5110703125,0.00022126641124486923,-0.007523546926677227,-0.0015166758093982935
1733862539002021400,8.521021484375,0.000054552219808101654,-0.006866811774671078,-0.0013768598437309265
1733862539011972400,8.530972412109374,0.0016792630776762962,-0.004130953922867775,-0.0017749822000041604
1733862539021924400,8.54092431640625,0.00173119455575943,-0.0029029708821326494,-0.002196560613811016
1733862539031875300,8.550875244140625,-0.00040231458842754364,0.00039980560541152954,-0.0017570988275110722
1733862539041826600,8.56082666015625,0.00031860312446951866,0.004156460519880056,-0.0005584098398685455
1733862539051777300,8.57077734375,-0.000915254233404994,0.005738237872719765,0.0010776016861200333
1733862539061728500,8.580728515625,0.0019819987937808037,0.007597656454890966,0.0007167434669099748
1733862539071679200,8.59067919921875,-0.000684115570038557,0.0052536469884216785,0.0006490375380963087
1733862539081631500,8.600631591796875,0.0010320255532860756,0.00296066515147686,-0.0026812455616891384
1733862539091582200,8.610582275390625,0.00048403628170490265,-0.0005844149272888899,-0.0019541815854609013
1733862539101533400,8.620533447265625,0.001175126526504755,-0.0036401257384568453,-0.0025733665097504854
1733862539111484400,8.630484375,-0.00004688277840614319,-0.0022717169485986233,-0.0020508859306573868
1733862539121435400,8.640435302734375,0.001525980420410633,-0.0009095100685954094,-0.0012055987026542425
1733862539131386400,8.650386474609375,0.0006234864704310894,0.0012402038555592299,0.0015068334760144353
1733862539141337300,8.66033740234375,-0.0008766721002757549,0.0024934872053563595,0.002874899422749877
1733862539151288300,8.670288330078124,-0.0015278656501322985,0.0003063073381781578,0.0013492583530023694
1733862539161240300,8.680240234375,-0.0007851100526750088,-0.0031691177282482386,0.002276304643601179
1733862539171191600,8.690191650390625,0.0002572438679635525,-0.006368597038090229,0.0007170373573899269
1733862539181142300,8.700142333984376,-0.000422927550971508,-0.007801378145813942,0.0009948050137609243
1733862539191093500,8.710093505859374,0.00002946890890598297,-0.007211362011730671,0.00018104375340044498
1733862539201045000,8.720044921875,0.0004808744415640831,-0.008295002393424511,0.0003560134209692478
1733862539210996000,8.729995849609375,-0.00019309716299176216,-0.010897141881287098,-0.0006384418811649084
1733862539220947000,8.739947021484374,-0.000288971234112978,-0.011857477948069572,0.00037036347202956676
1733862539230899200,8.749899169921875,0.001621585339307785,-0.011284909211099148,-0.0010966125410050154
1733862539240850000,8.759849853515625,0.0013030711561441422,-0.010416984558105469,-0.0025328551419079304
1733862539250801200,8.76980126953125,0.0011546025052666664,-0.010686422698199749,-0.002322524320334196
1733862539260752000,8.779751953125,0.0008371537551283836,-0.011700021103024483,-0.001885233330540359
1733862539270703000,8.789703125,-0.00009722309187054634,-0.01085753832012415,-0.004977243021130562
1733862539280654000,8.799654052734375,0.001050865277647972,-0.010304133407771587,-0.005706150084733963
1733862539290605000,8.80960498046875,-0.0007489444687962532,-0.004907629452645779,-0.004360110033303499
1733862539300556800,8.819556884765625,-0.0015148695092648268,0.0016408173833042383,-0.0038253474049270153
1733862539310508000,8.829508056640625,0.0015519657172262669,0.005678582936525345,-0.0015153555432334542
1733862539320459000,8.839458984375,0.00044196005910634995,0.007159566506743431,0.0011171791702508926
1733862539330410000,8.849409912109374,-0.0002490375190973282,0.011430023238062859,0.0028398563154041767
1733862539340361000,8.85936083984375,-0.0012706262059509754,0.012918196618556976,0.003253178671002388
1733862539350312000,8.86931201171875,0.0006687375716865063,0.015463050454854965,0.00200800527818501
1733862539360263200,8.87926318359375,0.00012412108480930328,0.01513255201280117,0.002508413279429078
1733862539370215000,8.88921484375,-0.0008177426643669605,0.01727471500635147,0.002919453429058194
1733862539380166100,8.899166259765625,-0.0018348039593547583,0.017407605424523354,0.00437753414735198
1733862539390116900,8.909116943359376,-0.00015316437929868698,0.014553388580679893,0.0044977194629609585
1733862539400068000,8.919068115234374,-0.0007398587185889482,0.008316798135638237,0.006345686968415976
1733862539410018800,8.929018798828125,0.00010219449177384377,0.003137801308184862,0.003819982521235943
1733862539419970000,8.938969970703125,-0.0017071571201086044,-0.002698782365769148,0.005343843251466751
1733862539429921000,8.948921142578126,-0.002365557011216879,-0.00397995300590992,0.006046308670192957
1733862539439873000,8.958873046875,-0.00012637116014957428,-0.004266509786248207,0.006232197396457195
1733862539449824000,8.968823974609375,0.0004425160586833954,-0.001473952317610383,0.005506638903170824
1733862539459775000,8.97877490234375,-0.00004244549199938774,0.004468359053134918,0.004664813634008169
1733862539469726200,8.988726318359374,0.0005142414011061192,0.0066752005368471146,0.004421135410666466
1733862539479677000,8.998677001953125,0.0007217014208436012,0.004411779809743166,0.005246182903647423
1733862539489628200,9.008628173828125,0.0005663465708494186,0.005474339239299297,0.004701489582657814
1733862539499579000,9.018578857421875,-0.0016715074889361858,0.0033411472104489803,0.004922798369079828
1733862539509531100,9.02853125,-0.000773388659581542,0.002249052282422781,0.003172264201566577
1733862539519481900,9.03848193359375,0.0002474011853337288,0.0013582250103354454,0.0007373359985649586
1733862539529433000,9.04843310546875,-0.00013862689957022667,0.002545540453866124,-0.000030146329663693905
1733862539539383800,9.0583837890625,0.0007993383333086967,0.0032337012235075235,0.0004638700047507882
1733862539549335000,9.0683349609375,0.0012587858363986015,0.005620806012302637,-0.0008753992151468992
1733862539559285800,9.07828564453125,0.0017858254723250866,0.005630127154290676,-0.0015278737992048264
1733862539569237000,9.088237060546875,0.00019358471035957336,0.005430825054645538,0.0004208000609651208
1733862539579189000,9.09818896484375,0.00029025739058852196,0.003945313859730959,-0.002782450057566166
1733862539589140000,9.108139892578125,0.0009083584882318974,0.002614544937387109,-0.0012904716422781348
1733862539599091000,9.118091064453125,-0.001365714706480503,0.0032262729946523905,-0.0006877983687445521
1733862539609042000,9.1280419921875,-0.00008402951061725616,0.005889816675335169,-0.0011084575671702623
1733862539618993200,9.1379931640625,-0.00017244648188352585,0.009244866669178009,-0.0010104533284902573
1733862539628944000,9.14794384765625,-0.0036440538242459297,0.011950572021305561,0.0011159995337948203
1733862539638895000,9.15789501953125,0.0007373788394033909,0.014929051510989666,0.003147192532196641
1733862539648847000,9.16784716796875,-0.0015450322534888983,0.012495314702391624,0.0009907942730933428
1733862539658798000,9.177798095703125,-0.00008535385131835938,0.0084928497672081,0.00002326793037354946
1733862539668749000,9.1877490234375,-0.000022782012820243835,0.0043870541267097,0.001524758175946772
1733862539678700000,9.197699951171876,-0.0008667376823723316,0.003490634262561798,-0.0013397379079833627
1733862539688651000,9.207651123046874,-0.0019211072940379381,0.0008568300399929285,0.0009826538152992725
1733862539698602000,9.21760205078125,-0.0015479985158890486,0.00026560830883681774,0.0008018251974135637
1733862539708553000,9.227552978515625,-0.0011868961155414581,-0.0001244824379682541,0.001079974346794188
1733862539718505000,9.2375048828125,0.00028822850435972214,0.0020579779520630836,-0.000023905886337161064
1733862539728456000,9.2474560546875,0.0007088035345077515,0.0030757137574255466,-0.000561029533855617
1733862539738407000,9.257406982421875,-0.0015442308504134417,0.005248053930699825,0.0025261067785322666
1733862539748358000,9.26735791015625,-0.0013162968680262566,0.005581340286880732,0.0038422050420194864
1733862539758308900,9.277308837890626,-0.0018079164437949657,0.005015684757381678,0.0024469748605042696
1733862539768260000,9.287260009765625,-0.001125688198953867,0.0046699391677975655,0.0019518131157383323
1733862539778210800,9.2972109375,0.0010567721910774708,0.00653335265815258,0.0007928053382784128
1733862539788163000,9.3071630859375,-0.002190409228205681,0.010083534754812717,0.0013777134008705616
1733862539798114000,9.317114013671874,-0.00188414566218853,0.017989395186305046,0.002049096394330263
1733862539808065000,9.32706494140625,-0.0020645882468670607,0.02289200946688652,0.004668847657740116
1733862539818016000,9.33701611328125,-0.0003090323880314827,0.023563923314213753,0.005708280019462109
1733862539827967000,9.346967041015626,-0.0013680967967957258,0.01985674351453781,0.005694016348570585
1733862539837918000,9.35691796875,-0.0012858051341027021,0.017167218029499054,0.005439950618892908
1733862539847869000,9.366868896484375,-0.001233723945915699,0.01549207977950573,0.0041888682171702385
1733862539857821000,9.376821044921876,0.0008310247212648392,0.014664102345705032,0.002111602108925581
1733862539867772200,9.386772216796874,0.0008897697553038597,0.00955125316977501,0.001193011412397027
1733862539877723000,9.396722900390625,-0.0003038588911294937,0.008463351987302303,0.00046197371557354927
1733862539887674000,9.406674072265625,0.00023744860664010048,0.010018940083682537,0.0018232588190585375
1733862539897625000,9.416625,-0.000941266305744648,0.009009336121380329,0.0012267106212675571
1733862539907576000,9.426576171875,-0.0001196875236928463,0.011361992917954922,0.0003779993858188391
1733862539917527000,9.436527099609375,-0.0012105184141546488,0.010065566748380661,0.0018603148637339473
1733862539927479000,9.44647900390625,-0.0005143727175891399,0.0071111805737018585,-0.00046759098768234253
1733862539937430000,9.456429931640624,-0.0008539257105439901,0.006167090032249689,-0.00027797394432127476
1733862539947381000,9.466381103515625,-0.00029526790603995323,0.0038743261247873306,-0.0003656322369351983
1733862539957332000,9.47633203125,0.0004946254193782806,0.008828338235616684,-0.00029212876688688993
1733862539967283000,9.486282958984376,-0.0015315641649067402,0.009563889354467392,0.0015413828659802675
1733862539977234000,9.49623388671875,-0.001629568636417389,0.008687443099915981,0.0020058380905538797
1733862539987185000,9.506184814453125,-0.00035710539668798447,0.009556986391544342,0.0011065269354730844
1733862539997137200,9.51613720703125,-0.00020716944709420204,0.010375108569860458,0.001429834752343595
1733862540007087900,9.526087890625,-0.0004397719167172909,0.008783034048974514,0.002012423938140273
1733862540017039000,9.5360390625,0.0016548042185604572,0.010367880575358868,0.0017972405767068267
1733862540026989800,9.54598974609375,-0.0004561233799904585,0.008362572640180588,0.0030999775044620037
1733862540036941000,9.555941162109375,0.00009701540693640709,0.00939934141933918,0.0028909193351864815
1733862540046892000,9.56589208984375,0.0005742628127336502,0.009676406159996986,0.0031614587642252445
1733862540056843000,9.575843017578125,-0.0022417635191231966,0.011276965960860252,0.002696471055969596
1733862540066795000,9.585794921875,-0.0006789232138544321,0.010960101149976254,0.003705314826220274
1733862540076746000,9.59574609375,-0.000738578150048852,0.007757916115224361,0.0027220756746828556
1733862540086697200,9.605697265625,0.0002725166268646717,0.0042772903107106686,0.002969712484627962
1733862540096648000,9.61564794921875,-0.0005266980733722448,0.005445086397230625,0.0032450836151838303
1733862540106599200,9.62559912109375,0.0017807227559387684,0.0017022829269990325,0.0014396935002878308
1733862540116550000,9.6355498046875,0.0006757769733667374,-0.0024360029492527246,0.00019679625984281301
1733862540126501000,9.645501220703125,-0.0014419350773096085,-0.006184139288961887,-0.0015840264968574047
1733862540136452900,9.655452880859375,0.0010206899605691433,-0.011420712806284428,0.00027139787562191486
1733862540146404000,9.665404052734376,0.001707545481622219,-0.01668824814260006,-0.000932162394747138
1733862540156354800,9.675354736328124,0.001649221871048212,-0.02131921984255314,-0.002413945272564888
1733862540166306000,9.68530615234375,0.0016731866635382175,-0.02410164102911949,-0.002858120948076248
1733862540176256800,9.6952568359375,0.002630326896905899,-0.023033980280160904,-0.0022077769972383976
1733862540186208000,9.7052080078125,0.001521450001746416,-0.01776079647243023,-0.0007846198277547956
1733862540196159000,9.715158935546874,0.0007770964875817299,-0.010942837223410606,0.00011845806147903204
1733862540206110000,9.72510986328125,0.0005247467197477818,-0.005133538506925106,0.0034076119773089886
1733862540216061200,9.735061279296875,0.0003369939513504505,0.00005163555033504963,0.002486957237124443
1733862540226012200,9.74501220703125,0.0014584087766706944,0.00017419387586414814,0.004671851173043251
1733862540235963100,9.754963134765624,0.0009705177508294582,-0.0012684403918683529,0.00311656529083848
1733862540245914000,9.7649140625,0.0015096906572580338,-0.002975601004436612,0.004505447577685118
1733862540255865000,9.774864990234375,0.0009839828126132488,-0.00022668601013720036,0.0047621759586036205
1733862540265816300,9.78481640625,-0.0002471907064318657,0.002470573876053095,0.003788100089877844
1733862540275768000,9.79476806640625,0.0004409700632095337,0.00796014815568924,0.003000070806592703
1733862540285719000,9.804718994140625,0.0002028406597673893,0.021203437820076942,0.0025996083859354258
1733862540295670000,9.814669921875,-0.0014022465329617262,0.03243691846728325,0.004435591399669647
1733862540305621200,9.824621337890624,-0.0036200510803610086,0.03864310681819916,0.005893063731491566
1733862540315572000,9.834572021484375,-0.0023848770651966333,0.035794321447610855,0.008408685214817524
1733862540325523200,9.844523193359375,-0.0029380042105913162,0.031122751533985138,0.00883772224187851
1733862540335474000,9.854473876953126,-0.00004128413274884224,0.023756980895996094,0.005913038272410631
1733862540345426200,9.86442626953125,-0.0005169822834432125,0.012169837020337582,0.0016825738130137324
1733862540355377200,9.874377197265625,0.0015325862914323807,0.0010644558351486921,-0.0011166747426614165
1733862540365328100,9.884328125,0.002565163653343916,-0.0037372855003923178,-0.003062761854380369
1733862540375279000,9.894279052734374,0.0003880294971168041,-0.005737852305173874,-0.0024726055562496185
1733862540385230000,9.90422998046875,-0.00008716993033885956,-0.00345823192037642,-0.0028486864175647497
1733862540395181000,9.91418115234375,-0.0010746701154857874,0.001804973348043859,-0.005398397333920002
1733862540405132000,9.924132080078126,-0.00024470966309309006,0.003701199544593692,-0.006463509984314442
1733862540415084000,9.934083984375,-0.001293994951993227,-0.005078443791717291,-0.010716577991843224
1733862540425035300,9.94403515625,0.0005575809627771378,-0.013712650164961815,-0.01183723472058773
1733862540434986200,9.953986328125,0.001765590626746416,-0.02120092697441578,-0.01117490604519844
1733862540444937200,9.963937255859374,0.0028476999141275883,-0.026927422732114792,-0.01355794258415699
1733862540454888200,9.97388818359375,0.0022626034915447235,-0.0315093919634819,-0.014917487278580666
1733862540464839200,9.983839111328125,0.001920685637742281,-0.030870605260133743,-0.014496896415948868
1733862540474790100,9.9937900390625,0.001406695693731308,-0.028786946088075638,-0.012366901151835918
1733862540484742100,10.0037421875,0.0005823117680847645,-0.02498607710003853,-0.008620135486125946
1733862540494693000,10.013693115234375,0.0024808794260025024,-0.02143768221139908,-0.006637412589043379
1733862540504644000,10.02364404296875,0.0016609462909400463,-0.018519025295972824,-0.005735439248383045
1733862540514595000,10.033594970703126,0.001745901070535183,-0.010240055620670319,-0.003693327307701111
1733862540524546000,10.043546142578125,0.0013905665837228298,-0.0036645852960646152,-0.002467511687427759
1733862540534497000,10.0534970703125,0.000509859062731266,0.0009578634053468704,-0.0003886482445523143
1733862540544448300,10.0634482421875,0.0004352601245045662,0.00598886189982295,0.001323003671132028
1733862540554400300,10.073400146484374,-0.0010888667311519384,0.0094352588057518,0.0003898320719599724
1733862540564351000,10.08335107421875,-0.0011835985351353884,0.012259842827916145,0.003841667901724577
1733862540574302200,10.09330224609375,0.00011575780808925629,0.014618870802223682,0.0036232885904610157
1733862540584253200,10.103253173828126,-0.00012306030839681625,0.017340507358312607,0.004227526020258665
1733862540594204200,10.1132041015625,-0.0011875256896018982,0.02025293931365013,0.005523952655494213
1733862540604155100,10.123155029296875,-0.0025848750956356525,0.019715450704097748,0.0041182213462889194
1733862540614106000,10.133106201171875,-0.0008527552708983421,0.019038209691643715,0.005533158779144287
1733862540624058000,10.14305810546875,-0.0012785873841494322,0.013252717442810535,0.003195625264197588
1733862540634009000,10.153009033203125,-0.00035819876939058304,0.007348755374550819,0.0017540563130751252
1733862540643960300,10.162960205078125,-0.0003490629605948925,-0.0006249579600989819,-0.0015699511859565973
1733862540653911000,10.1729111328125,-0.0006939424201846123,-0.006650359369814396,-0.0036978169810026884
1733862540663862300,10.1828623046875,-0.0005460015963762999,-0.014386838302016258,-0.0021683983504772186
1733862540673813000,10.19281298828125,0.000974130816757679,-0.019251899793744087,-0.0016770452493801713
1733862540683764200,10.20276416015625,0.0008945511654019356,-0.02156100608408451,-0.0041465964168310165
1733862540693716000,10.212716064453126,0.0011816401965916157,-0.024911263957619667,-0.006073659751564264
1733862540703667200,10.222667236328125,0.001655531581491232,-0.028858289122581482,-0.008279778994619846
1733862540713618000,10.232617919921875,0.0018328982405364513,-0.033930279314517975,-0.007441415451467037
1733862540723569200,10.242569091796875,0.002379870042204857,-0.03336254507303238,-0.006908790208399296
1733862540733520100,10.25252001953125,0.0019558947533369064,-0.02831132709980011,-0.007019311189651489
1733862540743471000,10.26247119140625,0.0018439702689647675,-0.026564721018075943,-0.005072883330285549
1733862540753422000,10.272422119140625,-0.00018722238019108772,-0.023438436910510063,-0.0035341086331754923
1733862540763374000,10.2823740234375,0.0012854277156293392,-0.020547980442643166,-0.0030369337182492018
1733862540773325300,10.2923251953125,0.0015472164377570152,-0.015535912476480007,-0.0025373247917741537
1733862540783276000,10.302276123046875,0.0014348197728395462,-0.009667391888797283,-0.002552010351791978
1733862540793227300,10.312227294921875,-0.0017559132538735867,-0.0030853895004838705,-0.0012915362603962421
1733862540803178000,10.322177978515626,-0.0005998550914227962,0.0029983357526361942,0.0006528376834467053
1733862540813129200,10.332129150390625,0.0002752598375082016,0.006730755791068077,-0.0015378785319626331
1733862540823080000,10.342079833984375,-0.0009439880959689617,0.009644604288041592,0.0012836272362619638
1733862540833032200,10.3520322265625,-0.002738425973802805,0.011572733521461487,0.002696700394153595
1733862540842983000,10.36198291015625,-0.0022034612484276295,0.013308705762028694,0.003022635355591774
1733862540852934100,10.37193408203125,0.0014349492266774178,0.013002442196011543,0.0018713506869971752
1733862540862885000,10.381885009765625,-0.00019724760204553604,0.009765490889549255,0.0008761252393014729
1733862540872836000,10.391836181640626,0.0005050278268754482,0.011545813642442226,-0.0006424091989174485
1733862540882787300,10.401787353515624,0.0006055235862731934,0.008303788490593433,-0.0025749062187969685
1733862540892738000,10.411738037109375,0.0005860826931893826,0.0034714823123067617,-0.001811377820558846
1733862540902690000,10.42168994140625,0.00004212791100144386,-0.0036256611347198486,-0.0012072273530066013
1733862540912641000,10.43164111328125,0.001284758560359478,-0.010808207094669342,-0.0030506676994264126
1733862540922592300,10.44159228515625,0.00003099814057350159,-0.01794886216521263,-0.0027263720985502005
1733862540932543000,10.45154296875,0.0008880030363798141,-0.017797861248254776,-0.0038028217386454344
1733862540942494200,10.461494140625,0.00033315829932689667,-0.016488483175635338,-0.002209146972745657
1733862540952445000,10.47144482421875,0.00041758036240935326,-0.014641847461462021,-0.0023638764396309853
1733862540962396200,10.481396240234375,0.0041403453797101974,-0.012676659040153027,-0.0019278405234217644
1733862540972348200,10.49134814453125,-0.00029408372938632965,-0.014494267292320728,-0.003667683806270361
1733862540982299100,10.501299072265626,0.001854331698268652,-0.012973032891750336,-0.0018001626012846828
1733862540992250000,10.51125,0.0011264896020293236,-0.0180551428347826,-0.002978344913572073
1733862541002201000,10.521201171875,0.001082039438188076,-0.016391295939683914,-0.0038366764783859253
1733862541012152300,10.53115234375,0.001388303004205227,-0.016229374334216118,-0.0018771226750686765
1733862541022103000,10.54110302734375,-0.0012744511477649212,-0.010394560173153877,-0.0007910908898338675
1733862541032054300,10.55105419921875,0.00032238010317087173,-0.006323120091110468,-0.0016981636872515082
1733862541042006000,10.561006103515625,0.0009021004661917686,-0.0005342070944607258,-0.0009663269156590104
1733862541051957200,10.570957275390626,-0.0005964601878076792,0.000879399012774229,0.00012050906661897898
1733862541061908000,10.580907958984374,0.0004870970733463764,0.0011679031886160374,0.0005949707701802254
1733862541071859200,10.590859130859375,0.0022759423591196537,-0.0003716701176017523,0.0005526265595108271
1733862541081810200,10.60081005859375,-0.0005069875624030828,0.0004792008548974991,-0.00006518920417875051
1733862541091761200,10.61076123046875,0.0012608184479176998,0.0006171527784317732,0.0003526607761159539
1733862541101712100,10.620712158203125,-0.0006335831712931395,0.0009104730561375618,-0.0005686031654477119
1733862541111664000,10.6306640625,0.00005084928125143051,0.00020100711844861507,-0.00010947405826300383
1733862541121615000,10.640614990234376,0.0024602068588137627,-0.0028550007846206427,-0.001620432478375733
1733862541131566000,10.650566162109374,0.000244989525526762,-0.000666947802528739,-0.000019073719158768654
1733862541141517000,10.66051708984375,-0.000466521130874753,-0.001988474978134036,0.0010588935110718012
1733862541151468000,10.670468017578125,-0.00037996843457221985,-0.0024196410086005926,0.00032199674751609564
1733862541161419300,10.680419189453126,-0.001192223746329546,-0.004366559907793999,-0.0013086573453620076
1733862541171370000,10.690369873046874,0.001437115017324686,-0.0056997379288077354,-0.0018450181232765317
1733862541181322000,10.700322021484375,0.00010906299576163292,-0.009830230847001076,-0.003427655901759863
1733862541191273200,10.710273193359376,0.0001383577473461628,-0.011044899001717567,-0.003901698626577854
1733862541201224700,10.720224609375,0.00253621069714427,-0.012382359243929386,-0.0017451092135161161
1733862541211176000,10.730176025390625,0.000048551708459854126,-0.011192991398274899,-0.0030236931052058935
1733862541221127000,10.740126953125,-0.0006832820363342762,-0.007001630961894989,-0.00025994214229285717
1733862541231078000,10.750077880859376,-0.0012302952818572521,-0.004253515042364597,-0.00214386242441833
1733862541241028900,10.76002880859375,0.0015501617453992367,-0.002618495374917984,-0.0021183714270591736
1733862541250980900,10.76998095703125,0.000929112546145916,-0.0035687112249433994,-0.002485354896634817
1733862541260932000,10.77993212890625,0.0019623287953436375,-0.0057653700932860374,-0.0019177215872332454
1733862541270882800,10.7898828125,0.0012416774407029152,-0.006894816644489765,-0.003463153727352619
1733862541280834000,10.799833984375,0.0006891009397804737,-0.006524449214339256,-0.0019434766145423055
1733862541290784800,10.80978466796875,-0.0010685850866138935,-0.0073207346722483635,-0.0032875738106667995
1733862541300736000,10.819736083984376,0.0017529833130538464,-0.007559710647910833,-0.002244530478492379
1733862541310686700,10.829686767578124,0.0008437801152467728,-0.005063795950263739,-0.0008399791549891233
1733862541320639000,10.839638916015625,0.0013547544367611408,-0.004830966703593731,-0.00009315053466707468
1733862541330589700,10.849589599609375,0.0011691320687532425,-0.0022607494611293077,-0.0020327307283878326
1733862541340541000,10.859541015625,-0.0006391734350472689,-0.0010410805698484182,-0.0017080778488889337
1733862541350491600,10.86949169921875,0.00010518031194806099,-0.0022996908519417048,-0.0013472194550558925
1733862541360443000,10.87944287109375,0.0004029213450849056,-0.0015564023051410913,-0.0009461472509428859
1733862541370393900,10.889393798828126,-0.0006987615488469601,0.00454070046544075,-0.002633842872455716
1733862541380344800,10.8993447265625,-0.0016714611556380987,0.00818408839404583,0.001640127506107092
1733862541390296000,10.909296142578125,-0.0013990197330713272,0.010595581494271755,0.0007149453740566969
1733862541400247800,10.919247802734375,-0.0003993874415755272,0.010720708407461643,0.0027062310837209225
1733862541410199000,10.929198974609376,-0.0015954130794852972,0.011713800951838493,0.0034029141534119844
1733862541420149800,10.939149658203124,-0.0005744004156440496,0.012008938007056713,0.0021191532723605633
1733862541430101000,10.94910107421875,-0.0009152849670499563,0.013048369437456131,0.0039665880613029
1733862541440051700,10.9590517578125,-0.00006397906690835953,0.009791751392185688,0.003926183562725782
1733862541450003000,10.9690029296875,-0.0002754339948296547,0.004634540062397718,0.00286491378210485
1733862541459955000,10.978954833984375,-0.0013961500953882933,0.0010771655943244696,0.0030981297604739666
1733862541469906000,10.988906005859375,-0.001537563744932413,-0.0006371112540364265,-0.0001005928497761488
1733862541479857000,10.99885693359375,0.0009389505721628666,-0.0011101437266916037,0.00037569517735391855
1733862541489808000,11.008807861328124,-0.000901027349755168,-0.0020587618928402662,-0.00031699310056865215
1733862541499758800,11.0187587890625,0.00014195358380675316,-0.003993240185081959,-0.0015811191406100988
1733862541509709800,11.028709716796875,0.00015899771824479103,-0.007787445560097694,-0.0027353332843631506
1733862541519661000,11.0386611328125,0.0004405188374221325,-0.008253723382949829,-0.0007610555039718747
1733862541529611800,11.04861181640625,0.0005334634333848953,-0.009896893985569477,0.00011565710883587599
1733862541539563800,11.058563720703125,0.000369515735656023,-0.01285284012556076,-0.0010901467176154256
1733862541549514800,11.0685146484375,0.00046938424929976463,-0.014377767220139503,-0.0029881815426051617
1733862541559466000,11.078466064453124,0.0008697602897882462,-0.010870754718780518,-0.001587816048413515
1733862541569416700,11.088416748046875,0.0015677749179303646,-0.007004377897828817,-0.0027683954685926437
1733862541579368000,11.098367919921875,0.0010238555260002613,-0.004267253912985325,-0.0005475421203300357
1733862541589318700,11.108318603515626,0.00033276528120040894,-0.0037306274753063917,-0.0014703272609040141
1733862541599270000,11.118269775390624,-0.0013642737176269293,0.002582762623205781,0.0007890574634075165
1733862541609222000,11.128221923828125,-0.000509931705892086,0.004300767555832863,-0.00003279407974332571
1733862541619172900,11.1381728515625,0.00001632794737815857,0.007091137580573559,0.001030755927786231
1733862541629123800,11.148123779296874,0.0010874513536691666,0.010783078148961067,0.0007950661238282919
1733862541639074800,11.15807470703125,-0.0008548421319574118,0.012402951717376709,0.00231710122898221
1733862541649025800,11.16802587890625,-0.0008993169758468866,0.013263950124382973,0.0020750199910253286
1733862541658976800,11.177976806640626,-0.00028221495449543,0.009348846971988678,0.00016602803952991962
1733862541668928000,11.187927978515624,0.000981188379228115,0.00776426587253809,0.00025337969418615103
1733862541678880000,11.1978798828125,-0.00020988238975405693,0.006076620891690254,-0.00028937263414263725
1733862541688831000,11.2078310546875,-0.0013009794056415558,0.002902398817241192,0.0021287777926772833
1733862541698782000,11.217781982421876,0.0014805658720433712,0.0019181993557140231,-0.00016667612362653017
1733862541708733000,11.22773291015625,0.0007774913683533669,0.003111029276624322,0.0020248391665518284
1733862541718684000,11.237683837890625,0.0008831573650240898,0.0007213540375232697,0.0017057540826499462
1733862541728635000,11.247634765625,-0.0009943710174411535,-0.002406262094154954,-0.000210123835131526
1733862541738585900,11.2575859375,0.0006563076749444008,-0.006091396324336529,-0.001432012883014977
1733862541748537900,11.267537841796875,-0.0000030905939638614655,-0.0062961941584944725,-0.0001696745166555047
1733862541758488800,11.27748876953125,0.0005595427937805653,-0.00939161516726017,-0.001388839795254171
1733862541768439800,11.287439697265626,-0.000050587113946676254,-0.009945020079612732,-0.0007100001676008105
1733862541778390800,11.297390869140624,-0.00026560621336102486,-0.007620816119015217,-0.0011072293855249882
1733862541788341800,11.307341796875,-0.00007199449464678764,-0.0018002106808125973,-0.0008848553989082575
1733862541798293000,11.31729296875,-0.000997720519080758,0.006253902800381184,0.0024173117708414793
1733862541808243700,11.32724365234375,-0.0017442044336348772,0.008840898051857948,0.0006753382040187716
1733862541818195700,11.33719580078125,-0.0011306283995509148,0.010259276255965233,0.0012018070556223392
1733862541828147000,11.34714697265625,0.000033439137041568756,0.01475362665951252,0.0017823762027546763
1733862541838098000,11.357097900390626,-4.936009645462036e-7,0.014669455587863922,0.0007865456864237785
1733862541848049000,11.367048828125,-0.0018609780818223953,0.016316886991262436,0.002808417659252882
1733862541858000000,11.376999755859375,-0.001632732106372714,0.01933697611093521,0.003308674320578575
1733862541867950800,11.386950927734375,-0.000865475507453084,0.023323994129896164,0.003294825553894043
1733862541877901800,11.39690185546875,-0.0003335587680339813,0.02728327363729477,0.0051054321229457855
1733862541887853800,11.406853759765625,-0.0014771202113479376,0.031775228679180145,0.0031956792809069157
1733862541897805000,11.41680517578125,-0.002075610216706991,0.031300995498895645,0.00427604652941227
1733862541907755800,11.426755859375,-0.0024865358136594296,0.03260061889886856,0.00524090975522995
1733862541917707000,11.43670703125,-0.003421814413741231,0.027084726840257645,0.004943476058542728
1733862541927657700,11.44665771484375,0.00045521557331085205,0.025222912430763245,0.004410311114042997
1733862541937609000,11.45660888671875,0.000512442085891962,0.020291859284043312,0.0022261356934905052
1733862541947560000,11.466559814453126,-0.0018894625827670097,0.014537034556269646,0.0015169359976425767
1733862541957512000,11.476511962890624,-0.0013083165977150202,0.00930785946547985,0.002135971561074257
1733862541967462700,11.486462646484375,-0.00007820269092917442,0.006461739540100098,0.0016030729748308659
1733862541977414000,11.496413818359375,0.0007202546112239361,0.006292231380939484,0.00008407840505242348
1733862541987364900,11.50636474609375,0.00032397639006376266,0.004281011875718832,0.0013104639947414398
1733862541997315800,11.51631591796875,0.0012408588081598282,-0.001515780109912157,-0.0010185810970142484
1733862542007266800,11.526266845703125,0.0013729515485465527,-0.01000247523188591,-0.004433020018041134
1733862542017217800,11.5362177734375,0.0009968113154172897,-0.012078842148184776,-0.004989128094166517
1733862542027170000,11.546170166015624,0.0007424792274832726,-0.01065751351416111,-0.0027504749596118927
1733862542037120800,11.556120849609375,-0.0002561272121965885,-0.0074249268509447575,0.0015490087680518627
1733862542047072000,11.566072021484375,0.0002757059410214424,-0.01164097711443901,-0.0020641018636524677
1733862542057022700,11.576022705078126,0.000560002401471138,-0.017742957919836044,-0.003670255420729518
1733862542066974000,11.585973876953124,0.002169084269553423,-0.01795840635895729,-0.005032462067902088
