time,seconds_elapsed,z,y,x
1733861713419054600,0.0230546875,-0.0025377399288117886,0.014445770531892776,0.005499722436070442
1733861713429005600,0.033005615234375,0.0017483234405517578,0.013810986652970314,0.0030066194012761116
1733861713438956500,0.04295654296875,0.001971496269106865,0.020625483244657516,0.0031970355194061995
1733861713448907500,0.052907470703125,-0.0009568973910063505,0.02365874871611595,0.0054804193787276745
1733861713458858500,0.0628583984375,-0.007218255661427975,0.02882235124707222,0.009330018423497677
1733861713468808400,0.072808349609375,-0.014298269525170326,0.030005592852830887,0.01581082120537758
1733861713478759400,0.082759521484375,-0.01661228947341442,0.0331510528922081,0.014147676527500153
1733861713488710400,0.09271044921875,-0.018857058137655258,0.03901689499616623,0.011842573061585426
1733861713498661600,0.10266162109375,-0.01875878870487213,0.042601510882377625,0.012165614403784275
1733861713508612400,0.1126123046875,-0.01760641485452652,0.04534527286887169,0.009136481210589409
1733861713518563600,0.1225634765625,-0.01718909852206707,0.05333714932203293,0.010574054904282093
1733861713528514600,0.1325146484375,-0.01900111511349678,0.061603616923093796,0.009253705851733685
1733861713538465500,0.142465576171875,-0.023107443004846573,0.0697861760854721,0.008282717317342758
1733861713548416500,0.15241650390625,-0.02744521014392376,0.07364567369222641,0.005704647861421108
1733861713558367500,0.162367431640625,-0.03739291802048683,0.08044020086526871,0.005339528433978558
1733861713568318700,0.172318603515625,-0.04261511564254761,0.08196303248405457,0.010334691032767296
1733861713578269400,0.18226953125,-0.04546070471405983,0.08805234730243683,0.015557683072984219
1733861713588220700,0.192220703125,-0.04351232200860977,0.2106783390045166,0.053670484572649
1733861713598171400,0.20217138671875,-0.09676435589790344,0.28417864441871643,0.10110883414745331
1733861713608122600,0.21212255859375,-0.014304351061582565,0.1519470363855362,0.022070517763495445
1733861713618073300,0.2220732421875,-0.011132526211440563,0.1508450210094452,0.037293948233127594
1733861713628024600,0.232024658203125,-0.01952606998383999,0.11707770824432373,0.050419360399246216
1733861713637975600,0.2419755859375,-0.021679235622286797,0.08268405497074127,0.005606884136795998
1733861713647926500,0.251926513671875,-0.016444992274045944,0.06533915549516678,-0.020598208531737328
1733861713657877500,0.26187744140625,-0.003982198424637318,0.052204713225364685,-0.02163843810558319
1733861713667828500,0.271828369140625,-0.004039248917251825,0.04299093782901764,-0.020575810223817825
1733861713677779500,0.281779541015625,-0.006975383963435888,0.03939993306994438,-0.016250304877758026
1733861713687730400,0.29173046875,-0.012148561887443066,0.0353446863591671,-0.018565572798252106
1733861713697681400,0.301681396484375,-0.014666580595076084,0.04367851838469505,-0.020252421498298645
1733861713707632600,0.311632568359375,-0.015789050608873367,0.04877666383981705,-0.018707986921072006
1733861713717582600,0.32158251953125,-0.01929190568625927,0.061155304312705994,-0.01866431161761284
1733861713727533600,0.331533447265625,-0.021883416920900345,0.07391580194234848,-0.021451178938150406
1733861713737484500,0.341484619140625,-0.030668918043375015,0.10313813388347626,-0.020588047802448273
1733861713747435500,0.351435546875,-0.039972178637981415,0.12771685421466827,-0.021960407495498657
1733861713757386500,0.361386474609375,-0.05595966801047325,0.1512853056192398,-0.02168397046625614
1733861713767337500,0.37133740234375,-0.060074545443058014,0.199097141623497,-0.01891147345304489
1733861713777288400,0.381288330078125,-0.04758618399500847,0.2267729789018631,-0.012472482398152351
1733861713787239400,0.391239501953125,-0.01882236823439598,0.24365046620368958,-0.015363594517111778
1733861713797190400,0.4011904296875,0.002730061300098896,0.24760738015174866,-0.013962771743535995
1733861713807141600,0.4111416015625,0.018090087920427322,0.2499832808971405,-0.03780391439795494
1733861713817092400,0.42109228515625,0.030458075925707817,0.287607878446579,-0.07725758850574493
1733861713827043600,0.431043701171875,0.004281342029571533,0.32524043321609497,-0.08628743141889572
1733861713836994300,0.440994384765625,-0.14109289646148682,0.41661590337753296,-0.04531283676624298
1733861713846945500,0.450945556640625,-0.07854433357715607,0.23264725506305695,-0.062068723142147064
1733861713856896500,0.460896484375,-0.024265116080641747,0.068039670586586,-0.007780184503644705
1733861713866847500,0.470847412109375,-0.08012308180332184,-0.046958163380622864,0.0369294248521328
1733861713876798500,0.480798583984375,-0.0470101423561573,0.03489995002746582,0.02694096975028515
1733861713886749400,0.49074951171875,0.0002040565013885498,0.048528630286455154,-0.01616179198026657
1733861713896700700,0.50070068359375,-0.007532426156103611,0.06473662704229355,-0.02390759438276291
1733861713906651400,0.5106513671875,-0.030790168792009354,0.07732254266738892,-0.023048555478453636
1733861713916602600,0.5206025390625,-0.0579749159514904,0.07529721409082413,-0.011459010653197765
1733861713926553600,0.5305537109375,-0.07505607604980469,0.06394379585981369,-0.004075878299772739
1733861713936504600,0.540504638671875,-0.08474545180797577,0.0725782960653305,-0.008256242610514164
1733861713946455600,0.55045556640625,-0.07686683535575867,0.11589863896369934,-0.007685807999223471
1733861713956406500,0.560406494140625,-0.03603365272283554,0.12778513133525848,0.004041155334562063
1733861713966357500,0.570357421875,-0.04670567065477371,0.10602922737598419,0.00020102830603718758
1733861713976308500,0.58030859375,-0.06896170228719711,0.08196251094341278,-0.007523203734308481
1733861713986259500,0.590259521484375,-0.08732126653194427,0.03194142505526543,-0.013752871192991734
1733861713996210700,0.600210693359375,-0.08739743381738663,-0.00832690205425024,-0.02116444893181324
1733861714006161400,0.610161376953125,-0.056401487439870834,-0.011754205450415611,-0.017864419147372246
1733861714016111600,0.620111572265625,-0.031367506831884384,-0.014350255951285362,-0.02257581800222397
1733861714026062600,0.6300625,-0.023575346916913986,-0.01266640517860651,-0.030343154445290565
1733861714036013600,0.640013671875,-0.028181016445159912,-0.01561718713492155,-0.03747749701142311
1733861714045964500,0.649964599609375,-0.04356307163834572,-0.019229315221309662,-0.04215944558382034
1733861714055915500,0.65991552734375,-0.07816845923662186,-0.006830702535808086,-0.05081791430711746
1733861714065866500,0.669866455078125,-0.08324427157640457,0.05814546346664429,-0.021499549970030785
1733861714075817500,0.6798173828125,-0.03900144249200821,0.1364772915840149,0.027240825816988945
1733861714085768400,0.6897685546875,-0.03941849246621132,0.17955337464809418,0.045837633311748505
1733861714095719700,0.6997197265625,-0.060177031904459,0.20982152223587036,0.060214973986148834
1733861714105670400,0.70967041015625,-0.07054924964904785,0.21072621643543243,0.07002317905426025
1733861714115621600,0.71962158203125,-0.06542559713125229,0.1901429146528244,0.07159710675477982
1733861714125572400,0.729572265625,-0.04989089071750641,0.16739116609096527,0.07025498151779175
1733861714135523600,0.739523681640625,-0.023792976513504982,0.14464591443538666,0.07322093844413757
1733861714145474600,0.749474609375,-0.005691933445632458,0.1154579296708107,0.07195231318473816
1733861714155425500,0.759425537109375,-0.008283454924821854,0.11144055426120758,0.05107606202363968
1733861714165376500,0.76937646484375,0.00988543126732111,0.22068899869918823,0.047447726130485535
1733861714175327500,0.779327392578125,0.024794071912765503,0.2627784013748169,0.04960675165057182
1733861714185278500,0.789278564453125,0.020660050213336945,0.2978040277957916,0.07270887494087219
1733861714195229400,0.7992294921875,0.0065266527235507965,0.31751859188079834,0.0995737761259079
1733861714205180400,0.809180419921875,-0.011069115251302719,0.32919949293136597,0.1212523952126503
1733861714215131600,0.819131591796875,-0.018559787422418594,0.3310125768184662,0.1279960423707962
1733861714225082400,0.829082275390625,-0.014784508384764194,0.3125814199447632,0.11916949599981308
1733861714235033600,0.83903369140625,-0.006477310322225094,0.278483122587204,0.09783278405666351
1733861714244984600,0.848984619140625,-0.004284452646970749,0.23043058812618256,0.07601550221443176
1733861714254935600,0.858935546875,-0.007376915775239468,0.17321257293224335,0.05666870251297951
1733861714264886500,0.868886474609375,-0.014070497825741768,0.11404696106910706,0.043965600430965424
1733861714274837500,0.87883740234375,-0.01860053464770317,0.06532096862792969,0.03298325464129448
1733861714284788700,0.888788818359375,-0.01563166454434395,0.0320802666246891,0.020045625045895576
1733861714294739500,0.898739501953125,-0.008490663953125477,0.007586376741528511,0.003458659164607525
1733861714304690700,0.908690673828125,-0.008607026189565659,-0.008654710836708546,-0.009657902643084526
1733861714314640600,0.918640625,-0.006591013632714748,-0.025029156357049942,-0.014628160744905472
1733861714324591400,0.92859130859375,-0.009398035705089569,-0.04055332392454147,-0.019601993262767792
1733861714334542600,0.93854248046875,-0.010339463129639626,-0.056438546627759933,-0.019700264558196068
1733861714344493300,0.948493408203125,-0.014072861522436142,-0.06571200489997864,-0.018180470913648605
1733861714354444500,0.958444580078125,-0.015103237703442574,-0.07374143600463867,-0.020990371704101562
1733861714364395500,0.9683955078125,-0.010268032550811768,-0.07821224629878998,-0.02453893981873989
1733861714374346500,0.978346435546875,-0.0037819035351276398,-0.08169379830360413,-0.027403434738516808
1733861714384297700,0.988297607421875,-0.0023893259931355715,-0.08553171902894974,-0.02973809838294983
1733861714394248400,0.99824853515625,-0.0022473796270787716,-0.0877341479063034,-0.02847682498395443
1733861714404199700,1.00819970703125,0.00046990951523184776,-0.08357053250074387,-0.02279387228190899
1733861714414155300,1.0181552734375,0.0035202940925955772,-0.06574812531471252,-0.012000082060694695
1733861714424106200,1.028106201171875,0.00608085049316287,-0.0377761535346508,-0.003126903437077999
1733861714434057200,1.03805712890625,0.006864885333925486,-0.004485305864363909,0.003977611660957336
1733861714444008400,1.048008544921875,0.007725378032773733,0.01900075189769268,0.005837246775627136
1733861714453959200,1.057959228515625,0.006309109274297953,0.030273379758000374,0.009935318492352962
1733861714463910400,1.067910400390625,0.006556984968483448,0.03470831364393234,0.009388057515025139
1733861714473861000,1.077861083984375,0.005697050131857395,0.043394479900598526,0.009916694834828377
1733861714483812400,1.087812255859375,0.00398897472769022,0.049801766872406006,0.009836114011704922
1733861714493763300,1.097763427734375,0.0002890452742576599,0.051242802292108536,0.009641969576478004
1733861714503714300,1.10771435546875,-0.003339282935485244,0.049111075699329376,0.010042695328593254
1733861714513665300,1.117665283203125,-0.007338818162679672,0.04575389623641968,0.01143259834498167
1733861714523616300,1.1276162109375,-0.011735722422599792,0.04081036150455475,0.009645668789744377
1733861714533567200,1.137567138671875,-0.010296016931533813,0.02962588705122471,0.008513559587299824
1733861714543518200,1.147518310546875,-0.009863738901913166,0.013390815816819668,0.0043584383092820644
1733861714553469200,1.15746923828125,-0.008542012423276901,-0.004599636420607567,0.0010297533590346575
1733861714563420400,1.16742041015625,-0.004881767090409994,-0.017051497474312782,-0.003995586186647415
1733861714573371100,1.17737109375,0.00039022648707032204,-0.016773197799921036,-0.006801493000239134
1733861714583322400,1.187322265625,0.0016672913916409016,-0.004392437636852264,-0.0031509320251643658
1733861714593273000,1.197273193359375,0.0010592914186418056,0.015093112364411354,0.00026403949595987797
1733861714603224300,1.207224365234375,0.0010820794850587845,0.028859667479991913,0.004797027446329594
1733861714613175000,1.217175048828125,-0.0021022623404860497,0.032967329025268555,0.005726736504584551
1733861714623126300,1.227126220703125,-0.004441766534000635,0.024566087871789932,0.007177697494626045
1733861714633077200,1.2370771484375,-0.005560294259339571,0.016107356175780296,0.008918339386582375
1733861714643028200,1.2470283203125,-0.00747902225703001,0.01082657277584076,0.00886582676321268
1733861714652978200,1.256978271484375,-0.009383448399603367,0.01732255518436432,0.009483946487307549
1733861714662929400,1.266929443359375,-0.005649222992360592,0.03398668393492699,0.010982864536345005
1733861714672880000,1.276880126953125,-0.0038739601150155067,0.05321550741791725,0.011237462051212788
1733861714682831400,1.286831298828125,-0.004131562076508999,0.0647943913936615,0.012875629588961601
1733861714692782000,1.296781982421875,-0.005981660448014736,0.07276949286460876,0.016196059063076973
1733861714702733300,1.3067333984375,-0.009010177105665207,0.07896017283201218,0.019031964242458344
1733861714712684000,1.31668408203125,-0.011004617437720299,0.08535601943731308,0.01889720745384693
1733861714722635300,1.32663525390625,-0.01746087148785591,0.09850520640611649,0.026023022830486298
1733861714732586200,1.336586181640625,-0.024049263447523117,0.12025044858455658,0.0392749086022377
1733861714742537200,1.346537109375,-0.034587420523166656,0.1568298637866974,0.049604564905166626
1733861714752488400,1.356488525390625,-0.044868286699056625,0.1967674344778061,0.06215337663888931
1733861714762439200,1.366439208984375,-0.047262754291296005,0.24280953407287598,0.06664071977138519
1733861714772390400,1.376390380859375,-0.050459347665309906,0.2606050372123718,0.06906446069478989
1733861714782341000,1.386341064453125,-0.05301864445209503,0.2475784569978714,0.07560385018587112
1733861714792292400,1.396292236328125,-0.06017296016216278,0.22878746688365936,0.08223432302474976
1733861714802243300,1.406243408203125,-0.03459113463759422,0.18742340803146362,0.059066858142614365
1733861714812194300,1.4161943359375,-0.014556705951690674,0.13236761093139648,0.03046504221856594
1733861714822145300,1.426145263671875,-0.008621906861662865,0.10326638072729111,0.026269063353538513
1733861714832096300,1.43609619140625,-0.003901720279827714,0.0858631506562233,0.020607981830835342
1733861714842047200,1.446047119140625,-0.004835385363548994,0.0814749225974083,0.018045837059617043
1733861714851998200,1.455998291015625,-0.005574679002165794,0.07627563178539276,0.02044800855219364
1733861714861949200,1.46594921875,-0.003537078620865941,0.07197031378746033,0.02047472633421421
1733861714871900400,1.475900390625,-0.0036025922745466232,0.056073106825351715,0.019787898287177086
1733861714881851100,1.48585107421875,-0.004875908140093088,0.04169650375843048,0.016655096784234047
1733861714891802400,1.49580224609375,-0.0031770779751241207,0.03592782840132713,0.01493256539106369
1733861714901753000,1.505753173828125,-0.003525872714817524,0.033816467970609665,0.00847642868757248
1733861714911704300,1.515704345703125,-0.006860949099063873,0.024426693096756935,0.007377076428383589
1733861714921655300,1.5256552734375,-0.00909641943871975,0.011190025135874748,0.008561518043279648
1733861714931606300,1.535606201171875,-0.00789613276720047,-0.002999829361215234,0.004426960833370686
1733861714941557200,1.54555712890625,-0.00497840903699398,-0.02140534296631813,-0.004505942575633526
1733861714951508200,1.55550830078125,-0.0031853029504418373,-0.040927913039922714,-0.008449285291135311
1733861714961459200,1.565459228515625,-0.002147174905985594,-0.05529789254069328,-0.013999893330037594
1733861714971410200,1.57541015625,0.0026893918402493,-0.06731674075126648,-0.02201813831925392
1733861714981361200,1.585361083984375,0.003670739009976387,-0.07290048897266388,-0.025760632008314133
1733861714991312400,1.5953125,-0.0002608858048915863,-0.07205680012702942,-0.021433794870972633
1733861715001263000,1.60526318359375,-0.005677989684045315,-0.07312324643135071,-0.015550964511930943
1733861715011214300,1.61521435546875,-0.010890861041843891,-0.07108273357152939,-0.011700564995408058
1733861715021165300,1.625165283203125,-0.008490503765642643,-0.06428571790456772,-0.01201562024652958
1733861715031116300,1.6351162109375,-0.0022307434119284153,-0.059977512806653976,-0.012517093680799007
1733861715041066200,1.645066162109375,0.004408462438732386,-0.05491705983877182,-0.010312480852007866
1733861715051017200,1.655017333984375,0.0069243512116372585,-0.04330701008439064,-0.009329241700470448
1733861715060968200,1.66496826171875,0.006195963826030493,-0.01907087117433548,-0.0040368735790252686
1733861715070919200,1.674919189453125,-0.0004361059982329607,0.012413817457854748,0.004324653185904026
1733861715080870100,1.6848701171875,-0.002988216932862997,0.04552065208554268,0.013255609199404716
1733861715090821400,1.6948212890625,-0.004848435055464506,0.07622290402650833,0.02224271185696125
1733861715100772000,1.704772216796875,-0.00787501223385334,0.08937803655862808,0.023397410288453102
1733861715110723300,1.714723388671875,-0.008270490914583206,0.09128458797931671,0.02217715047299862
1733861715120674300,1.72467431640625,-0.007907584309577942,0.08810877054929733,0.01480450015515089
1733861715130625300,1.734625244140625,-0.007973097264766693,0.06907223165035248,0.008620640262961388
1733861715140576300,1.744576171875,-0.005509365350008011,0.03875706344842911,0.0011670716339722276
1733861715150527200,1.75452734375,-0.0029439423233270645,0.011286291293799877,-0.004307588562369347
1733861715160478500,1.764478515625,0.001533155795186758,-0.018413467332720757,-0.015066537074744701
1733861715170429200,1.77442919921875,0.002956882119178772,-0.04024446755647659,-0.01755552552640438
1733861715180380400,1.78438037109375,0.007041812874376774,-0.04989652708172798,-0.02071150578558445
1733861715190331100,1.7943310546875,0.006500392220914364,-0.04610471799969673,-0.02004465088248253
1733861715200282400,1.804282470703125,0.005556567572057247,-0.03351009637117386,-0.01716950163245201
1733861715210233000,1.814233154296875,0.0016662217676639557,-0.02184758149087429,-0.012634137645363808
1733861715220184300,1.824184326171875,0.00022276397794485092,-0.010755430907011032,-0.00831102579832077
1733861715230135300,1.83413525390625,-0.0009162700735032558,-0.0016599369700998068,-0.0013993238098919392
1733861715240086300,1.844086181640625,0.00029983650892972946,0.008047463372349739,0.0009926795028150082
1733861715250037200,1.854037353515625,0.0005512386560440063,0.00988744106143713,0.000935155141633004
1733861715259988200,1.86398828125,0.0011365190148353577,0.0044567277655005455,0.00013918185140937567
1733861715269939200,1.873939208984375,0.0003538159653544426,-0.007415644358843565,-0.00030050601344555616
1733861715279890200,1.88389013671875,-0.0006288732402026653,-0.012671714648604393,-0.0021153627894818783
1733861715289841200,1.893841064453125,0.002227633260190487,-0.01433699019253254,0.0002985266037285328
1733861715299792400,1.90379248046875,-0.00033238413743674755,-0.008754730224609375,0.002030381001532078
1733861715309743000,1.9137431640625,-0.001663698349148035,0.006365632638335228,0.0041886065155267715
1733861715319694300,1.9236943359375,-0.0019042573403567076,0.019525621086359024,0.006296985782682896
1733861715329645000,1.93364501953125,-0.0016219622921198606,0.019334672018885612,0.007022164762020111
1733861715339596300,1.94359619140625,-0.0017663054168224335,0.006786390673369169,0.0066522518172860146
1733861715349547300,1.95354736328125,-0.004056357778608799,-0.010935881175100803,0.0028532524593174458
1733861715359498200,1.963498291015625,0.00045368075370788574,-0.025556815788149834,-0.0013878298923373222
1733861715369449500,1.973449462890625,0.003101928159594536,-0.02933983877301216,-0.005790035240352154
1733861715379400200,1.983400146484375,0.004608490504324436,-0.027842916548252106,-0.0057576787658035755
1733861715389351400,1.993351318359375,0.003370919730514288,-0.02251206710934639,-0.0054618013091385365
1733861715399302100,2.00330224609375,0.0019288877956569195,-0.02086353302001953,-0.002876849379390478
1733861715409253400,2.01325341796875,0.0013094362802803516,-0.021327722817659378,-0.002427840605378151
1733861715419200800,2.02320068359375,0.0027447985485196114,-0.02518264204263687,-0.005628381390124559
1733861715429151500,2.0331513671875,0.003922981210052967,-0.03250926360487938,-0.00599296810105443
1733861715439102700,2.043102783203125,0.004155814182013273,-0.03611516207456589,-0.012115266174077988
1733861715449053400,2.053053466796875,0.002883888315409422,-0.039220672100782394,-0.012407414615154266
1733861715459004700,2.063004638671875,0.004308340139687061,-0.032556403428316116,-0.01320001482963562
1733861715468955400,2.072955322265625,0.0034798309206962585,-0.02553497813642025,-0.011872162111103535
1733861715478906600,2.08290673828125,0.00157972052693367,-0.017892956733703613,-0.008015685714781284
1733861715488857900,2.09285791015625,0.0012167314998805523,-0.012867039069533348,-0.005636950023472309
1733861715498808600,2.10280859375,0.0025419341400265694,-0.012279855087399483,-0.006257866509258747
1733861715508759800,2.112759765625,0.0037872279062867165,-0.01337361615151167,-0.00949866697192192
1733861715518710500,2.12271044921875,0.004112160764634609,-0.015874410048127174,-0.010126372799277306
1733861715528661800,2.132661865234375,0.002869263757020235,-0.014638170599937439,-0.010023575276136398
1733861715538611700,2.14261181640625,0.004402964375913143,-0.013097488321363926,-0.00880131684243679
1733861715548562400,2.1525625,0.0021254289895296097,-0.01138028223067522,-0.007229253184050322
1733861715558513700,2.162513671875,-0.0008434588089585304,-0.01093634869903326,-0.00614059716463089
1733861715568464600,2.172464599609375,-0.004533534869551659,-0.012869537808001041,-0.00842479057610035
1733861715578415600,2.18241552734375,-0.008284375071525574,-0.005230913870036602,-0.012590862810611725
1733861715588366800,2.192366943359375,-0.009444979950785637,0.0026528413873165846,-0.010248079895973206
1733861715598317600,2.202317626953125,-0.008890414610505104,0.012714224867522717,-0.005757852923125029
1733861715608268800,2.212268798828125,-0.0072605605237185955,0.025189803913235664,-0.0005282035563141108
1733861715618219500,2.222219482421875,-0.004902102053165436,0.037702519446611404,0.004990484565496445
1733861715628170800,2.232170654296875,-0.008969814516603947,0.05155095458030701,0.01221111323684454
1733861715638121700,2.242121826171875,-0.012180313467979431,0.06895223259925842,0.017601393163204193
1733861715648072700,2.25207275390625,-0.011859668418765068,0.08043605089187622,0.017923103645443916
1733861715658023700,2.262023681640625,-0.008817215450108051,0.07801744341850281,0.015332603827118874
1733861715667974700,2.271974609375,-0.00805368646979332,0.05989357456564903,0.010677131824195385
1733861715677925600,2.281925537109375,-0.005460882559418678,0.026071052998304367,0.0014132808428257704
1733861715687876600,2.291876708984375,-0.004579376429319382,-0.0035206610336899757,-0.004684292711317539
1733861715697827600,2.30182763671875,0.0006543449126183987,-0.023039747029542923,-0.011084886267781258
1733861715707778800,2.31177880859375,0.0009374390356242657,-0.03252432867884636,-0.015641821548342705
1733861715717729500,2.3217294921875,0.0021879607811570168,-0.04437747597694397,-0.016462432220578194
1733861715727680800,2.3316806640625,0.005307320971041918,-0.052769362926483154,-0.016532473266124725
1733861715737631500,2.341631591796875,0.005822727922350168,-0.056637078523635864,-0.01853627897799015
1733861715747582700,2.351582763671875,0.0072789439000189304,-0.05763869360089302,-0.021042579784989357
1733861715757533400,2.361533447265625,0.005251124035567045,-0.052735794335603714,-0.017376119270920753
1733861715767484700,2.371484619140625,0.004609834868460894,-0.042385682463645935,-0.013062597252428532
1733861715777435600,2.381435546875,0.0034641390666365623,-0.026001103222370148,-0.008885384537279606
1733861715787386600,2.39138671875,-0.0001585588324815035,-0.012226168066263199,-0.003444013651460409
1733861715797337600,2.401337646484375,-0.00041016237810254097,-0.005241444334387779,0.0019570100121200085
1733861715807288600,2.41128857421875,-0.002195012988522649,-0.0032083874102681875,0.0033114938996732235
1733861715817239600,2.421239501953125,-0.003132777288556099,-0.001524788560345769,0.0014601973816752434
1733861715827190500,2.4311904296875,0.00000788876786828041,-0.0035437310580164194,0.0015736480709165335
1733861715837141800,2.441141845703125,-0.0004562253598123789,-0.005960793234407902,-0.000186656485311687
1733861715847092700,2.4510927734375,-0.0012682231608778238,-0.006065987981855869,0.002666121581569314
1733861715857043700,2.461043701171875,-0.001233540941029787,-0.0059913452714681625,0.003177942242473364
1733861715866994700,2.47099462890625,-0.003102547489106655,-0.0019891466945409775,0.005179041530936956
1733861715876945700,2.480945556640625,-0.0029238350689411163,0.0003024584148079157,0.0017325134249404073
1733861715886896600,2.490896728515625,-0.0009208715055137873,-0.005225198343396187,-0.000234230887144804
1733861715896847600,2.50084765625,-0.0015465053729712963,-0.015285111032426357,-0.0013101543299853802
1733861715906798600,2.510798583984375,-0.0016916475724428892,-0.023842114955186844,-0.004102745093405247
1733861715916749800,2.520749755859375,0.00008761044591665268,-0.031958628445863724,-0.006413836032152176
1733861715926700500,2.530700439453125,-0.0000740434043109417,-0.03326650708913803,-0.007209855131804943
1733861715936651800,2.54065185546875,-0.0002660243771970272,-0.029390912503004074,-0.0067648813128471375
1733861715946602500,2.5506025390625,-0.0035161462146788836,-0.019963590428233147,-0.006461814045906067
1733861715956553700,2.5605537109375,-0.009952254593372345,-0.012509521096944809,-0.007002262398600578
1733861715966504400,2.57050439453125,-0.010256120935082436,-0.009003203362226486,-0.004523925017565489
1733861715976455700,2.58045556640625,-0.0061838580295443535,-0.0021994328126311302,-0.0020090555772185326
1733861715986406700,2.59040673828125,-0.0035172351635992527,0.0068880720064044,0.0033849109895527363
1733861715996357600,2.600357666015625,-0.0031292219646275043,0.019844911992549896,0.005111525766551495
1733861716006308600,2.61030859375,-0.002447186503559351,0.02594754472374916,0.0065040928311645985
1733861716016259600,2.620259521484375,-0.0060464488342404366,0.03130209818482399,0.007428742479532957
1733861716026210600,2.63021044921875,-0.004260266665369272,0.035603102296590805,0.009281503036618233
1733861716036161500,2.64016162109375,-0.00652825552970171,0.04006189852952957,0.007633404340595007
1733861716046112500,2.650112548828125,-0.006726660765707493,0.0488537922501564,0.01148593332618475
1733861716056063700,2.660063720703125,-0.006966070272028446,0.05356116592884064,0.011361475102603436
1733861716066014500,2.670014404296875,-0.009367709048092365,0.05927657708525658,0.016913900151848793
1733861716075965700,2.679965576171875,-0.011214768514037132,0.073486328125,0.023922063410282135
1733861716085916400,2.68991650390625,-0.01192290335893631,0.09304431825876236,0.029175149276852608
1733861716095867600,2.69986767578125,-0.012834299355745316,0.10414323210716248,0.029238834977149963
1733861716105818600,2.709818603515625,-0.010354097932577133,0.11362435668706894,0.026188716292381287
1733861716115769600,2.71976953125,-0.00975329801440239,0.09073744714260101,0.02282017096877098
1733861716125720800,2.729720947265625,-0.005884789861738682,0.06881962716579437,0.016095424070954323
1733861716135671600,2.739671630859375,-0.0034517121966928244,0.03554844856262207,0.008945769630372524
1733861716145622800,2.749622802734375,-0.003047710517421365,-0.00533826369792223,0.0023917299695312977
1733861716155573500,2.759573486328125,-0.0010705359745770693,-0.03571894019842148,-0.0018111324170604348
1733861716165524700,2.769524658203125,0.000846407376229763,-0.057716384530067444,-0.006963816471397877
1733861716175475700,2.779475830078125,0.004317841958254576,-0.07005216181278229,-0.015144024975597858
1733861716185426700,2.7894267578125,0.006747710984200239,-0.08003688603639603,-0.02239208295941353
1733861716195377700,2.799377685546875,0.008142383769154549,-0.0879964679479599,-0.027506999671459198
1733861716205328600,2.80932861328125,0.005897871684283018,-0.09369856119155884,-0.034346263855695724
1733861716215279600,2.819279541015625,-0.011175107210874557,-0.10128196328878403,-0.05021563917398453
1733861716225230600,2.829230712890625,-0.00836067833006382,-0.12193611264228821,-0.04022665694355965
1733861716235181600,2.839181640625,0.001120180357247591,-0.1222091019153595,-0.03343164548277855
1733861716245132800,2.8491328125,0.006349030416458845,-0.10107584297657013,-0.034424204379320145
1733861716255083500,2.85908349609375,0.005967651028186083,-0.08088743686676025,-0.03358703851699829
1733861716265034800,2.86903466796875,0.005844080355018377,-0.07536937296390533,-0.02973398007452488
1733861716274985500,2.8789853515625,0.0029806592501699924,-0.07108091562986374,-0.024991510435938835
1733861716284936700,2.888936767578125,-0.002651659771800041,-0.06338917464017868,-0.02207694575190544
1733861716294887400,2.898887451171875,-0.006630683783441782,-0.050431039184331894,-0.01934937946498394
1733861716304838700,2.908838623046875,-0.004816538654267788,-0.03771151602268219,-0.01651018299162388
1733861716314789600,2.91878955078125,-0.0027034105733036995,-0.028800299391150475,-0.01462436281144619
1733861716324740600,2.92874072265625,-0.0058957417495548725,-0.021868357434868813,-0.009687129408121109
1733861716334691600,2.938691650390625,-0.007560170721262693,-0.0136710274964571,-0.006828400306403637
1733861716344642600,2.948642578125,-0.011297384276986122,-0.0019693649373948574,-0.0033798725344240665
1733861716354593500,2.958593505859375,-0.016770940274000168,0.018141642212867737,0.0012459539575502276
1733861716364544500,2.96854443359375,-0.015118449926376343,0.033827926963567734,0.007017023861408234
1733861716374495700,2.978495849609375,-0.015350611880421638,0.04410859942436218,0.011671929620206356
1733861716384446700,2.98844677734375,-0.014593741856515408,0.03969094529747963,0.012371009215712547
1733861716394397700,2.998397705078125,-0.009949030354619026,0.03243362903594971,0.0070496429689228535
1733861716404348700,3.0083486328125,-0.006709295324981213,0.023566104471683502,0.002382453065365553
1733861716414299600,3.018299560546875,-0.004541211295872927,0.014777657575905323,-0.0015505471965298057
1733861716424251000,3.0282509765625,-0.0008348899427801371,0.010834313929080963,-0.00080246536526829
1733861716434201600,3.03820166015625,-0.0002933656796813011,0.015107305720448494,-0.001208714791573584
1733861716444152800,3.04815283203125,0.0017572683282196522,0.02320464700460434,0.0011907932348549366
1733861716454103800,3.058103759765625,0.0002520047128200531,0.029291173443198204,0.0016804073238745332
1733861716464054800,3.0680546875,-0.0002215052954852581,0.02967733144760132,0.003129699733108282
1733861716474005800,3.078005859375,-0.0019861359614878893,0.026060020551085472,0.0030904593877494335
1733861716483956700,3.087956787109375,-0.0008878482040017843,0.014178059995174408,-0.0001327645732089877
1733861716493907700,3.09790771484375,-0.0005717161111533642,0.004953357856720686,-0.002104167127981782
1733861716503858700,3.107858642578125,0.002853375393897295,-0.005476912017911673,-0.006018747575581074
1733861716513809700,3.1178095703125,0.004692510236054659,-0.013155469670891762,-0.006517164409160614
1733861716523761000,3.127760986328125,0.004231516737490892,-0.014806630089879036,-0.00649053230881691
1733861716533711600,3.137711669921875,0.0033623510971665382,-0.014382660388946533,-0.007533146534115076
1733861716543662800,3.147662841796875,0.0024403645657002926,-0.019400056451559067,-0.005108071956783533
1733861716553613600,3.157613525390625,0.001858971081674099,-0.013964202255010605,-0.0017831644508987665
1733861716563564800,3.167564697265625,-0.00045957718975842,-0.01327417604625225,-0.0009450674988329411
1733861716573515800,3.177515869140625,-0.00013628927990794182,-0.011543326079845428,0.00045752746518701315
1733861716583466800,3.187466796875,0.0007089981809258461,-0.00909268669784069,-0.0011986924801021814
1733861716593417700,3.197417724609375,-0.0006664898246526718,-0.008718352764844894,-0.0013324216706678271
1733861716603368700,3.20736865234375,-0.000008955132216215134,-0.004467414226382971,-0.000585671397857368
1733861716613320000,3.21731982421875,0.0002749278210103512,-0.0034031851682811975,0.00044665683526545763
1733861716623270700,3.227270751953125,0.0008059623651206493,-0.004499875009059906,0.00025251240003854036
1733861716633222000,3.237221923828125,0.001136672217398882,-0.005663776770234108,-0.0008905689464882016
1733861716643172900,3.2471728515625,-0.00039491173811256886,-0.006975117139518261,-0.0013310558861121535
1733861716653123800,3.257123779296875,0.001569983083754778,-0.005090442486107349,-0.0007106706034392118
1733861716663074800,3.26707470703125,0.0011313604190945625,-0.004787108860909939,-0.001329056452959776
1733861716673025800,3.27702587890625,0.0013478752225637436,-0.006973030976951122,-0.0016172104515135288
1733861716682976800,3.286976806640625,0.0005334806628525257,-0.007087547332048416,-0.0023224155884236097
1733861716692927700,3.296927734375,-0.000351970549672842,-0.006505265366286039,-0.0024621346965432167
1733861716702878700,3.306878662109375,0.0017708353698253632,-0.002474570646882057,-0.004624887835234404
1733861716712830000,3.316829833984375,0.000038675032556056976,0.0009615609887987375,-0.00229240907356143
1733861716722780700,3.32678076171875,0.0001518595963716507,0.004407158587127924,-0.0007757387356832623
1733861716732732000,3.33673193359375,0.0008472618646919727,0.002268754644319415,0.0004946863045915961
1733861716742682600,3.3466826171875,0.0010097143240272999,-0.0006218403577804565,-0.0016707299510017037
1733861716752633900,3.3566337890625,0.0030142301693558693,-0.003293386660516262,-0.0031108420807868242
1733861716762584600,3.36658447265625,0.0025146212428808212,-0.007813835516571999,-0.004450945183634758
1733861716772535800,3.376535888671875,0.002362344413995743,-0.00872187502682209,-0.003343548160046339
1733861716782486800,3.38648681640625,0.0015950873494148254,-0.004066137131303549,-0.0018465854227542877
1733861716792437800,3.396437744140625,0.0003937147557735443,-0.003111332654953003,-0.0015995368594303727
1733861716802388700,3.406388671875,-0.0004142883699387312,0.005831295624375343,-0.0004237511893734336
1733861716812339700,3.416339599609375,-0.00003615953028202057,0.011714606545865536,0.0029936993960291147
1733861716822290700,3.426290771484375,-0.0033478003460913897,0.01802976056933403,0.004691997077316046
1733861716832241700,3.43624169921875,-0.0019213862251490355,0.0180808175355196,0.006449997890740633
1733861716842192600,3.446192626953125,-0.004354982636868954,0.0144341504201293,0.005629744380712509
1733861716852143900,3.456143798828125,-0.0008386683184653521,0.0036284876987338066,0.0027835238724946976
1733861716862094600,3.466094482421875,0.0002684076316654682,-0.007092866115272045,-0.0006873739184811711
1733861716872045800,3.4760458984375,0.0008994904346764088,-0.01251401286572218,-0.003341324394568801
1733861716881996800,3.485996826171875,0.002241990063339472,-0.01275875698775053,-0.0054952893406152725
1733861716891947800,3.49594775390625,0.0006531067192554474,-0.012915493920445442,-0.002143354155123234
1733861716901898800,3.505898681640625,-0.0004174842033535242,-0.013049982488155365,-0.002874392084777355
1733861716911849700,3.515849609375,0.0010006139054894447,-0.012593943625688553,-0.0012074809055775404
1733861716921801000,3.525801025390625,0.0010389634408056736,-0.009696690365672112,-0.0013025556690990925
1733861716931751700,3.535751708984375,0.002059255726635456,-0.012513888999819756,-0.00150845677126199
1733861716941703000,3.545702880859375,0.0038217357359826565,-0.021233877167105675,-0.005091207101941109
1733861716951653600,3.555653564453125,0.0026262225583195686,-0.02990294061601162,-0.010877816006541252
1733861716961604900,3.56560498046875,0.0034035993739962578,-0.03525242954492569,-0.012952950783073902
1733861716971555600,3.5755556640625,0.004802562762051821,-0.04111779108643532,-0.01788756623864174
1733861716981506800,3.5855068359375,0.0015106294304132462,-0.04396923631429672,-0.019772283732891083
1733861716991457800,3.595457763671875,-0.005554249044507742,-0.044851940125226974,-0.024239344522356987
1733861717001408800,3.60540869140625,-0.002136348048225045,-0.05607876181602478,-0.021650219336152077
1733861717011359700,3.61535986328125,0.003913698717951775,-0.055233102291822433,-0.016733907163143158
1733861717021310700,3.625310791015625,0.005323044024407864,-0.04595358669757843,-0.015563182532787323
1733861717031261700,3.63526171875,0.006483925972133875,-0.03317737206816673,-0.014100659638643265
1733861717041212700,3.645212646484375,0.006834398489445448,-0.025557532906532288,-0.013196516782045364
1733861717051163600,3.65516357421875,0.005937335547059774,-0.019548317417502403,-0.009778772480785847
1733861717061115000,3.665114990234375,0.002377222292125225,-0.01759648695588112,-0.0051395464688539505
1733861717071065600,3.675065673828125,0.0011985581368207932,-0.014186728745698929,-0.0027007912285625935
1733861717081016800,3.685016845703125,-0.000009451527148485184,-0.011374696157872677,-0.0023966580629348755
1733861717090967600,3.694967529296875,0.0016760118305683136,-0.006657020188868046,-0.0017155201639980078
1733861717100918800,3.704918701171875,-0.0012044631876051426,-0.004643137566745281,-0.0010619803797453642
1733861717110869800,3.714869873046875,0.0006794421933591366,-0.0024909914936870337,-0.0005875405622646213
1733861717120820700,3.72482080078125,-0.0002041948027908802,-0.003128019394353032,0.0007408440578728914
1733861717130772000,3.73477197265625,0.0009645093232393265,-0.003519560908898711,-0.0011953851208090782
1733861717140722700,3.74472265625,0.0019458839669823647,-0.00493263453245163,-0.0007567624561488628
1733861717150674000,3.754673828125,0.0011253319680690765,-0.004519217647612095,-0.002113916678354144
1733861717160624600,3.764624755859375,0.0033037979155778885,-0.005174621939659119,-0.001986884046345949
1733861717170576000,3.774575927734375,-0.0004189922474324703,-0.010043803602457047,-0.003095103893429041
1733861717180526800,3.78452685546875,0.0011863610707223415,-0.010775640606880188,-0.0006191631546244025
1733861717190477800,3.794477783203125,0.0015131146647036076,-0.01253833994269371,-0.0038648946210741997
1733861717200428800,3.8044287109375,0.003207684028893709,-0.013749546371400356,-0.004563175607472658
1733861717210379800,3.8143798828125,0.0022502942010760307,-0.012974080629646778,-0.00569088663905859
1733861717220330800,3.824330810546875,0.002130717970430851,-0.00991091225296259,-0.004941739607602358
1733861717230281700,3.83428173828125,-0.0002392977476119995,-0.011472655460238457,-0.0043486254289746284
1733861717240232700,3.844232666015625,0.00005125300958752632,-0.013762440532445908,-0.0034772390499711037
1733861717250184000,3.854183837890625,0.00020791590213775635,-0.015163998119533062,-0.004151579923927784
1733861717260134700,3.864134765625,-0.0019329993519932032,-0.017861247062683105,-0.005922848358750343
1733861717270086000,3.8740859375,-0.012052744626998901,-0.01309978123754263,-0.012195391580462456
1733861717280036600,3.88403662109375,-0.014127613976597786,-0.016897981986403465,-0.010776192881166935
1733861717289987800,3.89398779296875,-0.007311823777854443,-0.01659107580780983,-0.003214111551642418
1733861717299938600,3.9039384765625,-0.004989014472812414,-0.00802395399659872,-0.0025400654412806034
1733861717309889800,3.913889892578125,-0.002725066151469946,-0.0014579144772142172,-0.001528021413832903
1733861717319840800,3.9238408203125,-0.0052348291501402855,0.0013261541025713086,-0.002953877905383706
1733861717329791700,3.933791748046875,-0.008600527420639992,0.0033749083522707224,0.0006091222167015076
1733861717339742700,3.94374267578125,-0.011044243350625038,0.004802096635103226,0.0035961237736046314
1733861717349693700,3.953693603515625,-0.00879649817943573,0.008275015279650688,0.0042879777029156685
1733861717359644700,3.963644775390625,-0.006323486566543579,0.009440148249268532,0.005774021614342928
1733861717369595600,3.973595703125,-0.003239051206037402,0.010290605016052723,0.0035721552558243275
1733861717379546600,3.983546630859375,-0.0020230519585311413,0.005744322668761015,0.0021319177467375994
1733861717389497900,3.993497802734375,-0.0007441260386258364,0.0015461621806025505,0.0011712461709976196
1733861717399448800,4.00344873046875,0.00035948771983385086,-0.006217485293745995,-0.0034045972861349583
1733861717409399800,4.01339990234375,0.0008882847614586353,-0.00997968576848507,-0.005038383882492781
1733861717419350300,4.023350341796875,0.003286993596702814,-0.01666422002017498,-0.005968892481178045
1733861717429301200,4.03330126953125,0.001629500649869442,-0.022102832794189453,-0.0028651871252804995
1733861717439252500,4.04325244140625,0.0013831579126417637,-0.022539058700203896,-0.004155755043029785
1733861717449203200,4.053203125,-0.0002382171805948019,-0.019233418628573418,-0.004962613806128502
1733861717459154400,4.063154541015625,0.0014606132172048092,-0.011567508801817894,-0.004331444390118122
1733861717469105200,4.073105224609375,0.0017879055812954903,-0.004319951869547367,-0.0025608884170651436
1733861717479056400,4.083056396484375,0.0008539347909390926,-0.0021002073772251606,-0.00031930580735206604
1733861717489007400,4.09300732421875,-0.0016038811299949884,-0.0010757355485111475,-0.000009177252650260925
1733861717498958300,4.102958251953125,-0.0013556743506342173,-0.0033628579694777727,-0.0009958783630281687
1733861717508909300,4.112909423828125,0.0008326717652380466,-0.005221822299063206,-0.0011004902189597487
1733861717518860300,4.1228603515625,0.0016894103027880192,-0.007403749972581863,-0.0005803749663755298
1733861717528811300,4.132811279296875,0.0013378574512898922,-0.007584798149764538,-0.0010758597636595368
1733861717538762200,4.14276220703125,0.0012182812206447124,-0.002241165842860937,-0.00003349850885570049
1733861717548713200,4.152713134765625,0.001263294368982315,0.0010861721821129322,0.00019868591334670782
1733861717558664400,4.16266455078125,-0.002407340332865715,0.0018611520063132048,0.0015004391316324472
1733861717568615200,4.172615234375,-0.0023375870659947395,0.0025637559592723846,0.0035062385722994804
1733861717578566400,4.18256640625,-0.0012057435233145952,0.001928592100739479,0.0037696249783039093
1733861717588517000,4.19251708984375,-0.0010530746076256037,-0.00046978751197457314,0.0010734132956713438
1733861717598469400,4.202469482421875,0.001060942653566599,-0.0027049784548580647,-0.0003356651868671179
1733861717608420400,4.21242041015625,0.002941085956990719,-0.003574093570932746,-0.002834654413163662
1733861717618371300,4.222371337890625,0.0035799783654510975,-0.0049642641097307205,-0.0024676709435880184
1733861717628322300,4.232322265625,0.0033115209080278873,-0.009420499205589294,-0.002952546114102006
1733861717638273300,4.242273193359375,0.004638574086129665,-0.0124016422778368,-0.00417254026979208
1733861717648224300,4.252224365234375,0.005648753605782986,-0.013083801604807377,-0.004847463686019182
1733861717658175200,4.26217529296875,0.002934726420789957,-0.010507460683584213,-0.0024777832441031933
1733861717668126500,4.27212646484375,0.004773057997226715,-0.007647618651390076,-0.002732259454205632
1733861717678077200,4.2820771484375,0.0030550528317689896,-0.006734686903655529,-0.0032624949235469103
1733861717688028400,4.2920283203125,0.0015714592300355434,-0.0011424703989177942,-0.0015142944175750017
1733861717697979100,4.301979248046875,0.0021847854368388653,0.011686243116855621,0.0013893500436097383
1733861717707930400,4.311930419921875,-0.00013596192002296448,0.02873041108250618,0.0031566519755870104
1733861717717881000,4.321881103515625,-0.003469706978648901,0.04099719598889351,0.008816402405500412
1733861717727832300,4.331832275390625,-0.0030738648492842913,0.04480336979031563,0.012281996197998524
1733861717737783300,4.341783203125,-0.006077111698687077,0.04549312964081764,0.011694769375026226
1733861717747734300,4.351734375,-0.005933545064181089,0.04948434606194496,0.013110602274537086
1733861717757685200,4.361685302734375,-0.0006977703887969255,0.058527108281850815,0.012175565585494041
1733861717767636200,4.37163623046875,-0.0013404409401118755,0.07285692542791367,0.011295244097709656
1733861717777587200,4.381587158203125,-0.0027383342385292053,0.07419196516275406,0.01523592323064804
1733861717787538200,4.3915380859375,-0.003640873823314905,0.0685388594865799,0.015807660296559334
1733861717797489200,4.4014892578125,-0.004924251232296228,0.06407566368579865,0.014289393089711666
1733861717807440400,4.4114404296875,-0.004578380845487118,0.05616842582821846,0.012793300673365593
1733861717817391000,4.42139111328125,-0.000953818904235959,0.05328528955578804,0.008699489757418633
1733861717827342300,4.43134228515625,-0.0009238386992365122,0.04927945137023926,0.004485432058572769
1733861717837293000,4.44129296875,-0.002223195042461157,0.04542798548936844,0.005319800227880478
1733861717847244300,4.451244384765625,-0.004209213890135288,0.040337640792131424,0.005152791738510132
1733861717857195300,4.4611953125,-0.004207615740597248,0.03490639105439186,0.0063307080417871475
1733861717867146200,4.471146240234375,-0.004385415464639664,0.03242377191781998,0.004465990699827671
1733861717877097500,4.481097412109375,-0.004037340171635151,0.033206209540367126,0.003556787734851241
1733861717887048200,4.491048095703125,-0.001553999027237296,0.03316535800695419,0.004672014154493809
1733861717896999400,4.50099951171875,-0.0050046565011143684,0.034197598695755005,0.005618235096335411
1733861717906950100,4.5109501953125,-0.0049413335509598255,0.037876661866903305,0.008397450670599937
1733861717916901400,4.5209013671875,-0.005548001732677221,0.03482387959957123,0.008130068890750408
1733861717926852400,4.530852294921875,-0.0045556253753602505,0.03175914287567139,0.009246887639164925
1733861717936803300,4.54080322265625,-0.004134845919907093,0.025447186082601547,0.0051589347422122955
1733861717946754300,4.55075439453125,-0.003454740159213543,0.01738359034061432,0.003482190892100334
1733861717956705300,4.560705322265625,-0.0029809637926518917,0.008830848149955273,0.0037221419624984264
1733861717966656300,4.57065625,-0.00224458915181458,0.006490697618573904,0.0003070844104513526
1733861717976607200,4.580607177734375,-0.001586788333952427,0.003673073137179017,0.0010333284735679626
1733861717986558200,4.59055810546875,-0.0024339291267096996,-0.00024633249267935753,0.0010220571421086788
1733861717996509400,4.600509521484375,-0.002845387440174818,-0.0006825583986938,0.00015466567128896713
1733861718006460200,4.610460205078125,-0.002840832807123661,0.004286022391170263,0.0010119890794157982
1733861718016411400,4.620411376953125,-0.0025332376826554537,0.007278882898390293,-0.0015947130741551518
1733861718026362000,4.630362060546875,-0.001450711628422141,0.006976755801588297,0.002060862025246024
1733861718036313300,4.640313232421875,-0.0030209114775061607,0.0017212736420333385,-0.00012293015606701374
1733861718046264000,4.65026416015625,-0.0009628888219594955,-0.007469626609236002,-0.002300301566720009
1733861718056215300,4.66021533203125,0.0019548702985048294,-0.015723295509815216,-0.0036593126133084297
1733861718066166300,4.670166259765625,0.001034412533044815,-0.023214537650346756,-0.007002592086791992
1733861718076117200,4.6801171875,0.003705563023686409,-0.03063862957060337,-0.009932336397469044
1733861718086068200,4.690068115234375,0.0037918323650956154,-0.035345982760190964,-0.010322893969714642
1733861718096019200,4.700019287109375,0.003997428342700005,-0.03960437700152397,-0.010179083794355392
1733861718105970200,4.70997021484375,0.0026082503609359264,-0.03944491595029831,-0.011110900901257992
1733861718115921200,4.719921142578125,0.002476157620549202,-0.03516627848148346,-0.010037114843726158
1733861718125872400,4.729872314453125,0.0001874258741736412,-0.03015471249818802,-0.008079072460532188
1733861718135823400,4.7398232421875,-0.0034323427826166153,-0.024185236543416977,-0.005887290928512812
1733861718145774300,4.7497744140625,-0.007869413122534752,-0.01371614821255207,-0.004647227935492992
1733861718155725300,4.759725341796875,-0.011199429631233215,-0.006543988361954689,-0.003163048531860113
1733861718165676300,4.76967626953125,-0.00598174799233675,-0.002909087808802724,-0.00034342193976044655
1733861718175627300,4.779627197265625,-0.0026453398168087006,0.0014667522627860308,-0.0007093404419720173
1733861718185579300,4.789579345703125,0.0002081603743135929,0.004271814599633217,-0.0014938391977921128
1733861718195530200,4.7995302734375,0.0006558378227055073,0.0036603526677936316,-0.0013686706079170108
1733861718205481200,4.809481201171875,-0.0008853224571794271,0.006296850740909576,-0.00022972282022237778
1733861718215432200,4.81943212890625,-0.0015521780587732792,0.013062877580523491,0.002447286620736122
1733861718225383200,4.829383056640625,-0.00469987653195858,0.021123018115758896,0.0034122858196496964
1733861718235334100,4.839334228515625,-0.006421610247343779,0.026345742866396904,0.006454148329794407
1733861718245285400,4.849285400390625,-0.0037896314170211554,0.032044440507888794,0.008205879479646683
1733861718255236000,4.859236083984375,-0.004214938264340162,0.032529935240745544,0.006692937109619379
1733861718265187300,4.869187255859375,-0.00394789781421423,0.02953941561281681,0.006241020280867815
1733861718275138000,4.879137939453125,-0.0012836712412536144,0.021627962589263916,0.0035879791248589754
1733861718285089300,4.88908935546875,-0.0007734207902103662,0.013127450831234455,-0.00016166595742106438
1733861718295040300,4.899040283203125,0.0011539086699485779,0.0071425288915634155,0.0007560593076050282
1733861718304991200,4.9089912109375,0.0002665105275809765,0.004241376183927059,0.00012008752673864365
1733861718314942500,4.9189423828125,-0.0018192771822214127,0.0024538622237741947,-0.00014036963693797588
1733861718324893200,4.92889306640625,-0.0010725045576691628,0.003473257180303335,-0.00039327528793364763
1733861718334844400,4.938844482421875,-0.001526040956377983,0.0060746329836547375,0.0015524300979450345
1733861718344795100,4.948795166015625,-0.0008176008705049753,0.004747734405100346,0.0031130092684179544
1733861718354746400,4.958746337890625,-0.0008101440034806728,0.002685116371139884,0.0027625374495983124
1733861718364697300,4.968697265625,-0.0013075536116957664,0.0020241921301931143,0.0008046033326536417
1733861718374648300,4.9786484375,-0.0006968907546252012,0.0031813355162739754,-0.00019195163622498512
1733861718384599300,4.988599365234375,-0.000660519115626812,-0.0005355833563953638,0.0006147739477455616
1733861718394550300,4.99855029296875,-0.002554559148848057,-0.0033401581458747387,0.002838513348251581
1733861718404501200,5.008501220703125,-0.0009997610468417406,0.0015687191626057029,0.004229672718793154
1733861718414452200,5.0184521484375,-0.002328944858163595,0.010533984750509262,0.004307969473302364
1733861718424403200,5.0284033203125,-0.0017115550581365824,0.01439670566469431,0.0034608403220772743
1733861718434354400,5.0383544921875,-0.0006180612836033106,0.011741800233721733,0.0022432429250329733
1733861718444305200,5.04830517578125,-0.001957961358129978,0.007216468919068575,0.0031563760712742805
1733861718454256400,5.05825634765625,-0.0000500725582242012,0.003122657537460327,0.0014285171637311578
1733861718464207400,5.068207275390625,-0.002076804870739579,0.001276478753425181,0.001251664711162448
1733861718474158300,5.078158447265625,-0.0005537429824471474,0.005322885699570179,-0.0004940375220030546
1733861718484109300,5.088109375,-0.0005560501012951136,0.008309366181492805,0.002106387633830309
1733861718494060300,5.098060302734375,-0.0014181153383105993,0.010533904656767845,0.0030390266329050064
1733861718504011500,5.108011474609375,-0.001194710610434413,0.009299359284341335,0.00237242691218853
1733861718513962200,5.117962158203125,-0.0016607637517154217,0.007379752583801746,0.00023390864953398705
1733861718523913500,5.12791357421875,-0.0005251807160675526,0.00825590081512928,0.0012231874279677868
1733861718533864200,5.1378642578125,0.00035153189674019814,0.007506220601499081,-0.0012942986795678735
1733861718543815400,5.1478154296875,0.0010566310957074165,0.0077353427186608315,-0.00007757835555821657
1733861718553766100,5.15776611328125,-0.00006722332909703255,0.011818234808743,0.00213231286033988
1733861718563717400,5.16771728515625,-0.0006226636469364166,0.014768693596124649,0.003416652325540781
1733861718573668400,5.17766845703125,-0.0010570250451564789,0.016554342582821846,0.002195060485973954
1733861718583619300,5.187619384765625,-0.00030542933382093906,0.016851939260959625,0.0021621864289045334
1733861718593570300,5.1975703125,0.0004125586710870266,0.01260446384549141,0.002214384265244007
1733861718603521300,5.207521240234375,-0.0005771063733845949,0.01014033704996109,0.00047479651402682066
1733861718613472300,5.21747216796875,-0.002633332973346114,0.0031247721053659916,-0.0016357586719095707
1733861718623424300,5.22742431640625,0.001596210990101099,-0.003837009659036994,-0.002450532978400588
1733861718633375500,5.23737548828125,-0.0002914376091212034,-0.006716952659189701,-0.003263862105086446
1733861718643326200,5.247326171875,0.0027270950376987457,-0.004582464229315519,-0.0013954028254374862
1733861718653277400,5.25727734375,0.0009747347794473171,-0.0021938751451671124,-0.002141354139894247
1733861718663228200,5.267228271484375,0.0023515489883720875,-0.0014017384964972734,-0.0004896295722573996
1733861718673179400,5.277179443359375,0.00024046143516898155,-0.001269379397854209,-0.000761005561798811
1733861718683130400,5.28713037109375,0.0010873633436858654,-0.005779757164418697,-0.0016122801462188363
1733861718693081300,5.297081298828125,0.0014042793773114681,-0.008385393768548965,-0.0015560874016955495
1733861718703032300,5.3070322265625,-0.0011342791840434074,-0.012095614336431026,-0.0035617235116660595
1733861718712983300,5.3169833984375,0.0015549808740615845,-0.015797141939401627,-0.002913244068622589
1733861718722934300,5.326934326171875,0.0018623266369104385,-0.01250445656478405,-0.0014046917203813791
1733861718732885200,5.33688525390625,0.001153925433754921,-0.010174723342061043,-0.0043445550836622715
1733861718742836200,5.346836181640625,0.0013037174940109253,-0.009482642635703087,-0.001697732601314783
1733861718752787500,5.356787353515625,0.0019532623700797558,-0.010905835777521133,-0.0024399557150900364
1733861718762738200,5.36673828125,0.00013372581452131271,-0.009814292192459106,-0.002242948394268751
1733861718772689400,5.376689453125,0.002228834666311741,-0.0075476765632629395,-0.0003025691257789731
1733861718782640000,5.38664013671875,-0.0002995936665683985,-0.006330281496047974,-0.0004451443674042821
1733861718792591400,5.39659130859375,0.0003776480443775654,-0.004507080651819706,0.00014447944704443216
1733861718802542300,5.406542236328125,0.002176585141569376,0.0019634156487882137,0.0017737483140081167
1733861718812493300,5.416493408203125,-0.0004942992236465216,0.0037543915677815676,0.001542852260172367
1733861718822444300,5.4264443359375,-0.0006686728447675705,0.007383037358522415,0.0016829987289384007
1733861718832395300,5.436395263671875,-0.0006755972281098366,0.008267473429441452,0.0028702360577881336
1733861718842346200,5.44634619140625,0.00019887182861566544,0.00910935178399086,0.0037512648850679398
1733861718852297200,5.456297119140625,-0.0008155263494700193,0.007868585176765919,0.0031073123682290316
1733861718862248200,5.466248291015625,-0.0016267301980406046,0.005272900220006704,0.004318166524171829
1733861718872199400,5.476199462890625,0.0006438810378313065,0.005227094050496817,0.00328512629494071
1733861718882150400,5.486150390625,-0.0009568310342729092,0.008445138111710548,0.004014414735138416
1733861718892101400,5.496101318359375,0.00016675656661391258,0.010896045714616776,0.004054628778249025
1733861718902052400,5.50605224609375,0.00009231828153133392,0.015677468851208687,0.003647921606898308
1733861718912003300,5.51600341796875,-0.0011106315068900585,0.016392793506383896,0.0048074619844555855
1733861718921954300,5.525954345703125,-0.0007534406613558531,0.0193721204996109,0.005204134155064821
1733861718931905300,5.5359052734375,-0.001026148209348321,0.021670162677764893,0.004109574947506189
1733861718941856500,5.5458564453125,0.001062431838363409,0.02260505221784115,0.0023749424144625664
1733861718951807200,5.55580712890625,-0.00044544972479343414,0.01953735761344433,0.004785635508596897
1733861718961758500,5.565758544921875,-0.00014684838242828846,0.016008831560611725,0.0040773930959403515
1733861718971709200,5.575709228515625,-0.0014062572736293077,0.009771441109478474,0.003441163804382086
1733861718981660400,5.585660400390625,-0.000668367138132453,0.005386949051171541,0.00031640357337892056
1733861718991611100,5.595611083984375,0.000029913615435361862,-0.0010102300439029932,0.0014237458817660809
1733861719001562400,5.605562255859375,0.0019634123891592026,-0.0010520177893340588,-0.0012695410987362266
1733861719011514000,5.61551416015625,0.002953575924038887,-0.00486459955573082,-0.0021963207982480526
1733861719021465300,5.62546533203125,0.0035393009893596172,-0.007610270753502846,-0.0032745064236223698
1733861719031416300,5.635416259765625,0.0038351784460246563,-0.009244119748473167,-0.0038955556228756905
1733861719041367300,5.6453671875,0.0021088640205562115,-0.007324650883674622,-0.0033528029453009367
1733861719051318500,5.655318603515625,-0.0006152836140245199,-0.006150995381176472,-0.002995140152052045
1733861719061269200,5.665269287109375,-0.0002802696544677019,-0.008236902765929699,-0.0034901066683232784
1733861719071220500,5.675220458984375,0.0013828743249177933,-0.01077356282621622,-0.004713296424597502
1733861719081171200,5.685171142578125,0.002354246098548174,-0.009612388908863068,-0.006417247001081705
1733861719091122400,5.695122314453125,0.0023893998004496098,-0.013821515254676342,-0.0047351946122944355
1733861719101073200,5.7050732421875,0.0022732019424438477,-0.01608237437903881,-0.005032513290643692
1733861719111024400,5.7150244140625,0.003931285813450813,-0.018988681957125664,-0.006136659998446703
1733861719120975400,5.724975341796875,0.0025759325362741947,-0.022630853578448296,-0.007587900850921869
1733861719130926300,5.73492626953125,0.00330004608258605,-0.027724681422114372,-0.005809175781905651
1733861719140877300,5.744877197265625,0.0031361128203570843,-0.02556096576154232,-0.005671864375472069
1733861719150828300,5.754828369140625,0.003281255252659321,-0.01953796111047268,-0.004790358245372772
1733861719160779300,5.764779296875,0.003843621350824833,-0.01427079550921917,-0.005540922284126282
1733861719170730200,5.774730224609375,0.0008164062164723873,-0.011269677430391312,-0.0045289210975170135
1733861719180681200,5.78468115234375,0.0023734522983431816,-0.009341033175587654,-0.0034884661436080933
1733861719190632400,5.794632568359375,0.00028340332210063934,-0.010384459979832172,-0.0004905459936708212
1733861719200583200,5.804583251953125,0.0014648805372416973,-0.01313087996095419,-0.0024535725824534893
1733861719210534400,5.814534423828125,0.0018901876173913479,-0.013055779971182346,-0.0021563638001680374
1733861719220485000,5.824485107421875,0.0012139496393501759,-0.008679932914674282,-0.0019168262369930744
1733861719230436400,5.834436279296875,0.002188932616263628,-0.003958414774388075,-0.0008473007474094629
1733861719240387300,5.84438720703125,-0.00033537065610289574,0.003218619851395488,0.00017796154133975506
1733861719250338300,5.85433837890625,-0.000392628600820899,0.004718512296676636,0.0031311409547924995
1733861719260289300,5.864289306640625,-0.0021645165979862213,0.005316690541803837,0.0015274700708687305
1733861719270240300,5.874240234375,0.0012885378673672676,0.0059835463762283325,0.0012326581636443734
1733861719280191200,5.884191162109375,0.001861867494881153,0.003237229073420167,0.0005304792430251837
1733861719290142200,5.89414208984375,0.001352671068161726,-0.0008714955765753984,-0.0005829883739352226
1733861719300093400,5.904093505859375,0.001878834329545498,-0.0006741555407643318,-0.0007600884418934584
1733861719310044400,5.91404443359375,0.0006396654061973095,0.000016668345779180527,0.0020761778578162193
1733861719319995400,5.923995361328125,-0.0019218423403799534,0.00014664698392152786,0.0019308117916807532
1733861719329946400,5.9339462890625,-0.000689331442117691,0.001771974260918796,-0.0010868159588426352
1733861719339897300,5.9438974609375,-0.0009450612124055624,0.002839684719219804,0.0005144036840647459
1733861719349848300,5.953848388671875,-0.00018073385581374168,0.001384533359669149,-0.0012177162570878863
1733861719359799300,5.96379931640625,0.0008266582153737545,-0.0012835904490202665,-0.0004635202931240201
1733861719369751300,5.973751220703125,-0.0000958605669438839,-0.007862930186092854,-0.0036438670940697193
1733861719379702300,5.983702392578125,0.00022895494475960732,-0.010639413259923458,-0.0039117056876420975
1733861719389653200,5.9936533203125,0.002220200840383768,-0.014279688708484173,-0.004339942242950201
1733861719399604200,6.003604248046875,0.0032126400619745255,-0.013716436922550201,-0.0043751634657382965
1733861719409555200,6.01355517578125,0.0039439438842237,-0.012605099007487297,-0.004057181999087334
1733861719419511800,6.02351171875,0.0009036557748913765,-0.01219653245061636,-0.0022149202413856983
1733861719429462800,6.033462890625,0.0008687684312462807,-0.006141036748886108,-0.0032226601615548134
1733861719439413800,6.043413818359375,0.001079539768397808,-0.0006131012924015522,-0.001580315874889493
1733861719449365000,6.053364990234375,-0.00038626394234597683,0.006236815359443426,-0.0030274775344878435
1733861719459315700,6.063315673828125,0.0011720485053956509,0.00872588437050581,0.00025256117805838585
1733861719469267000,6.073266845703125,-0.001163810258731246,0.009202856570482254,0.0037868423387408257
1733861719479217700,6.0832177734375,-0.0011090051848441362,0.008956359699368477,0.002547173062339425
1733861719489169000,6.0931689453125,0.000002332031726837158,0.0066599166020751,0.002041438827291131
1733861719499119900,6.103119873046875,-0.0018062114249914885,0.007181032560765743,0.002114771166816354
1733861719509070800,6.11307080078125,-0.0002019230742007494,0.007023373618721962,0.0018971908139064908
1733861719519022000,6.12302197265625,0.0001494409516453743,0.008487852290272713,0.0019260728731751442
1733861719528972800,6.132972900390625,0.00044238846749067307,0.01078722532838583,0.003198797581717372
1733861719538924000,6.142924072265625,-0.001590400468558073,0.008746461942791939,0.0025452999398112297
1733861719548874800,6.152874755859375,-0.002626370172947645,0.0021412891801446676,0.002704557031393051
1733861719558826000,6.162825927734375,-0.0031291493214666843,-0.0013184731360524893,0.002024258952587843
1733861719568777000,6.17277685546875,-0.001504088519141078,0.0041910745203495026,0.0031177529599517584
1733861719578728000,6.18272802734375,-0.0018170690163969994,0.01192479208111763,0.004353882744908333
1733861719588679000,6.192678955078125,-0.0007078624330461025,0.015808746218681335,0.0033788997679948807
1733861719598630000,6.2026298828125,0.00006925361230969429,0.01545344851911068,0.00309625337831676
1733861719608580900,6.212580810546875,-0.0018341077957302332,0.012032351456582546,0.0011257806327193975
1733861719618531800,6.22253173828125,0.0007506757974624634,0.002415524097159505,-0.000002835993655025959
1733861719628482800,6.23248291015625,0.0011464213021099567,-0.0032064090482890606,-0.0006121672922745347
1733861719638434000,6.24243408203125,0.002254874911159277,-0.0077123744413256645,-0.001410474767908454
1733861719648384800,6.252384765625,0.001965389121323824,-0.00979097094386816,-0.003906389232724905
1733861719658336000,6.2623359375,0.0019126394763588905,-0.009094255976378918,-0.00341042410582304
1733861719668286700,6.27228662109375,0.002566445618867874,-0.0094678970053792,-0.003844252787530422
1733861719678238000,6.282238037109375,0.002005769871175289,-0.009118425659835339,-0.0030592496041208506
1733861719688190000,6.29218994140625,0.0024268156848847866,-0.009343728423118591,-0.0014922458212822676
1733861719698141000,6.302140869140625,0.0008014258928596973,-0.00956911314278841,-0.0027108541689813137
1733861719708092000,6.312091796875,0.000619265716522932,-0.009899877943098545,-0.0015489167999476194
1733861719718043000,6.32204296875,0.0025001862086355686,-0.005753718316555023,-0.004000119864940643
1733861719727993900,6.331993896484375,0.0010895095765590668,-0.004058615770190954,-0.003314355853945017
1733861719737944800,6.34194482421875,0.0024041463620960712,-0.0031017418950796127,-0.0020371037535369396
1733861719747896000,6.35189599609375,0.00012341560795903206,-0.002019699662923813,-0.0026408424600958824
1733861719757846800,6.3618466796875,-0.0004296570550650358,0.0008324761874973774,0.0009296329226344824
1733861719767798000,6.371798095703125,-0.0001122085377573967,0.003288709558546543,0.0010681173298507929
1733861719777748700,6.381748779296875,-0.0009692886378616095,0.004242605529725552,0.0010922247311100364
1733861719787700000,6.391699951171875,0.0005753450095653534,0.0010958141647279263,0.00033322384115308523
1733861719797650700,6.401650634765625,-0.00009366357699036598,0.003413964295759797,-0.0005885682767257094
1733861719807602000,6.411601806640625,-0.0011014037299901247,0.005454211961477995,0.0002953348448500037
1733861719817553000,6.421552978515625,0.0008211024105548859,0.004476715344935656,-0.0010679659899324179
1733861719827503900,6.43150390625,0.0009020622819662094,0.0035901491064578295,0.0002705388469621539
1733861719837454800,6.441454833984375,0.0002586832270026207,0.0010893340222537518,0.0012053442187607288
1733861719847405800,6.45140576171875,-0.0001232139766216278,-0.0016665048897266388,0.002002961002290249
1733861719857356800,6.461356689453125,-0.0011486243456602097,-0.0008621818851679564,0.000928503752220422
1733861719867307800,6.471307861328125,0.0007978803478181362,-0.0013412849511951208,0.000056851073168218136
1733861719877258800,6.4812587890625,0.0014258995652198792,-0.0008870407473295927,-0.0020748786628246307
1733861719887210000,6.4912099609375,0.0012780940160155296,-0.0009187322575598955,-0.000852221273817122
1733861719897160700,6.50116064453125,0.0007063238881528378,-0.0011631192173808813,-0.0014805917162448168
1733861719907112000,6.51111181640625,-0.0005504216533154249,-0.0027037581894546747,-0.0014558243565261364
1733861719917063000,6.52106298828125,0.0001888042315840721,-0.006708264350891113,-0.001728201750665903
1733861719927014000,6.531013916015625,0.0003720298409461975,-0.009383143857121468,-0.0030680380295962095
1733861719936964900,6.54096484375,0.00047581782564520836,-0.010727137327194214,-0.001969375181943178
1733861719946915800,6.550915771484375,0.0035871886648237705,-0.008746013045310974,-0.0050306785851716995
1733861719956867000,6.5608671875,0.0017740465700626373,-0.008009831421077251,-0.0028361643198877573
1733861719966817800,6.57081787109375,0.00020411331206560135,-0.007091040723025799,-0.0014654353726655245
1733861719976769000,6.58076904296875,-0.00033130194060504436,-0.0075867874547839165,-0.0021981943864375353
1733861719986719700,6.5907197265625,0.0003776317462325096,-0.008041922003030777,-0.003070912091061473
1733861719996671000,6.6006708984375,-0.0009706781711429358,-0.009810412302613258,-0.001535643357783556
1733861720006622700,6.610622802734375,0.0012605180963873863,-0.012155326083302498,-0.0013217916712164879
1733861720016574000,6.620573974609375,0.002605899702757597,-0.013814990408718586,-0.003964404109865427
1733861720026524700,6.630524658203125,0.0024019014090299606,-0.014247489161789417,-0.005270950961858034
1733861720036476000,6.640475830078125,0.0018386086449027061,-0.01614377275109291,-0.004062970168888569
1733861720046427000,6.650427001953125,0.0033326419070363045,-0.014985033310949802,-0.0044283559545874596
1733861720056377900,6.6603779296875,-0.0005839732475578785,-0.011440799571573734,-0.00480707036331296
1733861720066329000,6.6703291015625,0.00026770541444420815,-0.011105241253972054,-0.006388721987605095
1733861720076279800,6.68027978515625,0.0005875434726476669,-0.01229927223175764,-0.004355059005320072
1733861720086231000,6.69023095703125,0.0009494670666754246,-0.013538175262510777,-0.003622956108301878
1733861720096181800,6.700181640625,0.0028122304938733578,-0.010244938544929028,-0.0019848081283271313
1733861720106133000,6.710133056640625,-0.0001510686706751585,-0.003924725577235222,-0.004104151390492916
1733861720116084000,6.720083984375,0.0028951456770300865,0.0015507504576817155,-0.0017517394153401256
1733861720126035000,6.730034912109375,0.00035076169297099113,0.011040126904845238,-0.0019517428008839488
1733861720135986000,6.73998583984375,-0.002065350767225027,0.013795912265777588,0.0014019927475601435
1733861720145937000,6.74993701171875,-0.0031412679236382246,0.012409470975399017,0.0020395535975694656
1733861720155887900,6.759887939453125,-0.003196118865162134,0.009893451817333698,0.001994473859667778
1733861720165838800,6.7698388671875,-0.0012634629383683205,0.007087012752890587,0.0022983404342085123
1733861720175789800,6.779789794921875,-0.0009117715526372194,0.006597436964511871,0.001062833471223712
1733861720185741000,6.789740966796875,-0.0022358952555805445,0.004662384279072285,0.003278849646449089
1733861720195691800,6.79969189453125,-0.000950677553191781,0.007798359729349613,0.0012395100202411413
1733861720205643000,6.80964306640625,0.00032657478004693985,0.009893202222883701,0.0036992053501307964
1733861720215593700,6.81959375,-0.00009240768849849701,0.012703869491815567,0.0017009512521326542
1733861720225545000,6.829544921875,-0.0004561955574899912,0.011694797314703465,0.0014077371452003717
1733861720235495700,6.83949560546875,-0.002187856938689947,0.008114643394947052,0.0012059672735631466
1733861720245447000,6.849447021484375,-0.0012118085287511349,0.0017347749089822173,0.0019135691691190004
1733861720255398000,6.85939794921875,-0.0025879344902932644,-0.002035113051533699,0.0019569231662899256
1733861720265348900,6.869348876953125,-0.0003247803542762995,-0.0034907967783510685,0.00008525361772626638
1733861720275299800,6.8792998046875,0.0007169353775680065,0.00041134143248200417,-0.0008707279339432716
1733861720285251800,6.889251953125,-0.000024755019694566727,0.004639375954866409,0.00004912796430289745
1733861720295203000,6.899203125,0.0012030997313559055,0.0060213468968868256,-0.0008646235801279545
1733861720305153800,6.90915380859375,-0.0005338138435035944,0.009019533172249794,0.0009921322343870997
1733861720315105000,6.91910498046875,-0.0006057256832718849,0.00943753495812416,0.0008233838016167283
1733861720325055700,6.9290556640625,-0.0007721732836216688,0.007795429322868586,0.0005898246308788657
1733861720335007000,6.939007080078125,-0.00008238805457949638,0.007153190206736326,0.0030443640425801277
1733861720344958000,6.9489580078125,-0.0017958658281713724,0.008882381021976471,0.0026102690026164055
1733861720354909000,6.958908935546875,-0.0012770839966833591,0.009380477480590343,0.0009493228862993419
1733861720364860000,6.96885986328125,-0.0015426010359078646,0.00992642529308796,0.0014510625042021275
1733861720374811000,6.978810791015625,-0.0013570175506174564,0.006638769526034594,0.0004007538082078099
1733861720384761900,6.988761962890625,0.00021211709827184677,0.003920214716345072,0.000665738363750279
1733861720394712800,6.998712890625,0.0009567379020154476,0.0006194431334733963,0.0006355182267725468
1733861720404663800,7.008663818359375,-0.0025043063797056675,0.0012748469598591328,0.0003199336351826787
1733861720414615000,7.018614990234375,-0.0009482959285378456,0.0027430118061602116,0.0008837840869091451
1733861720424560000,7.02856005859375,-0.00262049469165504,0.006664516404271126,0.0006206637481227517
1733861720434510800,7.0385107421875,-0.0020278668962419033,0.010535822249948978,0.0025990535505115986
1733861720444462000,7.048462158203125,-0.0035666413605213165,0.014855735935270786,0.004428378771990538
1733861720454413000,7.0584130859375,-0.003351354505866766,0.02032310701906681,0.007003402337431908
1733861720464364000,7.068364013671875,-0.0035401727072894573,0.02453223243355751,0.005308300722390413
1733861720474315000,7.07831494140625,-0.004368529189378023,0.025348208844661713,0.007053960580378771
1733861720484266000,7.088265869140625,-0.0026204301975667477,0.02528109773993492,0.006900030188262463
1733861720494217000,7.098217041015625,-0.0035363733768463135,0.02663544751703739,0.007047107443213463
1733861720504168000,7.10816796875,-0.003213864518329501,0.02662133239209652,0.006042030639946461
1733861720514119000,7.118118896484375,-0.0028210929594933987,0.024272553622722626,0.007709775120019913
1733861720524070100,7.128070068359375,-0.0010199970565736294,0.019283121451735497,0.004410650581121445
1733861720534020900,7.138020751953125,-0.0017115315422415733,0.01738142967224121,0.005809633992612362
1733861720543972000,7.14797216796875,-0.0013285689055919647,0.013477766886353493,0.004124119412153959
1733861720553922800,7.1579228515625,-0.0018657043110579252,0.014830452390015125,0.0020877690985798836
1733861720563875000,7.167875,0.00003792298957705498,0.014485573396086693,0.00331468740478158
1733861720573826000,7.177825927734375,-0.00033353734761476517,0.015020901337265968,0.0035493962932378054
1733861720583777000,7.187777099609375,0.0006742025725543499,0.014323686249554157,0.003962985239923
1733861720593728000,7.19772802734375,-0.002672474831342697,0.015370942652225494,0.004504782613366842
1733861720603679000,7.207678955078125,-0.001660740002989769,0.015994654968380928,0.004822764080017805
1733861720613630000,7.2176298828125,-0.0029318230226635933,0.018784165382385254,0.005942386109381914
1733861720623581000,7.227580810546875,-0.0005405705887824297,0.024043375626206398,0.0061493138782680035
1733861720633532200,7.2375322265625,-0.002197524532675743,0.026901377364993095,0.007209941744804382
1733861720643483000,7.24748291015625,-0.002575427293777466,0.03344316408038139,0.007634183391928673
1733861720653434000,7.25743408203125,-0.00208809575997293,0.04043005779385567,0.00940658338367939
1733861720663384800,7.267384765625,-0.004370691254734993,0.03779406100511551,0.007555154152214527
1733861720673336000,7.277336181640625,-0.004852354526519775,0.032879721373319626,0.01103498600423336
1733861720683286800,7.287286865234375,-0.005849974229931831,0.029041573405265808,0.011289318092167377
1733861720693238000,7.297238037109375,-0.005098307970911264,0.025047603994607925,0.008391696028411388
1733861720703189000,7.30718896484375,-0.003032227512449026,0.02163795754313469,0.007674772758036852
1733861720713140000,7.317139892578125,-0.00249184831045568,0.02031310275197029,0.0021173302084207535
1733861720723091200,7.32709130859375,-0.000885962275788188,0.01573805883526802,0.0037945888470858335
1733861720733042000,7.3370419921875,-0.0004519261419773102,0.014874095097184181,0.0032666658516973257
1733861720742993200,7.3469931640625,-0.0011757733300328255,0.01649383082985878,0.00016861059702932835
1733861720752943900,7.35694384765625,-0.0012453668750822544,0.014115843921899796,0.0003700853558257222
1733861720762895000,7.36689501953125,-0.0013990311417728662,0.008381259627640247,-0.0004680113634094596
1733861720772846000,7.37684619140625,-0.00096699851565063,0.0027484898455441,-0.0004837792366743088
1733861720782797000,7.386797119140625,0.0027891239151358604,-0.0007943131495267153,-0.000979393720626831
1733861720792748000,7.396748046875,-0.0005345188546925783,-0.0076653240248560905,-0.003216163720935583
1733861720802699000,7.406698974609375,0.0008671027608215809,-0.011612394824624062,-0.004520313814282417
1733861720812650000,7.41664990234375,0.0009119082242250443,-0.011464768089354038,-0.007334143854677677
1733861720822601000,7.42660107421875,0.0027132704854011536,-0.009573390707373619,-0.005991644691675901
1733861720832552000,7.436552001953125,0.0038608205504715443,-0.010864741168916225,-0.004395303316414356
1733861720842504000,7.44650390625,0.0013031205162405968,-0.009750740602612495,-0.004524999298155308
1733861720852455000,7.456454833984375,0.001661964226514101,-0.008475935086607933,-0.004707959480583668
1733861720862406000,7.466406005859375,0.0002717943862080574,-0.012044571340084076,-0.0025502669159322977
1733861720872356900,7.47635693359375,0.0026081670075654984,-0.016065360978245735,-0.004463355988264084
1733861720882308000,7.48630810546875,0.0013639377430081367,-0.01934158243238926,-0.004602639004588127
1733861720892259000,7.496259033203125,0.0007325145415961742,-0.023139016702771187,-0.005972386337816715
1733861720902210000,7.5062099609375,0.002350651193410158,-0.02147960104048252,-0.007574012503027916
1733861720912161000,7.5161611328125,0.002394371200352907,-0.020487958565354347,-0.005869881249964237
1733861720922112000,7.526112060546875,0.0014596018008887768,-0.0180429108440876,-0.004577715881168842
1733861720932063000,7.53606298828125,-0.0019514376763254404,-0.016343113034963608,-0.0036656970623880625
1733861720942014000,7.546013916015625,-0.0009261206723749638,-0.015850959345698357,-0.00360550987534225
1733861720951965200,7.555965087890625,-0.0017746947705745697,-0.01461899932473898,-0.0021659713238477707
1733861720961916000,7.565916015625,0.000051700975745916367,-0.014474389143288136,-0.002874105703085661
1733861720971867100,7.5758671875,0.0008107866160571575,-0.01638197712600231,-0.004322390537708998
1733861720981817900,7.58581787109375,0.001484566368162632,-0.011747011914849281,-0.004866740666329861
1733861720991769000,7.59576904296875,-0.0006349612958729267,-0.006622777320444584,-0.0026326265651732683
1733861721001720000,7.605719970703125,0.0007139295339584351,-0.0014144331216812134,-0.0028800342697650194
1733861721011671000,7.615671142578125,0.000609071459621191,0.0015805581351742148,0.0014675915008410811
1733861721021622000,7.6256220703125,-0.0005616541020572186,0.001866581616923213,0.00008647609502077103
1733861721031573000,7.635572998046875,-0.0003801356069743633,0.003465112531557679,0.0025091231800615788
1733861721041524000,7.64552392578125,0.00012346822768449783,0.004406007472425699,-0.0005159615539014339
1733861721051475000,7.655474853515625,-0.0006263097748160362,0.0028730928897857666,-0.00003592018038034439
1733861721061426000,7.665426025390625,0.0012597409076988697,0.002370554255321622,-0.000047371722757816315
1733861721071377200,7.675377197265625,-0.0010664754081517458,0.000838554697111249,0.000504322350025177
1733861721081327900,7.685327880859375,-0.0011919103562831879,-0.0031458004377782345,-0.0004733240930363536
1733861721091279000,7.695279052734375,0.0008454327471554279,-0.004385036416351795,-0.00033447472378611565
1733861721101231000,7.705231201171875,0.0012670108117163181,-0.006409837864339352,-0.0008175722323358059
1733861721111182000,7.71518212890625,0.0003607124090194702,-0.007639085873961449,0.0006494646659120917
1733861721121133000,7.725133056640625,0.0032837982289493084,-0.009379195049405098,-0.002068823669105768
1733861721131084000,7.735083984375,0.0013309204950928688,-0.012164379470050335,-0.002519556786864996
1733861721141035000,7.745034912109375,0.0010683326981961727,-0.010949179530143738,-0.00048330368008464575
1733861721150986000,7.754986083984375,0.00099188182502985,-0.004522921051830053,-0.0018978487933054566
1733861721160937000,7.76493701171875,0.0010858913883566856,-0.00882312748581171,-0.0014887874713167548
1733861721170888000,7.774887939453125,0.002016703598201275,-0.006146485451608896,-0.0035335475113242865
1733861721180839200,7.784839111328125,0.0005205394700169563,-0.005150196608155966,-0.002161220880225301
1733861721190790000,7.794789794921875,0.0013266289606690407,-0.0042650941759347916,-0.0013403650373220444
1733861721200741000,7.8047412109375,0.00030397530645132065,-0.005643012933433056,-0.0017523560672998428
1733861721210691800,7.81469189453125,0.002770298160612583,-0.007515665143728256,-0.003706905525177717
1733861721220643000,7.82464306640625,0.0027133068069815636,-0.007981185801327229,-0.004531686659902334
1733861721230593800,7.83459375,0.002723141573369503,-0.009689021855592728,-0.004577099811285734
1733861721240545000,7.844544921875,0.0006898185238242149,-0.008108967915177345,-0.0033714869059622288
1733861721250496000,7.85449609375,0.0006968597881495953,-0.0025773674715310335,0.0007806478533893824
1733861721260447000,7.864447021484375,0.0010063191875815392,0.0017707757651805878,0.0009393722284585238
1733861721270398000,7.87439794921875,-0.00034177955240011215,0.0031513753347098827,0.0018249150598421693
1733861721280349000,7.884348876953125,0.0011445307172834873,0.0013332354137673974,0.0005569841014221311
1733861721290300000,7.8942998046875,0.0007729511708021164,-0.001822425751015544,0.0005518528632819653
1733861721300251000,7.9042509765625,0.0008986527100205421,-0.005482141859829426,-0.0002790534636005759
1733861721310202000,7.9142021484375,0.0016241814009845257,-0.00807950645685196,-0.0014691780088469386
1733861721320153000,7.924153076171875,0.0025035571306943893,-0.00917086936533451,-0.0017839636420831084
1733861721330104000,7.93410400390625,0.0018990514799952507,-0.006731180474162102,-0.002330261981114745
1733861721340055000,7.944054931640625,0.0017568389885127544,-0.004129805602133274,-0.002918287878856063
1733861721350006000,7.954006103515625,0.0006293398328125477,0.001400562352500856,0.0008783022640272975
1733861721359958000,7.9639580078125,0.00016248784959316254,0.0020269379019737244,-0.00032784335780888796
1733861721369909000,7.973908935546875,-0.0013456880114972591,0.0018413495272397995,0.001564948819577694
1733861721379860000,7.98385986328125,0.002700985409319401,-0.0025757693219929934,-0.0003756965743377805
1733861721389811000,7.99381103515625,0.0008929953910410404,-0.007600988727062941,-0.0017714300192892551
1733861721399762000,8.003761962890625,0.0032594804652035236,-0.012205326929688454,-0.004628202877938747
1733861721409713200,8.013713134765625,0.004019456449896097,-0.0180103350430727,-0.006775006651878357
1733861721419667700,8.023667724609375,0.0028729652985930443,-0.018753090873360634,-0.0059094796888530254
1733861721429618700,8.03361865234375,0.0035384073853492737,-0.015949513763189316,-0.006358727812767029
1733861721439569700,8.043569580078126,0.0038997982628643513,-0.012923097237944603,-0.0026073988992720842
1733861721449520600,8.053520751953124,0.0002558659762144089,-0.012656099162995815,-0.0020759860053658485
1733861721459471600,8.0634716796875,0.000494485255330801,-0.010889890603721142,-0.00217558816075325
1733861721469422600,8.073422607421875,0.002654585987329483,-0.012953712604939938,-0.0026647511404007673
1733861721479373600,8.08337353515625,0.0014007696881890297,-0.01907126046717167,-0.005808079615235329
1733861721489324500,8.093324462890624,0.0018421653658151627,-0.02041298896074295,-0.005622530356049538
1733861721499275800,8.10327587890625,0.0024419091641902924,-0.016646746546030045,-0.005384710151702166
1733861721509226500,8.1132265625,0.003072415478527546,-0.009856167249381542,-0.0028438037261366844
1733861721519177700,8.123177734375,0.0006148507818579674,-0.004999893717467785,0.00018580828327685595
1733861721529128400,8.13312841796875,-0.0003684256225824356,0.0025001815520226955,0.0031616967171430588
1733861721539079700,8.14307958984375,-0.0006147681269794703,0.009585254825651646,0.0037654354237020016
1733861721549030700,8.15303076171875,-0.0024780682288110256,0.014640520326793194,0.006268804892897606
1733861721558981600,8.162981689453124,-0.002373672556132078,0.019302383065223694,0.005936975125223398
1733861721568932600,8.1729326171875,-0.001323631964623928,0.02024843543767929,0.005801141262054443
1733861721578883600,8.182883544921875,-0.0009971284307539463,0.02042447030544281,0.006758281495422125
1733861721588834600,8.19283447265625,-0.0012317192740738392,0.02303243987262249,0.005485920235514641
1733861721598785500,8.20278564453125,-0.0003163907676935196,0.024573877453804016,0.008782913908362389
1733861721608736500,8.212736572265625,-0.0023080711252987385,0.02649356797337532,0.008113730698823929
1733861721618688500,8.2226884765625,-0.0019717139657586813,0.022374190390110016,0.006682547740638256
1733861721628639700,8.2326396484375,-0.0022722703870385885,0.01713748089969158,0.005056619178503752
1733861721638590500,8.242590576171875,-0.0019396415445953608,0.013304393738508224,0.0025537805631756783
1733861721648541700,8.252541748046875,0.000281638465821743,0.007815520279109478,-0.00011482054833322763
1733861721658492700,8.26249267578125,0.000826521310955286,0.003277227748185396,0.00012752716429531574
1733861721668443600,8.272443603515624,0.0014406582340598106,0.0017285662470385432,-0.0002121098805218935
1733861721678394600,8.28239453125,0.0004688710905611515,0.005224497988820076,0.0008739270851947367
1733861721688345600,8.292345703125,-0.0004384615458548069,0.004880134481936693,-0.0004883217625319958
1733861721698296600,8.302296630859376,-0.0017306271474808455,0.003805548883974552,-0.0014135038945823908
1733861721708247600,8.31224755859375,-0.0012858356349170208,0.0029185982421040535,0.0016083583468571305
1733861721718198500,8.322198486328125,0.0011328472755849361,0.000787004129961133,-0.0017871720483526587
1733861721728149800,8.332149658203125,0.0017059403471648693,-0.005695878062397242,-0.0019953057635575533
1733861721738100500,8.3421005859375,0.0022431001998484135,-0.007148633245378733,-0.002325005130842328
1733861721748051700,8.3520517578125,0.0005756574682891369,-0.009675338864326477,-0.0039151934906840324
1733861721758002400,8.36200244140625,0.003523244522511959,-0.009161881171166897,-0.004139164928346872
1733861721767953700,8.37195361328125,0.0017938497476279736,-0.0072022294625639915,-0.0036801889073103666
1733861721777904600,8.381904541015626,-0.000396067276597023,-0.0060067372396588326,-0.0028671256732195616
1733861721787855600,8.391855712890624,-0.0013296343386173248,-0.0001855145674198866,0.00048028503078967333
1733861721797806800,8.401806884765625,0.0011441758833825588,0.004715766757726669,0.0029354533180594444
1733861721807757600,8.411757568359375,-0.0017798137851059437,0.006290856748819351,0.003965804353356361
1733861721817708800,8.421708740234376,-0.0014575712848454714,0.007748937699943781,0.003164192894473672
1733861721827659500,8.431659423828124,-0.0015439395792782307,0.009947597049176693,0.0021657845936715603
1733861721837610800,8.44161083984375,-0.0010086442343890667,0.009072748944163322,0.0031716604717075825
1733861721847561500,8.4515615234375,0.00007575005292892456,0.006197748705744743,0.0012578862952068448
1733861721857513700,8.461513671875,-0.0001825764775276184,0.005949009209871292,0.0004996843636035919
1733861721867464400,8.47146435546875,-0.0013491448480635881,0.015664272010326385,0.002810368314385414
1733861721877415700,8.481415771484375,-0.0004487300757318735,0.02032666839659214,0.006960638798773289
1733861721887366700,8.49136669921875,-0.0015950240194797516,0.024649742990732193,0.007729941979050636
1733861721897317600,8.501317626953124,-0.0019662685226649046,0.02426491677761078,0.008156580850481987
1733861721907268600,8.5112685546875,-0.0024248771369457245,0.01755564846098423,0.005476192571222782
1733861721917219600,8.521219482421875,-0.0009071414824575186,0.013243990018963814,0.0035280901938676834
1733861721927170600,8.531170654296876,0.0006499397568404675,0.014219007454812527,0.0013545019319280982
1733861721937121500,8.54112158203125,0.0020395773462951183,0.023272423073649406,0.0002764543751254678
1733861721947072800,8.55107275390625,0.0010400745086371899,0.0362577810883522,0.005026594270020723
1733861721957023700,8.561023681640625,-0.000912555493414402,0.043846990913152695,0.007890291512012482
1733861721966974700,8.570974609375,-0.003524261061102152,0.04801282286643982,0.011410879902541637
1733861721976925700,8.58092578125,-0.0019828234799206257,0.04072215035557747,0.013361645862460136
1733861721986876700,8.590876708984375,-0.00026221759617328644,0.027037134394049644,0.007238657679408789
1733861721996827600,8.60082763671875,0.0013974644243717194,0.015085134655237198,0.0006433393573388457
1733861722006778600,8.610778564453126,0.0047556865029037,0.00975674856454134,-0.002912611234933138
1733861722016729600,8.6207294921875,0.0050347852520644665,0.013664139434695244,-0.0022382987663149834
1733861722026680800,8.630680908203125,0.0019261706620454788,0.018695663660764694,0.00010811607353389263
1733861722036631600,8.640631591796875,-0.0014738868921995163,0.025295773521065712,0.006221136078238487
1733861722046582800,8.650582763671874,-0.0026928666047751904,0.03116285428404808,0.010973880998790264
1733861722056533500,8.660533447265625,-0.0050194039940834045,0.03213011473417282,0.010868952609598637
1733861722066484700,8.670484619140625,-0.0026372121647000313,0.024979542940855026,0.008527277037501335
1733861722076435500,8.680435546875,-0.0017202857416123152,0.016629468649625778,0.00503906887024641
1733861722086386700,8.69038671875,-0.0010554720647633076,0.006764083169400692,0.00007621594704687595
1733861722096338700,8.700338623046875,0.0012154052965342999,-0.0013550957664847374,-0.0003885056357830763
1733861722106289700,8.71028955078125,0.0015205396339297295,-0.005034349393099546,-0.0020653470419347286
1733861722116240600,8.72024072265625,0.0012275921180844307,-0.005283355247229338,-0.003143660956993699
1733861722126191600,8.730191650390625,-0.0017551917117089033,-0.003909312188625336,-0.001014436362311244
1733861722136142800,8.740142822265625,0.000186252873390913,-0.0001214984804391861,0.0011610998772084713
1733861722146093600,8.750093505859375,-0.0014398929197341204,-0.004334801807999611,-0.0008038360392674804
1733861722156044800,8.760044921875,-0.000012172386050224304,-0.00920945219695568,-0.0029322346672415733
1733861722165995500,8.76999560546875,0.0020917379297316074,-0.019505532458424568,-0.005104925483465195
1733861722175946800,8.77994677734375,0.0029937508516013622,-0.028583982959389687,-0.007679137401282787
1733861722185897500,8.7898974609375,0.005660149734467268,-0.031008373945951462,-0.011318640783429146
1733861722195848700,8.7998486328125,0.003224689047783613,-0.031078416854143143,-0.008886110037565231
1733861722205799700,8.809799560546875,0.0030507477931678295,-0.03166287764906883,-0.008395569398999214
1733861722215750700,8.819750732421875,0.0014595091342926025,-0.02557382732629776,-0.0051092286594212055
1733861722225701600,8.82970166015625,0.00119014922529459,-0.02281583845615387,-0.0037498711608350277
1733861722235652600,8.839652587890624,0.0005432670004665852,-0.01973562315106392,-0.0026806122623384
1733861722245603600,8.849603515625,-0.0006191309075802565,-0.021821817383170128,-0.0035236102994531393
1733861722255554600,8.859554443359375,0.0006296252831816673,-0.023602673783898354,-0.004808585159480572
1733861722265505500,8.869505615234376,0.0027763042598962784,-0.02451946586370468,-0.006361139006912708
1733861722275456800,8.879456787109374,0.002111046575009823,-0.02198360301554203,-0.005611725151538849
1733861722285407500,8.889407470703125,0.0006434991955757141,-0.017448699101805687,-0.0031126774847507477
1733861722295358700,8.899358642578125,-0.0004859473556280136,-0.00856679119169712,-0.0020761750638484955
1733861722305309400,8.909309326171876,-0.0024273390881717205,-0.0025212394539266825,0.0018085985211655498
1733861722315260700,8.9192607421875,-0.0027996490243822336,0.001708126743324101,0.0036794692277908325
1733861722325211600,8.929211669921875,-0.0014310867991298437,0.005702168680727482,0.004150302615016699
1733861722335163600,8.93916357421875,-0.0014995301607996225,0.008617531508207321,0.004215017426759005
1733861722345114600,8.949114501953124,-0.0006062011234462261,0.009174114093184471,0.001845421502366662
1733861722355065600,8.959065673828125,-0.0012165976222604513,0.007139459252357483,0.003180730389431119
1733861722365016600,8.9690166015625,-0.001352487364783883,0.0077705467119812965,0.0016522710211575031
1733861722374967600,8.978967529296876,-0.0012187967076897621,0.010058201849460602,0.0020930240862071514
1733861722384918800,8.988918701171874,-0.003354862332344055,0.014198467135429382,0.004094012081623077
1733861722394869500,8.998869384765625,-0.0025047813542187214,0.016784662380814552,0.00517818471416831
1733861722404820700,9.00882080078125,-0.003623079741373658,0.02099655382335186,0.005852748639881611
1733861722414771500,9.018771484375,-0.003318946808576584,0.021045023575425148,0.004506787285208702
1733861722424719600,9.0287197265625,-0.000286732567474246,0.01744006760418415,0.0027543159667402506
1733861722434670600,9.038670654296874,-0.003598906099796295,0.010863125324249268,0.002398517681285739
1733861722444621600,9.04862158203125,-0.00013979757204651833,0.005997539963573217,0.0021548718214035034
1733861722454572800,9.05857275390625,-0.000283075962215662,0.0019844225607812405,-0.000860359170474112
1733861722464523500,9.0685234375,-0.00012983707711100578,-0.000042522791773080826,-0.0009960426250472665
1733861722474474800,9.078474853515624,0.0007133199833333492,-0.0007349445950239897,-0.00021573633421212435
1733861722484425500,9.088425537109375,0.0006393659859895706,-0.0009333977941423655,-0.0029011722654104233
1733861722494376700,9.098376708984375,-0.00013801082968711853,-0.0008668189402669668,-0.0008840941591188312
1733861722504327400,9.108327392578126,0.00019025150686502457,-0.0005898319650441408,-0.0016338591231033206
1733861722514278700,9.118278564453124,-0.0003330595791339874,-0.0002449527382850647,-0.0011659417068585753
1733861722524229600,9.128229736328125,-0.0016169871669262648,0.0038856598548591137,0.0007524600951001048
1733861722534180600,9.1381806640625,-0.0018641285132616758,0.006308337673544884,0.0014054671628400683
1733861722544131600,9.148131591796876,-0.0012002084404230118,0.0038569141179323196,0.0023333546705543995
1733861722554082600,9.15808251953125,-0.0005898119416087866,0.0035194915253669024,0.00099058891646564
1733861722564034800,9.168034912109375,0.0024673654697835445,0.006610521115362644,-0.0014676344580948353
1733861722573985500,9.177985595703126,0.0005288505926728249,0.009087793529033661,0.0014519889373332262
1733861722583936800,9.187936767578124,-0.00042758951894938946,0.007371654734015465,0.0025546764954924583
1733861722593887500,9.197887451171875,-0.0028982041403651237,0.0036549472715705633,0.0004414580762386322
1733861722603838700,9.207838623046875,-0.0020487906876951456,0.0024100984446704388,0.0015681604854762554
1733861722613789400,9.21778955078125,-0.0022930027917027473,0.0017134156078100204,0.0027498051058501005
1733861722623740700,9.22774072265625,0.0006012828089296818,0.0013867479283362627,0.0018887892365455627
1733861722633691600,9.237691650390625,-0.0007742401212453842,0.0045101032592356205,0.0015630845446139574
1733861722643642600,9.247642578125,0.000693080946803093,0.008243806660175323,0.0007518983911722898
1733861722653593600,9.257593505859376,0.0001934720203280449,0.008434223011136055,0.0013617622898891568
1733861722663544600,9.267544677734374,0.0011009112931787968,0.005905299447476864,0.0017246549250558019
1733861722673495600,9.27749560546875,-0.0036807944998145103,0.004929251037538052,0.0015845726011320949
1733861722683446500,9.287446533203125,-0.002479137619957328,0.0026510802563279867,0.0016138835344463587
1733861722693397500,9.2973974609375,-0.0010998863726854324,0.007126788608729839,0.001525732921436429
1733861722703348700,9.3073486328125,-0.00026198895648121834,0.01208737213164568,0.0032600422855466604
1733861722713299700,9.3172998046875,-0.0014516229275614023,0.015435499139130116,0.0028467196971178055
1733861722723250700,9.327250732421875,-0.0014625941403210163,0.014849741011857986,0.0032582441344857216
1733861722733201700,9.33720166015625,-0.0014743120409548283,0.012954635545611382,0.0024486430920660496
1733861722743152600,9.347152587890625,0.00040932418778538704,0.010027775540947914,0.0004779150476679206
1733861722753103600,9.357103515625,-0.0005416907370090485,0.00687272846698761,0.0005242540501058102
1733861722763054600,9.3670546875,0.0006940802559256554,0.005314012989401817,0.00018585030920803547
1733861722773005800,9.377005859375,0.0008144550956785679,0.004935045726597309,0.0016788184875622392
1733861722782956500,9.38695654296875,-0.0006849979981780052,0.0063441237434744835,0.0017011889722198248
1733861722792908500,9.396908447265625,0.0007717511616647243,0.003219969803467393,0.00041914323810487986
1733861722802859500,9.406859619140626,-0.0006881309673190117,0.004315873607993126,0.0012022838927805424
1733861722812810800,9.416810791015624,0.0005305316299200058,0.0050024366937577724,-0.00030959281139075756
1733861722822761500,9.426761474609375,-0.0015380191616714,0.004881415516138077,0.00010410591494292021
1733861722832712700,9.436712646484375,-0.0019358955323696136,0.0012480646837502718,0.0012290251906961203
1733861722842663400,9.446663330078126,-0.000748359365388751,0.0033074025996029377,-0.0007483146619051695
1733861722852614700,9.45661474609375,-0.0019566353876143694,-0.0005073093343526125,0.0007619638927280903
1733861722862565600,9.466565673828125,0.0002079070545732975,-0.0048291683197021484,-0.0008376024197787046
1733861722872516600,9.4765166015625,-0.000009939540177583694,-0.006269671954214573,-0.0010096426121890545
1733861722882467800,9.4864677734375,0.001131740864366293,-0.004454378038644791,-0.001852588844485581
1733861722892418600,9.49641845703125,0.0008142921142280102,-0.00418113823980093,-0.0011093005305156112
1733861722902369800,9.506369873046875,0.0008756723254919052,-0.0032052225433290005,0.0002834623446688056
1733861722912320500,9.516320556640625,-0.0006761515978723764,-0.0026438282802700996,0.0005590996006503701
1733861722922271700,9.526271728515624,-0.00043346500024199486,-0.0007255356758832932,-0.0001532124588266015
1733861722932222700,9.53622265625,0.0009700208902359009,0.0004004489164799452,-0.0012131505645811558
1733861722942173700,9.546173583984375,0.00003677932545542717,0.0002488803584128618,-0.00067478499840945
1733861722952124700,9.556124755859376,0.0002184072509407997,0.00014901184476912022,-0.001204754109494388
1733861722962075600,9.56607568359375,-0.0011489486787468195,0.001033441862091422,-0.000656544347293675
1733861722972026600,9.576026611328125,0.0012851804494857788,-0.0009799080435186625,0.0016891679260879755
1733861722981977600,9.5859775390625,0.000883396714925766,-0.0030800767708569765,-0.00022857438307255507
1733861722991928600,9.595928466796876,0.0007276018150150776,-0.002692054258659482,-0.0004397629527375102
1733861723001879800,9.6058798828125,0.0006695082411170006,-0.002482532523572445,-0.0013674149522557855
1733861723011830500,9.61583056640625,0.0003448687493801117,-0.004070042632520199,-0.0007157394429668784
1733861723021781800,9.62578173828125,0.0037288330495357513,-0.003061228897422552,-0.0021435292437672615
1733861723031733800,9.635733642578124,-0.0000869440846145153,-0.0038396711461246014,-0.000728591694496572
1733861723041684700,9.645684814453125,0.0027746614068746567,-0.005060629919171333,-0.0019362251041457057
1733861723051635700,9.6556357421875,0.00008566770702600479,-0.0039887079037725925,-0.0007013172144070268
1733861723061586700,9.665586669921876,0.0011575552634894848,-0.001268072985112667,-0.00067468686029315
1733861723071537700,9.67553759765625,0.0017333305440843105,0.0003007953055202961,-0.002806280739605427
1733861723081488600,9.685488525390625,0.0023635844700038433,-0.00012319697998464108,-0.0013980618678033352
1733861723091439600,9.695439697265625,0.001113230362534523,0.0012424720916897058,-0.00023372797295451164
1733861723101390600,9.705390625,0.0018543736077845097,0.0006248266436159611,0.0002730757696554065
1733861723111341800,9.715341796875,0.0018338672816753387,0.002207276877015829,0.0012022526934742928
1733861723121292500,9.72529248046875,0.001290265005081892,0.0032681564334779978,-0.00009910285007208586
1733861723131243800,9.735243896484375,0.0024689803831279278,0.0033717534970492125,-0.00032147683668881655
1733861723141194500,9.745194580078126,0.002244262956082821,0.0022538250777870417,0.00033741816878318787
1733861723151145700,9.755145751953124,0.000909753143787384,0.00022982247173786163,-0.0012458311393857002
1733861723161096400,9.765096435546875,0.00101017439737916,0.002062893006950617,-0.0002688770182430744
1733861723171047700,9.775047607421875,-0.000056687742471694946,0.0021036393009126186,-0.0008742134086787701
1733861723180998700,9.78499853515625,0.0013012769632041454,0.0018088589422404766,-0.0007057115435600281
1733861723190949600,9.79494970703125,0.0010895556770265102,0.003933795262128115,-0.0007730897050350904
1733861723200900600,9.804900634765625,-0.0009849725756794214,0.007852056063711643,0.0011296987067908049
1733861723210851600,9.8148515625,-0.0003154538571834564,0.010101627558469772,0.0012109250528737903
1733861723220802600,9.824802490234376,0.0009297076612710953,0.007468693424016237,0.00338895246386528
1733861723230753500,9.83475341796875,0.0002846899442374706,0.005623655393719673,0.0027535222470760345
1733861723240704500,9.84470458984375,0.0002247188240289688,0.00880479533225298,0.0013533819001168013
1733861723250655700,9.85465576171875,-0.0004037870094180107,0.00611580116674304,0.001495594740845263
1733861723260607700,9.864607666015624,0.0005212659016251564,0.004092666320502758,0.00003111606929451227
1733861723270558700,9.874558837890625,0.0017207539640367031,0.0036668269895017147,-0.000356107484549284
1733861723280509700,9.884509765625,0.003852223977446556,0.002234999556094408,-0.001291494001634419
1733861723290460700,9.894460693359376,-0.000126006081700325,0.002720227465033531,-0.0005942784482613206
1733861723300411600,9.90441162109375,0.00015928177163004875,0.0016960707725957036,-0.0007462921785190701
1733861723310362600,9.914362548828125,0.0012250789441168308,0.0002696816809475422,0.0011117951944470406
1733861723320313600,9.924313720703125,0.0002385755069553852,-0.0015901816077530384,-0.00041026086546480656
1733861723330264600,9.9342646484375,0.0018937303684651852,-0.005573737900704145,-0.0020848563872277737
1733861723340215800,9.9442158203125,0.0016597174108028412,-0.010052159428596497,-0.0028819069266319275
1733861723350166500,9.95416650390625,0.0015374780632555485,-0.011913442984223366,-0.0015431359643116593
1733861723360117800,9.96411767578125,0.0010823546908795834,-0.012702804058790207,-0.003288921434432268
1733861723370068500,9.974068359375,0.0015524025075137615,-0.009685974568128586,-0.0015341645339503884
1733861723380019700,9.984019775390625,0.000415243674069643,-0.006414399016648531,-0.0020594028756022453
1733861723389970400,9.993970458984375,0.0007228385657072067,-0.0026422981172800064,-0.0010577879147604108
1733861723399921700,10.003921630859375,-0.000619265716522932,0.00048609310761094093,0.0005036654183641076
1733861723409872600,10.01387255859375,0.00048754410818219185,-0.002191182691603899,-0.0005663927877321839
1733861723419823600,10.02382373046875,0.0015578153543174267,-0.0070586856454610825,-0.0018775719217956066
1733861723429774600,10.033774658203125,-0.0007570043671876192,-0.011081390082836151,-0.002123381709679961
1733861723439725600,10.0437255859375,0.003589040134102106,-0.012120822444558144,-0.0037044952623546124
1733861723449676800,10.0536767578125,0.003285706043243408,-0.01020574290305376,-0.0030994247645139694
1733861723459627500,10.06362744140625,0.0013734912499785423,-0.008619662374258041,-0.0023755626752972603
1733861723469578800,10.073578857421875,0.001239268109202385,-0.004927189089357853,0.0012633806327357888
1733861723479530500,10.083530517578126,-0.0004845832008868456,0.0033612074330449104,0.0002434620400890708
1733861723489481700,10.093481689453125,-0.001265155617147684,0.0099493358284235,0.0026043541729450226
1733861723499432400,10.103432373046875,0.0005988124758005142,0.012068073265254498,0.002251859288662672
1733861723509383700,10.1133837890625,0.0010377014987170696,0.009772694669663906,0.0011786052491515875
1733861723519334700,10.123334716796874,0.0020683761686086655,0.00528421625494957,0.0014356301398947835
1733861723529285600,10.13328564453125,0.0014507891610264778,-0.0002285274676978588,-0.0009494969854131341
1733861723539236600,10.143236572265625,-0.000245116651058197,-0.004497995600104332,-0.0016338697168976068
1733861723549187600,10.1531875,0.002668115310370922,-0.010830726474523544,-0.00453511718660593
1733861723559138600,10.163138671875,0.0021214731968939304,-0.009724125266075134,-0.006979022175073624
1733861723569089500,10.173089599609375,0.001698296982795,-0.010286850854754448,-0.005031985230743885
1733861723579040500,10.18304052734375,0.0016862847842276096,-0.011440916918218136,-0.00414096936583519
1733861723588991700,10.19299169921875,0.00011528609320521355,-0.012553851120173931,-0.00371273304335773
1733861723598942500,10.2029423828125,-0.0003847540356218815,-0.011996550485491753,-0.0006797729292884469
1733861723608893700,10.212893798828125,0.0017598895356059074,-0.0076984744518995285,0.00031651556491851807
1733861723618844700,10.2228447265625,-0.001456412486732006,-0.006704337894916534,-0.0003798126708716154
1733861723628795600,10.232795654296876,-0.0010263118892908096,-0.004717353731393814,0.0009965088684111834
1733861723638746600,10.24274658203125,-0.0018274174071848392,-0.0037373793311417103,0.002244033617898822
1733861723648697600,10.252697509765625,-0.0007629520259797573,0.0006837346591055393,0.0031449811067432165
1733861723658648800,10.26264892578125,-0.0008507021702826023,0.007183552719652653,0.005600268952548504
1733861723668599600,10.272599609375,-0.0007351210806518793,0.012517331168055534,0.004827419761568308
1733861723678550800,10.28255078125,-0.0021330546587705612,0.015434167347848415,0.005662692245095968
1733861723688501500,10.29250146484375,-0.0035205616150051355,0.018707457929849625,0.008068591356277466
1733861723698452700,10.30245263671875,-0.004629500675946474,0.024167578667402267,0.009877796284854412
1733861723708403700,10.31240380859375,-0.00580581882968545,0.030517887324094772,0.010374476201832294
1733861723718355700,10.322355712890625,-0.005501202307641506,0.0347529761493206,0.010775352828204632
1733861723728306400,10.332306396484375,-0.004149914253503084,0.036511462181806564,0.011486416682600975
1733861723738257700,10.342257568359376,-0.005128012970089912,0.035078465938568115,0.010773740708827972
1733861723748208600,10.352208740234374,-0.003675791434943676,0.032482683658599854,0.009497554041445255
1733861723758159600,10.36215966796875,-0.002942733932286501,0.027032379060983658,0.009148480370640755
1733861723768110800,10.37211083984375,-0.0004936910700052977,0.019375789910554886,0.00514708086848259
1733861723778061600,10.3820615234375,0.0004925448447465897,0.008556162007153034,0.0020375344902276993
1733861723788012800,10.3920126953125,-0.0003285075072199106,-0.0030645409133285284,-0.003377204528078437
1733861723797963500,10.401963623046875,0.0027361311949789524,-0.013314089737832546,-0.006573650985956192
1733861723807914800,10.411914794921875,0.0053630731999874115,-0.022732358425855637,-0.008050640113651752
1733861723817865700,10.42186572265625,0.005874478258192539,-0.02612578496336937,-0.010909352451562881
1733861723827816700,10.431816650390624,0.005203627981245518,-0.029343683272600174,-0.011247574351727962
1733861723837767700,10.441767578125,0.006155465729534626,-0.03632895648479462,-0.009919357486069202
1733861723847718700,10.45171875,0.0026097334921360016,-0.04213730990886688,-0.010096191428601742
1733861723857669600,10.461669677734376,0.0028420668095350266,-0.04274639114737511,-0.009861481375992298
1733861723867620600,10.47162060546875,0.00314886262640357,-0.040620122104883194,-0.008807668462395668
1733861723877571600,10.481571533203125,0.003962656017392874,-0.034514375030994415,-0.0077379485592246056
1733861723887522800,10.491522705078125,0.003635353408753872,-0.0228116475045681,-0.005820206366479397
1733861723897473500,10.5014736328125,0.0016660336405038834,-0.007150632329285145,-0.0024588177911937237
1733861723907424800,10.5114248046875,-0.0011462641414254904,0.008288244716823101,0.0025074451696127653
1733861723917375500,10.52137548828125,-0.0023539685644209385,0.020374899730086327,0.006146405357867479
1733861723927326700,10.53132666015625,-0.0034373425878584385,0.028801141306757927,0.009723296388983727
1733861723937278700,10.54127880859375,-0.00428295461460948,0.033446911722421646,0.010219285264611244
1733861723947229700,10.551229736328125,-0.003335401648655534,0.03483868017792702,0.008395552635192871
1733861723957180700,10.5611806640625,-0.002318009501323104,0.02569747343659401,0.008009511046111584
1733861723967131600,10.571131591796876,-0.0011291743721812963,0.016768693923950195,0.005323979537934065
1733861723977082600,10.58108251953125,0.0012915427796542645,0.012180058285593987,0.0009130784310400486
1733861723987033600,10.59103369140625,0.000562635250389576,0.007145618088543415,-0.0012568652164191008
1733861723996984800,10.60098486328125,0.0021289237774908543,0.005880661308765411,-0.0021168095991015434
1733861724006935600,10.610935546875,0.0007986747659742832,0.010394985787570477,-0.0010360985761508346
1733861724016886800,10.62088671875,0.0005435873754322529,0.017165610566735268,0.0005076492670923471
1733861724026837500,10.63083740234375,-0.0013200927060097456,0.02868271805346012,0.004914382006973028
1733861724036788700,10.640788818359376,0.0003032437525689602,0.037682753056287766,0.008068460039794445
1733861724046739500,10.650739501953124,-0.001403576461598277,0.048330072313547134,0.009248506277799606
1733861724056690700,10.660690673828125,-0.0006179248448461294,0.04523809254169464,0.008122130297124386
1733861724066641700,10.6706416015625,0.0011541424319148064,0.03143226355314255,0.005975355859845877
1733861724076592600,10.680592529296876,0.0007975581102073193,0.013242308050394058,0.002113688737154007
1733861724086543600,10.690543701171874,0.0020910552702844143,-0.008042207919061184,-0.005417464300990105
1733861724096494600,10.70049462890625,0.005685095209628344,-0.02461346983909607,-0.008216844871640205
1733861724106445600,10.710445556640625,0.004985216539353132,-0.0372064933180809,-0.011329015716910362
1733861724116396500,10.720396484375,0.0052115595899522305,-0.04203154146671295,-0.013140864670276642
1733861724126347500,10.730347412109374,0.002572899218648672,-0.038434676826000214,-0.010191679000854492
1733861724136298800,10.740298828125,0.003269535955041647,-0.02860136330127716,-0.0054807900451123714
1733861724146249500,10.75024951171875,0.0016583236865699291,-0.01926272362470627,-0.0025941897183656693
1733861724156201700,10.76020166015625,0.0012778681702911854,-0.01624281145632267,-0.0025507970713078976
1733861724166152700,10.770152587890625,0.0018674922175705433,-0.013584977015852928,-0.0049566966481506824
1733861724176103700,10.780103759765625,0.003468010574579239,-0.013466617092490196,-0.004113243892788887
1733861724186054700,10.7900546875,0.0029934351332485676,-0.013801109045743942,-0.004453063011169434
1733861724196005600,10.800005615234374,0.0031905993819236755,-0.013171253725886345,-0.000940720783546567
1733861724205956600,10.80995654296875,0.0009649959392845631,-0.010628733783960342,-0.001301046460866928
1733861724215907600,10.819907470703125,0.0017195376567542553,-0.008509841747581959,0.0006820152048021555
1733861724225858800,10.82985888671875,0.0000374852679669857,-0.003406692761927843,0.0021363673731684685
1733861724235809500,10.8398095703125,-0.0011699788738042116,0.0028586259577423334,0.003253746312111616
1733861724245760800,10.8497607421875,-0.0012589285615831614,0.010583657771348953,0.0032793127465993166
1733861724255711500,10.85971142578125,-0.0022606062702834606,0.01222220342606306,0.0032110214233398438
1733861724265662700,10.869662841796876,-0.0013729745987802744,0.014949279837310314,0.00466350931674242
1733861724275613400,10.879613525390624,-0.0029761670157313347,0.024446561932563782,0.007014871574938297
1733861724285564700,10.889564697265625,-0.002477090572938323,0.04489031806588173,0.01184824202209711
1733861724295515600,10.899515625,-0.005329167935997248,0.06610426306724548,0.01456613838672638
1733861724305466600,10.909466552734376,-0.007332930341362953,0.07267534732818604,0.021104997023940086
1733861724315417600,10.91941748046875,-0.008225282654166222,0.0678526908159256,0.023651007562875748
1733861724325368600,10.92936865234375,-0.008112364448606968,0.061281342059373856,0.02252049557864666
1733861724335319600,10.939319580078125,-0.005909295286983252,0.05246467515826225,0.016735708341002464
1733861724345270500,10.9492705078125,-0.004248015116900206,0.03697386756539345,0.01041762437671423
1733861724355221800,10.9592216796875,-0.004070635885000229,0.019468341022729874,0.010113407857716084
1733861724365172700,10.9691728515625,-0.001868734136223793,-0.0015064491890370846,0.009386098943650723
1733861724375123700,10.979123779296875,-0.0011346281971782446,-0.015055207535624504,0.004095765762031078
1733861724385075500,10.989075439453124,0.003121369518339634,-0.02007792890071869,-0.0038103607948869467
1733861724395026700,10.999026611328125,0.002835980150848627,-0.01428475882858038,-0.004979890771210194
1733861724404977700,11.008977783203125,0.00020530959591269493,-0.0012136988807469606,0.0008692097617313266
1733861724414928600,11.0189287109375,-0.0018345131538808346,0.011930353939533234,0.006506500765681267
1733861724424878800,11.02887890625,-0.004282224457710981,0.019589604809880257,0.009232512675225735
1733861724434829800,11.038829833984375,-0.0037586288526654243,0.01918661966919899,0.009865952655673027
1733861724444780800,11.04878076171875,-0.003317076712846756,0.012697560712695122,0.005894380155950785
1733861724454731800,11.058731689453126,-0.0006983652710914612,-0.000896879006177187,0.0016113176243379712
1733861724464682800,11.068682861328124,0.0011549284681677818,-0.016741089522838593,-0.00511103356257081
1733861724474633700,11.0786337890625,0.0026348037645220757,-0.027661263942718506,-0.007428223267197609
1733861724484584700,11.088584716796875,0.001800701953470707,-0.02956542558968067,-0.0069975899532437325
1733861724494535700,11.09853564453125,0.0017884327098727226,-0.02466515637934208,-0.005895181093364954
1733861724504487000,11.10848681640625,0.00009040115401148796,-0.017133736982941628,-0.0023475843481719494
1733861724514438000,11.11843798828125,-0.0020504456479102373,-0.008075978606939316,0.000133753870613873
1733861724524388900,11.128388916015625,-0.00027891085483133793,-0.004270854406058788,0.0035311486572027206
1733861724534339800,11.13833984375,-0.0027074539102613926,-0.0023967712186276913,0.0026893652975559235
1733861724544290800,11.148290771484374,-0.0014733450952917337,-0.0060077509842813015,0.0004547067219391465
1733861724554241800,11.15824169921875,-0.0021688127890229225,-0.0067543648183345795,0.0010439071338623762
1733861724564192800,11.16819287109375,-0.00045506865717470646,-0.008678498677909374,-0.0012634556042030454
1733861724574144000,11.17814404296875,0.0014502238482236862,-0.00965188629925251,-0.0019809515215456486
1733861724584094700,11.1880947265625,0.0005087964236736298,-0.013898562639951706,-0.0013471189886331558
1733861724594046000,11.1980458984375,-0.0006992623675614595,-0.020777110010385513,0.0006822805153205991
1733861724603997700,11.207997802734376,-0.0024420348927378654,-0.025913547724485397,0.0016956132603809237
1733861724613949000,11.217948974609374,0.0021254420280456543,-0.032396100461483,-0.003209113609045744
1733861724623899600,11.227899658203125,0.004037058912217617,-0.038428161293268204,-0.0069420658983290195
1733861724633851000,11.237850830078125,0.006369379349052906,-0.041186995804309845,-0.010694758035242558
1733861724643801600,11.247801513671876,0.0069789765402674675,-0.04480463266372681,-0.011617010459303856
1733861724653752800,11.2577529296875,0.00689057819545269,-0.046420421451330185,-0.015216665342450142
1733861724663703800,11.267703857421875,0.010483982041478157,-0.04667395353317261,-0.017951996996998787
1733861724673654800,11.27765478515625,0.010813973844051361,-0.04704127088189125,-0.022800981998443604
1733861724683606000,11.28760595703125,0.014508843421936035,-0.04410886391997337,-0.024929646402597427
1733861724693556700,11.297556640625,0.01873713731765747,-0.04153357446193695,-0.028240179643034935
1733861724703508000,11.307508056640625,0.021054619923233986,-0.046610623598098755,-0.03214304521679878
1733861724713458700,11.317458740234375,0.016212064772844315,-0.05070452764630318,-0.028423212468624115
1733861724723410000,11.327409912109376,0.012022113427519798,-0.042329687625169754,-0.021218031644821167
1733861724733360600,11.337360595703124,0.0024113585241138935,-0.02524016797542572,-0.008485722355544567
1733861724743312000,11.347311767578125,-0.004519517999142408,-0.006198032759130001,0.004595724865794182
1733861724753262800,11.357262939453125,-0.009672341868281364,0.017256086692214012,0.012618460692465305
1733861724763213800,11.3672138671875,-0.007973510771989822,0.025760892778635025,0.012123646214604378
1733861724773164800,11.377164794921875,-0.0050371806137263775,0.025516603142023087,0.008746683597564697
1733861724783115800,11.38711572265625,-0.0013963731471449137,0.01229347474873066,0.0025202124379575253
1733861724793066800,11.397066650390625,0.0022153807803988457,0.0006336905062198639,-0.0025521430652588606
1733861724803017700,11.407017822265624,0.003223653417080641,-0.00802344735711813,-0.005358582362532616
1733861724812968700,11.41696875,0.004004213958978653,-0.01200697012245655,-0.005528674460947514
1733861724822920700,11.426920654296875,0.0007777940481901169,-0.012499921023845673,-0.003634900553151965
1733861724832872000,11.436871826171876,-0.00029217544943094254,-0.009709698148071766,-0.0003203826490789652
1733861724842823000,11.446822998046875,-0.00387332821264863,-0.01226553414016962,0.002146237064152956
1733861724852774000,11.45677392578125,-0.003299962729215622,-0.010197821073234081,0.001522075617685914
1733861724862724900,11.466724853515625,-0.0009574461728334427,-0.007177264429628849,0.0009375117369927466
1733861724872675800,11.47667578125,-0.0015186620876193047,-0.00455141719430685,-0.0006515433778986335
1733861724882626800,11.486626708984375,-0.0003543281927704811,-0.0016461745835840702,-0.0004581980174407363
1733861724892577800,11.496577880859375,0.002374227624386549,0.0010315084364265203,-0.0004112205933779478
1733861724902528800,11.50652880859375,0.00015741214156150818,0.0006267079152166843,-0.0022045932710170746
1733861724912480000,11.51647998046875,-0.0008912400808185339,-0.0019507904071360826,0.0026564951986074448
1733861724922430700,11.5264306640625,-0.0029607824981212616,0.0005419284570962191,0.0011504774447530508
1733861724932382000,11.5363818359375,-0.003089520614594221,0.0038680587895214558,0.00308528495952487
1733861724942332700,11.546332763671876,-0.001548083033412695,0.0076108649373054504,0.001395775587297976
1733861724952284000,11.556283935546874,0.00016237515956163406,0.009014325216412544,0.0019851834513247013
1733861724962234600,11.566234619140625,-0.0006288501899689436,0.015201114118099213,0.003365233540534973
1733861724972185900,11.576185791015625,-0.0015726680867373943,0.02225314825773239,0.005223812069743872
1733861724982136800,11.58613671875,-0.002877084305509925,0.02615095116198063,0.004083179868757725
1733861724992087800,11.596087890625,-0.0011692182160913944,0.026678839698433876,0.005337121896445751
1733861725002038800,11.606038818359375,-0.0029993425123393536,0.02381487563252449,0.0050295265391469
1733861725011989800,11.61598974609375,-0.0030011492781341076,0.021718015894293785,0.005941815674304962
1733861725021940700,11.625940673828126,-0.0023057979997247458,0.021494043990969658,0.006292554549872875
1733861725031891700,11.6358916015625,-0.002929497277364135,0.02232731319963932,0.003946758806705475
1733861725041842700,11.6458427734375,-0.0028485371731221676,0.022336900234222412,0.004056747071444988
1733861725051794700,11.655794677734375,-0.00016365176998078823,0.023902611806988716,0.0030364440754055977
1733861725061746000,11.665745849609374,0.00004700431600213051,0.02241789922118187,0.003001823090016842
