time,seconds_elapsed,z,y,x
1733862652192902400,0.01590234375,-0.02352314256131649,0.24940373003482819,0.058580443263053894
1733862652202853000,0.02585302734375,-0.027520013973116875,0.2168537825345993,0.05637001991271973
1733862652212805400,0.035805419921875,-0.027869153767824173,0.20760568976402283,0.058350346982479095
1733862652222756400,0.04575634765625,-0.01653926819562912,0.28244954347610474,0.052323877811431885
1733862652232707300,0.055707275390625,-0.015111393295228481,0.3760247230529785,0.062357593327760696
1733862652242658300,0.065658203125,-0.01200082153081894,0.47932741045951843,0.07524755597114563
1733862652252609300,0.075609375,-0.008072547614574432,0.5852797031402588,0.0844637081027031
1733862652262561300,0.085561279296875,-0.0014221013989299536,0.6715310215950012,0.084816575050354
1733862652272512300,0.09551220703125,0.014049042016267776,0.7684758305549622,0.08531337976455688
1733862652282463200,0.105463134765625,0.01766987517476082,0.8137549161911011,0.08282225579023361
1733862652292414500,0.11541455078125,0.010414461605250835,0.7441090941429138,0.08408837020397186
1733862652302364700,0.12536474609375,0.0031996918842196465,0.5763147473335266,0.07376755774021149
1733862652312316700,0.135316650390625,0.002976540941745043,0.41968533396720886,0.04957384988665581
1733862652322267600,0.145267578125,0.010787593200802803,0.2954446077346802,0.02594708278775215
1733862652332218600,0.155218505859375,0.013293953612446785,0.19904184341430664,0.005816977936774492
1733862652342169600,0.165169677734375,0.018166473135352135,0.1902851164340973,0.0016672400524839759
1733862652352120600,0.17512060546875,0.02251502498984337,0.24067018926143646,0.007328610401600599
1733862652362072600,0.185072509765625,0.023512646555900574,0.32840511202812195,0.023093726485967636
1733862652372023600,0.1950234375,0.02259681560099125,0.4272514581680298,0.04144492745399475
1733862652381974500,0.204974609375,0.01917571946978569,0.540653645992279,0.056378066539764404
1733862652391925500,0.214925537109375,0.014763813465833664,0.6723184585571289,0.0696260929107666
1733862652401876500,0.22487646484375,0.020360181108117104,0.9442479610443115,0.07864408940076828
1733862652411828500,0.234828369140625,0.010825644247233868,1.0676852464675903,0.12890580296516418
1733862652421779700,0.24477978515625,-0.014377446845173836,1.1393754482269287,0.13892248272895813
1733862652431730400,0.25473046875,-0.010414354503154755,0.9931507706642151,0.1307554841041565
1733862652441681700,0.264681640625,-0.014849316328763962,0.6985830068588257,0.10711753368377686
1733862652451633400,0.27463330078125,-0.017254071310162544,0.42232227325439453,0.06460455060005188
1733862652461584600,0.284584716796875,-0.009795356541872025,0.19623641669750214,0.019936949014663696
1733862652471535400,0.294535400390625,0.013323657214641571,0.04920169711112976,-0.020432714372873306
1733862652481486600,0.304486572265625,0.026149975135922432,-0.015066237188875675,-0.04549438878893852
1733862652491437600,0.3144375,0.027787551283836365,0.0031764861196279526,-0.04870068281888962
1733862652501389600,0.3243896484375,0.019229751080274582,0.08406281471252441,-0.032018911093473434
1733862652511340500,0.334340576171875,0.008695226162672043,0.17988115549087524,-0.005484219174832106
1733862652521291500,0.34429150390625,0.0030727614648640156,0.24080044031143188,0.022059790790081024
1733862652531242500,0.354242431640625,0.002782937604933977,0.2433798760175705,0.029215959832072258
1733862652541193500,0.364193359375,-0.0028800079599022865,0.2012031227350235,0.029083069413900375
1733862652551144700,0.374144775390625,-0.0032163551077246666,0.1314312070608139,0.025482172146439552
1733862652561096700,0.3840966796875,0.000385836698114872,0.059237442910671234,0.0077431220561265945
1733862652571047400,0.39404736328125,0.003412756137549877,0.00702829472720623,-0.00925720576196909
1733862652580998700,0.40399853515625,0.003201034851372242,-0.008516309782862663,-0.014248501509428024
1733862652590949600,0.41394970703125,0.0016894745640456676,0.00044651562348008156,-0.007601552177220583
1733862652600901600,0.423901611328125,-0.0015827515162527561,0.02562617138028145,-0.0016693613724783063
1733862652610852400,0.433852294921875,-0.0009760118555277586,0.0545806959271431,0.004982693120837212
1733862652620803600,0.443803466796875,-0.0011794771999120712,0.07565242797136307,0.004929962567985058
1733862652630754600,0.453754638671875,0.0005792640149593353,0.08297108113765717,0.0032279726583510637
1733862652640705500,0.46370556640625,0.0013332050293684006,0.07950258255004883,-0.002542831003665924
1733862652650657500,0.473657470703125,0.0034667979925870895,0.06846826523542404,-0.005701813381165266
1733862652660608500,0.4836083984375,0.0038162050768733025,0.0569026879966259,-0.010159678757190704
1733862652670559700,0.493559814453125,0.0012940769083797932,0.04702261835336685,-0.007459099404513836
1733862652680510500,0.503510498046875,-0.00024230079725384712,0.04880480468273163,-0.008245530538260937
1733862652690461700,0.513461669921875,-0.00009592901915311813,0.05518171191215515,-0.008455288596451283
1733862652700413400,0.523413330078125,-0.0016826405189931393,0.0645989179611206,-0.009355969727039337
1733862652710364700,0.53336474609375,-0.0010228005703538656,0.07251723855733871,-0.010758327320218086
1733862652720315400,0.5433154296875,-0.002133338712155819,0.07493805140256882,-0.010788953863084316
1733862652730266600,0.5532666015625,-0.0032753748819231987,0.07355675846338272,-0.014171862974762917
1733862652740217300,0.56321728515625,-0.001719289692118764,0.07136178761720657,-0.013240288943052292
1733862652750169600,0.573169677734375,-0.0036149893421679735,0.06677275896072388,-0.012841395102441311
1733862652760120600,0.58312060546875,-0.002519631292670965,0.06167680397629738,-0.016566358506679535
1733862652770071600,0.593071533203125,-0.0014760398771613836,0.055994912981987,-0.013401624746620655
1733862652780022500,0.6030224609375,-0.002609481103718281,0.04444531723856926,-0.014519618824124336
1733862652789973500,0.612973388671875,-0.003795828204602003,0.029087990522384644,-0.010256228037178516
1733862652799925500,0.622925537109375,-0.004596108105033636,0.02125696651637554,-0.007275352254509926
1733862652809876500,0.63287646484375,-0.005259028635919094,0.026126354932785034,-0.0058281198143959045
1733862652819827500,0.642827392578125,-0.0041162665002048016,0.03387189283967018,-0.008679565973579884
1733862652829778700,0.65277880859375,-0.003176059341058135,0.037290677428245544,-0.011184521950781345
1733862652839729700,0.662729736328125,-0.002238360233604908,0.03918818011879921,-0.008908318355679512
1733862652849681700,0.672681640625,-0.001320102484896779,0.036585740745067596,-0.008202580735087395
1733862652859632400,0.68263232421875,-0.0038825960364192724,0.027906231582164764,-0.008263833820819855
1733862652869583600,0.69258349609375,-0.0020416746847331524,0.0224221870303154,-0.007284299470484257
1733862652879534600,0.70253466796875,-0.001730617368593812,0.019102558493614197,-0.006679762154817581
1733862652889485600,0.712485595703125,-0.0009536412544548512,0.018344659358263016,-0.007189550437033176
1733862652899437600,0.7224375,0.00045943213626742363,0.02211063541471958,-0.006551457569003105
1733862652909388500,0.732388427734375,0.0009712199680507183,0.026545226573944092,-0.005556777585297823
1733862652919339800,0.74233984375,-0.0023548020981252193,0.020552314817905426,-0.002595342230051756
1733862652929290500,0.75229052734375,-0.0019227445591241121,0.022729240357875824,-0.0002180009614676237
1733862652939241700,0.76224169921875,-0.0007064789533615112,0.023600894957780838,-0.001581273041665554
1733862652949193500,0.772193359375,0.0004543107934296131,0.02316804975271225,-0.0010155917843803763
1733862652959144700,0.782144775390625,0.0013033263385295868,0.02450202777981758,-0.0017026873538270593
1733862652969095400,0.792095458984375,0.003975603263825178,0.02553572691977024,-0.002482147654518485
1733862652979046700,0.802046630859375,0.0028312434442341328,0.02343209646642208,-0.0036496773827821016
1733862652988997400,0.811997314453125,0.005675387103110552,0.02015852741897106,-0.0036311657167971134
1733862652998949600,0.82194970703125,0.007360368501394987,0.022340720519423485,-0.004069255664944649
1733862653008900600,0.831900634765625,0.009793351404368877,0.021001532673835754,-0.004263524431735277
1733862653018851600,0.8418515625,0.008348852396011353,0.02625967748463154,-0.004527710378170013
1733862653028802600,0.851802490234375,0.008491916581988335,0.030457502231001854,-0.001952615100890398
1733862653038753500,0.86175341796875,0.008272738195955753,0.03586504980921745,-0.0013558005448430777
1733862653048705500,0.87170556640625,0.0072522247210145,0.03567494824528694,-0.0033096489496529102
1733862653058656500,0.881656494140625,0.008625616319477558,0.03170524165034294,-0.0010552831226959825
1733862653068607500,0.891607421875,0.010083839297294617,0.028259586542844772,-0.001411060569807887
1733862653078558500,0.901558349609375,0.008198322728276253,0.024794280529022217,-0.0031482402700930834
1733862653088509400,0.911509521484375,0.006634179037064314,0.021373804658651352,-0.002476749010384083
1733862653098461700,0.921461669921875,0.005265047308057547,0.019882697612047195,-0.002703916747123003
1733862653108412400,0.931412353515625,0.0037850751541554928,0.025339707732200623,-0.004018655512481928
1733862653118363600,0.94136376953125,-0.0005071416962891817,0.027805794030427933,-0.0015352581394836307
1733862653128314400,0.951314453125,0.0009108688682317734,0.022930286824703217,-0.0006635842146351933
1733862653138265600,0.961265625,0.0022807992063462734,0.018908115103840828,0.0005617362912744284
1733862653148217600,0.971217529296875,0.000005189795047044754,0.016782771795988083,0.0021184019278734922
1733862653158168600,0.98116845703125,-0.0006669920403510332,0.01701286993920803,0.0012147913221269846
1733862653168119600,0.99111962890625,0.0014719660393893719,0.021643783897161484,0.0013277707621455193
1733862653178070500,1.001070556640625,-0.0016617756336927414,0.015388816595077515,-0.00007571512833237648
1733862653188021800,1.011021728515625,-0.00043361796997487545,0.022271698340773582,0.0017539390828460455
1733862653197973500,1.020973388671875,-0.0015374983195215464,0.017786137759685516,0.000214099301956594
1733862653207924500,1.030924560546875,-0.000705137150362134,0.013164741918444633,0.0019282042048871517
1733862653217875500,1.04087548828125,0.001002215314656496,0.013510686345398426,0.0023862679954618216
1733862653227826700,1.05082666015625,0.0005440898239612579,0.009365083649754524,0.0011113652726635337
1733862653237777400,1.06077734375,0.00003729015588760376,0.00786279421299696,-0.0010162341641262174
1733862653247729700,1.070729736328125,0.00017389003187417984,0.005137894302606583,-0.0028673242777585983
1733862653257680600,1.0806806640625,0.0024841823615133762,0.005266258493065834,-0.0012028486235067248
1733862653267631600,1.090631591796875,0.0008433982729911804,0.006342997308820486,-0.0013343723258003592
1733862653277582600,1.10058251953125,0.0005272813141345978,0.009549709036946297,-0.000978573807515204
1733862653287533600,1.110533447265625,0.001226944848895073,0.008906707167625427,0.001223677652888
1733862653297485600,1.120485595703125,0.00042879534885287285,0.008974084630608559,0.0007136822678148746
1733862653307436500,1.1304365234375,-0.00012022443115711212,0.00482094194740057,0.0002460107207298279
1733862653317387300,1.14038720703125,0.0018616998568177223,0.0022477959282696247,-0.0006637250771746039
1733862653327338500,1.15033837890625,0.001376645639538765,0.004581930115818977,0.00008133845403790474
1733862653337289200,1.160289306640625,0.003240059595555067,0.00518327159807086,-0.0007365182973444462
1733862653347241500,1.170241455078125,0.0019752830266952515,0.005121313035488129,0.0024343873374164104
1733862653357192200,1.180192138671875,-0.0008732341229915619,0.003312493674457073,0.0006506019271910191
1733862653367143400,1.190143310546875,-0.00003893766552209854,0.0035507422871887684,0.0027656739111989737
1733862653377094100,1.20009423828125,0.001973879523575306,0.002848200500011444,0.00020824035163968801
1733862653387045400,1.21004541015625,0.0019228183664381504,0.002009941730648279,0.0009824318112805486
1733862653396997400,1.219997314453125,-0.000017560552805662155,-0.0024202270433306694,0.0008426158456131816
1733862653406948400,1.2299482421875,0.0016643702983856201,-0.00731064984574914,0.0032203090377151966
1733862653416899300,1.2398994140625,0.0003751344047486782,-0.01265481486916542,0.004626724403351545
1733862653426850300,1.249850341796875,0.0013547665439546108,-0.016675062477588654,0.005518327467143536
1733862653436801500,1.259801513671875,0.001803775317966938,-0.01827269420027733,0.002502297982573509
1733862653446753300,1.269753173828125,0.003640290815383196,-0.019868193194270134,0.0015209229895845056
1733862653456704300,1.279704345703125,0.0032920013181865215,-0.03232710808515549,0.0006333752535283566
1733862653466655200,1.2896552734375,0.005550044123083353,-0.05159975588321686,-0.0008112071081995964
1733862653476606500,1.2996064453125,0.005637395661324263,-0.07342755794525146,-0.007437418214976788
1733862653486557200,1.30955712890625,0.0056353164836764336,-0.08666518330574036,-0.011599855497479439
1733862653496509400,1.319509521484375,0.007044928148388863,-0.08925218135118484,-0.017223119735717773
1733862653506460400,1.32946044921875,0.005231183487921953,-0.09078193455934525,-0.021843910217285156
1733862653516411400,1.339411376953125,0.0079105906188488,-0.08415518701076508,-0.025149691849946976
1733862653526362400,1.3493623046875,0.007830621674656868,-0.06931988894939423,-0.026736415922641754
1733862653536313300,1.359313232421875,0.005777058657258749,-0.048185840249061584,-0.022234875708818436
1733862653546265300,1.369265380859375,0.0029107090085744858,-0.02931889519095421,-0.01496912445873022
1733862653556216300,1.37921630859375,0.0019463780336081982,-0.011295154690742493,-0.0052131665870547295
1733862653566167300,1.389167236328125,-0.0002447180449962616,0.002780903596431017,0.00040209246799349785
1733862653576118500,1.399118408203125,-0.00018932437524199486,0.01455021183937788,0.002978700678795576
1733862653586069200,1.4090693359375,-0.0009871453512459993,0.020569348707795143,0.0036280271597206593
1733862653596021500,1.419021484375,-0.002536572515964508,0.022623177617788315,0.004194481298327446
1733862653605972200,1.42897216796875,-0.0016804179176688194,0.024857953190803528,0.007249842397868633
1733862653615923500,1.43892333984375,-0.0009589674882590771,0.027558930218219757,0.011044314131140709
1733862653625874200,1.448874267578125,-0.0013906932435929775,0.032590433955192566,0.00954731460660696
1733862653635825400,1.458825439453125,-0.001395486993715167,0.036909282207489014,0.010770238004624844
1733862653645777400,1.46877734375,-0.00013766903430223465,0.0370028130710125,0.008372703567147255
1733862653655728400,1.478728271484375,-0.00029879016801714897,0.03087354637682438,0.006491713225841522
1733862653665679400,1.488679443359375,0.00043570948764681816,0.023250780999660492,0.0053129978477954865
1733862653675630300,1.49863037109375,0.00044662831351161003,0.012504659593105316,0.0030290712602436543
1733862653685581600,1.50858154296875,0.00009534042328596115,0.005170551128685474,0.0009176438907161355
1733862653695533300,1.518533203125,0.0017981654964387417,0.005671225488185883,-0.0024227588437497616
1733862653705484300,1.528484375,0.00048700766637921333,0.010511443018913269,-0.001413663849234581
1733862653715435300,1.538435302734375,0.002880123909562826,0.0170857235789299,-0.0009537360165268183
1733862653725386500,1.548386474609375,0.0011552851647138596,0.02113465778529644,0.00037233810871839523
1733862653735337200,1.558337158203125,0.001855962909758091,0.03028155118227005,-0.00026575534138828516
1733862653745289200,1.568289306640625,0.004073618445545435,0.036323368549346924,-0.001576975453644991
1733862653755240400,1.578240478515625,0.003544981125742197,0.03978787362575531,-0.0031575614120811224
1733862653765191400,1.58819140625,0.0016646157018840313,0.045201074331998825,-0.002285970374941826
1733862653775142400,1.598142333984375,0.000441692303866148,0.04456404596567154,-0.0035126223228871822
1733862653785093400,1.60809326171875,-0.0005830619484186172,0.04380318149924278,-0.004335765261203051
1733862653795045400,1.61804541015625,0.0001871241256594658,0.039429739117622375,-0.005638849921524525
1733862653804996400,1.627996337890625,0.00009152805432677269,0.03783760592341423,-0.0026523000560700893
1733862653814947300,1.637947265625,0.0013227076269686222,0.04403478279709816,-0.003329808358103037
1733862653824898300,1.647898193359375,0.00180759746581316,0.04739059507846832,-0.003834337927401066
1733862653834849300,1.657849365234375,-0.0002464987337589264,0.043973494321107864,-0.0022361748851835728
1733862653844801500,1.667801513671875,0.0011968715116381645,0.03696918487548828,-0.001005993690341711
1733862653854752300,1.677752197265625,0.0013044634833931923,0.03582242876291275,-0.0006509942468255758
1733862653864703500,1.687703369140625,0.0018931152299046516,0.036053650081157684,0.00125523516908288
1733862653874654200,1.697654296875,0.003828966524451971,0.04498589038848877,0.0013878606259822845
1733862653884605400,1.70760546875,0.0023420723155140877,0.05410653352737427,0.005989185534417629
1733862653894557200,1.71755712890625,-0.0006212270818650723,0.051862023770809174,0.008175374940037727
1733862653904508400,1.72750830078125,-0.0014361748471856117,0.03752946853637695,0.010467097163200378
1733862653914459400,1.73745947265625,-0.00037144310772418976,0.014937342144548893,0.010610908269882202
1733862653924410400,1.747410400390625,-0.0009958113078027964,-0.007618555333465338,0.007652041967958212
1733862653934361300,1.757361328125,0.001957101747393608,-0.020858993753790855,0.006155878305435181
1733862653944313300,1.767313232421875,0.002291502896696329,-0.026943646371364594,0.004284387454390526
1733862653954264300,1.777264404296875,0.0026984340511262417,-0.027070678770542145,0.0037328465841710567
1733862653964215300,1.78721533203125,0.0019378759898245335,-0.023761723190546036,0.004902510903775692
1733862653974166300,1.797166259765625,0.002628966234624386,-0.019862856715917587,0.004269477911293507
1733862653984117200,1.8071171875,0.00034702615812420845,-0.01570114493370056,0.007269622758030891
1733862653994069200,1.8170693359375,-0.0009728365112096071,-0.01497410237789154,0.007325282320380211
1733862654004020500,1.8270205078125,0.0024666977114975452,-0.016065604984760284,0.009769845753908157
1733862654013971500,1.836971435546875,0.0011159423738718033,-0.01170467771589756,0.010351479984819889
1733862654023922400,1.84692236328125,0.0021917568519711494,-0.006428457796573639,0.01014651544392109
1733862654033873400,1.856873291015625,0.0024828403256833553,-0.0025223996490240097,0.00846179947257042
1733862654043825400,1.866825439453125,0.003563776146620512,0.0010718953562900424,0.007930911146104336
1733862654053776400,1.8767763671875,0.0032617738470435143,0.0026093381457030773,0.00690506212413311
1733862654063727400,1.886727294921875,0.0033758911304175854,0.0037488695234060287,0.007285153027623892
1733862654073678300,1.89667822265625,-0.0006042032036930323,0.0028204917907714844,0.0070441365242004395
1733862654083629300,1.90662939453125,0.0027695614844560623,-0.001397852785885334,0.006765315309166908
1733862654093581300,1.916581298828125,0.0015359851531684399,0.000583006301894784,0.007316057104617357
1733862654103532300,1.9265322265625,0.0016923025250434875,0.005945038050413132,0.00489794323220849
1733862654113483500,1.9364833984375,0.0014792494475841522,0.011191731318831444,0.0030236104503273964
1733862654123434200,1.946434326171875,0.002209416124969721,0.015815142542123795,0.006471859756857157
1733862654133385500,1.956385498046875,0.0019508232362568378,0.028567422181367874,0.010013330727815628
1733862654143337200,1.966337158203125,0.002410097047686577,0.04090392217040062,0.015176958404481411
1733862654153288400,1.976288330078125,0.00005772663280367851,0.05500216409564018,0.019948810338974
1733862654163239200,1.9862392578125,-0.00033165886998176575,0.06367108970880508,0.02214176580309868
1733862654173190400,1.9961904296875,0.0025517456233501434,0.06987492740154266,0.02773227170109749
1733862654183141400,2.006141357421875,0.0016306210309267044,0.07285885512828827,0.03010493330657482
1733862654193093400,2.01609326171875,0.005117497406899929,0.07158400118350983,0.028697984293103218
1733862654203044400,2.02604443359375,0.008351648226380348,0.06381481140851974,0.030340733006596565
1733862654212995300,2.035995361328125,0.008335402235388756,0.0482126846909523,0.02813909761607647
1733862654222946300,2.0459462890625,0.010779857635498047,0.03227992728352547,0.025885483250021935
1733862654232897300,2.055897216796875,0.010724996216595173,0.030406925827264786,0.024202365428209305
1733862654242849300,2.065849365234375,0.012138409540057182,0.03771626576781273,0.027191095054149628
1733862654252800500,2.075800537109375,0.013001540675759315,0.048280492424964905,0.029519231989979744
1733862654262751200,2.085751220703125,0.014526300132274628,0.054094016551971436,0.030079875141382217
1733862654272702500,2.095702392578125,0.01405625231564045,0.05745306238532066,0.029651105403900146
1733862654282654200,2.105654296875,0.011439736932516098,0.05594269186258316,0.029646698385477066
1733862654292605400,2.11560546875,0.009495364502072334,0.052965544164180756,0.029842175543308258
1733862654302556700,2.125556640625,0.009688464924693108,0.04995346441864967,0.028488684445619583
1733862654312507600,2.135507568359375,0.005941928829997778,0.048451438546180725,0.02569529414176941
1733862654322458600,2.145458740234375,0.006292474456131458,0.043704189360141754,0.025596503168344498
1733862654332409600,2.15540966796875,0.004265542142093182,0.04362216219305992,0.022644389420747757
1733862654342361600,2.165361572265625,0.003561523277312517,0.03938407450914383,0.020148450508713722
1733862654352312800,2.175312744140625,0.004616135265678167,0.03342045471072197,0.017201397567987442
1733862654362263600,2.185263671875,0.0034756381064653397,0.023653540760278702,0.015328988432884216
1733862654372214800,2.19521484375,0.0029938723891973495,0.018085669726133347,0.012320681475102901
1733862654382165800,2.205165771484375,-0.00012874649837613106,0.015321183018386364,0.009535498917102814
1733862654392117800,2.21511767578125,0.0005767247639596462,0.013628210872411728,0.005252869799733162
1733862654402068700,2.22506884765625,0.00154528534039855,0.00908865686506033,0.002549337688833475
1733862654412019700,2.235019775390625,0.0014707166701555252,0.0064177727326750755,-0.0008145009633153677
1733862654421970700,2.244970703125,0.0012254295870661736,-0.0020499906968325377,-0.0023465813137590885
1733862654431922700,2.254922607421875,0.000538600143045187,-0.007607742212712765,-0.005405221600085497
1733862654441873700,2.264873779296875,0.0017642593011260033,-0.013313994742929935,-0.006223599426448345
1733862654451824600,2.27482470703125,0.0007378770969808102,-0.018701836466789246,-0.007245187647640705
1733862654461776000,2.28477587890625,0.004209266509860754,-0.022718321532011032,-0.010049616917967796
1733862654471726600,2.2947265625,0.0031946017406880856,-0.019898300990462303,-0.009182758629322052
1733862654481678800,2.304678955078125,0.003907662350684404,-0.018919551745057106,-0.006513530854135752
1733862654491629600,2.314629638671875,0.002116420306265354,-0.016257721930742264,-0.006026971619576216
1733862654501580800,2.324580810546875,0.0013524619862437248,-0.008837589994072914,-0.0031191641464829445
1733862654511531500,2.334531494140625,0.0020336988382041454,-0.0055296774953603745,-0.002256033942103386
1733862654521482800,2.344482666015625,0.0011325371451675892,-0.0008905676659196615,-0.00035578361712396145
1733862654531434800,2.354434814453125,0.0009775413200259209,0.0015049456851556897,-0.00013900245539844036
1733862654541385700,2.3643857421875,-0.0006911559030413628,0.006188094150274992,0.0015355965588241816
1733862654551336700,2.374336669921875,-0.0026768087409436703,0.007982265204191208,0.0014823332894593477
1733862654561287700,2.38428759765625,-0.0009885490871965885,0.007561567239463329,0.0016634020721539855
1733862654571238700,2.39423876953125,-0.002385376952588558,0.007143184542655945,0.003380874637514353
1733862654581190700,2.404190673828125,-0.0021222427021712065,0.008682390674948692,-0.0012348315212875605
1733862654591141600,2.4141416015625,-0.001204251078888774,0.005856510251760483,-0.0022686708252876997
1733862654601092600,2.424092529296875,-0.003512805327773094,0.0026054123882204294,0.00039480801206082106
1733862654611043600,2.434043701171875,-0.0020528605673462152,0.0036323273088783026,-0.001187642221339047
1733862654620994600,2.44399462890625,-0.0017543502617627382,0.007103756070137024,-0.0019000780303031206
1733862654630946600,2.453946533203125,-0.0014486194122582674,0.012341128662228584,0.0021788193844258785
1733862654640897800,2.463897705078125,-0.0018779521342366934,0.01561715267598629,0.002442847704514861
1733862654650848500,2.4738486328125,-0.0009482426103204489,0.01228074450045824,0.0020955714862793684
1733862654660799700,2.4837998046875,-0.0009123580530285835,0.010688792914152145,0.0003893943503499031
1733862654670750700,2.493750732421875,-0.0017429979052394629,0.004340615123510361,0.0020448153372853994
1733862654680702700,2.50370263671875,-0.002042995532974601,0.0023371365386992693,0.004418925382196903
1733862654690653700,2.51365380859375,-0.002374292816966772,0.005781136453151703,0.00158185965847224
1733862654700604700,2.523604736328125,0.0004919636994600296,0.010790510103106499,0.0029686647467315197
1733862654710556000,2.533555908203125,-0.00016051065176725388,0.012269096449017525,0.0036325911059975624
1733862654720506600,2.543506591796875,0.0008129975758492947,0.007225661538541317,0.00439343461766839
1733862654730458600,2.553458740234375,-0.00010872259736061096,-0.0008783375378698111,0.0037374980747699738
1733862654740409600,2.56340966796875,0.0027664699591696262,-0.012681369669735432,0.0012319691013544798
1733862654750360800,2.57336083984375,0.0032098861411213875,-0.02539050579071045,-0.006068820599466562
1733862654760311600,2.5833115234375,0.006079687736928463,-0.03718560189008713,-0.010114090517163277
1733862654770262800,2.5932626953125,0.006341475993394852,-0.04315374419093132,-0.008921526372432709
1733862654780214800,2.60321484375,0.004657352808862925,-0.030773837119340897,-0.005262148566544056
1733862654790165800,2.613165771484375,0.003655737731605768,-0.008017659187316895,0.0014146629255264997
1733862654800116700,2.62311669921875,0.00297494325786829,0.017541632056236267,0.0069251898676157
1733862654810067700,2.633067626953125,0.0015168627724051476,0.03651052713394165,0.01204591616988182
1733862654820018700,2.643018798828125,0.0015076836571097374,0.052049025893211365,0.012891905382275581
1733862654829970700,2.652970703125,0.002634467091411352,0.05845552310347557,0.016349220648407936
1733862654839921700,2.662921630859375,0.0012926976196467876,0.06694576889276505,0.016846543177962303
1733862654849872600,2.67287255859375,0.0005672522820532322,0.07757444679737091,0.019492393359541893
1733862654859823600,2.68282373046875,0.001161707565188408,0.08936424553394318,0.01984259858727455
1733862654869774600,2.692774658203125,0.0002586296759545803,0.09196082502603531,0.020516911521553993
1733862654879726600,2.7027265625,-0.0006473981775343418,0.0818118304014206,0.021669602021574974
1733862654889677800,2.712677734375,-0.002105745254084468,0.06691410392522812,0.017895102500915527
1733862654899628500,2.722628662109375,-0.004680292680859566,0.05566846579313278,0.019724536687135696
1733862654909579800,2.732579833984375,-0.002276789862662554,0.050015904009342194,0.0178118534386158
1733862654919530800,2.74253076171875,-0.0028975619934499264,0.04465173929929733,0.015423760749399662
1733862654929482800,2.752482666015625,-0.001768914284184575,0.03814856708049774,0.014291117899119854
1733862654939433500,2.76243359375,-0.0017906518187373877,0.03192034363746643,0.013353202491998672
1733862654949384700,2.772384765625,0.0006248354911804199,0.021519366651773453,0.008993074297904968
1733862654959335700,2.782335693359375,0.002316506113857031,0.013909315690398216,0.002115351613610983
1733862654969286700,2.79228662109375,0.003596687689423561,0.0020308177918195724,-0.0010338362772017717
1733862654979238700,2.80223876953125,0.0009758085943758488,-0.002391753951087594,-0.003988394979387522
1733862654989189600,2.812189697265625,0.0004234691150486469,-0.007407551631331444,-0.0034893183037638664
1733862654999140900,2.822140869140625,0.0017695343121886253,-0.006274077109992504,-0.0012353167403489351
1733862655009091600,2.832091552734375,0.0019679395481944084,-0.0024135590065270662,-0.001952506136149168
1733862655019043600,2.842043701171875,-0.0004578193183988333,-0.003194390796124935,-0.0030714329332113266
1733862655028994800,2.851994873046875,-0.0007640826515853405,-0.008783833123743534,-0.004967070650309324
1733862655038945800,2.86194580078125,-0.0018605377990752459,-0.018876874819397926,-0.00452301325276494
1733862655048896800,2.871896728515625,-0.004367105197161436,-0.022594381123781204,-0.004429003689438105
1733862655058847700,2.88184765625,-0.0028437452856451273,-0.02081279829144478,-0.002625619526952505
1733862655068799700,2.8917998046875,-0.001985674723982811,-0.011660313233733177,-0.00032491469755768776
1733862655078750700,2.901750732421875,-0.0016762081068009138,-0.000171916326507926,0.0005242113256826997
1733862655088701700,2.91170166015625,-0.0012455747928470373,0.006979736499488354,0.0034156052861362696
1733862655098652700,2.921652587890625,-0.001587902894243598,0.009445473551750183,0.0007846545195207
1733862655108603600,2.931603759765625,-0.000620376318693161,0.006878985557705164,0.0012866604374721646
1733862655118556000,2.941555908203125,-0.0010992127936333418,0.005143403075635433,0.002454190282151103
1733862655128506600,2.951506591796875,-0.002248366829007864,0.006131702568382025,0.006011374294757843
1733862655138457900,2.961457763671875,-0.0029964072164148092,0.010320760309696198,0.007891420274972916
1733862655148408600,2.97140869140625,-0.0007050235290080309,0.01593736745417118,0.007816586643457413
1733862655158359800,2.98135986328125,-0.003058766480535269,0.02067842148244381,0.005525081418454647
1733862655168311600,2.9913115234375,-0.0021519602742046118,0.025144008919596672,0.0015527101932093501
1733862655178262800,3.0012626953125,-0.0004651658236980438,0.02548953890800476,0.00110121991019696
1733862655188213500,3.011213623046875,-0.002029772847890854,0.027679989114403725,-0.002509493613615632
1733862655198164700,3.021164794921875,0.00018236273899674416,0.02231319434940815,-0.0015908366767689586
1733862655208115500,3.031115478515625,-0.00024107983335852623,0.009057043120265007,0.0022829975932836533
1733862655218067700,3.041067626953125,-0.0019035907462239265,-0.005252012517303228,0.0009136491571553051
1733862655228018700,3.051018798828125,-0.0014596418477594852,-0.013334972783923149,0.0006840847199782729
1733862655237969700,3.0609697265625,-0.0010798647999763489,-0.016193365678191185,-0.00420391745865345
1733862655247920600,3.070920654296875,0.0007894081063568592,-0.01953057385981083,-0.005795689299702644
1733862655257871600,3.08087158203125,-0.0009282797109335661,-0.018366890028119087,-0.0047564394772052765
1733862655267823600,3.09082373046875,-0.0010044460650533438,-0.017672337591648102,-0.0009294766932725906
1733862655277774600,3.100774658203125,-0.0033334316685795784,-0.014234345406293869,0.0033400189131498337
1733862655287725600,3.1107255859375,-0.001208229223266244,-0.010194329544901848,0.005850047804415226
1733862655297676800,3.1206767578125,-0.0018659578636288643,-0.0034748052712529898,0.0063965399749577045
1733862655307628300,3.130628173828125,-0.002007371513172984,0.004349828232079744,0.008266611956059933
1733862655317580500,3.14058056640625,0.0012828507460653782,0.010684147477149963,0.008871816098690033
1733862655327531500,3.150531494140625,0.0012317178770899773,0.014726825058460236,0.012112882919609547
1733862655337482500,3.160482421875,-0.0015972135588526726,0.020307151600718498,0.012195996940135956
1733862655347433500,3.17043359375,-0.0026145409792661667,0.02490323595702648,0.012605058960616589
1733862655357384400,3.180384521484375,-0.0028608727734535933,0.020725246518850327,0.011611131019890308
1733862655367336400,3.19033642578125,-0.003985259216278791,0.018532931804656982,0.010326954536139965
1733862655377287400,3.200287353515625,-0.0015298458747565746,0.01586022973060608,0.0077658649533987045
1733862655387238400,3.21023828125,-0.0025945776142179966,0.012776022776961327,0.004958360455930233
1733862655397189400,3.220189453125,-0.00356138963252306,0.01164478249847889,0.005848231725394726
1733862655407140600,3.230140625,-0.0018319329246878624,0.008795732632279396,0.004574708174914122
1733862655417092600,3.240092529296875,0.0002574091777205467,0.010591674596071243,0.004364972002804279
1733862655427043300,3.250043212890625,0.0011136154644191265,0.015397083014249802,0.002257346408441663
1733862655436994600,3.25999462890625,0.0016532717272639275,0.016687629744410515,0.003453108947724104
1733862655446945500,3.269945556640625,0.0016458150930702686,0.016911868005990982,0.001777980593033135
1733862655456897500,3.2798974609375,0.002900866325944662,0.017959879711270332,0.0063359178602695465
1733862655466848300,3.28984814453125,0.0001578107476234436,0.02305956557393074,0.01137967873364687
1733862655476799500,3.299799560546875,0.000784996896982193,0.0293045025318861,0.013600596226751804
1733862655486750500,3.30975048828125,0.0026686503551900387,0.03144541755318642,0.01378701813519001
1733862655496701400,3.319701416015625,0.002002379857003689,0.03128700330853462,0.014853952452540398
1733862655506653400,3.3296533203125,0.0022934633307158947,0.02826298587024212,0.014901623129844666
1733862655516604400,3.3396044921875,0.00029485439881682396,0.02828908897936344,0.01599062792956829
1733862655526555600,3.3495556640625,-0.0015680266078561544,0.029333580285310745,0.01436050795018673
1733862655536506400,3.35950634765625,-0.0011006577406078577,0.03114331141114235,0.0130383912473917
1733862655546457600,3.36945751953125,-0.00046762428246438503,0.03325626254081726,0.013347052037715912
1733862655556409300,3.379409423828125,0.000020627863705158234,0.031221851706504822,0.01008677389472723
1733862655566360600,3.389360595703125,-0.0002691242843866348,0.028597040101885796,0.006151154171675444
1733862655576311600,3.3993115234375,0.0006898334249854088,0.020207853987812996,0.005026441998779774
1733862655586262500,3.409262451171875,0.0009588128887116909,0.007141586858779192,-0.00032464764080941677
1733862655596213500,3.419213623046875,0.0006765564903616905,-0.004793352447450161,-0.005243773106485605
1733862655606165500,3.42916552734375,0.001840091310441494,-0.009505016729235649,-0.0065884036011993885
1733862655616116500,3.439116455078125,0.00103752501308918,-0.00888004433363676,-0.00736535619944334
1733862655626067500,3.4490673828125,-0.00003839191049337387,-0.005705289542675018,-0.007562696002423763
1733862655636018400,3.459018310546875,0.0006909887306392193,-0.007573457434773445,-0.0096836993470788
1733862655645969400,3.468969482421875,0.0014494569040834904,-0.018298007547855377,-0.009398474358022213
1733862655655921400,3.47892138671875,0.003442681860178709,-0.02252269722521305,-0.01001624297350645
1733862655665872600,3.48887255859375,0.0033028656616806984,-0.017923416569828987,-0.010351268574595451
1733862655675823400,3.4988232421875,0.001422574743628502,-0.012836961075663567,-0.00847505871206522
1733862655685774600,3.508774658203125,0.001733365934342146,-0.010170338675379753,-0.0048630135133862495
1733862655695725600,3.5187255859375,0.0004603881388902664,-0.00322288041934371,-0.000973623595200479
1733862655705677600,3.528677490234375,0.0002800924703478813,0.0012003639712929726,-0.002960075158625841
1733862655715628300,3.538628173828125,0.002184403594583273,0.0028150484431535006,0.00052879739087075
1733862655725579500,3.54857958984375,-0.0011717118322849274,0.005251574330031872,0.0008947157766669989
1733862655735530500,3.558530517578125,-0.0005076299421489239,0.01296947430819273,0.0018310609739273787
1733862655745481500,3.5684814453125,0.00019331416115164757,0.015723183751106262,0.004945095162838697
1733862655755433500,3.57843359375,-0.0024224957451224327,0.01183774508535862,0.0056445845402777195
1733862655765384400,3.588384521484375,-0.0013023701030761003,0.012475837022066116,0.0072842929512262344
1733862655775335400,3.59833544921875,-0.0023164725862443447,0.009359139949083328,0.004831521771848202
1733862655785286400,3.608286376953125,-0.0026757330633699894,0.0038554517086595297,0.0010570232989266515
1733862655795237600,3.618237548828125,-0.001957771833986044,-0.005662036128342152,-0.005524265114217997
1733862655805189400,3.628189453125,-0.0025993273593485355,-0.012893849983811378,-0.014358502812683582
1733862655815140600,3.638140625,-0.0009002340957522392,-0.02096131630241871,-0.017845572903752327
1733862655825091300,3.64809130859375,-0.0009811941999942064,-0.028820304200053215,-0.019229350611567497
1733862655835042600,3.65804248046875,0.000531327910721302,-0.02889431081712246,-0.02040097489953041
1733862655844994600,3.66799462890625,-0.00212703924626112,-0.02400953881442547,-0.01587200164794922
1733862655854945500,3.677945556640625,-0.0007061869837343693,-0.013318322598934174,-0.01217024214565754
1733862655864896500,3.687896484375,-0.001446545822545886,-0.0014028064906597137,-0.006499040871858597
1733862655874847500,3.697847412109375,-0.0014763164799660444,0.010125024244189262,-0.005888705141842365
1733862655884798500,3.707798583984375,-0.0012669919524341822,0.016140572726726532,-0.006815485656261444
1733862655894750700,3.717750732421875,0.00007544178515672684,0.020800979807972908,-0.0036450414918363094
1733862655904701400,3.727701416015625,-0.001131502678617835,0.021867310628294945,-0.006821659859269857
1733862655914652700,3.737652587890625,-0.0018055958207696676,0.02158225327730179,-0.005562756676226854
1733862655924603400,3.747603271484375,0.0005315942689776421,0.016219712793827057,-0.00576355867087841
1733862655934554600,3.7575546875,-0.0003913384862244129,0.00047429301775991917,-0.006499029695987701
1733862655944506400,3.76750634765625,-0.0007932095322757959,-0.019155601039528847,-0.008766710758209229
1733862655954457600,3.77745751953125,-0.0003079809248447418,-0.03222966939210892,-0.014185856096446514
1733862655964408300,3.787408203125,0.0003024153411388397,-0.03977707028388977,-0.017609350383281708
1733862655974359600,3.797359619140625,0.0006688935682177544,-0.04180428385734558,-0.017882324755191803
1733862655984310300,3.807310302734375,-0.00034337397664785385,-0.04106871783733368,-0.0174958985298872
1733862655994262500,3.817262451171875,-0.00013058725744485855,-0.039057232439517975,-0.015787482261657715
1733862656004213500,3.827213623046875,0.0010314607061445713,-0.036010853946208954,-0.015650764107704163
1733862656014164500,3.83716455078125,0.0008932696655392647,-0.034752607345581055,-0.013975249603390694
1733862656024115500,3.847115478515625,-0.0005520277190953493,-0.0380336232483387,-0.013793887570500374
1733862656034066400,3.85706640625,-0.0012225552927702665,-0.03982335329055786,-0.00928899459540844
1733862656044018400,3.867018310546875,-0.00122122373431921,-0.04196826368570328,-0.0051999762654304504
1733862656053969400,3.876969482421875,-0.0015421221032738686,-0.036880604922771454,0.00001921399962157011
1733862656063920400,3.88692041015625,-0.00170164555311203,-0.020810026675462723,0.0024501474108546972
1733862656073871400,3.896871337890625,-0.002004047855734825,-0.006664418615400791,0.005393000785261393
1733862656083822600,3.906822509765625,-0.0023230945225805044,0.0018901876173913479,0.008080130442976952
1733862656093774600,3.916774658203125,0.0003764284774661064,0.007817867211997509,0.008572451770305634
1733862656103725300,3.926725341796875,0.0008709775283932686,0.009675954468548298,0.006918095983564854
1733862656113676500,3.936676513671875,0.0022764024324715137,0.016437556594610214,0.0077468836680054665
1733862656123627500,3.94662744140625,-0.0018794604111462831,0.025663811713457108,0.015023971907794476
1733862656133578500,3.95657861328125,-0.0010861437767744064,0.03736423701047897,0.022448742762207985
1733862656143530500,3.966530517578125,-0.0023479494266211987,0.05370859056711197,0.029264837503433228
1733862656153481500,3.9764814453125,-0.0032219025306403637,0.07212093472480774,0.03383290022611618
1733862656163432400,3.986432373046875,-0.002499653259292245,0.0841594934463501,0.03714986518025398
1733862656173383400,3.996383544921875,-0.0019261275883764029,0.08197864890098572,0.035663191229104996
1733862656183334700,4.006334716796875,-0.0028715496882796288,0.07484297454357147,0.03327140584588051
1733862656193286400,4.016286376953125,-0.003001207485795021,0.06049752235412598,0.029928497970104218
1733862656203237600,4.026237548828125,-0.0032073361799120903,0.045134544372558594,0.025622699409723282
1733862656213188400,4.036188232421875,-0.0031237343791872263,0.031056344509124756,0.022415030747652054
1733862656223139600,4.0461396484375,-0.002923464635387063,0.0222932118922472,0.019433090463280678
1733862656233091600,4.056091552734375,-0.003572750836610794,0.01669982075691223,0.019999084994196892
1733862656243042600,4.06604248046875,-0.003879014402627945,0.012253408320248127,0.01668424718081951
1733862656252993500,4.07599365234375,-0.0036608432419598103,0.005761859472841024,0.013554620556533337
1733862656262944500,4.085944580078125,-0.0011857012286782265,-0.008197366259992123,0.005964078940451145
1733862656272895500,4.0958955078125,-0.00013268319889903069,-0.026245109736919403,-0.0008462265832349658
1733862656282847500,4.105847412109375,0.00029741739854216576,-0.04125841334462166,-0.007359253708273172
1733862656292798500,4.115798583984375,0.001639204565435648,-0.05045492574572563,-0.011516026221215725
1733862656302749400,4.12574951171875,0.002652004361152649,-0.05584942549467087,-0.014001553878188133
1733862656312703000,4.135702880859375,0.0017155916430056095,-0.054097190499305725,-0.014198677614331245
1733862656322654000,4.145654052734375,0.0032021678052842617,-0.046027012169361115,-0.013173360377550125
1733862656332606000,4.15560595703125,0.001791961956769228,-0.03880254924297333,-0.009237328544259071
1733862656342557000,4.165556884765625,0.0005962024442851543,-0.026215648278594017,-0.007598418742418289
1733862656352508000,4.1755078125,-0.0007852495182305574,-0.014557471498847008,-0.005076381843537092
1733862656362459000,4.185458984375,0.0005165035836398602,-0.00577170355245471,-0.003040661569684744
1733862656372409900,4.195409912109375,-0.00045672710984945297,0.00019139563664793968,-0.0022745663300156593
1733862656382361900,4.20536181640625,-0.0001504635438323021,0.0033597582951188087,-0.0027978774160146713
1733862656392313000,4.21531298828125,-0.0012030317448079586,0.003735687118023634,-0.003536154516041279
1733862656402263800,4.225263916015625,0.00006543193012475967,0.002745257457718253,-0.005250697489827871
1733862656412215000,4.235215087890625,-0.00011712731793522835,0.001934920554049313,-0.004944192245602608
1733862656422165800,4.245165771484375,0.0008839545771479607,0.0026134939398616552,-0.00444431696087122
1733862656432118000,4.255117919921875,0.0023568845354020596,-0.0013579695951193571,-0.007502011954784393
1733862656442069000,4.265069091796875,0.0011960123665630817,-0.008213745430111885,-0.008879931643605232
1733862656452020000,4.27502001953125,0.001739060040563345,-0.016438620164990425,-0.012620002962648869
1733862656461971000,4.284970947265625,0.0012628869153559208,-0.020248007029294968,-0.012650628574192524
1733862656471922000,4.294921875,0.0027806684374809265,-0.021798938512802124,-0.015998512506484985
1733862656481874000,4.3048740234375,0.0019098147749900818,-0.022526513785123825,-0.017556460574269295
1733862656491825000,4.314824951171875,0.002997424453496933,-0.026221521198749542,-0.02024497278034687
1733862656501776000,4.32477587890625,0.002950819209218025,-0.027332328259944916,-0.019013261422514915
1733862656511726800,4.334726806640625,0.002108063083142042,-0.030563311651349068,-0.018135156482458115
1733862656521678000,4.344677978515625,0.003214606549590826,-0.023093145340681076,-0.01755645126104355
1733862656531630000,4.354630126953125,0.004221876617521048,-0.0173813384026289,-0.017045874148607254
1733862656541580800,4.364580810546875,0.004884470719844103,-0.009624349884688854,-0.016338538378477097
1733862656551532000,4.374531982421875,0.0038922466337680817,-0.010618061758577824,-0.018996482715010643
1733862656561483000,4.38448291015625,0.0034126113168895245,-0.020821165293455124,-0.024685261771082878
1733862656571435000,4.39443505859375,0.004636416677385569,-0.035676728934049606,-0.02817589044570923
1733862656581385700,4.4043857421875,0.00476451450958848,-0.04997044801712036,-0.036155253648757935
1733862656591337000,4.4143369140625,0.004569612443447113,-0.058293186128139496,-0.03448879346251488
1733862656601288000,4.424287841796875,0.004031120799481869,-0.060046613216400146,-0.03225839510560036
1733862656611239000,4.434239013671875,0.002644780557602644,-0.053033336997032166,-0.028213536366820335
1733862656621191000,4.44419091796875,0.0023281308822333813,-0.039902620017528534,-0.020912479609251022
1733862656631142000,4.454141845703125,0.0030141016468405724,-0.022800534963607788,-0.014493659138679504
1733862656641093000,4.464093017578125,0.0005512107163667679,-0.003919255919754505,-0.009807826951146126
1733862656651043800,4.4740439453125,-0.0020077896770089865,0.013169911690056324,-0.00029805314261466265
1733862656660995000,4.4839951171875,-0.002200336428359151,0.027401311323046684,0.00647436548024416
1733862656670946800,4.49394677734375,-0.003771611489355564,0.03423260897397995,0.011032402515411377
1733862656680898000,4.50389794921875,-0.0034512332640588284,0.03623983636498451,0.013549622148275375
1733862656690848800,4.513848876953125,-0.002115720883011818,0.033947527408599854,0.013704569078981876
1733862656700800000,4.523800048828125,-0.002273912774398923,0.029279537498950958,0.010070685297250748
1733862656710750700,4.533750732421875,-0.0016230565961450338,0.023119160905480385,0.007884569466114044
1733862656720703000,4.543702880859375,0.0011450331658124924,0.018492983654141426,0.008009470999240875
1733862656730654000,4.553654052734375,-0.002449373248964548,0.015356970950961113,0.004951678682118654
1733862656740605000,4.56360498046875,-0.00013348832726478577,0.011947059072554111,0.003085601609200239
1733862656750556000,4.573555908203125,0.0005712262354791164,0.009345589205622673,0.0009559934260323644
1733862656760507000,4.5835068359375,0.00018133921548724174,0.004956699442118406,0.001773317577317357
1733862656770459000,4.593458984375,0.00007901107892394066,0.003589307889342308,0.001639045076444745
1733862656780410000,4.60341015625,0.0005005896091461182,0.003517402336001396,0.003344267141073942
1733862656790360800,4.61336083984375,-0.0000942666083574295,0.006700465455651283,0.0030049209017306566
1733862656800312000,4.62331201171875,0.001377129927277565,0.005861037410795689,0.0011295229196548462
1733862656810263800,4.633263916015625,0.0019791866652667522,-0.000826503150165081,-0.00276079960167408
1733862656820215000,4.643215087890625,-0.0005737193860113621,-0.009779784828424454,-0.004073738120496273
1733862656830165800,4.653165771484375,-0.0008968960028141737,-0.01664431020617485,-0.006836028303951025
1733862656840117000,4.663116943359375,0.0007814280688762665,-0.018041670322418213,-0.005845865700393915
1733862656850068000,4.67306787109375,-0.001196930417791009,-0.01352278608828783,-0.003997196443378925
1733862656860020000,4.68302001953125,-0.0035080215893685818,-0.008459851145744324,-0.0044760326854884624
1733862656869971000,4.692970947265625,-0.000038446392863988876,-0.0045931581407785416,-0.003237550612539053
1733862656879922000,4.702921875,0.00004357891157269478,-0.0011733926367014647,-0.004299619235098362
1733862656889873200,4.712873046875,0.0022009452804923058,-0.00009234785102307796,-0.004770663101226091
1733862656899823900,4.722823974609375,0.0004544439725577831,0.00396657595410943,-0.0021370630711317062
1733862656909776000,4.73277587890625,-0.0010378977749496698,0.007840997539460659,0.000996884424239397
1733862656919726800,4.742726806640625,-0.0003169798292219639,0.01013584341853857,0.0024951789528131485
1733862656929678000,4.752677978515625,-0.0007145206909626722,0.013596533797681332,0.003979783039540052
1733862656939628800,4.76262890625,0.00042611127719283104,0.014268183149397373,0.00516808545216918
1733862656949580000,4.772580078125,0.00011136708781123161,0.016043618321418762,0.0037628558930009604
1733862656959532000,4.782531982421875,0.0008682375773787498,0.01837175525724888,0.004110131878405809
1733862656969483000,4.79248291015625,-0.00041967746801674366,0.02247304469347,0.0031511641573160887
1733862656979434000,4.80243408203125,-0.0023794977460056543,0.0234975628554821,0.003357292851433158
1733862656989385000,4.812385009765625,-0.0017966635059565306,0.024193409830331802,0.006211196072399616
1733862656999336000,4.8223359375,-0.002529032761231065,0.02623046189546585,0.007875405251979828
1733862657009288000,4.832287841796875,-0.0006880627479404211,0.028665820136666298,0.007385904435068369
1733862657019239000,4.842239013671875,-0.0014441341627389193,0.024692917242646217,0.005631414242088795
1733862657029190000,4.85218994140625,-0.0016099447384476662,0.021406074985861778,0.005326651968061924
1733862657039140900,4.862140869140625,-0.0009707859717309475,0.01978181302547455,0.005796167068183422
1733862657049092000,4.872092041015625,-0.0016511231660842896,0.018480967730283737,0.004659845028072596
1733862657059043800,4.8820439453125,-0.001131806755438447,0.019058074802160263,0.0020534091163426638
1733862657068995000,4.8919951171875,-0.00010421453043818474,0.015066733583807945,0.0008376999758183956
1733862657078945800,4.90194580078125,-0.0011590924113988876,0.012210225686430931,0.0012656699400395155
1733862657088897000,4.91189697265625,-0.0015908742789179087,0.007018049247562885,0.00253495667129755
1733862657098848800,4.921848876953125,-0.0010411979164928198,0.0019364715553820133,0.00208142027258873
1733862657108800000,4.931800048828125,0.0007285661995410919,0.0007370387902483344,0.001665906747803092
1733862657118751000,4.9417509765625,0.0008928831666707993,0.0015285302652046084,0.00007546693086624146
1733862657128702000,4.951701904296875,0.0020328001119196415,0.002217566827312112,0.0007023517973721027
1733862657138653000,4.96165283203125,-0.00008388049900531769,0.0040615396574139595,0.00006266054697334766
1733862657148605000,4.97160498046875,0.0003916560672223568,0.006149161607027054,-0.0025463425554335117
1733862657158556000,4.981555908203125,-0.000626204302534461,0.004551797639578581,-0.0012816074304282665
1733862657168507000,4.9915068359375,0.00020414777100086212,0.0043861959129571915,0.0011395448818802834
1733862657178457900,5.001457763671875,-0.000631019240245223,0.009488279931247234,0.003399237059056759
1733862657188408800,5.011408935546875,-0.0009838289115577936,0.015143737196922302,0.0035886853002011776
1733862657198360800,5.02136083984375,-0.0005076557863503695,0.019544344395399094,0.002967636100947857
1733862657208312000,5.03131201171875,-0.002638641744852066,0.023368237540125847,0.004383420571684837
1733862657218262800,5.0412626953125,-0.000544864684343338,0.027346733957529068,0.003712303936481476
1733862657228214000,5.051214111328125,-0.0002488084137439728,0.026308812201023102,0.0016267712926492095
1733862657238165000,5.0611650390625,-0.00018302863463759422,0.019327335059642792,0.0010171737521886826
1733862657248117000,5.071116943359375,0.00014081085100769997,0.014876488596200943,0.0018522193422541022
1733862657258068000,5.08106787109375,-0.0012919697910547256,0.0125717893242836,0.003148912452161312
1733862657268019000,5.09101904296875,-0.00021960213780403137,0.011316994205117226,0.0021678160410374403
1733862657277970000,5.100969970703125,-0.00029150769114494324,0.00951190385967493,0.003198459278792143
1733862657287921000,5.1109208984375,-0.00022196071222424507,0.012228027917444706,0.004621581640094519
1733862657297873000,5.120872802734375,-0.0015197189059108496,0.018401235342025757,0.0037073183339089155
1733862657307820800,5.13082080078125,-0.0020872147288173437,0.020830143243074417,0.003204959910362959
1733862657317771800,5.140771728515625,-0.0004989055451005697,0.023158542811870575,0.0022488851100206375
1733862657327722800,5.15072265625,-0.002641251776367426,0.020667118951678276,0.00284895533695817
1733862657337674500,5.160674560546875,-0.00043375766836106777,0.018131522461771965,0.002320051658898592
1733862657347625700,5.170625732421875,-0.00024517718702554703,0.017520617693662643,0.0030953341629356146
1733862657357576700,5.18057666015625,-0.0009130977559834719,0.017064150422811508,0.0022021098993718624
1733862657367527700,5.190527587890625,-0.001783168874680996,0.015083616599440575,0.0036749138962477446
1733862657377478700,5.200478759765625,-0.0006958001758903265,0.014112095348536968,0.0005763259250670671
1733862657387430700,5.2104306640625,-0.0021980702877044678,0.008257240988314152,0.0002923451829701662
1733862657397382000,5.2203818359375,0.00040783267468214035,0.0046276189386844635,0.00035386416129767895
1733862657407332600,5.23033251953125,0.0003835945390164852,0.0017900584498420358,0.0006726825376972556
1733862657417283800,5.240283935546875,0.001229946967214346,0.004720068536698818,-0.00023731961846351624
1733862657427234600,5.250234619140625,-0.00048702838830649853,0.007587973494082689,-0.0007885348750278354
1733862657437186800,5.260186767578125,-0.00010459823533892632,0.009236469864845276,0.0013800770975649357
1733862657447137500,5.270137451171875,-0.0002490011975169182,0.011091909371316433,0.0018468322232365608
1733862657457088800,5.2800888671875,-0.0010775106493383646,0.014489037916064262,-0.00019900815095752478
1733862657467039500,5.29003955078125,0.00007712561637163162,0.014545043930411339,-0.0005772013682872057
1733862657476990700,5.29999072265625,-0.0019191799219697714,0.01124512031674385,-0.0005835928022861481
1733862657486942700,5.309942626953125,-0.001664875540882349,0.007375272456556559,-0.005041857250034809
1733862657496893700,5.319893798828125,-0.0026294724084436893,0.0028287239838391542,-0.0065031335689127445
1733862657506844700,5.3298447265625,0.0015127896331250668,0.002031843876466155,-0.007281285710632801
1733862657516795600,5.339795654296875,-0.0010196100920438766,-0.0014912516344338655,-0.008550814352929592
1733862657526746600,5.34974658203125,-0.0006365727167576551,-0.0034118909388780594,-0.009302584454417229
1733862657536698600,5.35969873046875,-0.0000807708129286766,-0.00485851988196373,-0.010693020187318325
1733862657546649600,5.369649658203125,-0.0008079535327851772,-0.008070786483585835,-0.012599242851138115
1733862657556600600,5.3796005859375,-0.001417018473148346,-0.007182355970144272,-0.014191280119121075
1733862657566551800,5.3895517578125,-0.00006130337715148926,-0.008491418324410915,-0.01608923077583313
1733862657576503800,5.39950390625,-0.0013318974524736404,-0.0038607134483754635,-0.015984302386641502
1733862657586454500,5.40945458984375,-0.0013199495151638985,-0.0019596396014094353,-0.015801560133695602
1733862657596405800,5.41940576171875,-0.0017465879209339619,-0.0006019601132720709,-0.015193294733762741
1733862657606356700,5.429356689453125,0.00008457573130726814,-0.0015632822178304195,-0.015207167714834213
1733862657616307700,5.4393076171875,-0.0011234343983232975,-0.0033995318226516247,-0.014970678836107254
1733862657626259700,5.449259765625,-0.0007540264632552862,-0.004010955803096294,-0.015438389033079147
1733862657636210700,5.459210693359375,0.0005487920716404915,-0.007911421358585358,-0.015074068680405617
1733862657646162000,5.469161865234375,-0.0014358090702444315,-0.012174530886113644,-0.015363580547273159
1733862657656112600,5.479112548828125,0.00003558723255991936,-0.015405743382871151,-0.013429326005280018
1733862657666064000,5.48906396484375,0.0017052646726369858,-0.016506092622876167,-0.013666504994034767
1733862657676015600,5.499015625,-0.0017176961991935968,-0.015773190185427666,-0.010386022739112377
1733862657685966800,5.508966796875,-0.00003105541691184044,-0.013724262826144695,-0.006330875214189291
1733862657695917600,5.51891748046875,0.0010680314153432846,-0.011846734210848808,-0.0055729397572577
1733862657705868800,5.528868896484375,0.00005008140578866005,-0.010509798303246498,-0.0052490257658064365
1733862657715819500,5.538819580078125,0.00000294344499707222,-0.005412774626165628,-0.003556320909410715
1733862657725771800,5.548771728515625,0.0002140919677913189,-0.003317618276923895,-0.0003829945344477892
1733862657735722800,5.55872265625,0.001802667509764433,-0.0006938718724995852,-0.0018325531855225563
1733862657745673700,5.568673828125,0.0001487615518271923,-0.001760991057381034,-0.0035175003577023745
1733862657755624700,5.578624755859375,0.0014411937445402145,-0.0034664792474359274,-0.004552404396235943
1733862657765575700,5.58857568359375,0.001424912828952074,-0.007091206032782793,-0.005690361373126507
1733862657775527700,5.598527587890625,0.0012936186976730824,-0.00940416008234024,-0.006154017522931099
1733862657785478700,5.608478759765625,0.0032346448861062527,-0.008137930184602737,-0.007535411976277828
1733862657795429600,5.6184296875,0.0024290382862091064,-0.003307222155854106,-0.003954525105655193
1733862657805380600,5.628380615234375,0.00038947537541389465,0.00402808329090476,-0.0019019398605450988
1733862657815332600,5.63833251953125,0.0036864690482616425,0.008166635408997536,-0.0028966302052140236
1733862657825283800,5.648283935546875,0.0009185136295855045,0.01078524999320507,0.00034645909909158945
1733862657835234600,5.658234619140625,0.0017829756252467632,0.014700896106660366,0.0017928218003362417
1733862657845185800,5.668185791015625,0.0006380137056112289,0.019873088225722313,0.0020737582817673683
1733862657855136500,5.678136474609375,0.00019273348152637482,0.025354672223329544,0.004395235795527697
1733862657865088800,5.6880888671875,-0.00017750216647982597,0.027284331619739532,0.003922551870346069
1733862657875039500,5.69803955078125,0.000045404769480228424,0.029292622581124306,0.004494332242757082
1733862657884990700,5.70799072265625,-0.0007306209299713373,0.0308973528444767,0.008022243157029152
1733862657894941700,5.717941650390625,-0.0007370125968009233,0.030253933742642403,0.00794953852891922
1733862657904892700,5.727892578125,-0.00014289561659097672,0.027203485369682312,0.009098717011511326
1733862657914844700,5.7378447265625,-0.0011085579171776772,0.02508973516523838,0.0064904168248176575
1733862657924795600,5.747795654296875,-0.0015543962363153696,0.021790869534015656,0.005551785230636597
1733862657934746600,5.75774658203125,-0.001731230178847909,0.0181556548923254,0.005404512397944927
1733862657944697600,5.767697509765625,-0.002511942759156227,0.013851625844836235,0.004944439511746168
1733862657954648800,5.77764892578125,0.00048224907368421555,0.01580265909433365,0.00179605046287179
1733862657964600800,5.787600830078125,-0.0012053018435835838,0.013506433926522732,0.0019174179760739207
1733862657974551600,5.797551513671875,0.0006402689032256603,0.01144727785140276,-0.000048261252231895924
1733862657984502800,5.807502685546875,0.0005325917154550552,0.004764081444591284,-0.0016846393700689077
1733862657994453800,5.817453857421875,-0.001770509872585535,0.0017493830528110266,-0.0023176728282123804
1733862658004404700,5.82740478515625,-0.00012332340702414513,0.0010394793935120106,-0.0017521389527246356
1733862658014356700,5.837356689453125,0.0010109171271324158,0.0040025124326348305,-0.000991806504316628
1733862658024307700,5.8473076171875,0.0006393757648766041,0.009176447987556458,0.0014999069971963763
1733862658034258700,5.8572587890625,-0.0000365343876183033,0.014504633843898773,0.0037920898757874966
1733862658044209700,5.867209716796875,-0.0018705623224377632,0.016756556928157806,0.005806165747344494
1733862658054161700,5.87716162109375,-0.0012207510881125927,0.0168476365506649,0.0022561720106750727
1733862658064112600,5.887112548828125,-0.0009131140541285276,0.014102810062468052,0.002799602225422859
1733862658074064000,5.89706396484375,0.0004829149693250656,0.010023646056652069,0.0042933691293001175
1733862658084014600,5.9070146484375,-0.0003263382241129875,0.009207386523485184,0.002882692962884903
1733862658093965800,5.9169658203125,0.0010318742133677006,0.008516829460859299,0.002183613134548068
1733862658103917600,5.92691748046875,-0.0013507113326340914,0.00919417291879654,0.004431865643709898
1733862658113868800,5.936868896484375,-0.00042845867574214935,0.009206689894199371,0.0037745977751910686
1733862658123819500,5.946819580078125,-0.00011477293446660042,0.007775741629302502,0.004127829801291227
1733862658133770800,5.956770751953125,0.000017053913325071335,0.011208822950720787,0.002169341081753373
1733862658143721500,5.966721435546875,-0.0003646882250905037,0.010106353089213371,0.0009083099430426955
1733862658153673700,5.976673828125,0.0005596950650215149,0.005608806386590004,0.0006909959483891726
1733862658163624700,5.986624755859375,0.0010350942611694336,0.00040561635978519917,-0.00010620919056236744
1733862658173575700,5.99657568359375,-0.00021765707060694695,-0.001124103320762515,-0.003304665442556143
1733862658183526700,6.006526611328125,0.0017659598961472511,-0.006534142419695854,-0.00222063809633255
1733862658193477600,6.0164775390625,0.00011719716712832451,-0.010655118152499199,-0.0020392765291035175
1733862658203429600,6.0264296875,0.0008334913291037083,-0.011316053569316864,-0.0034558356273919344
1733862658213380600,6.036380615234375,0.00010192114859819412,-0.010419899597764015,-0.0041597094386816025
1733862658223331600,6.04633154296875,0.0008668028749525547,-0.006632650271058083,-0.0028423157054930925
1733862658233282600,6.056282470703125,0.00014322204515337944,-0.007348241284489632,-0.0038029176648706198
1733862658243234600,6.066234619140625,-0.00006297184154391289,-0.010400300845503807,-0.0031235222704708576
1733862658253185800,6.076185791015625,0.0008803196251392365,-0.009524387307465076,-0.0033251233398914337
1733862658263136500,6.086136474609375,0.0031267753802239895,-0.010666516609489918,-0.0053770761005580425
1733862658273087700,6.096087646484375,0.003224513493478298,-0.01513210590928793,-0.006580558605492115
1733862658283038700,6.106038818359375,0.0016377833671867847,-0.020114777609705925,-0.004946260713040829
1733862658292990700,6.11599072265625,-0.0005249697715044022,-0.01731313206255436,-0.0025723190046846867
1733862658302941700,6.125941650390625,0.001649106852710247,-0.016897764056921005,-0.0019803119357675314
1733862658312893000,6.135892822265625,0.00023203901946544647,-0.014189328998327255,-0.0027992338873445988
1733862658322844000,6.145843994140625,0.00021505821496248245,-0.013324012979865074,-0.0022418946027755737
1733862658332795000,6.155794921875,0.0005631335079669952,-0.011302940547466278,-0.0006581124616786838
1733862658342746600,6.16574658203125,-0.0002749296836555004,-0.010517926886677742,-0.0008374520111829042
1733862658352697900,6.17569775390625,0.0007514525204896927,-0.008660638704895973,-0.0017589058261364698
1733862658362648800,6.18564892578125,0.0012193284928798676,-0.01227566972374916,-0.0024604902137070894
1733862658372599800,6.195599853515625,-0.0005905558355152607,-0.007899296469986439,-0.0022117511834949255
1733862658382550800,6.20555078125,0.00017679249867796898,-0.003865608246996999,-0.0012232116423547268
1733862658392502800,6.215502685546875,0.0008654859848320484,-0.0031971551943570375,0.0008484614081680775
1733862658402454000,6.2254541015625,-0.000170782208442688,-0.000639431644231081,0.0006072153337299824
1733862658412404700,6.23540478515625,-0.0019407188519835472,0.0008239754242822528,0.0022077751345932484
1733862658422356000,6.24535595703125,0.00040504150092601776,0.001121575478464365,0.0024291323497891426
1733862658432307700,6.2553076171875,-0.0007244052831083536,0.002162605058401823,0.0005143196322023869
1733862658442259000,6.265259033203125,-0.00005393289029598236,0.0018469661008566618,-0.0010606134310364723
1733862658452209700,6.275209716796875,-0.0004973493050783873,0.0005795678589493036,-0.0009391733910888433
1733862658462161000,6.285160888671875,0.0009835343807935715,-0.0007414950523525476,-0.001717166043817997
1733862658472111600,6.295111572265625,0.003243759274482727,-0.0011361753568053246,-0.0021451362408697605
1733862658482064000,6.30506396484375,-0.0008189734071493149,-0.00029503065161406994,-0.001530297682620585
1733862658492014800,6.315014892578125,-0.00039153615944087505,0.0005001891404390335,-0.0014844912802800536
1733862658501965800,6.3249658203125,0.0004664692096412182,-0.0020008087158203125,0.000496598077006638
1733862658511916800,6.334916748046875,0.000772466417402029,-0.0036322614178061485,-0.0002216565189883113
1733862658521867800,6.34486767578125,0.001934962347149849,-0.005652229301631451,-0.0006600739434361458
1733862658531819800,6.35481982421875,0.0006553134880959988,-0.0037230353336781263,0.0015511485980823636
1733862658541770800,6.364770751953125,-0.0015748178120702505,0.0013497539330273867,-0.00023316917940974236
1733862658551721700,6.3747216796875,0.0006927610374987125,0.0012852584477514029,-0.0004332452081143856
1733862658561673000,6.3846728515625,-0.0020330913830548525,-0.003379049012437463,0.0014479390811175108
1733862658571623700,6.394623779296875,0.0002519008703529835,-0.005073085427284241,0.0010750964283943176
1733862658581576000,6.404575927734375,0.00271776644513011,-0.0022765786852687597,0.0004399570170789957
1733862658591526700,6.414526611328125,0.001368875615298748,-0.0011079837568104267,-0.0028684877324849367
1733862658601478000,6.424477783203125,0.0005747945979237556,-0.002448352752253413,-0.0019233319908380508
1733862658611428900,6.434428955078125,-0.00003799889236688614,-0.005283820442855358,-0.0029824713710695505
1733862658621379800,6.4443798828125,0.00014703301712870598,-0.009496057406067848,-0.00037459435407072306
1733862658631331800,6.454331787109375,0.00005568657070398331,-0.009235333651304245,-0.001549048232845962
1733862658641282800,6.46428271484375,0.0008793259039521217,-0.005329180508852005,-0.001096432562917471
1733862658651233800,6.47423388671875,0.00046493811532855034,0.003144199028611183,0.00034939765464514494
1733862658661184800,6.484184814453125,-0.002234540181234479,0.0057928310707211494,0.0008577099069952965
1733862658671136800,6.49413671875,-0.000257143285125494,0.005934777203947306,0.0007535802433267236
1733862658681087700,6.504087646484375,-0.000034597236663103104,0.006630778778344393,0.00044803100172430277
1733862658691038700,6.514038818359375,-0.00034565431997179985,0.005472303833812475,0.0015931902453303337
1733862658700989700,6.52398974609375,0.00009224703535437584,0.00646644551306963,0.001103532500565052
1733862658710941000,6.53394091796875,-0.00010349508374929428,0.00526456069201231,0.001630305778235197
1733862658720893000,6.543892822265625,-0.0006745876744389534,0.00664097722619772,0.00175535271409899
1733862658730844000,6.553843994140625,-0.00047911168076097965,0.00703219510614872,0.002559094689786434
1733862658740795000,6.563794921875,-0.00039569754153490067,0.00824261736124754,0.0043060313910245895
1733862658750745900,6.573745849609375,-0.0011754711158573627,0.009822404012084007,0.0027209180407226086
1733862658760696800,6.58369677734375,-0.00035506580024957657,0.006776281166821718,0.0021169132087379694
1733862658770648800,6.59364892578125,0.0015994282439351082,0.007985356263816357,0.002856739331036806
1733862658780599800,6.603599853515625,-0.00016936613246798515,0.007719917688518763,0.0023658943828195333
1733862658790550800,6.61355078125,-0.0018634030129760504,0.008902627974748611,0.0037824297323822975
1733862658800501800,6.623501708984375,-0.0007255261298269033,0.006493845023214817,0.003946020267903805
1733862658810452700,6.63345263671875,0.00004945369437336922,0.0059316521510481834,0.004430183209478855
1733862658820404700,6.64340478515625,-0.00043653277680277824,0.00399800855666399,0.0059492262080311775
1733862658830356000,6.65335595703125,0.00032300082966685295,0.0054512955248355865,0.0020620764698833227
1733862658840306700,6.663306640625,0.0006619147025048733,0.005959260743111372,0.0017014977056533098
1733862658850258000,6.6732578125,0.0002629728987812996,0.0020627896301448345,0.0006285101408138871
1733862658860209700,6.683209716796875,-0.0002401578240096569,0.0012415120145305991,-0.0007252367213368416
1733862658870161000,6.693160888671875,0.00006796978414058685,0.0002228529192507267,-0.0010224455036222935
1733862658880111600,6.703111572265625,-0.0006575011648237705,-0.00415056012570858,-0.0012587638339027762
1733862658890062800,6.713062744140625,0.0003710114397108555,-0.0017806130927056074,-0.00040921533945947886
1733862658900013800,6.723013916015625,-0.0007681390270590782,0.00009466055780649185,-0.0012159361504018307
1733862658909965800,6.7329658203125,0.000801528338342905,0.0013825652422383428,-0.0021637550089508295
1733862658919916800,6.742916748046875,-0.00026799459010362625,0.002225408563390374,-0.000010661780834197998
1733862658929867800,6.75286767578125,0.0005914075300097466,0.004560734611004591,0.0006604548543691635
1733862658939818800,6.76281884765625,-0.0005743321962654591,0.004117530304938555,-0.0008255289867520332
1733862658949769700,6.772769775390625,-0.001671820878982544,0.007021707482635975,-0.00024469359777867794
1733862658959721700,6.7827216796875,-0.001993745332583785,0.007622852921485901,0.0024265660904347897
1733862658969673000,6.7926728515625,0.0018068519420921803,0.008802900090813637,0.0013080383650958538
1733862658979623700,6.802623779296875,0.0005139494314789772,0.007653007749468088,0.0001951620215550065
1733862658989575000,6.812574951171875,-0.00016089528799057007,0.007337689399719238,0.001160557847470045
1733862658999526700,6.822526611328125,-0.0017080286052078009,0.0050183748826384544,0.00362978084012866
1733862659009478000,6.832477783203125,-0.00046806083992123604,0.0046894745901227,0.002186347497627139
1733862659019428600,6.8424287109375,0.0011181747540831566,0.0017835900653153658,0.0031025013886392117
1733862659029379800,6.8523798828125,-0.00039023999124765396,0.0014078180538490415,0.001782372361049056
1733862659039330800,6.862330810546875,0.00011103181168437004,0.0009947075741365552,0.0019866968505084515
1733862659049282800,6.87228271484375,0.000636739656329155,0.0013563648099079728,0.0001496484037488699
1733862659059233800,6.88223388671875,-0.0006786475423723459,0.0013608216540887952,0.0018076235428452492
1733862659069184800,6.892184814453125,0.0005096546374261379,-0.00018168124370276928,0.002657171804457903
1733862659079136000,6.902135986328125,-0.0002630036324262619,-0.0009513113182038069,0.0009676988120190799
1733862659089086700,6.912086669921875,0.0013444805517792702,-0.006175101734697819,0.002056931611150503
1733862659099038700,6.922038818359375,0.0005880501121282578,-0.010996591299772263,0.0002531608333811164
1733862659108989700,6.93198974609375,-0.0011643099132925272,-0.011951865628361702,0.00009736593347042799
1733862659118941000,6.94194091796875,0.0010325312614440918,-0.014416402205824852,-0.002726722974330187
1733862659128891600,6.9518916015625,0.0011691511608660221,-0.014602292329072952,-0.0012377494713291526
1733862659138843000,6.9618427734375,0.0005896096117794514,-0.014448940753936768,-0.0025725984014570713
1733862659148795000,6.971794921875,0.0019789808429777622,-0.013309106230735779,-0.003738530445843935
1733862659158745900,6.981745849609375,0.0013848664239048958,-0.010020622983574867,-0.0023119705729186535
1733862659168696800,6.99169677734375,0.0011070985347032547,-0.006879955995827913,-0.0018331342143937945
1733862659178647800,7.001647705078125,-0.00011444091796875,-0.004254477098584175,-0.0032737241126596928
1733862659188598800,7.011598876953125,0.0012890449725091457,-0.0017734759021550417,-0.002863330766558647
1733862659198550800,7.02155078125,0.0018832525238394737,-0.0012387547176331282,-0.0020635216496884823
1733862659208501800,7.031501708984375,0.0014036172069609165,-0.0023335800506174564,-0.0035269283689558506
1733862659218452700,7.04145263671875,-0.0004015732556581497,-0.0014488305896520615,-0.00037101039197295904
1733862659228403700,7.05140380859375,-0.00006175367161631584,0.00008941139094531536,-0.001456514815799892
1733862659238356000,7.06135595703125,-0.000994297442957759,0.002494725165888667,-0.00001541909296065569
1733862659248306700,7.071306640625,-0.0007407644297927618,0.002702451776713133,0.0004730046493932605
1733862659258258000,7.0812578125,-0.0005647495854645967,0.0037484467029571533,0.0013642198173329234
1733862659268208600,7.091208740234375,-0.0008033688645809889,0.009218845516443253,0.001505899941548705
1733862659278160000,7.101159912109375,-0.000908492598682642,0.00957972090691328,0.0009856873657554388
1733862659288111900,7.11111181640625,-0.00018544448539614677,0.002193443477153778,0.0003119074972346425
1733862659298062800,7.121062744140625,0.0028750598430633545,0.0012219767086207867,-0.00006978376768529415
1733862659308013800,7.131013916015625,0.00007980596274137497,0.002706955187022686,-0.002074345014989376
1733862659317964800,7.14096484375,0.00046955421566963196,0.002514965133741498,0.0014258837327361107
1733862659327916000,7.150916015625,-0.000741651514545083,0.0005671291146427393,-0.0007411304395645857
1733862659337867800,7.16086767578125,0.001277091447263956,-0.002509307349100709,0.00029224855825304985
1733862659347818800,7.17081884765625,0.00008798995986580849,-0.006942671723663807,0.0005676193395629525
1733862659357769700,7.180769775390625,-0.0008738080505281687,-0.009377984330058098,0.00061819888651371
1733862659367721000,7.190720947265625,0.0007123704999685287,-0.004675374366343021,0.0017191496444866061
1733862659377673000,7.2006728515625,0.0020389719866216183,0.0002980318386107683,-0.00011753872968256474
1733862659387623700,7.210623779296875,0.0011838311329483986,0.0012077676365152001,-0.00029810110572725534
1733862659397575000,7.220574951171875,0.0006468938663601875,-0.003533825511112809,-0.00006910692900419235
1733862659407526000,7.23052587890625,0.000052209943532943726,-0.006137331947684288,-0.000449140090495348
1733862659417476900,7.240476806640625,-0.0006778754759579897,-0.00956059992313385,-0.0026644424069672823
1733862659427428600,7.2504287109375,-0.0010019822511821985,-0.008905196562409401,-0.0001408308744430542
1733862659437379800,7.2603798828125,0.0007157577201724052,-0.005728673189878464,-0.0005795456236228347
1733862659447330800,7.270330810546875,0.00101403146982193,-0.002884417539462447,-0.0010131081799045205
1733862659457281800,7.28028173828125,0.001281441655009985,-0.000927389832213521,0.0008629546500742435
1733862659467232800,7.290232666015625,0.0003480040468275547,0.00001030927523970604,-0.0020193844102323055
1733862659477184800,7.300184814453125,0.0007045706734061241,-0.0011163968592882156,-0.00003942276816815138
1733862659487136000,7.310135986328125,-0.00014444487169384956,-0.0030503845773637295,0.00005858158692717552
1733862659497086700,7.320086669921875,-0.0002532270736992359,-0.0024213932920247316,-0.0007728973869234324
1733862659507038000,7.330037841796875,-0.0002441722899675369,-0.0022605385165661573,-0.0011896821670234203
1733862659516988700,7.33998876953125,0.0014128177426755428,-0.002490849932655692,0.00014891591854393482
1733862659526941000,7.34994091796875,-0.0014886960852891207,-0.002272470621392131,-0.0011248738737776875
1733862659536891600,7.3598916015625,0.0004513859748840332,-0.004417556803673506,-0.0027992581017315388
1733862659546843000,7.3698427734375,-0.0005081510171294212,-0.003289441578090191,-0.0006104058120399714
1733862659556793900,7.3797939453125,0.00013979710638523102,-0.0019376992713660002,-0.0014642956666648388
1733862659566745900,7.389745849609375,0.0003139674663543701,-0.0015946838539093733,-0.001402776688337326
1733862659576696800,7.39969677734375,-0.0003956882283091545,0.00047743762843310833,-0.0001859200419858098
1733862659586647800,7.409647705078125,-0.0008859764784574509,0.0022740059066563845,0.0005251439288258553
1733862659596598800,7.419598876953125,-0.0011666922364383936,0.0024963996838778257,-0.001635449007153511
1733862659606549800,7.4295498046875,-0.0018093129619956017,-0.00021895929239690304,-0.004106862470507622
1733862659616501800,7.439501708984375,-0.0008345472160726786,-0.0024485874455422163,-0.0047647906467318535
1733862659626453000,7.449452880859375,0.001772953663021326,-0.0008549517951905727,-0.004931504838168621
1733862659636403700,7.45940380859375,0.0011454089544713497,0.0006179953925311565,-0.005958226043730974
1733862659646355000,7.46935498046875,-0.0013960455544292927,0.0014651470119133592,-0.004776314832270145
1733862659656305700,7.4793056640625,0.00036388542503118515,0.0005666434299200773,-0.0029522432014346123
1733862659666258000,7.4892578125,-0.0019115195609629154,0.00038634752854704857,-0.00025579286739230156
1733862659676208600,7.499208740234375,-0.0017245702911168337,0.0037314025685191154,-0.001137782703153789
1733862659686160000,7.509159912109375,-0.00023612938821315765,0.0060715219005942345,-0.003243544138967991
1733862659696110800,7.51911083984375,-0.0011789575219154358,0.006185629405081272,-0.00301562063395977
1733862659706061800,7.529061767578125,-0.00006841961294412613,0.003788251895457506,-0.0029567647725343704
1733862659716013800,7.539013916015625,-0.0004783447366207838,-0.0021524757612496614,-0.00491205882281065
1733862659725964800,7.54896484375,0.0010130256414413452,-0.005096600390970707,-0.005667331162840128
1733862659735915800,7.558915771484375,-0.0016353484243154526,-0.007900219410657883,-0.005892949178814888
1733862659745866800,7.56886669921875,-0.0011120373383164406,-0.008498897776007652,-0.005375763401389122
1733862659755818800,7.57881884765625,-0.0012183920480310917,-0.007745509035885334,-0.005172198638319969
1733862659765769700,7.588769775390625,-0.00368208228610456,-0.00802141334861517,-0.006022545974701643
1733862659775721000,7.598720947265625,-0.0012674073223024607,-0.008823780342936516,-0.0036478685215115547
1733862659785671700,7.608671630859375,-0.002258103108033538,-0.01203581877052784,-0.0032081804238259792
1733862659795623000,7.618622802734375,-0.0013681347481906414,-0.017185159027576447,-0.003611830063164234
1733862659805575000,7.628574951171875,-0.0007255140226334333,-0.019873887300491333,-0.005036887712776661
1733862659815526000,7.63852587890625,-0.0010039289481937885,-0.023324619978666306,-0.007582314312458038
1733862659825476900,7.648476806640625,0.0002640020102262497,-0.023212501779198647,-0.008160486817359924
1733862659835427800,7.658427734375,-0.0014149278867989779,-0.02457696571946144,-0.006684876978397369
1733862659845378800,7.66837890625,-0.0014333035796880722,-0.025489896535873413,-0.006173816509544849
1733862659855330800,7.678330810546875,-0.00018871482461690903,-0.023603573441505432,-0.006633077748119831
1733862659865281800,7.68828173828125,0.0006379303522408009,-0.023579072207212448,-0.007640285417437553
1733862659875232800,7.698232666015625,0.001017437782138586,-0.02201799675822258,-0.0049199750646948814
1733862659885183700,7.708183837890625,0.00033007608726620674,-0.02461298182606697,-0.006495501380413771
1733862659895136000,7.718135986328125,-0.00014614127576351166,-0.025561433285474777,-0.005462473724037409
1733862659905086700,7.728086669921875,0.0005215136334300041,-0.02358883060514927,-0.005249421112239361
1733862659915038000,7.738037841796875,-0.0002322867512702942,-0.02268838696181774,-0.004405560903251171
1733862659924988700,7.74798876953125,0.0003717178478837013,-0.02260849066078663,-0.0036468259058892727
1733862659934940000,7.75793994140625,-0.0002137245610356331,-0.023520316928625107,-0.0021411371417343616
1733862659944891600,7.7678916015625,0.0007042670622467995,-0.024164535105228424,-0.0034769787453114986
1733862659954843000,7.7778427734375,-0.0006529451347887516,-0.02382001094520092,-0.0021086563356220722
1733862659964793900,7.7877939453125,0.00053003104403615,-0.02539367415010929,-0.003292165230959654
1733862659974744800,7.797744873046875,0.00038149626925587654,-0.02486957609653473,-0.002862333320081234
1733862659984695800,7.80769580078125,-0.00009387778118252754,-0.029850220307707787,-0.004760900977998972
1733862659994647800,7.817647705078125,0.0007622260600328445,-0.0328148677945137,-0.006879880558699369
1733862660004598800,7.827598876953125,-0.0005512451753020287,-0.03743598237633705,-0.008020245470106602
1733862660014549800,7.8375498046875,0.00048085767775774,-0.035829536616802216,-0.007896771654486656
1733862660024500700,7.847500732421875,0.0009152195416390896,-0.03602847456932068,-0.008081594482064247
1733862660034451700,7.85745166015625,0.0002566385082900524,-0.03854411840438843,-0.007321030832827091
1733862660044403700,7.86740380859375,0.0005136332474648952,-0.037922803312540054,-0.007933557964861393
1733862660054355000,7.87735498046875,0.0007149158045649529,-0.031194765120744705,-0.008818648755550385
1733862660064305700,7.8873056640625,-0.0009871104266494513,-0.025113437324762344,-0.010437318123877048
1733862660074257000,7.8972568359375,0.0018070079386234283,-0.023433662950992584,-0.008779585361480713
1733862660084207900,7.907207763671875,0.0012501408345997334,-0.02345869690179825,-0.010469361208379269
1733862660094160000,7.917159912109375,-0.00010785320773720741,-0.026442166417837143,-0.008538460358977318
1733862660104110600,7.927110595703125,-0.001235701609402895,-0.027882669121026993,-0.007240436505526304
1733862660114061800,7.937061767578125,-0.0012692608870565891,-0.023784887045621872,-0.0058881198056042194
1733862660124012800,7.9470126953125,0.0017286594957113266,-0.013734915293753147,-0.00331816915422678
1733862660133964800,7.95696484375,0.0010462719947099686,-0.007633448578417301,-0.001434261561371386
1733862660143915800,7.966915771484375,0.0004547839052975178,-0.005865376442670822,-0.002083540428429842
1733862660153866800,7.97686669921875,0.000056623946875333786,-0.0019092501606792212,0.0008635139092803001
1733862660163818000,7.98681787109375,0.0002939114347100258,-0.003055208595469594,-0.0024212291464209557
1733862660173768700,7.996768798828125,0.00013218633830547333,-0.006598959676921368,-0.0019051929702982306
1733862660183720700,8.006720703125,-0.0005075049120932817,-0.007071138359606266,-0.0011560459388419986
1733862660193671700,8.016671630859374,-0.0011126692406833172,-0.007515002973377705,0.000509871868416667
1733862660203623000,8.026622802734375,0.0016117445193231106,-0.006697412580251694,-0.00006510457023978233
1733862660213573600,8.03657373046875,0.0009938809089362621,-0.006275106221437454,-0.0006108947563916445
1733862660223526000,8.04652587890625,0.0009067957289516926,-0.004724879749119282,-0.001671631820499897
1733862660233476900,8.056476806640624,-0.0020096516236662865,-0.0052774762734770775,-0.0003647841513156891
1733862660243427800,8.066427734375,0.00012860028073191643,-0.008002955466508865,-0.0009970187675207853
1733862660253378800,8.07637890625,0.00028892792761325836,-0.009692110121250153,-0.0008100847480818629
1733862660263329800,8.086329833984376,-0.0009819327387958765,-0.012049539014697075,-0.0004007570678368211
1733862660273281800,8.09628173828125,0.00014341901987791061,-0.014624164439737797,-0.00013639149256050587
1733862660283233000,8.10623291015625,-0.0010885591618716717,-0.01313812006264925,0.000288382638245821
1733862660293183700,8.116183837890626,-0.0011385593097656965,-0.011038417927920818,0.0007115323096513748
1733862660303135000,8.126135009765624,0.00025986647233366966,-0.007579504512250423,0.001661481917835772
1733862660313085200,8.136085205078125,-0.0011004421394318342,-0.0055812811478972435,-0.0009215770987793803
1733862660323037200,8.146037109375,0.00036189984530210495,-0.0046377237886190414,-0.0014584703603759408
1733862660332988000,8.15598779296875,0.0000558244064450264,-0.0035189054906368256,-0.0014419228537008166
1733862660342939100,8.165939208984375,-0.00014204857870936394,-0.006091518793255091,-0.002359115518629551
1733862660352890000,8.17589013671875,0.0006692348979413509,-0.009467372670769691,-0.0013073375448584557
1733862660362841000,8.185841064453125,0.0013731084764003754,-0.015379855409264565,-0.0015672619920223951
1733862660372793000,8.19579296875,0.001950930804014206,-0.013925527222454548,-0.004268809221684933
1733862660382744000,8.205744140625,-0.00012899842113256454,-0.01339395996183157,-0.003203278174623847
1733862660392695300,8.2156953125,0.001630487386137247,-0.011939169839024544,-0.0024665265809744596
1733862660402646000,8.22564599609375,0.0020869532600045204,-0.008525529876351357,-0.001285947160795331
1733862660412598000,8.235597900390625,0.00038897665217518806,-0.007093602325767279,-0.0026195980608463287
1733862660422549000,8.245549072265625,0.00021267542615532875,-0.005442975554615259,-0.002012663520872593
1733862660432500200,8.255500244140626,0.0009591779671609402,-0.0035233781673014164,-0.0004644343862310052
1733862660442451000,8.265450927734374,0.00039378926157951355,-0.005053364206105471,-0.0006109081441536546
1733862660452402200,8.275402099609375,-0.00010874494910240173,-0.005684328265488148,0.000625354703515768
1733862660462354200,8.285354248046875,0.0011860840022563934,-0.005972482264041901,-0.00029316951986402273
1733862660472305200,8.29530517578125,-0.0005661719478666782,-0.006428414955735207,-0.0006002321606501937
1733862660482256100,8.305256103515624,0.0005129408091306686,-0.008664138615131378,-0.0025057238526642323
1733862660492207000,8.31520703125,0.0009937724098563194,-0.008633098565042019,-0.0013644740683957934
1733862660502158000,8.325157958984375,0.00056074233725667,-0.008140413090586662,-0.0016409101663157344
1733862660512110000,8.335110107421874,0.0009886021725833416,-0.008992234244942665,-0.0019199602538719773
1733862660522061000,8.34506103515625,0.001168898306787014,-0.008370919153094292,0.00006808957550674677
1733862660532012000,8.355011962890625,0.0013568652793765068,-0.01025024801492691,0.00013996940106153488
1733862660541963000,8.364962890625,-0.00043331156484782696,-0.010111229494214058,0.00033544539473950863
1733862660551914200,8.374914306640624,-0.0007858665194362402,-0.00949232466518879,-0.0015964445192366838
1733862660561866000,8.384865966796875,-0.0007576372008770704,-0.007431836798787117,-0.0005860412493348122
1733862660571817200,8.394817138671876,-0.0007425288204103708,-0.00854792445898056,-0.003004787489771843
1733862660581768000,8.404767822265624,0.0006782677955925465,-0.009310387074947357,-0.0015954424161463976
1733862660591719200,8.41471923828125,0.000445416197180748,-0.008595429360866547,-0.00019117060583084822
1733862660601671200,8.424671142578125,-0.0003527333028614521,-0.007274501025676727,0.0013646481093019247
1733862660611622100,8.4346220703125,-0.0013251788914203644,-0.005307154264301062,-0.00018759944941848516
1733862660621573000,8.444572998046874,-0.000360315665602684,-0.004738302901387215,0.00023131584748625755
1733862660631524000,8.454524169921875,0.0008789985440671444,-0.0040737902745604515,-0.0012744953855872154
1733862660641475300,8.464475341796875,-0.00017934152856469154,-0.0047696735709905624,-0.0006992525886744261
1733862660651427000,8.474427001953124,-0.001734730787575245,-0.004439441487193108,-0.0020281700417399406
1733862660661378000,8.4843779296875,0.000015764962881803513,-0.0019187598954886198,0.00008211878594011068
1733862660671329000,8.4943291015625,-0.0001373826526105404,-0.0003086128272116184,0.0011939886026084423
1733862660681280300,8.5042802734375,0.000004830304533243179,0.0004170986358076334,0.0011732159182429314
1733862660691231000,8.51423095703125,0.0010683191940188408,-0.00003322563134133816,0.00009717373177409172
1733862660701183000,8.524182861328125,-0.0007223901338875294,-0.0010612057521939278,-0.000015744240954518318
1733862660711134200,8.53413427734375,-0.0009130716789513826,-0.0029314893763512373,0.000623640138655901
1733862660721085200,8.544085205078124,0.00006031384691596031,-0.0011839231010526419,0.00022682908456772566
1733862660731036200,8.5540361328125,0.0003616372123360634,0.0020398572087287903,0.0000807055039331317
1733862660740988000,8.56398779296875,-0.0008516989182680845,0.005749640520662069,0.002916705794632435
1733862660750939100,8.573939208984376,0.0011090529151260853,0.0028428472578525543,0.002102357568219304
1733862660760890000,8.58389013671875,0.00032901298254728317,-0.000632577808573842,0.0003031258238479495
1733862660770841000,8.593841064453125,0.00014765281230211258,-0.0003867859486490488,5.932524800300598e-7
1733862660780792000,8.6037919921875,-0.0008979043923318386,-0.00026827515102922916,-0.0017424456309527159
1733862660790744000,8.613744140625,-0.0014163563027977943,-0.0012685877736657858,-0.0010533048771321774
1733862660800695300,8.6236953125,0.0009977994486689568,-0.0037027171347290277,0.0006401992868632078
1733862660810646000,8.63364599609375,0.00036252336576581,-0.006220074370503426,0.0002895008074119687
1733862660820597200,8.64359716796875,0.00042590685188770294,-0.007521560415625572,-0.001087087206542492
1733862660830548000,8.6535478515625,-0.00032997457310557365,-0.008852613158524036,0.0003604317316785455
1733862660840500200,8.663500244140625,0.0006665801629424095,-0.007895473390817642,-0.0009783394634723663
1733862660850451000,8.673450927734375,0.001080311369150877,-0.006773575209081173,-0.0015010712668299675
1733862660860402200,8.683402099609374,0.0031123035587370396,-0.006314712576568127,0.0005993639351800084
1733862660870353000,8.693352783203125,-0.00016434025019407272,-0.008360795676708221,0.0006396835669875145
1733862660880305200,8.70330517578125,-0.00038884440436959267,-0.0058592879213392735,0.0016109384596347809
1733862660890256100,8.713256103515626,0.0006149034015834332,-0.0023397349286824465,0.0004078872734680772
1733862660900207000,8.72320703125,-0.00015421723946928978,-0.0003375704400241375,0.0008606247138231993
1733862660910158000,8.733157958984375,-0.0007809589151293039,0.00638170912861824,0.0025224704295396805
1733862660920109000,8.743109130859375,0.000207606703042984,0.008591334335505962,0.003089191159233451
1733862660930061000,8.75306103515625,0.0018490864895284176,0.005604583770036697,0.00034063251223415136
1733862660940012300,8.76301220703125,-0.0012023637536913157,0.0033017483074218035,-0.0006857498083263636
1733862660949963000,8.772962890625,-0.0019073144067078829,0.0008437533397227526,0.000276438076980412
1733862660959914200,8.782914306640626,-0.0007477742619812489,0.0014152677031233907,-0.000054859090596437454
1733862660969865000,8.792864990234374,-0.0013472815044224262,0.0018048050114884973,0.0025012539699673653
1733862660979817200,8.802817138671875,-0.0006838880944997072,0.0025443648919463158,0.0029878136701881886
1733862660989768000,8.812767822265625,0.0008120164275169373,-0.0005486882291734219,0.0017809279961511493
1733862660999719200,8.82271923828125,0.0009851218201220036,-0.0023220872972160578,-0.000028689857572317123
1733862661009670100,8.832670166015625,0.00012462958693504333,0.00041015096940100193,0.0002498307731002569
1733862661019621000,8.84262109375,0.0009456821717321873,0.001204305561259389,0.0002759296912699938
1733862661029573000,8.852572998046876,-0.0005907169543206692,0.0037554712034761906,0.0017561877612024546
1733862661039524000,8.862524169921874,-0.0003395811654627323,0.0007383761694654822,0.001484012696892023
1733862661049475000,8.87247509765625,0.0009241467341780663,0.0016920953057706356,0.003544833976775408
1733862661059426000,8.882426025390625,-0.0008327406831085682,0.0010225767036899924,0.00258716125972569
1733862661069378000,8.8923779296875,0.0003737686201930046,-0.0005366979166865349,0.0009107844671234488
1733862661079329000,8.9023291015625,-0.0002696509473025799,-0.0022168862633407116,-0.0015627595130354166
1733862661089280300,8.9122802734375,0.0006499383598566055,0.0002800936345010996,0.0000031793024390935898
1733862661099231000,8.92223095703125,0.001178237609565258,0.001213454524986446,0.002238751854747534
1733862661109182200,8.93218212890625,0.0010216492228209972,0.0029162089340388775,0.003664167830720544
1733862661119134200,8.94213427734375,-0.00031019793823361397,0.0019494814332574606,0.0018753225449472666
1733862661129085200,8.952085205078125,-0.0006355736404657364,-0.000762642128393054,0.001995164668187499
1733862661139036200,8.9620361328125,0.0007154480554163456,-0.003715288592502475,0.00044520478695631027
1733862661148987100,8.971987060546875,0.001468517817556858,-0.004921967163681984,0.00020999216940253973
1733862661158938000,8.981938232421875,0.0010530645959079266,-0.0047928038984537125,-0.0007133258040994406
1733862661168890000,8.99189013671875,0.0011292356066405773,-0.0066495053470134735,-0.0005612124223262072
1733862661178841000,9.001841064453124,-0.00011898810043931007,-0.006780532188713551,-0.0006727988366037607
1733862661188792000,9.0117919921875,0.0006568464450538158,-0.009274406358599663,-0.00041463784873485565
1733862661198743000,9.021742919921875,0.0002520456910133362,-0.01142304390668869,-0.001007191138342023
1733862661208695300,9.0316953125,0.00014591170474886894,-0.013483218848705292,-0.0017320546321570873
1733862661218646000,9.04164599609375,0.0008031800389289856,-0.01551387831568718,-0.003555787494406104
1733862661228597200,9.05159716796875,0.0006916183046996593,-0.01624676212668419,-0.002446406753733754
1733862661238548000,9.0615478515625,-0.0007137318607419729,-0.018452657386660576,-0.004290912300348282
1733862661248499200,9.071499267578124,-0.001017517177388072,-0.018379883840680122,-0.0017945612780749798
1733862661258451000,9.081450927734375,0.0006861067377030849,-0.012955556623637676,-0.0013625964056700468
1733862661268402200,9.091402099609375,0.0006180512718856335,-0.012516519986093044,0.00032931019086390734
1733862661278353200,9.101353271484374,-0.0006104651838541031,-0.005583512596786022,-0.0007798965089023113
1733862661288304000,9.11130419921875,0.0010256106033921242,-0.0032919091172516346,-0.0003378496039658785
1733862661298255000,9.121255126953125,-0.00024658162146806717,-0.0017643203027546406,-0.0017104428261518478
1733862661308207000,9.13120703125,-0.0003944430500268936,0.0001716078259050846,-0.0005931057967245579
1733862661318162200,9.141162109375,-0.0017992607317864895,-0.0008920587133616209,-0.0027492009103298187
1733862661328113200,9.151113037109376,-0.000758845591917634,0.00015453947708010674,-0.000051798997446894646
1733862661338064100,9.161064208984374,-0.0007580467499792576,0.0014938432723283768,0.0009309074375778437
1733862661348015000,9.17101513671875,0.0022214772179722786,0.002690766705200076,-0.0003855100367218256
1733862661357967000,9.180967041015625,-0.0007423544302582741,0.002079837489873171,-0.00010294863022863865
1733862661367918000,9.19091796875,-0.0007198364473879337,0.002693962538614869,0.00021059380378574133
1733862661377869000,9.200869140625,-0.0008402112871408463,0.002841767854988575,0.0011035515926778316
1733862661387820000,9.210820068359375,-0.0009191674180328846,0.003356108907610178,0.0004367708461359143
1733862661397772000,9.22077197265625,0.00016873376443982124,0.0008732439018785954,0.002004307461902499
1733862661407723300,9.23072314453125,-0.00057260412722826,0.0021598997991532087,0.0015684172976762056
1733862661417674000,9.240674072265625,-0.0006538305897265673,0.0055535659193992615,0.0005729276454076171
1733862661427625200,9.250625244140625,-0.00030360324308276176,0.005088087636977434,-0.0015316247008740902
1733862661437576000,9.260575927734376,-0.00039601465687155724,0.006413809023797512,0.0006098230369389057
1733862661447528200,9.270528076171875,-0.0009209022391587496,0.0020241737365722656,0.0012738730292767286
1733862661457479000,9.28047900390625,-0.000705452635884285,0.00014052004553377628,-0.00010511185973882675
1733862661467430100,9.29043017578125,0.0005936529487371445,0.0016594440676271915,0.0002660382306203246
1733862661477380900,9.300380859375,0.0010740868747234344,0.003023515222594142,0.0015683240490034223
1733862661487332000,9.31033203125,-0.0006773925852030516,0.004381777718663216,0.00005507608875632286
1733862661497284000,9.3202841796875,0.00039666052907705307,0.0020174235105514526,0.00044602807611227036
1733862661507235000,9.330235107421874,-0.0025076584424823523,0.0022388012148439884,-0.00010184640996158123
1733862661517186000,9.34018603515625,0.0005187578499317169,0.004740041680634022,-0.0007071828003972769
1733862661527137000,9.350136962890625,-0.00035177450627088547,0.0035948220174759626,-0.0008449812885373831
1733862661537089000,9.360089111328126,-0.0004276747349649668,0.0023860132787376642,0.00005809660069644451
1733862661547040000,9.3700400390625,0.000225964467972517,0.0022301620338112116,0.0014248444931581616
1733862661556991000,9.379990966796875,0.00010585552081465721,0.001934018568135798,0.000726829981431365
1733862661566942200,9.389942138671875,-0.0013607197906821966,0.001947812270373106,-0.000900382874533534
1733862661576893200,9.39989306640625,-0.0016973433084785938,0.0050346823409199715,0.0009041749872267246
1733862661586845200,9.40984521484375,0.0006625335663557053,0.00747317261993885,0.0024947519414126873
1733862661596796200,9.419796142578125,-0.0009558694437146187,0.006436403840780258,0.0013911380665376782
1733862661606747100,9.4297470703125,0.00033787498250603676,0.00309331389144063,0.0016572453314438462
1733862661616698000,9.439697998046874,0.0003232276067137718,0.0005723654758185148,0.001010896172374487
1733862661626649000,9.449649169921875,0.00005336618050932884,-0.001544680679216981,-0.0005455703940242529
1733862661636601000,9.45960107421875,0.0010483232326805592,-0.00042455527000129223,0.0001484494423493743
1733862661646552000,9.469552001953126,0.0011290558613836765,0.0014879843220114708,0.0006305958377197385
1733862661656503300,9.47950341796875,-0.00044860108755528927,0.002671759342774749,0.0012915923725813627
1733862661666454000,9.4894541015625,0.0012425384484231472,0.001199434045702219,0.0014956009108573198
1733862661676406300,9.49940625,0.0008603748865425587,0.002859648782759905,0.00032514159101992846
1733862661686357000,9.50935693359375,-0.00020675640553236008,0.0017689191736280918,0.00010071625001728535
1733862661696308200,9.51930810546875,0.0003122938796877861,0.00357906986027956,-0.0011456431820988655
1733862661706259000,9.529259033203125,-0.000299602746963501,0.0014533154899254441,0.0008510393090546131
1733862661716210200,9.539210205078126,-0.0009640613570809364,-0.0004314035177230835,-0.001413180259987712
1733862661726162200,9.549162109375,0.00006889831274747849,-0.002137234201654792,0.0009018518030643463
1733862661736113200,9.559113037109375,-0.0008930356707423925,-0.0027953011449426413,-0.00027340115047991276
1733862661746064100,9.569064208984376,0.0005000396631658077,-0.002967239124700427,-0.0015033474192023277
1733862661756015000,9.57901513671875,0.0002920469269156456,-0.0015246046241372824,-0.0007986749988049269
1733862661765966000,9.588966064453125,0.0009143059141933918,-0.0016356657724827528,-0.0006399869453161955
1733862661775918000,9.59891796875,0.0006229560822248459,0.001451470423489809,0.00008013169281184673
1733862661785869000,9.608869140625,0.0008709169924259186,-0.001941972179338336,-0.0006573549471795559
1733862661795820000,9.618820068359375,-0.0004907571710646152,-0.001998697640374303,-0.00039103906601667404
1733862661805771000,9.62877099609375,-0.00006752926856279373,-0.0033661879133433104,0.00143129238858819
1733862661815723300,9.63872314453125,0.00019212905317544937,-0.002680690260604024,-0.0008760702330619097
1733862661825674000,9.648674072265624,-0.00027957186102867126,-0.0036875607911497355,-0.001252547837793827
1733862661835625200,9.658625244140625,0.000053856056183576584,-0.00379089149646461,0.0005293732974678278
1733862661845576000,9.668575927734375,-0.0010816236026585102,-0.0012029495555907488,0.0002549022901803255
1733862661855527200,9.678527099609376,-0.0010222350247204304,-0.0007020088378340006,0.0021651878487318754
1733862661865479000,9.68847900390625,0.00014508888125419617,0.004386368207633495,0.0013647018931806087
1733862661875430100,9.69843017578125,0.0005714609287679195,0.006544860545545816,0.0034704632125794888
1733862661885380900,9.708380859375,-0.0024606017395853996,0.008051173761487007,0.003140178509056568
1733862661895332000,9.71833203125,0.0007303981110453606,0.01047678105533123,0.003252830356359482
1733862661905283300,9.728283447265625,0.0002120770514011383,0.01135207712650299,0.0034660291858017445
1733862661915235000,9.738235107421875,-0.000931484391912818,0.009236728772521019,0.0030055688694119453
1733862661925186000,9.74818603515625,-0.00115235336124897,0.008475490845739841,0.002586510730907321
1733862661935137000,9.758136962890624,-0.001613879343494773,0.009191349148750305,0.0029204711318016052
1733862661945088300,9.768088134765625,0.0003159213811159134,0.010746920481324196,0.003843230428174138
1733862661955040300,9.778040283203126,-0.000786361051723361,0.009697634726762772,0.0035377657040953636
1733862661964991000,9.787990966796874,0.0006517227739095688,0.009283489547669888,0.0018169127870351076
1733862661974942200,9.797942138671875,-0.0006915756966918707,0.007600638084113598,0.0023066680878400803
1733862661984893200,9.80789306640625,-0.0007276698015630245,0.00997723639011383,0.0015837502432987094
1733862661994844200,9.81784423828125,-0.0006480412557721138,0.008958044461905956,0.0012572465930134058
1733862662004796000,9.8277958984375,0.0002902289852499962,0.00944758765399456,0.001545359380543232
1733862662014747100,9.8377470703125,0.0008750590495765209,0.006743414327502251,0.002197567606344819
1733862662024698000,9.847697998046876,0.0005098618566989899,0.004110955633223057,-0.000049312831833958626
1733862662034649000,9.857649169921874,0.001741307321935892,0.0016459337202832103,-0.0021042078733444214
1733862662044600000,9.86760009765625,-0.0008023732807487249,0.0016852959524840117,-0.0009575977455824614
1733862662054552000,9.877552001953125,0.00034544942900538445,0.0007792884716764092,-0.00008567888289690018
1733862662064503300,9.88750341796875,0.000011346768587827682,0.001006542588584125,-0.002120469929650426
1733862662074454000,9.8974541015625,-0.0010749564971774817,0.000955676194280386,0.00024734658654779196
1733862662084405200,9.9074052734375,0.001793027389794588,0.0010969494469463825,-0.00023510423488914967
1733862662094357000,9.91735693359375,0.0007519973441958427,0.0002881474792957306,0.00009406241588294506
1733862662104308200,9.92730810546875,0.0007392279803752899,0.00040482450276613235,0.0012887027114629745
1733862662114259000,9.937259033203125,-0.0012858398258686066,0.0014197552809491754,0.0007017420139163733
1733862662124210200,9.947210205078125,0.0018565310165286064,0.002800997579470277,0.0010764613980427384
1733862662134161000,9.957160888671876,0.0014434750191867352,0.004701163154095411,-0.0005746984388679266
1733862662144113200,9.967113037109375,0.0001449892297387123,0.0075368937104940414,0.0014686122303828597
1733862662154064100,9.977064208984375,-0.0020787501707673073,0.008811749517917633,0.003970119170844555
1733862662164015000,9.98701513671875,-0.000948247266933322,0.011657032184302807,0.0046009826473891735
1733862662173966000,9.996966064453124,-0.0002616844139993191,0.012164098210632801,0.004219617694616318
1733862662183917000,10.0069169921875,-0.001199178397655487,0.013072345405817032,0.003772248513996601
1733862662193869000,10.016869140625,0.00010150950402021408,0.013525615446269512,0.002462239470332861
1733862662203820000,10.026820068359376,-0.0016284305602312088,0.012378154322504997,0.002198221627622843
1733862662213771000,10.03677099609375,0.0007231407798826694,0.016806190833449364,0.002690906636416912
1733862662223722200,10.04672216796875,-0.0013235954102128744,0.0131918266415596,0.0025021606124937534
1733862662233673200,10.056673095703125,-0.0002902890555560589,0.010009881108999252,0.0005641784518957138
1733862662243625200,10.066625244140624,-0.00017857644706964493,0.009447870776057243,0.00037071341648697853
1733862662253576000,10.076575927734375,0.00029759714379906654,0.009477431885898113,-0.000024499604478478432
1733862662263527200,10.086527099609375,-0.0005859546363353729,0.006039031781256199,-0.0013008408714085817
1733862662273478100,10.09647802734375,0.0004518791101872921,-0.0012819983530789614,-0.001203369116410613
1733862662283430100,10.10643017578125,0.0005615646950900555,-0.0026921890676021576,-0.00015301513485610485
1733862662293381000,10.116381103515625,-0.000882134772837162,-0.0012221243232488632,-0.000023052794858813286
1733862662303332000,10.12633203125,-0.0001717396080493927,-0.0007149167358875275,0.0007222575368359685
1733862662313279700,10.13627978515625,0.0007790089584887028,0.0022539752535521984,-0.0008958792313933372
1733862662323231000,10.14623095703125,0.0028764018788933754,0.0038285066839307547,0.0017885410925373435
1733862662333183000,10.156182861328125,0.001161858905106783,0.00452785287052393,0.000930470647290349
1733862662343134000,10.166134033203125,-0.0009778256062418222,0.003642061958089471,0.0016003205673769116
1733862662353085000,10.1760849609375,0.00013271253556013107,0.002729130210354924,0.0015220235800370574
1733862662363036000,10.186035888671874,-0.0007101481314748526,0.0013335449621081352,-0.00014153425581753254
1733862662372987100,10.195987060546875,-0.0003618067130446434,-0.0017730325926095247,-0.00039080623537302017
1733862662382939000,10.20593896484375,-0.0011503940913826227,-0.0019332796800881624,0.0018425650196149945
1733862662392889900,10.215889892578126,-0.00026116473600268364,0.00038393656723201275,0.0006153803551569581
1733862662402840800,10.2258408203125,-0.0002652355469763279,0.0007354258559644222,0.0007184490095824003
1733862662412792000,10.2357919921875,-0.0002772198058664799,0.0005735056474804878,0.0013613360933959484
1733862662422744000,10.245744140625,0.00010577449575066566,0.001097636530175805,0.0018884548917412758
1733862662432694800,10.25569482421875,0.0009760959073901176,-0.0003694987390190363,0.0007073429878801107
1733862662442646000,10.26564599609375,0.0009679500944912434,-0.005917857401072979,-0.000971099128946662
1733862662452597000,10.275596923828125,0.0005730036646127701,-0.010726461187005043,-0.0007050493732094765
1733862662462548000,10.2855478515625,0.00022002682089805603,-0.011203214526176453,-0.0007512193406000733
1733862662472500000,10.2955,0.0008629136718809605,-0.010906271636486053,0.0005774317542091012
1733862662482451000,10.305450927734375,0.00048277387395501137,-0.0075565483421087265,0.00019540556240826845
1733862662492402000,10.31540185546875,0.0008955639787018299,-0.0029058700893074274,0.0015373723581433296
1733862662502353000,10.325352783203124,0.0009880713187158108,-0.0005814628675580025,0.001373234554193914
1733862662512303900,10.335303955078125,-0.0001917090266942978,-0.003308273619040847,0.0002326027024537325
1733862662522256000,10.345255859375,-0.0015342477709054947,-0.005855131428688765,-0.0024903537705540657
1733862662532207000,10.35520703125,-0.00017017684876918793,-0.007812820374965668,-0.0020253658294677734
1733862662542157800,10.36515771484375,0.0020425603725016117,-0.009837783873081207,-0.0018367515876889229
1733862662552109000,10.375109130859375,-0.0001976904459297657,-0.007468103896826506,0.0006117586744949222
1733862662562060800,10.385060791015626,0.0007673599757254124,-0.007157967891544104,-0.0003282986581325531
1733862662572012000,10.395011962890624,0.0001761382445693016,-0.003958180081099272,-0.0009067372884601355
1733862662581962800,10.404962646484375,0.00011891219764947891,-0.005442803259938955,0.0010111071169376373
1733862662591914000,10.4149140625,0.0012443643063306808,-0.002274972852319479,0.0011626409832388163
1733862662601865000,10.424864990234376,0.0022616973146796227,-0.0006775555666536093,-0.00017976004164665937
1733862662611817000,10.43481689453125,-0.000021430663764476776,0.00026973080821335316,0.0014263924676924944
1733862662621768000,10.444767822265625,-0.0014812462031841278,-0.0011794664897024632,0.0033944875467568636
1733862662631719000,10.454718994140626,0.00023303041234612465,-0.0009807946626096964,0.0008125528693199158
1733862662641670000,10.464669921875,-0.0004972552414983511,-0.0030226875096559525,0.0019537622574716806
1733862662651620900,10.474620849609375,0.00006174203008413315,-0.00344266789034009,0.00020459794905036688
1733862662661572900,10.48457275390625,0.0007945103570818901,-0.005023112520575523,-0.00014271726831793785
1733862662671524000,10.494524169921876,0.0021591144613921642,-0.0036715578753501177,-0.000488395569846034
1733862662681474800,10.504474853515624,0.0016484097577631474,-0.0015226954128593206,0.0000305988360196352
1733862662691426000,10.514426025390625,0.00028407247737050056,-0.002222574083134532,0.0010489915730431676
1733862662701377800,10.524377685546876,0.00029084645211696625,-0.0041323089972138405,0.00041668815538287163
1733862662711329000,10.5343291015625,0.0003726053982973099,-0.006794404238462448,-0.0010110323783010244
1733862662721279700,10.54427978515625,0.0011009778827428818,-0.008028890937566757,-0.0012728723231703043
1733862662731231000,10.55423095703125,0.0012237499468028545,-0.007450186647474766,-0.002250518649816513
1733862662741182000,10.564181884765626,0.002916742116212845,-0.007698617875576019,-0.0021534780971705914
1733862662751134000,10.574134033203125,0.001018973533064127,-0.007016316056251526,-0.0020109987817704678
1733862662761085000,10.5840849609375,-0.00042572198435664177,-0.005239088553935289,-0.0020888925064355135
1733862662771036000,10.594035888671876,-0.0016172202304005623,-0.0022800504229962826,-0.0023647958878427744
1733862662780987100,10.603987060546874,-0.0007535892073065042,-0.0030380103271454573,0.0006832682993263006
1733862662790937900,10.613937744140625,-0.00024172943085432053,-0.001210016431286931,0.0013959301868453622
1733862662800889900,10.623889892578125,-0.0006820494309067726,-0.0002600429579615593,0.0006274699699133635
1733862662810840800,10.6338408203125,0.00009586010128259659,-0.000985221704468131,0.0017292196862399578
1733862662820792000,10.6437919921875,-0.0003800452686846256,-0.0008591893129050732,0.0017155370442196727
1733862662830742800,10.65374267578125,-0.0000713844783604145,0.0015453787054866552,0.004119838587939739
1733862662840694800,10.66369482421875,0.0008239177986979485,-0.0023171924985945225,0.001530867419205606
1733862662850646000,10.67364599609375,0.0016383123584091663,-0.0022511458955705166,0.002676559379324317
1733862662860597000,10.683596923828125,0.0007302975282073021,-0.0036671964917331934,-0.0016897219466045499
1733862662870548000,10.6935478515625,0.0008394871838390827,-0.003440295113250613,0.0009172465070150793
1733862662880499000,10.7034990234375,0.0005929423496127129,-0.006303411442786455,0.00029831589199602604
1733862662890451000,10.713450927734375,0.0005292925052344799,-0.0056796991266310215,0.0008788849809207022
1733862662900402000,10.72340185546875,0.000956706702709198,-0.005529841408133507,-0.00041661655995994806
1733862662910353000,10.733352783203125,0.0013101082295179367,-0.00976639799773693,-0.000988131039775908
1733862662920303900,10.743303955078124,0.0005967170000076294,-0.012926492840051651,-0.00027719896752387285
1733862662930254800,10.7532548828125,0.0026982175186276436,-0.011925144121050835,-0.00045589718502014875
1733862662940207000,10.76320703125,0.002029305323958397,-0.012345563620328903,-0.004176340997219086
1733862662950157800,10.77315771484375,0.0024104039184749126,-0.012401223182678223,-0.002693226793780923
1733862662960109000,10.783109130859375,0.0010345103219151497,-0.01130763441324234,-0.0031343670561909676
1733862662970059800,10.793059814453125,0.0002973475493490696,-0.009714797139167786,-0.002158584538847208
1733862662980012000,10.803011962890626,0.001578926108777523,-0.008424008265137672,-0.0005420695524662733
1733862662989962800,10.812962646484374,0.00015014037489891052,-0.007808818016201258,0.001265151659026742
1733862662999914000,10.8229140625,0.0008091223426163197,-0.00522640161216259,0.000037298304960131645
1733862663009865000,10.832864990234375,-0.000787975499406457,-0.002188267419114709,-0.0011464767158031464
1733862663019816000,10.84281591796875,0.00045979954302310944,-0.0020423070527613163,-0.00047102407552301884
1733862663029768000,10.852767822265625,-0.00024300860241055489,-0.00457657128572464,-0.0011669080704450607
1733862663039719000,10.862718994140625,0.00025719404220581055,-0.004944953136146069,-0.0015492562670260668
1733862663049670000,10.872669921875,-0.00041818362660706043,-0.007105042226612568,-0.0019138429779559374
1733862663059620900,10.882620849609374,-0.0006755818612873554,-0.007057501003146172,-0.0013697819085791707
1733862663069572000,10.892572021484375,-0.0003402899019420147,-0.005050809122622013,-0.00046244298573583364
1733862663079524000,10.902524169921875,0.00016582990065217018,-0.0030822951812297106,-0.00030508218333125114
1733862663089474800,10.912474853515626,-0.001388124655932188,0.00017368560656905174,0.000611844239756465
1733862663099426000,10.922426025390624,0.0012217513285577297,0.0006458687130361795,-0.0012218453921377659
1733862663109377000,10.932376953125,0.0008305329829454422,0.001759869046509266,-0.0020961612462997437
1733862663119329000,10.9423291015625,-0.00022958125919103622,-0.001694145379588008,0.0008264603093266487
1733862663129279700,10.95227978515625,-0.0010391823016107082,-0.005065707489848137,-0.0005096476525068283
1733862663139231000,10.96223095703125,-0.000840391032397747,-0.0056553855538368225,0.0008372938027605414
1733862663149182000,10.972181884765625,-0.0002827253192663193,-0.006602405570447445,0.0007067989790812135
1733862663159133000,10.9821328125,0.0021465206518769264,-0.005169023759663105,-0.0020094371866434813
1733862663169085000,10.9920849609375,0.0008458332158625126,-0.007333108223974705,-0.002696799347177148
1733862663179036000,11.002035888671875,0.00044247694313526154,-0.004997279495000839,-0.0025131930597126484
1733862663188987100,11.011987060546875,0.001558074727654457,-0.005415395833551884,-0.002295346464961767
1733862663198937900,11.021937744140626,-0.0006790840998291969,-0.00408576987683773,-0.0025427283253520727
1733862663208889000,11.03188916015625,-0.00022288458421826363,-0.005008288659155369,-0.0008793177548795938
1733862663218840800,11.0418408203125,-0.00015797419473528862,-0.005135875195264816,-0.0019256632076576352
1733862663228792000,11.0517919921875,-0.000879690982401371,-0.006551611237227917,-0.0012327086878940463
1733862663238742800,11.06174267578125,-0.00017155101522803307,-0.008419371210038662,-0.0029631901998072863
1733862663248694000,11.071694091796875,0.0005475026555359364,-0.011812770739197731,-0.003994099795818329
1733862663258646000,11.08164599609375,0.002083065453916788,-0.012170808389782906,-0.0021582043264061213
1733862663268597000,11.091596923828124,0.0018015694804489613,-0.012474676594138145,-0.0034540982451289892
1733862663278548000,11.1015478515625,0.0016259048134088516,-0.009986242279410362,-0.00301313865929842
1733862663288499000,11.1114990234375,0.001050662249326706,-0.00649803364649415,-0.001123093068599701
1733862663298450000,11.121449951171876,-0.0002590431831777096,0.00007993518374860287,0.0000031886156648397446
1733862663308402000,11.13140185546875,0.0003801155835390091,0.00645048264414072,0.0034860707819461823
1733862663318352400,11.141352294921875,0.0011514457874000072,0.0066497232764959335,0.0024193981662392616
1733862663328303400,11.151303466796875,-0.00022141402587294579,0.005554631352424622,0.0035568340681493282
1733862663338254300,11.16125439453125,0.0003552543930709362,0.0013056055177003145,0.004383617080748081
1733862663348205300,11.171205322265624,-0.0019702177960425615,-0.00278287916444242,0.00653065787628293
1733862663358157300,11.1811572265625,-0.001660375390201807,-0.009049993008375168,0.006584101356565952
1733862663368108300,11.1911083984375,-0.0018076482228934765,-0.02007867395877838,0.00509512796998024
1733862663378059300,11.201059326171874,-0.000798441469669342,-0.026793241500854492,0.002168120350688696
1733862663388010200,11.21101025390625,-0.0006093569099903107,-0.02231939695775509,0.004535137675702572
1733862663397962200,11.220962158203125,-0.0007671744097024202,-0.014853605069220066,0.0058973003178834915
1733862663407913500,11.23091357421875,0.00005867192521691322,-0.011478048749268055,0.002723078476265073
1733862663417864400,11.240864501953125,-0.00021041790023446083,-0.007735897786915302,0.0020585693418979645
1733862663427815400,11.2508154296875,0.00026309210807085037,-0.008940445259213448,0.0017717470182105899
1733862663437766400,11.260766357421875,0.0013690898194909096,-0.008661660365760326,0.001706960261799395
1733862663447718400,11.270718505859374,0.0021637771278619766,-0.008636093698441982,-0.0017932322807610035
1733862663457669400,11.28066943359375,0.001768975518643856,-0.0072854384779930115,-0.00027923902962356806
1733862663467620400,11.290620361328125,-0.00013811374083161354,-0.0010842678602784872,-0.003039339557290077
1733862663477571300,11.3005712890625,0.00042293034493923187,0.0010125101543962955,-0.004200635477900505
1733862663487522300,11.310522216796874,0.0018812771886587143,0.005678900983184576,-0.0005803343374282122
1733862663497474300,11.320474365234375,-0.00038932915776968,0.007816501893103123,-0.0015592265408486128
1733862663507425300,11.33042529296875,0.0011417223140597343,0.00840239692479372,0.0010144521947950125
1733862663517376500,11.34037646484375,0.0008776909671723843,0.009138395078480244,-0.0007464431691914797
1733862663527327200,11.3503271484375,0.001562656369060278,0.007499752100557089,0.0013273605145514011
1733862663537279500,11.360279541015625,0.0006739431992173195,0.005202994216233492,0.0010023823706433177
1733862663547230200,11.370230224609376,-0.00044698151759803295,0.001855933340266347,-0.0019755642861127853
1733862663557181400,11.380181396484375,0.0012162481434643269,0.003266324056312442,-0.000261188019067049
1733862663567132200,11.390132080078125,0.0018170573748648167,0.005751319695264101,-0.0004681155551224947
1733862663577083400,11.40008349609375,0.0005144583992660046,0.008250430226325989,0.0008738512406125665
1733862663587035400,11.410035400390624,0.002219413872808218,0.00880117155611515,0.00001657975371927023
1733862663596986400,11.419986328125,-0.000013377517461776733,0.010081233456730843,0.0011557000689208508
1733862663606937300,11.429937255859375,-0.0024789320304989815,0.011286312714219093,0.0008656819118186831
1733862663616888300,11.439888427734376,-0.0006532759871333838,0.01035480760037899,0.0017421001102775335
1733862663626839300,11.44983935546875,0.0012231874279677868,0.0068916333839297295,0.0018201307393610477
1733862663636791600,11.45979150390625,-0.0000993385910987854,0.0038950443267822266,0.0010054698213934898
1733862663646742300,11.4697421875,-0.0011739807669073343,0.004082264844328165,0.0012949553783982992
1733862663656693500,11.479693603515624,0.00023170281201601028,0.003438558429479599,0.00046148616820573807
1733862663666644200,11.489644287109375,0.001038906630128622,-0.001379366498440504,0.002400533761829138
1733862663676596500,11.499596435546875,-0.00009380234405398369,-0.004314945079386234,0.0009824363514780998
1733862663686547200,11.509547119140626,0.0001107286661863327,-0.0071016764268279076,-0.0007379656890407205
1733862663696498400,11.51949853515625,-0.0021457718685269356,-0.010092416778206825,-0.0011526241432875395
1733862663706449200,11.52944921875,0.0007698568515479565,-0.0042273360304534435,0.0008609918877482414
1733862663716400400,11.539400390625,-0.0016144688706845045,0.0026834560558199883,-0.0020161964930593967
1733862663726352400,11.549352294921874,0.0009687971323728561,0.006021995097398758,0.00024136528372764587
1733862663736303400,11.559303466796875,0.0013157268986105919,0.0028345773462206125,0.0018410395132377744
1733862663746254300,11.56925439453125,0.001075509935617447,-0.0013468519318848848,0.003139863256365061
1733862663756205300,11.579205322265626,-0.0009935004636645317,-0.006059919949620962,-0.000025411834940314293
1733862663766156500,11.589156494140624,0.0003993329592049122,-0.007634114008396864,0.0009892525849863887
1733862663776108300,11.5991083984375,0.00020718853920698166,-0.00799420103430748,-0.0004498260095715523
