time,seconds_elapsed,z,y,x
1733860438279214000,0.012214111328125,0.01600932390615344,-0.14085574688911437,0.1286374858289957
1733860438289164300,0.022164306640625,0.0649334407467395,-0.11298618158027529,0.006101239484548568
1733860438299115300,0.032115234375,0.04585055461414158,-0.014158143081516026,-0.06080313600897789
1733860438309065200,0.042065185546875,0.015419175993278621,0.07207169512882829,-0.08062602685391902
1733860438319016200,0.05201611328125,0.017433949881792067,0.14458879593759774,-0.011118190863728523
1733860438328967400,0.061967529296875,0.034383331117033955,0.16575024190992116,0.1743815843939781
1733860438338917400,0.07191748046875,0.06097191670462489,0.15554668167307972,0.40681086860895155
1733860438348868000,0.0818681640625,0.07215045945346354,0.09430836911723017,0.5382768558621406
1733860438358818300,0.091818359375,0.07901340402550995,0.025406536196172235,0.6062380469322204
1733860438368769300,0.101769287109375,0.06980367713160812,-0.02948343024626374,0.6505518204331397
1733860438378719200,0.11171923828125,0.0960036287277937,-0.07720759671255946,0.7228665305376052
1733860438388670200,0.121670166015625,0.0879384687591344,-0.19824761314988135,0.6859037043213844
1733860438398621400,0.131621337890625,0.06584938654787838,-0.30590763127133247,0.679789020833373
1733860438408571100,0.141571044921875,0.09936755220293998,-0.26800314029082656,0.863214327904582
1733860438418522400,0.1515224609375,0.07488602189719676,-0.0293359845995903,1.0600549968659878
1733860438428472300,0.161472412109375,0.26497663207650185,-0.20885916966572401,1.178003330898285
1733860438438423000,0.171423095703125,-0.3168400903046131,-0.07575301399007439,1.257594169485569
1733860438448374300,0.181374267578125,0.6456605412602424,0.13807758741267023,0.9124281484067439
1733860438458324200,0.19132421875,1.0056646505087614,-0.034292949419841165,-0.2301391274511814
1733860438468275200,0.201275146484375,-0.3829395791560411,-0.20155067328326404,-1.2799305044561624
1733860438478225200,0.21122509765625,-0.4925601932933554,-0.22059863423295317,-2.126518691730499
1733860438488176400,0.22117626953125,-0.6083317312758415,0.02417480244413018,-2.8546050027430057
1733860438498127000,0.231127197265625,-0.738667326259613,0.5123715032983571,-2.843046666896343
1733860438508077000,0.2410771484375,-0.569909974955581,0.7392378926891833,-1.7695833224028348
1733860438518028300,0.2510283203125,-0.12818623493015766,0.4341530490428209,-0.6487561691880226
1733860438527978200,0.260978271484375,0.2859043058255687,-0.05749021206870675,0.06970715795457362
1733860438537929200,0.27092919921875,0.5416507162094116,-0.2920763089913875,0.52111996935606
1733860438547879200,0.280879150390625,0.5506775608170777,-0.20636274974010885,0.6993675815284252
1733860438557830400,0.290830322265625,0.24174364052712916,-0.0006434124700725078,0.5698457140803337
1733860438567781000,0.300781005859375,-0.10793196693062782,0.09751841720491647,0.2960819644361734
1733860438577731000,0.31073095703125,-0.2227232982367277,0.0403318642579019,0.11426292351782322
1733860438587682300,0.320682373046875,-0.1715191807001829,-0.04214234774596989,0.051392918106913564
1733860438597632300,0.33063232421875,-0.04900748427510261,-0.11179865229614078,0.06894494141042232
1733860438607583200,0.340583251953125,0.05196637061331421,-0.13815299073643983,0.09668927290439605
1733860438617534200,0.3505341796875,0.039933987514115865,-0.12014182548858225,0.1443669698804617
1733860438627484400,0.360484375,0.03189977067299187,-0.10471329714506863,0.22866437872350215
1733860438637435100,0.37043505859375,0.02526716425810009,-0.08640453719012439,0.2390145078241825
1733860438647385300,0.38038525390625,0.016066753181815146,-0.05630998930819332,0.18559037615060806
1733860438657336300,0.39033642578125,0.020890264348126946,-0.00880099996253848,0.08836392762959003
1733860438667286300,0.400286376953125,0.02060615017712116,0.032900764409080144,0.010075403812527656
1733860438677237200,0.4102373046875,0.03364683353602886,0.0529674739472568,-0.07644786438643932
1733860438687188200,0.420188232421875,0.054847442474961275,0.06046265200823545,-0.12333704133331774
1733860438697138400,0.430138427734375,0.07770458644926548,0.04684124615192413,-0.13159750467836856
1733860438707089200,0.440089111328125,0.044856794336438174,0.009256561710312961,-0.10609598367512225
1733860438717039400,0.450039306640625,0.02256780563890934,-0.026680136328563094,-0.05338029253184795
1733860438726990300,0.459990234375,0.002881217992119491,-0.033476518470421435,-0.0027659575819969176
1733860438736941300,0.46994140625,0.002536277011968195,-0.049097135319933295,0.06373159067630768
1733860438746891300,0.479891357421875,0.043837461226060984,-0.06434701916091144,0.1295487554550171
1733860438756842200,0.48984228515625,0.05622227449212223,-0.0690150109719485,0.16654606846272946
1733860438766792200,0.499792236328125,0.041757732342556114,-0.06289565130881965,0.1834101095020771
1733860438776743200,0.5097431640625,0.036354996516183014,-0.05833455393835902,0.17634499342143534
1733860438786693400,0.519693359375,0.03704297878034413,-0.025005042723193763,0.07556640537679195
1733860438796644000,0.52964404296875,0.0024912688264623283,-0.029768457732722162,0.021918401819467543
1733860438806595300,0.53959521484375,0.000029299159720540046,-0.033654359255358576,0.013180384090542792
1733860438816545300,0.549545166015625,-0.007446187820099294,-0.0217905376560986,0.0162561382740736
1733860438826496300,0.559496337890625,-0.00038392128366976976,-0.009986848746240139,0.009732873985171317
1733860438836446200,0.5694462890625,0.01950966017730534,-0.02176467256247997,0.026049218013882637
1733860438846397200,0.579397216796875,0.05631218126527965,-0.020607026959955692,0.04233399786055088
1733860438856348200,0.58934814453125,0.047529739872738716,-0.02274294301010668,0.056985039025545116
1733860438866298000,0.599298095703125,0.024584333093091843,-0.026343232524394987,0.06524024167358874
1733860438876249300,0.609249267578125,0.02941314148902893,-0.015355755368247627,0.054801849767565726
1733860438886199300,0.61919921875,0.01644435432255268,-0.026195348486304282,0.044994156980514524
1733860438896150300,0.629150390625,0.02625675981733948,-0.03321516412049532,0.051802083429694175
1733860438906101200,0.639101318359375,0.02157711410112679,-0.04141571397185325,0.0867664293050766
1733860438916051200,0.64905126953125,0.02096563113927841,-0.03335384193882346,0.10813011985123157
1733860438926002200,0.659002197265625,0.006940685983374714,-0.04274871614128351,0.11053893455862998
1733860438935952100,0.6689521484375,0.015175941821932791,-0.02294255723543465,0.1123901153832674
1733860438945903400,0.6789033203125,0.03175648974478244,-0.012690481681749225,0.06800619925558567
1733860438955853300,0.688853271484375,0.039484965104982256,-0.0283584448043257,0.03167699476778507
1733860438965804300,0.69880419921875,0.03958681804426014,-0.03827675835900009,0.0015700257956981658
1733860438975755300,0.70875537109375,0.02187518373224884,-0.03255275468900799,-0.010790858605504034
1733860438985705200,0.718705322265625,-0.005146715238690376,-0.04884096860177815,0.010179448708891868
1733860438995656200,0.72865625,0.007632029248401522,-0.03927577933371067,0.04506956030428409
1733860439005606100,0.738606201171875,0.006078479663468897,-0.04692534423880279,0.0750415047198534
1733860439015557400,0.748557373046875,0.03990297132134437,-0.02931727989912033,0.07646364647746086
1733860439025508000,0.758508056640625,0.060732920316979286,-0.022524843280017373,0.07177402735650538
1733860439035458300,0.768458251953125,0.03734218092262745,-0.00010981705002486706,0.019496727630496025
1733860439045409300,0.7784091796875,0.04265084525737911,-0.0011352876402437686,-0.037600539597868916
1733860439055359500,0.788359375,0.02720602336619049,-0.013239347736164926,-0.02096563113927841
1733860439065310200,0.798310302734375,0.018426504583097993,-0.014454934071004389,0.022432781082391738
1733860439075260200,0.80826025390625,0.040924715584516526,-0.01847293754070997,0.06386661523282527
1733860439085211400,0.81821142578125,0.04792078501693904,-0.040526217786222694,0.09930383931696414
1733860439095162000,0.828162109375,0.037882900203205644,-0.06287402399890124,0.10138590628802775
1733860439105112300,0.8381123046875,0.04009812856726348,-0.04191058481670916,0.11694997064471244
1733860439115063300,0.848063232421875,0.02251812127828598,-0.034726007074862716,0.10379121386408806
1733860439125013200,0.85801318359375,0.006043298752233386,-0.0384084949798882,0.07688099510669708
1733860439134964200,0.867964111328125,-0.0038333676178008316,-0.023476225720718502,0.061955228653550146
1733860439144915500,0.87791552734375,0.01788337414972484,-0.023419088706001637,0.044350013858079906
1733860439154865200,0.887865234375,0.017087839857861397,-0.004757788986340165,0.043969490107893944
1733860439164816100,0.897816162109375,0.020547040401026607,0.0037135406304150817,0.03478431313335895
1733860439174766300,0.907766357421875,0.01683306137919426,-0.012933496657386422,0.026670564782619473
1733860439184717000,0.917717041015625,0.028343466430902478,-0.028528467608988282,0.037001404660940165
1733860439194667300,0.927667236328125,0.03306523425579071,-0.024802944279834628,0.044509003812074656
1733860439204619000,0.937618896484375,0.04222761487662792,-0.002268602519109845,0.003219546568393707
1733860439214569700,0.94756982421875,0.049011612460948525,0.0003594078969210386,-0.007886369335651398
1733860439224519700,0.957519775390625,0.045748226750828326,-0.0107912969969213,-0.013513561567664145
1733860439234471000,0.967470947265625,0.04176003389749676,-0.01855024056062102,0.009675590839982031
1733860439244420900,0.9774208984375,0.018576726708747444,-0.03949965121746063,0.019518939462304114
1733860439254371800,0.987371826171875,0.03177873810920864,-0.03547068796232342,0.05102700740396976
1733860439264322800,0.99732275390625,0.03829319803714752,-0.05588606480769813,0.08584639185070991
1733860439274273000,1.00727294921875,0.01972940387520939,-0.038363705990090965,0.08820610671937465
1733860439284223700,1.0172236328125,0.04082187626454979,-0.020602277719601988,0.07069441542625426
1733860439294173700,1.027173583984375,0.01585343922469765,-0.024284327233210206,0.07862871555685996
1733860439304125000,1.037125,0.029570962399244307,-0.028410321122035384,0.07894260381162166
1733860439314075000,1.047074951171875,0.015464147646166384,-0.02926503825522959,0.0766056852966547
1733860439324025900,1.05702587890625,-0.005660473447106778,-0.015979805550724268,0.06756196261942386
1733860439333976800,1.066976806640625,-0.003466799327731132,-0.024414091092720625,0.07393734287023544
1733860439343926800,1.0769267578125,0.013883015934564173,-0.029141192679852247,0.06117606097459793
1733860439353877800,1.086877685546875,0.028456900210119783,-0.025603812333941458,0.05035246914327144
1733860439363828000,1.096827880859375,0.030915399278141558,-0.024335180637612936,0.06825695914626122
1733860439373779000,1.106779052734375,0.03114624889194965,-0.029344460166990754,0.06472703145444393
1733860439383730000,1.11672998046875,0.03990589393079281,-0.014777590154111385,0.05834405241906643
1733860439393680000,1.126679931640625,0.04333177672624588,-0.012907047041878103,0.05299392356276512
1733860439403630800,1.136630859375,0.030683892077207564,-0.030584961747378108,0.033360417810082435
1733860439413580800,1.146580810546875,0.02374853985607624,-0.02545753573104739,0.01615852311849594
1733860439423531800,1.15653173828125,0.013872458007931708,-0.008236571012809873,0.021290040788054465
1733860439433482000,1.16648193359375,0.027263854500651358,-0.03124970926642418,0.018206103298068047
1733860439443432700,1.1764326171875,0.02933715364336967,-0.04356638919971883,0.05102408479452133
1733860439453384000,1.186384033203125,0.03708849842250347,-0.05116729265749454,0.07681786674261093
1733860439463334000,1.196333984375,0.028398411488533018,-0.027884835943207145,0.09793956522643565
1733860439473284600,1.20628466796875,0.01812836188673973,-0.02398402911238372,0.08598784614801407
1733860439483234800,1.21623486328125,0.01104863275885582,-0.04149425910077989,0.06610124241709708
1733860439493185800,1.226185791015625,0.032077428794838485,-0.03986329689808189,0.05249123473763465
1733860439503136800,1.23613671875,0.010119864008761942,-0.03541018994674086,0.05549100107550621
1733860439513086700,1.246086669921875,0.005907799271680414,-0.03332688086666167,0.065991352301836
1733860439523038000,1.256037841796875,0.03182487880587578,-0.030627924106270073,0.06975508874952793
1733860439532988000,1.26598779296875,0.0327654110589996,-0.023704043127223847,0.07950783647894859
1733860439542939000,1.27593896484375,0.028600108073092996,-0.02077273891568184,0.045700843945145606
1733860439552888800,1.285888916015625,0.05233578844759613,-0.033359467962011696,0.015600889235734938
1733860439562839800,1.29583984375,0.022106033346056937,-0.017331000963971017,-0.009580313771963118
1733860439572790800,1.305790771484375,0.01785655920803547,-0.008544614048674702,-0.011121113473176956
1733860439582740700,1.31574072265625,0.0029751798858866094,0.0121637543939054,-0.0018827450066804885
1733860439592692000,1.32569189453125,0.007739654341340064,0.004038388670608401,0.00931318726837635
1733860439602642000,1.335641845703125,0.03217913560364395,0.0007934884652495384,0.0064554597496986384
1733860439612593000,1.345593017578125,0.002018975139595568,-0.006629866468533873,0.03204407451450825
1733860439622544000,1.3555439453125,-0.002197765772603452,-0.009562120528146624,0.07440379133820534
1733860439632493800,1.365493896484375,0.00650751873049885,-0.01527509134747088,0.11543430538475513
1733860439642444800,1.37544482421875,0.01624682245645672,-0.040846462716534734,0.12743161717057228
1733860439652394800,1.385394775390625,0.018594262365438045,-0.040174554804340006,0.11638298441171645
1733860439662346000,1.395345947265625,0.02228610262069851,-0.03930982773378491,0.1264502049177885
1733860439672296000,1.4052958984375,0.031032303656078872,-0.04284479692690074,0.09449263964295387
1733860439682247000,1.415246826171875,0.003081051413156092,-0.02221292778663337,0.07002572238445282
1733860439692198000,1.425197998046875,0.01097100094538182,-0.007971271140128374,0.046609190961718554
1733860439702147800,1.43514794921875,0.0287871550777927,-0.006533858748152851,0.020510873109102247
1733860439712098800,1.445098876953125,0.02607902863025665,-0.0037915743026882406,0.009987725529074669
1733860439722048800,1.455048828125,0.0062695452561601995,-0.012290887904912232,0.0014238953232765196
1733860439732000000,1.465,0.001726641129516065,-0.00613514175415039,0.02741758375763893
1733860439741950700,1.47495068359375,-0.00006725654993206262,-0.023127485348284245,0.0866530320584774
1733860439751901000,1.48490087890625,0.03062898355219513,-0.030504663052782415,0.10281564683020114
1733860439761852000,1.494851806640625,0.0466250095853582,-0.03269669320434332,0.08546411453485489
1733860439771801900,1.5048017578125,0.03819386584851891,-0.04122749792337417,0.0441541990250349
1733860439781752800,1.5147529296875,0.04232935821805149,-0.04291574327126145,0.009389759635925293
1733860439791704000,1.5247041015625,0.011255626573041081,-0.033918782345205546,0.011992051088809966
1733860439801653800,1.53465380859375,0.019262334352731704,-0.03202493142262101,0.029057752180099487
1733860439811604700,1.544604736328125,0.018103811967372894,-0.03198401489034295,0.02364391043782234
1733860439821555000,1.554554931640625,0.022124774579145013,-0.05433635114766657,0.040655835515260696
1733860439831505700,1.564505615234375,0.03765490013360977,-0.03613602000325918,0.050776832035183905
1733860439841455900,1.574455810546875,0.04054598193261772,-0.02851137034371495,0.0697258626550436
1733860439851406800,1.58440673828125,0.03821373959276825,-0.030255437532067296,0.07040215448141098
1733860439861357800,1.59435791015625,0.015048516049981116,-0.023079043096676466,0.06675064623653888
1733860439871307800,1.604307861328125,0.013575557420589029,-0.007303820207342505,0.050557636326551435
1733860439881258800,1.6142587890625,0.00947042365670204,-0.016820201897621154,0.07358838330209255
1733860439891209000,1.624208984375,0.012800444862246513,-0.02052526696063578,0.08437222764492035
1733860439901159700,1.63415966796875,0.011407529199123382,-0.03802205294556916,0.11209960800409316
1733860439911111000,1.64411083984375,0.029884266132116317,-0.03888546484187245,0.1109784950196743
1733860439921060900,1.654060791015625,0.024169980138540267,-0.03988916199170053,0.08131634720563888
1733860439931011800,1.66401171875,0.014444156948663293,-0.0355555897668004,0.05556698892116546
1733860439940961800,1.6739619140625,0.008659691795706748,-0.0336578663866967,0.04298515524566173
1733860439950912800,1.683912841796875,0.024675007051229474,-0.025745485826954243,0.021415128472447396
1733860439960863000,1.693863037109375,0.007815094197727739,-0.00409063031449914,-0.018878887993097303
1733860439970813700,1.703813720703125,0.014694916839338839,0.004907718851044774,-0.008157002970576286
1733860439980765000,1.713764892578125,0.0037082068681716916,-0.005768719594553113,0.015574585750699043
1733860439990715000,1.72371484375,0.023157003703713416,-0.004149740090593696,0.029709494087100028
1733860440000665900,1.733665771484375,0.029618893194198605,-0.012737535693868995,0.050852235358953474
1733860440010615800,1.74361572265625,0.03449618037436157,-0.01589863007329404,0.03458382212519646
1733860440020567000,1.753567138671875,0.02219900885913521,-0.012300021059438586,0.009475099831819534
1733860440030517800,1.763517822265625,0.031025837382674216,-0.015185074976459144,0.012647300127148627
1733860440040467700,1.7734677734375,0.02222648138795048,-0.0415280883051455,0.04557634078264236
1733860440050419000,1.7834189453125,0.01762684210538864,-0.04776479073762893,0.0726753601104021
1733860440060369000,1.793368896484375,0.009569171323440968,-0.04293853962495923,0.09259002089202403
1733860440070319900,1.80331982421875,0.021277144773863256,-0.04849018240272999,0.11247370201349258
1733860440080269800,1.813269775390625,0.0038637262234464285,-0.049357759017497296,0.11005261234641074
1733860440090221000,1.823220947265625,-0.012956512206792831,-0.05719838951528072,0.11272212381660937
1733860440100171800,1.833171875,0.006291757087968289,-0.04500431304834783,0.09236965613961219
1733860440110121700,1.843121826171875,0.017246866344474254,-0.03780241884551942,0.05587561647891998
1733860440120073000,1.853072998046875,0.042117103706859046,-0.022661767532676458,0.01817453911602497
1733860440130022700,1.863022705078125,0.06953998469412326,0.01887939944975078,-0.05309446132779121
1733860440139974000,1.872973876953125,0.09161328481435775,0.022999840380623936,-0.12476093665659427
1733860440149924900,1.8829248046875,0.10814294280018656,0.039097938548773525,-0.19867372960746288
1733860440159874800,1.892874755859375,0.10978490132093428,0.04268960636518895,-0.23908114331960675
1733860440169825800,1.90282568359375,0.08010755593776703,0.040670083236321805,-0.25103286239802836
1733860440179775700,1.912775634765625,0.06477496224939823,0.03943023924306035,-0.19634382535517214
1733860440189726700,1.922726806640625,0.030829438027739523,0.017015578339248896,-0.11866495786905289
1733860440199676400,1.932676513671875,0.04232866409830749,0.009327215793728827,-0.02258943294882774
1733860440209627600,1.942627685546875,0.034252398213744165,-0.009819529355317354,0.07724982841908931
1733860440219578600,1.95257861328125,0.004458732974529266,-0.03434416815042496,0.15694763451218605
1733860440229528600,1.962528564453125,0.00972472721133381,-0.06140380531586706,0.2656529239028692
1733860440239479600,1.9724794921875,-0.0049157925596460695,-0.07851948302872479,0.332323490640521
1733860440249429800,1.9824296875,-0.017104827525280416,-0.10521876244917511,0.35159225473403927
1733860440259380500,1.99238037109375,-0.015372925698757171,-0.12091280986107886,0.329759193110466
1733860440269331700,2.002331787109375,-0.037543840974569316,-0.09829188579544425,0.27216742036342617
1733860440279281700,2.01228173828125,-0.02301438036262989,-0.07489836992211639,0.19251111532449722
1733860440289232600,2.022232666015625,-0.00011982698738574981,-0.044600846813991665,0.09927402870059013
1733860440299182600,2.0321826171875,0.016304653590917588,-0.021103797500953078,0.05391454553902149
1733860440309133600,2.042133544921875,0.006925999870896339,-0.03143273768313229,0.018984686455130576
1733860440319084500,2.05208447265625,-0.010034487280249594,-0.02769735054709017,0.01167991639971733
1733860440329034500,2.062034423828125,-0.0002776478976011276,-0.01543941506370902,0.029942718321084975
1733860440338985700,2.07198583984375,0.006003624328970909,-0.013480828341841698,0.030671617117524145
1733860440348935700,2.081935791015625,-0.0014922843843698502,-0.019056290386617183,0.03558510812222957
1733860440358886700,2.09188671875,-0.00037113486733287573,-0.02759162515029311,0.05064239200055599
1733860440368836600,2.101836669921875,-0.0033949031352996824,-0.036213396088406444,0.05775017817914486
1733860440378787600,2.11178759765625,0.0019715923339128495,-0.05110708690285683,0.0572428131788969
1733860440388738600,2.121738525390625,0.01881466365046799,-0.04448262726180255,0.09313537981510162
1733860440398688500,2.1316884765625,-0.007151040798425674,-0.04056932627558708,0.09579144728183746
1733860440408639700,2.1416396484375,-0.0034649726968258615,-0.04445625071153044,0.055034489479660983
1733860440418589700,2.151589599609375,0.00040273558199405667,-0.060888330074399706,0.06381459278464317
1733860440428540700,2.161540771484375,0.004615969362854957,-0.06310564079768956,0.07755261075794696
1733860440438490600,2.17149072265625,0.004223682109639048,-0.048449558131396765,0.09760580322742461
1733860440448441600,2.181441650390625,0.022814400811120867,-0.03822765852026641,0.10451017578840255
1733860440458392600,2.191392578125,0.019138452244736252,-0.02564808986708522,0.08448562489151955
1733860440468342500,2.201342529296875,0.03117613257355988,-0.021860753348097204,0.03645721478164196
1733860440478293800,2.211293701171875,0.0361375178406015,-0.004393485718593001,-0.003072247052192688
1733860440488243500,2.221243408203125,0.037765374770760536,0.003062310180068016,-0.030538346126675605
1733860440498194700,2.231194580078125,0.04284077833890915,0.013024682072177529,-0.07002338429689407
1733860440508145700,2.241145751953125,0.014704744113609194,-0.0061679480452090495,-0.06810206084549426
1733860440518095600,2.251095703125,0.002899155507609248,-0.01201645487770438,0.010727145719528198
1733860440528046600,2.261046630859375,0.04448854554593563,-0.03471702005080878,0.08121347135305404
1733860440537996500,2.27099658203125,0.041593408626317975,-0.03593662497363984,0.13094751633703708
1733860440547947500,2.280947509765625,0.057225204456970095,-0.0318000366255641,0.12983224857151507
1733860440557898500,2.2908984375,0.058168111330270764,-0.019966756295040248,0.05780570775866508
1733860440567848700,2.3008486328125,0.035597383081912994,-0.013910890322178602,0.030976153022050857
1733860440577799700,2.310799560546875,-0.001070259580016136,-0.016857611298561094,0.013409516671299934
1733860440587749600,2.32074951171875,0.010734707971476017,0.008963204786926507,0.01618950277864933
1733860440597700600,2.33070068359375,0.006103541039489209,-0.019554887558519838,0.06611001024544239
1733860440607650600,2.340650634765625,0.024733459240198135,-0.02602905200868845,0.0859685569256544
1733860440617601500,2.3506015625,0.03661328212618828,-0.025354879074171183,0.08265139520168303
1733860440627552500,2.360552490234375,0.03204875068962574,-0.03643595279790461,0.0773942053258419
1733860440637502700,2.370502685546875,0.011337386572360992,-0.03024308950714767,0.05731178676187992
1733860440647453400,2.380453369140625,-0.01617255164384842,-0.03380699253380298,0.05011632229983806
1733860440657403600,2.390403564453125,-0.020361856559850275,-0.04431764595843851,0.08991291063725948
1733860440667354600,2.400354736328125,0.0022170549949631093,-0.04530015418976545,0.13796177901327608
1733860440677305600,2.4103056640625,0.023552177033759652,-0.05354315494336188,0.15503975506424902
1733860440687255600,2.420255615234375,0.04772391073796898,-0.033118425747752187,0.13039631219506262
1733860440697206800,2.430206787109375,0.03709554921779781,-0.0335877237599343,0.09289689488410949
1733860440707156700,2.44015673828125,0.020348960545659062,-0.03494505665302276,0.023081600379943848
1733860440717107500,2.450107421875,0.001585844419337809,-0.0289667128957808,-0.020402152037620542
1733860440727058700,2.46005859375,0.008898761248588561,-0.021531229132786392,-0.03397358127236366
1733860440737008600,2.470008544921875,0.013419453543424605,-0.025108941489085553,-0.019130232405662535
1733860440746959600,2.479959716796875,0.0451958170324564,-0.010767769990861415,-0.009689619365334511
1733860440756909600,2.48990966796875,0.038927952276729044,-0.005448109338060021,0.011546645408868789
1733860440766860800,2.49986083984375,0.055690323039889335,-0.00374802742190659,0.001599251890182495
1733860440776810800,2.509810791015625,0.05259586415588855,0.005664601632952689,-0.02711947759389877
1733860440786761500,2.519761474609375,0.03325816301200539,0.0033105127874761817,-0.05035656079649925
1733860440796712700,2.529712646484375,0.01612173477206379,-0.014104805459082126,-0.036222236981987954
1733860440806662700,2.53966259765625,0.011444390610791742,-0.01907229167334735,0.018308979150652886
1733860440816613600,2.549613525390625,0.0054985974162817,-0.014221782902255653,0.0891536167025566
1733860440826563600,2.5595634765625,0.0312748437076807,-0.03425583227984607,0.1494154854416847
1733860440836514800,2.569514892578125,0.023521197373606265,-0.05505114835351705,0.16648235557675362
1733860440846465500,2.579465576171875,0.015405074402689933,-0.0491026152126491,0.17162264107465744
1733860440856415500,2.58941552734375,0.004145429241657257,-0.045398280801996586,0.14821137034893034
1733860440866366700,2.59936669921875,-0.006370119553804397,-0.0623613252364099,0.11690613150298594
1733860440876316700,2.609316650390625,0.013442249897122383,-0.05410992198064923,0.07244447396397591
1733860440886267600,2.619267578125,0.021309877999685704,-0.04367123781368136,0.055530748564004896
1733860440896217600,2.629217529296875,0.025952187380194662,-0.028424714973568913,0.05210486576855183
1733860440906168600,2.63916845703125,0.01931490479018539,-0.024305150825530288,0.026969839990139004
1733860440916119600,2.64911962890625,0.011038074832223355,-0.02225340592749417,0.011416881549358368
1733860440926069800,2.65906982421875,0.020840506922267375,-0.024937895771116016,0.0022819734573364257
1733860440936020700,2.669020751953125,0.018677191408537328,-0.03296864201352,0.00971358476281166
1733860440945970400,2.678970458984375,0.023864896244741973,-0.025507804613560437,0.015772154149413107
1733860440955921700,2.688921630859375,0.02537058809995651,-0.01826952392309904,0.033915129083395
1733860440965872600,2.69887255859375,0.012923194459080696,-0.016857465168088673,0.043050037175416944
1733860440975822600,2.708822509765625,0.028978878257609902,-0.019947028681263326,0.05202595531344414
1733860440985773600,2.718773681640625,0.03862407395932823,-0.03541398933902383,0.058476154366135596
1733860440995723800,2.728723876953125,0.0455482471993193,-0.011580255417525767,0.057769467401504515
1733860441005674500,2.738674560546875,0.03898468743264675,-0.016850231709703803,0.0394184026747942
1733860441015624400,2.74862451171875,0.04895721539258956,-0.011573752611503004,-0.0013835633128881453
1733860441025575700,2.75857568359375,0.015965009840391575,-0.02156746948994696,-0.01973696612715721
1733860441035526400,2.7685263671875,0.010561141502857207,-0.022538725674897432,0.005143208107352256
1733860441045476600,2.7784765625,-0.000436674384213984,-0.025069851587712765,0.029119711500406265
1733860441055427600,2.788427490234375,-0.00821191149558872,-0.013846300653368233,0.055039165654778476
1733860441065377800,2.798377685546875,0.006340308937430382,-0.033380803010985255,0.10939619426429271
1733860441075328500,2.80832861328125,0.011401135990954934,-0.04294964554086327,0.1450543676227331
1733860441085279700,2.81827978515625,0.022028291934728623,-0.05107632643841207,0.1572545085042715
1733860441095229700,2.828229736328125,0.023903986146114765,-0.04675042606331408,0.12516191867291926
1733860441105180700,2.8381806640625,0.02648063170108944,-0.04882752459831535,0.07212064883708953
1733860441115130600,2.848130615234375,0.005430244887806475,-0.03509995495378971,0.055009939560294145
1733860441125081600,2.85808154296875,0.016985073603130875,-0.02668788124360144,0.0434223776191473
1733860441135031800,2.86803173828125,0.011928922724723815,-0.015180398801341652,0.015224457138776779
1733860441144982500,2.877982421875,0.02077741509079933,-0.016645283722132444,0.013950783941149712
1733860441154933800,2.887933837890625,0.022631518524885177,-0.017273937014490363,0.027180267870426177
1733860441164883700,2.8978837890625,0.030703692756220695,-0.02381875554807484,0.016000117686390876
1733860441174834700,2.907834716796875,0.02910922663901001,-0.01580364526621997,0.023698855495452878
1733860441184784600,2.91778466796875,0.013101510168053209,-0.01714146974124014,0.057577159699797625
1733860441194735600,2.927735595703125,0.02153203285038471,-0.026911022474989294,0.07485328867137432
1733860441204686300,2.937686279296875,0.024808314574696122,-0.03446158398501575,0.057118894538283345
1733860441214636500,2.947636474609375,0.019766776743531226,-0.030083807292208074,0.07096037288606166
1733860441224587500,2.95758740234375,0.02109071882367134,-0.025891835495084524,0.04814472996592521
1733860441234537700,2.967537841796875,0.02210139370355755,-0.026323870236799118,0.043135961893200875
1733860441244488400,2.977488525390625,0.02631517547369003,-0.03683963822796941,0.030038579910993575
1733860441254439700,2.987439697265625,0.032951252487301824,-0.04496646525599062,0.036112931388616556
1733860441264389600,2.9973896484375,0.03983922190275043,-0.03565839255414903,0.012544424274563789
1733860441274340400,3.00734033203125,0.028362134598754345,-0.03523264142274856,-0.008362170153856277
1733860441284290600,3.01729052734375,0.021833664411772043,-0.020755787780880927,-0.013257540979981422
1733860441294241500,3.027241455078125,0.02582768421769142,-0.01791113893948495,0.02192716964781284
1733860441304191500,3.03719140625,0.02297401181962341,-0.012384338342025875,0.05111936186254024
1733860441314142500,3.047142578125,0.02543897716104984,-0.017112316711992023,0.06250584827363491
1733860441324093700,3.05709375,0.02504268958615139,-0.0221158971529454,0.07237783846855163
1733860441334043400,3.06704345703125,0.022139369360078126,-0.014124825333803891,0.058458618709445
1733860441343994400,3.076994384765625,0.010604396122694015,-0.0330772900197655,0.0541232198536396
1733860441353944600,3.086944580078125,0.01639580247309059,-0.03630933074355125,0.05383037438690662
1733860441363895300,3.096895263671875,-0.0009218275526538491,-0.03183233145996928,0.048747372034192084
1733860441373846500,3.106846435546875,-0.0005529942402616143,-0.032127807275205846,0.06507716006636619
1733860441383796500,3.11679638671875,-0.004532894189283251,-0.03602050386480987,0.06748012955486773
1733860441393747500,3.12674755859375,0.02775364731159061,-0.028458836438879368,0.08529051153361797
1733860441403697400,3.136697509765625,0.03989654158055782,-0.03899002119489014,0.08486088794469833
1733860441413648600,3.146648681640625,0.03946867155730724,-0.024209873757511376,0.04686988772451877
1733860441423598600,3.1565986328125,0.019462788828276095,-0.015437369237095117,0.014547580790519713
1733860441433549300,3.16654931640625,0.007886917324922978,-0.006526406094059347,-0.011785130339860915
1733860441443500500,3.17650048828125,-0.005126256972551346,-0.0013358517136424779,-0.01208382102549076
1733860441453450500,3.186450439453125,0.018843780147098005,0.006001870763301849,-0.006099485918879509
1733860441463401500,3.1964013671875,0.022014281675685195,-0.014994155514240264,0.052847208568453784
1733860441473351400,3.206351318359375,0.01659402845893055,-0.02589256614744663,0.09579261632561684
1733860441483302700,3.216302734375,0.026231625376082954,-0.032095000984147186,0.12605039194524287
1733860441493253400,3.22625341796875,0.036720267898309976,-0.0353537105191499,0.11353227115571499
1733860441503203300,3.236203369140625,0.05122866745591163,-0.043299628022313116,0.04491115487217903
1733860441513154600,3.246154541015625,0.020875614768266677,-0.04691679560616612,0.0323772519916296
1733860441523104500,3.2561044921875,0.004907682318426669,-0.03867474470064044,0.016056231787800787
1733860441533055500,3.266055419921875,-0.02215683195153251,-0.03998275855928659,0.045347208201885224
1733860441543006500,3.27600634765625,-0.0077723875671625135,-0.04106850796937942,0.06864215907156467
1733860441552956700,3.285956787109375,-0.00024549919366836546,-0.03601144377551973,0.07789455606341361
1733860441562907400,3.295907470703125,0.021959902873635292,-0.0386637118499726,0.054395022532343865
1733860441572857300,3.305857421875,0.026571196061372756,-0.017165215943008662,0.0515741198927164
1733860441582808600,3.31580859375,0.01898996541844681,-0.01500540756061673,0.05161971260011196
1733860441592758500,3.325758544921875,0.03510287756323814,-0.015986089161038396,0.03520399985015392
1733860441602709500,3.33570947265625,0.029607202756404875,-0.006224354407563805,0.04168868569433689
1733860441612660500,3.345660400390625,0.009052490505576133,-0.012003449265658855,0.05728782136440277
1733860441622610700,3.355610595703125,0.01217327114092186,-0.020146862102299927,0.07048632563352585
1733860441632561400,3.3655615234375,0.025350769154634325,-0.038258565115183586,0.07826865007281303
1733860441642511600,3.37551171875,0.02819967404603958,-0.04294285047389566,0.07422960381507873
1733860441652462600,3.385462646484375,0.040676878303289414,-0.034412557211518285,0.05446633420288562
1733860441662413600,3.39541357421875,0.032467852884531016,-0.025305340844020245,0.0231663560539484
1733860441672363500,3.405363525390625,0.01811491788327694,-0.00911525354348123,0.005340191984176635
1733860441682314500,3.415314453125,0.013160510346293449,-0.021227935337275267,0.012801613906025886
1733860441692264400,3.425264404296875,0.02465748966084793,-0.027754560627043245,0.035683892321586606
1733860441702215400,3.43521533203125,0.005454192018974572,-0.020946488047391174,0.055439563149213784
1733860441712166700,3.445166748046875,0.002264437800645828,-0.01952200820222497,0.06833996125459671
1733860441722116400,3.455116455078125,0.03755260880291462,-0.033739845581725235,0.08230944989621639
1733860441732067600,3.465067626953125,0.03426876482665538,-0.035577874663844704,0.08520049516260624
1733860441742017500,3.475017578125,0.020659889658354223,-0.04693776532895863,0.05933832415342331
1733860441751968300,3.48496826171875,0.01992814131770283,-0.023790698497369884,0.02329845800101757
1733860441761918500,3.49491845703125,0.034599019694328305,-0.020574659060314297,-0.003778349494934082
1733860441771869400,3.504869384765625,0.043895858616102484,-0.024686770554259416,-0.02007891143262386
1733860441781820400,3.5148203125,0.017916764962673186,-0.0169440474729985,-0.0039209728360176084
1733860441791770400,3.524770263671875,-0.015069522305391728,-0.026158085215836763,0.03076163348853588
1733860441801721600,3.5347216796875,0.001741290709376335,-0.035319077597185965,0.06918050373196602
1733860441811671600,3.544671630859375,0.027009587478637694,-0.06163578744083643,0.08200082233846187
1733860441821622500,3.55462255859375,0.0120861225804314,-0.04818681554198265,0.11516659435927867
1733860441831573500,3.564573486328125,0.02973408053908497,-0.03728548229932785,0.1019593222618103
1733860441841523500,3.5745234375,0.03040452714655548,-0.03986044735386968,0.07110591883659362
1733860441851474400,3.584474365234375,0.014290993947256355,-0.018545199059322476,0.03307283304035664
1733860441861424400,3.59442431640625,0.02008362414035946,-0.020138751861080526,0.012539748099446297
1733860441871375600,3.604375732421875,0.028127193331718443,-0.029395313571393487,0.028968904852867124
1733860441881326300,3.614326416015625,0.012678864309191703,-0.028806261637061834,0.03658464055359363
1733860441891276500,3.624276611328125,0.01296407445874065,-0.0166875154286623,0.03733282857239246
1733860441901227500,3.6342275390625,0.023562077373266217,-0.009343728537112473,0.058874798294901845
1733860441911177500,3.644177490234375,0.0387386037170887,-0.026173501980677246,0.053312487992644306
1733860441921128400,3.65412841796875,0.03700436380300671,-0.030334567182883618,0.03247369810342789
1733860441931078400,3.664078369140625,0.035861623508669435,-0.017962503800541162,0.05066285026669502
1733860441941029600,3.674029541015625,0.004700725036859512,-0.01624276733584702,0.04670096089839935
1733860441950980400,3.68398046875,0.007158657849300652,-0.008763809757307171,0.05129238034188747
1733860441960930600,3.6939306640625,0.008810461910627782,-0.017601415403187274,0.06725801123678683
1733860441970881500,3.703881591796875,0.011093677476979792,-0.0389019775852561,0.08265081067979335
1733860441980831500,3.71383154296875,0.011095979031920432,-0.03799954885281622,0.10046236170232295
1733860441990782500,3.723782470703125,0.015737101102340965,-0.03595686404407024,0.09063304160535335
1733860442000733700,3.733733642578125,0.0118862891593948,-0.02514591249860823,0.0677776511967182
1733860442010683600,3.74368359375,0.008686616335250436,-0.01917041828557849,0.05570961226224899
1733860442020634400,3.75363427734375,-0.00263791075553745,-0.023206907260045408,0.05499708007872104
1733860442030584600,3.76358447265625,0.003006232611276209,-0.03004084493331611,0.04799976853728294
1733860442040535600,3.77353564453125,0.01003392102466896,-0.030597236707061527,0.04759294130206108
1733860442050486500,3.783486572265625,0.016633154892921446,-0.031134046997502444,0.050640053912997245
1733860442060436500,3.7934365234375,0.023571977712772786,-0.028753070145100354,0.0710240857720375
1733860442070387700,3.8033876953125,0.023547427793405948,-0.026953984833881256,0.06939151613414288
1733860442080337400,3.81333740234375,0.040599136891961096,-0.023881445520743727,0.050101124730706215
1733860442090288400,3.823288330078125,0.0232318225055933,-0.022450974326208233,0.05057809459269046
1733860442100238600,3.833238525390625,-0.002274940928351134,-0.02587656486071646,0.06200023683905601
1733860442110189300,3.843189208984375,0.010707326774206011,-0.016867328974977135,0.04785129997730255
1733860442120140500,3.853140625,0.02466444912459701,-0.0076468614913523195,0.039542905837297436
1733860442130090500,3.863090576171875,0.0363157604843378,-0.012952493618801235,0.03720832540988922
1733860442140041500,3.87304150390625,0.038191491228342055,-0.023407252137735486,0.037277298992872236
1733860442149991400,3.882991455078125,0.02930911485897377,-0.023923384966328738,0.03254033359885215
1733860442159942400,3.8929423828125,0.008499532797932625,-0.033031916508078574,0.016443769800662995
1733860442169893400,3.902893310546875,-0.0013175123393535614,-0.023337767098098993,0.006436170527338981
1733860442179843300,3.91284326171875,-0.01062426986694336,-0.0008016717717051505,0.035171266624331475
1733860442189794600,3.922794677734375,-0.0009223755419254302,-0.0077974489431828255,0.07410334708690643
1733860442199744800,3.932744873046875,0.014986556729674338,-0.022368118348345158,0.10093173277974128
1733860442209695700,3.94269580078125,0.013449282426107673,-0.04346292882524431,0.1295569387614727
1733860442219646700,3.952646728515625,0.011453706428408622,-0.0351478126835078,0.11016893220245838
1733860442229597000,3.962596923828125,-0.0169791553189978,-0.028580855383351443,0.07237666942477226
1733860442239547600,3.972547607421875,-0.013403671452403067,-0.018251476809754967,0.04775836099684238
1733860442249497600,3.98249755859375,0.004352313457988202,-0.01471402339860797,0.05427461102306842
1733860442259448800,3.99244873046875,0.022802783438563345,-0.01869381374977529,0.06288403393626213
1733860442269398800,4.002398681640625,0.012081482937932014,-0.022577084923908114,0.03079728932380676
1733860442279349800,4.012349853515625,0.014641652282141149,-0.006575652063265443,0.02131517522931099
1733860442289300700,4.02230078125,0.031655951979756354,-0.020295622923225162,0.012117723295092583
1733860442299251000,4.0322509765625,0.026634908947348594,-0.009511705515161156,0.03671849606633186
1733860442309201700,4.04220166015625,0.004835749593377113,0.004583455332741141,0.046188919723033905
1733860442319151600,4.052151611328125,0.029537662917841222,-0.011385755758732557,0.047888124856352805
1733860442329102800,4.062102783203125,0.04456632348988205,-0.02102861337289214,0.04541150560975075
1733860442339053600,4.072053466796875,0.027251013285387305,-0.04832198622897267,0.06060790569782257
1733860442349003800,4.082003662109375,0.010932915691006928,-0.04065247451439499,0.07100070489645004
1733860442358954800,4.091954833984375,-0.00830083188805729,-0.0314456702299416,0.06250760183930397
1733860442368904700,4.10190478515625,-0.005935856322385371,-0.04986556240916252,0.05894669448733329
1733860442378855700,4.111855712890625,0.00008764175083488225,-0.04900419633947312,0.053287353551387785
1733860442388807000,4.121806884765625,0.005882646564114838,-0.04392155931293964,0.07288403442502021
1733860442398756900,4.1317568359375,0.014662110548280179,-0.04289630791842937,0.06854863556921481
1733860442408707800,4.141707763671875,0.017547347128391264,-0.030723201174288985,0.052689387658238405
1733860442418657800,4.15165771484375,0.004075250082276762,-0.015981486051157116,0.047479544055461884
1733860442428608800,4.16160888671875,0.004636391096375882,-0.013952610572054982,0.02910626749694347
1733860442438558700,4.171558837890625,0.005716057825554162,-0.016301730981469153,0.0020528408765792846
1733860442448509700,4.181509765625,0.011091887378692626,-0.01170475858002901,0.03114332628250122
1733860442458461000,4.1914609375,0.02591886963248253,-0.01286496146582067,0.06037526598572731
1733860442468410600,4.20141064453125,0.03472936807572841,-0.02155767874829471,0.07089432191252708
1733860442478361900,4.21136181640625,0.026558921101689337,-0.036137115981802345,0.08620178115963935
1733860442488311800,4.221311767578125,0.007122983747720718,-0.03239507990926504,0.08430266954004764
1733860442498262500,4.231262451171875,0.016259645405411718,-0.028903511466458438,0.10753916822075843
1733860442508213800,4.2412138671875,0.010324994659423827,-0.011694675577431916,0.08424713996052742
1733860442518163700,4.251163818359375,0.0007703998506069183,-0.006521218462288379,0.06410743825137614
1733860442528114700,4.26111474609375,-0.0025485154390335082,-0.018387670410051942,0.03740180215537548
1733860442538064600,4.271064697265625,0.01120586914718151,-0.009948124171048402,0.034191607937216754
1733860442548015900,4.281015869140625,0.011187748968601226,0.00643960459344089,0.0022486557096242903
1733860442557966600,4.290966552734375,0.020783260309696197,-0.03157806443795562,-0.0002256254494190216
1733860442567916500,4.30091650390625,-0.004309679892659187,-0.037254283443465826,0.00478314262330532
1733860442577867800,4.31086767578125,-0.020728315252065657,-0.007276420743763446,0.045264206093549725
1733860442587817700,4.320817626953125,0.002493570381402969,-0.01644420819208026,0.06419920818805694
1733860442597768700,4.330768798828125,0.03961129489839077,-0.01800780424699187,0.08343991523087024
1733860442607718700,4.34071875,0.039659773682616646,-0.03329948140308261,0.0733463912397623
1733860442617670000,4.350669921875,0.03455927220582962,-0.023165990727767347,0.05787058968842029
1733860442627620600,4.36062060546875,0.003469100882671773,-0.014610928350314497,0.023081600379943848
1733860442637570800,4.37057080078125,-0.01664020568821579,-0.02812945835404098,0.014013327783346175
1733860442647521800,4.380521728515625,-0.0008954875349998473,-0.041284634938091036,0.02361000816822052
1733860442657471700,4.3904716796875,0.020664638898707927,-0.055323535554111,0.045448330488801
1733860442667422700,4.400422607421875,0.01792962444424629,-0.04613733566626906,0.08341770339906215
1733860442677373700,4.410373779296875,0.022070414043404162,-0.025811975191906093,0.0913023191690445
1733860442687324000,4.420323974609375,0.00991469682548195,-0.006435512940213084,0.08484978202879428
1733860442697274600,4.430274658203125,0.022535620402358472,-0.014464432551711797,0.0866267285734415
1733860442707224800,4.440224853515625,0.023027276376821098,-0.010195961452275514,0.06359948872923851
1733860442717175800,4.45017578125,0.009594890286587178,-0.02128521848246455,0.06304653102159499
1733860442727126800,4.460126708984375,0.011963957505486905,-0.015876710502430797,0.053367433050274846
1733860442737076700,4.47007666015625,0.009236614900827408,-0.017321210222318768,0.04367021490037441
1733860442747027700,4.48002783203125,0.023469138392806052,-0.005664455502480268,0.005050853648781776
1733860442756978000,4.48997802734375,0.03532382683753967,-0.02302840888798237,-0.017454992669820785
1733860442766928600,4.4999287109375,0.033739772516489026,-0.022317995596304534,0.00040741175711154934
1733860442776878800,4.50987890625,0.024574469286203382,-0.019597411525994538,0.011222820281982421
1733860442786829800,4.519829833984375,0.026412754096649584,-0.018585969461128116,0.05842530096173286
1733860442796780800,4.52978076171875,0.006246164380572736,-0.03548946572802961,0.09186521374881267
1733860442806730800,4.539730712890625,0.006619710400700569,-0.032964550360292194,0.13027356259822845
1733860442816682000,4.549681884765625,0.008999299013614653,-0.03356836147233844,0.13009411437809468
1733860442826631700,4.559631591796875,0.0045639103820547455,-0.02850705949477851,0.08175240053534508
1733860442836582700,4.569582763671875,-0.003968319109082222,-0.015998364120721816,0.045541853991150856
1733860442846534000,4.579533935546875,0.010782675299048423,-0.007412979670241474,0.02788870840072632
1733860442856483600,4.589483642578125,0.01194528933763504,-0.018264774682745337,0.03059387570619583
1733860442866434800,4.599434814453125,0.015623685589432716,-0.03509958962760865,0.04407353500425815
1733860442876384800,4.609384765625,0.010126275483239442,-0.04166618160158395,0.06756371618509292
1733860442886335700,4.619335693359375,0.02302026211414486,-0.04388056971542537,0.07249298928081989
1733860442896286700,4.62928662109375,0.029552860486973077,-0.028132600159198044,0.05348316838443279
1733860442906236700,4.639236572265625,-0.0015945757150650024,-0.02197320074662566,0.04809504560530185
1733860442916187600,4.649187744140625,-0.004086958786379546,-0.01916435387097299,0.051370706275105475
1733860442926137600,4.6591376953125,0.0006488192975521087,-0.013931129392609,0.06064882223010063
1733860442936088800,4.6690888671875,0.016043920295499264,-0.011551613844931126,0.0640963323354721
1733860442946039600,4.67903955078125,0.03262333570718765,-0.016185776451602577,0.036111762344837185
1733860442955989800,4.68898974609375,0.02446399464905262,-0.020785744527727364,0.012740823629498481
1733860442965940700,4.698940673828125,0.014660393515229225,-0.01131765895858407,0.04054594539999962
1733860442975890700,4.708890625,-0.00915069018304348,-0.028476152899861332,0.076614453125
1733860442985841700,4.718841552734375,0.004486205503344535,-0.029181963081657884,0.10251286449134349
1733860442995791600,4.72879150390625,0.011910802546143531,-0.03296754603497684,0.13530629606842995
1733860443005742800,4.738742919921875,0.005649988585710525,-0.03743314714170992,0.11873510049581527
1733860443015693600,4.748693603515625,0.03547698983894661,-0.01933043115288019,0.06686112087368964
1733860443025643800,4.758643798828125,0.027887557623255996,-0.01820486118905246,0.03533493275344372
1733860443035594800,4.7685947265625,0.021826595350168645,-0.009510609536617995,-0.01341360832452774
1733860443045545000,4.778544921875,0.021771102303266524,0.0001616933677345514,-0.0029191023170948025
1733860443055495700,4.78849560546875,0.025592121896147728,-0.014919117516651748,0.019675006806850432
1733860443065447000,4.798447021484375,0.01565755132641643,-0.02975757101252675,0.04240764761865139
1733860443075396900,4.80839697265625,-0.0001245396951213479,-0.030203488149121403,0.045672202372550964
1733860443085347600,4.81834765625,-0.003850830209255218,-0.02520085755623877,0.054769116541743275
1733860443095297800,4.8282978515625,-0.015211013135313986,-0.02381342178583145,0.07734569000899791
1733860443105248800,4.838248779296875,-0.019379220464359966,-0.03236285814009607,0.12836919028162955
1733860443115199700,4.84819970703125,-0.030234979265928268,-0.04784304360561072,0.15654197632074354
1733860443125149700,4.858149658203125,-0.022988076877593994,-0.032850714722275735,0.1795230389356613
1733860443135101000,4.868100830078125,-0.015157803377043455,-0.04374941761642694,0.16124796205461026
1733860443145051000,4.87805078125,0.00527940170764923,-0.05779124084189534,0.1280395199358463
1733860443155001600,4.888001708984375,0.02008009874271229,-0.027845088454708455,0.07346212657392025
1733860443164951800,4.897951904296875,0.016628496984113006,-0.04374781018123031,0.012166238611936568
1733860443174902800,4.90790283203125,0.018646266547311097,-0.04553622796796262,-0.017458499801158905
1733860443184853800,4.917853759765625,0.02040624369084835,-0.026712942619621753,-0.03815934252440929
1733860443194803700,4.9278037109375,0.02898466867757961,0.000021554244682192802,-0.03809738320410251
1733860443204754700,4.937754638671875,0.07463876913785934,0.012617635641247033,-0.017112462842464447
1733860443214704600,4.94770458984375,0.05444121802793815,0.010217442631721496,-0.004682604858279228
1733860443224655600,4.957655517578125,0.02418457491947338,-0.014607202023267745,0.006995557975769042
1733860443234606600,4.967606689453125,-0.0032639702320098876,-0.01081263204589486,0.01163023203909397
1733860443244556500,4.977556640625,-0.014244798451662063,-0.005714285993576049,0.03541968842744827
1733860443254507500,4.987507568359375,-0.02481295421719551,-0.017721315455809235,0.061460138612985604
1733860443264457500,4.99745751953125,-0.014217325922846793,-0.04260433923453092,0.10576280619800091
1733860443274408700,5.00740869140625,0.004125555497407913,-0.04986132462546229,0.13631225824058055
1733860443284359700,5.017359619140625,0.019341244807839393,-0.04378375827744603,0.13110884437859058
1733860443294309600,5.0273095703125,0.02128887174427509,-0.03121777975820005,0.10406593915224074
1733860443304260600,5.037260498046875,0.008028408154845238,-0.019123291208222506,0.06459960568249225
1733860443314210600,5.04721044921875,0.0001835398733615875,-0.01951777041852474,0.03649754679203033
1733860443324161500,5.05716162109375,-0.005938742399215698,-0.00962576034888625,0.025604396855831144
1733860443334112800,5.06711279296875,-0.006765256351232528,-0.014894932923465967,0.044482115805149075
1733860443344062500,5.0770625,0.015931728625297546,-0.029656594856083393,0.051396425238251685
1733860443354013700,5.087013671875,0.020786164652835577,-0.03669876845255494,0.04095569524466991
1733860443363963600,5.096963623046875,0.020008202550280837,-0.014684139716997741,0.025258359897136685
1733860443373914400,5.106914306640625,0.024454057776927947,-0.008040025527402758,0.017906243568658827
1733860443383864600,5.116864501953125,0.010073668513167648,-0.02913184032961726,0.03689326811134815
1733860443393815600,5.126815673828125,0.027771237767208367,-0.02185775767341256,0.0581318709731102
1733860443403766500,5.1367666015625,0.01607846188591793,-0.021440335978940128,0.07997311590313912
1733860443413716500,5.146716552734375,0.010517868616711348,-0.019947101746499538,0.07355389651060104
1733860443423667700,5.156667724609375,0.0026624972075223923,-0.01381583244986832,0.052635027122497555
1733860443433617700,5.16661767578125,0.0061895022898912425,-0.019573080802336332,0.03068096946775913
1733860443443568400,5.176568359375,0.025973211901914327,-0.03159355426803231,0.023240005812048912
1733860443453519600,5.18651953125,0.0211643868480809,-0.015303952115774153,0.010115151301026344
1733860443463469600,5.196469482421875,0.031799744364619256,-0.020674027781561015,0.017634440889954566
1733860443473420500,5.206420654296875,0.016852953389752654,-0.01310205815732479,0.013318331256508827
1733860443483370500,5.21637060546875,0.009120897832978517,-0.019355711724609134,0.014212649747729301
1733860443493321700,5.22632177734375,0.0411895222668536,-0.028913156077638266,0.03277238878905773
1733860443503272400,5.2362724609375,0.01607320118891075,-0.023478198482096195,0.038759646505117415
1733860443513222700,5.24622265625,0.006384750867355614,-0.004523103447631001,0.07258125208616256
1733860443523173600,5.256173583984375,0.004037292692065239,-0.010723565522953867,0.08605681973099708
1733860443533123600,5.26612353515625,-0.006909614991676062,-0.03829217512384057,0.08052548908889293
1733860443543074600,5.276074462890625,-0.00443533383263275,-0.05825323233045637,0.09072013536691666
1733860443553025500,5.286025634765625,0.001000116953253746,-0.042673605078458784,0.07922258979678154
1733860443562975700,5.295975830078125,-0.004785462444555014,-0.027915084950998426,0.0834504366248846
1733860443572926500,5.305926513671875,0.024012195760942993,-0.028674378885701297,0.0852846663147211
1733860443582876700,5.315876708984375,0.030689171040523794,-0.026868717703223226,0.06270517023801803
1733860443592827600,5.32582763671875,0.01908524248646572,-0.03260390035435557,0.053882396835088726
1733860443602777600,5.335777587890625,0.0082371007357724,-0.022111220977827906,0.05554010091423988
1733860443612728600,5.345728515625,0.00019875570880249142,-0.018059461368992922,0.041805590072274204
1733860443622679600,5.355679443359375,-0.020353033932577817,-0.01467500656247139,0.042000820383429525
1733860443632629800,5.365629638671875,-0.0021329203754663468,-0.02204341643862426,0.026335633739829063
1733860443642580500,5.37558056640625,0.005447141223680228,-0.002588993579894304,0.03145020027458668
1733860443652530700,5.38553076171875,0.017684143516886977,-0.013104103983938693,0.043593642532825466
1733860443662481700,5.395481689453125,0.027932565808761863,-0.04164104716032743,0.04599018228054046
1733860443672432600,5.4054326171875,0.0015074819535017012,-0.02328252977952361,0.06230886439681053
1733860443682382600,5.415382568359375,-0.00462179631544277,-0.02866648784019053,0.07877075437605381
1733860443692333800,5.425333740234375,0.009006897798180579,-0.02955613015629351,0.10108955368995666
1733860443702283500,5.435283447265625,0.008263988742697983,-0.02894260136783123,0.10485621274709701
1733860443712234500,5.445234375,0.012011358577478676,-0.029624811478331684,0.07228606853187083
1733860443722185700,5.455185791015625,0.014418419719208032,-0.010992810918390751,0.04690262095034122
1733860443732135400,5.465135498046875,0.01704526109145954,-0.018205372645705938,0.018229484173655507
1733860443742086700,5.475086669921875,0.007331091806758195,-0.016311448657885193,-0.005666939720511436
1733860443752036600,5.48503662109375,0.0014887955193407833,-0.00019764146395027636,0.007971125009655952
1733860443761987600,5.494987548828125,0.021612130615580826,0.004447188667207956,0.03297463336288929
1733860443771937500,5.5049375,0.03313539514886215,-0.01741831392124295,0.03896539821028709
1733860443781888500,5.514888427734375,0.029235446834564208,-0.030709611040353774,0.05242810637354851
1733860443791839500,5.524839599609375,0.011883330017328261,-0.03563647298328578,0.06469663631618022
1733860443801789400,5.53478955078125,-0.008812252008914946,-0.03156082104220986,0.059603697091341015
1733860443811740700,5.54474072265625,-0.0018277999490499495,-0.029189927192404864,0.07470832724273205
1733860443821690600,5.554690673828125,0.007072714865207672,-0.01665397848524153,0.07231704819202422
1733860443831641600,5.5646416015625,0.03188800716996193,-0.017907777938619255,0.05691664996445179
1733860443841592600,5.574592529296875,0.01673429544614628,-0.03526625143140554,0.06051145958602428
1733860443851542500,5.58454248046875,0.016666472640633583,-0.02422200258672237,0.04120937774479389
1733860443861493500,5.594493408203125,0.004470423412322998,-0.017148776264861224,0.0340372941583395
1733860443871443500,5.604443359375,-0.002747252881526947,-0.02761032985076308,0.049157706400752066
1733860443881394700,5.614394775390625,-0.006818447843194008,-0.017080533334240318,0.06067571023702621
1733860443891345400,5.624345458984375,-0.0021101240217685697,-0.02087079246267676,0.05408171879947185
1733860443901295600,5.634295654296875,0.004654529541265219,-0.028755846624076365,0.0664881959080696
1733860443911246600,5.64424658203125,-0.003625807548034936,-0.031088673485815524,0.05992635317444801
1733860443921196800,5.65419677734375,0.004650492686964571,-0.028258637691661714,0.05187456414401531
1733860443931147500,5.6641474609375,0.01772328821718693,-0.0097739366479218,0.052046413579583166
1733860443941098800,5.6740986328125,0.009575053074955939,-0.023937998013570903,0.06493219863772393
1733860443951048700,5.684048583984375,-0.0034890111595392223,-0.013521306482702493,0.04416705850660801
1733860443960999400,5.69399951171875,-0.0068026657521724695,-0.014051394771412014,0.06259235751330852
1733860443970949600,5.70394970703125,0.006640186933148652,-0.032522797942161556,0.07967676330506801
1733860443980900600,5.713900634765625,0.02017596033262089,-0.03622384441718459,0.08627017022073269
1733860443990850600,5.7238505859375,0.017386621875036506,-0.02708374869339168,0.05245265629291534
1733860444000801500,5.733801513671875,0.009611311698425561,-0.017146365112066266,0.03701543318629265
1733860444010752800,5.743752685546875,0.011740706676244736,-0.017496128397807478,0.05088847571611404
1733860444020702700,5.75370263671875,0.02410042203366756,-0.025862097943946716,0.057010757988691325
1733860444030653400,5.7636533203125,0.017971710020303726,-0.036261838340014216,0.05894260283410549
1733860444040603600,5.773603759765625,0.021883312239777297,-0.021955592024698854,0.03439209894537926
1733860444050554600,5.7835546875,0.007117138528823852,-0.002707140066847205,0.00971533832848072
1733860444060505600,5.793505615234375,-0.006059738430380821,0.0005951894141733646,0.004196282646059989
1733860444070455600,5.80345556640625,0.010388716678554191,-0.007523015915974974,0.041648353683948515
1733860444080406800,5.81340673828125,-0.0035772739648818968,0.0010850918229669331,0.10423837310969829
1733860444090356500,5.8233564453125,0.014577985061937943,-0.014433891282975673,0.08888006045818328
1733860444100307500,5.833307373046875,0.02427051790356636,-0.02064779736176133,0.061550154983997345
1733860444110258700,5.8432587890625,0.013747954845428467,-0.028895035899057984,0.04871697689592838
1733860444120208400,5.85320849609375,0.01004383963048458,-0.02760309639237821,0.02613222012221813
1733860444130159600,5.86315966796875,-0.013407178583741188,-0.04674574988819658,0.00888181011378765
1733860444140109600,5.873109619140625,-0.017031798821687698,-0.048370939937233924,0.039489714345335956
1733860444150060500,5.883060546875,-0.009424830949306488,-0.03582673485837876,0.0605061988890171
1733860444160011500,5.893011474609375,0.014392097967863083,-0.026745895041152833,0.06820785930752754
1733860444169961700,5.902961669921875,0.00875144346607849,-0.015359920086711644,0.08939093258976936
1733860444179912400,5.912912353515625,0.012428113551670684,-0.007749664278700948,0.06361643986403942
1733860444189862400,5.9228623046875,0.02502516306261532,-0.001316781686991453,0.0499883120059967
1733860444199813600,5.932813720703125,0.0040104320846032345,0.006566153582558036,0.01872048256099224
1733860444209763800,5.942763916015625,0.010792045915592461,0.013583704194426536,0.004672083464264869
1733860444219714600,5.952714599609375,0.019982483587134628,-0.01782214548178017,0.01381751295030117
1733860444229665800,5.962665771484375,0.024990046083461493,-0.031090427051484584,0.051831309524178505
1733860444239615700,5.97261572265625,0.01293720471812412,-0.036597792296111584,0.10255261197984218
1733860444249566700,5.982566650390625,0.015104630151391029,-0.03992737511023879,0.1145119298428297
1733860444259516700,5.9925166015625,0.025862180142337456,-0.039344606786221266,0.10536123965978622
1733860444269468000,6.002468017578125,0.008493687579035758,-0.02255553067922592,0.06565875934660434
1733860444279418600,6.012418701171875,0.008050035464763641,-0.006394961734116077,0.038518823486566545
1733860444289368600,6.02236865234375,-0.00582419437514618,-0.015566183248534798,0.011233926197886466
1733860444299319800,6.03231982421875,0.00641921939253807,-0.0036211131066083905,-0.0034498481929302214
1733860444309269800,6.042269775390625,0.009380991807579994,-0.003922653336450458,0.026461305946111676
1733860444319220700,6.052220703125,0.007249222209583968,-0.013596417545527218,0.04095160359144211
1733860444329171700,6.062171630859375,0.03384208211349323,-0.008055661487951874,0.0766881028831005
1733860444339122000,6.072121826171875,0.01747370650344528,-0.014021218828856943,0.08730185135602951
1733860444349072600,6.08207275390625,0.008515908543998375,-0.021103797500953078,0.05288403344750404
1733860444359022800,6.09202294921875,0.022876460596127433,-0.015812924551218747,0.040029228049516676
1733860444368973800,6.101973876953125,0.019477420141827313,-0.018674524527415633,0.031954058143496514
1733860444378924800,6.1119248046875,0.028496611166000364,-0.0058761254917830226,0.017300094369053838
1733860444388874800,6.121874755859375,0.011028759014606475,-0.004794906126335263,0.024191022926568984
1733860444398825700,6.13182568359375,0.01461655437350273,-0.0166503982886672,0.04632803593277931
1733860444408775700,6.141775634765625,0.008283825954329221,-0.034475466379895806,0.09105097475647926
1733860444418726700,6.1517265625,0.010050278504425659,-0.05999174656085669,0.12843816386461257
1733860444428678000,6.161677978515625,-0.007055170075362548,-0.0504804063718766,0.14098609527051448
1733860444438627800,6.1716279296875,0.0013403178262058645,-0.028617314936220644,0.1415788004666567
1733860444448578800,6.181578857421875,0.00955754481772892,-0.014584624865278601,0.077690557923913
1733860444458528800,6.19152880859375,0.02435470732199028,-0.02769808119945228,0.034597266128659244
1733860444468479700,6.201479736328125,0.020293449232447892,-0.041235900425538416,-0.007028291201591492
1733860444478429700,6.2114296875,0.024247155294287948,-0.028735461423173545,-0.004364040428400039
1733860444488380700,6.221380615234375,0.02656828258507885,-0.010834551616758108,0.0014355857610702514
1733860444498332000,6.231331787109375,0.008707640856970102,0.010221095893532038,-0.0023223054677248
1733860444508281600,6.241281494140625,0.028773090019822117,0.019996128519997,0.0036450785040855406
1733860444518232800,6.25123291015625,0.020849895805120467,-0.011887129409611225,0.03475274895131588
1733860444528182800,6.261182861328125,0.011115277387434615,-0.01444331669844687,0.05776069957315921
1733860444538133800,6.2711337890625,0.005395730696851387,-0.02133577962592244,0.06338321563005447
1733860444548084700,6.281084716796875,0.0008434468205086886,-0.036076033444330094,0.07064882271885871
1733860444558034700,6.29103466796875,-0.000008767828345298767,-0.04059555669538677,0.09302432065606117
1733860444567985700,6.300985595703125,-0.006979775884747505,-0.032131971993669864,0.11362170300483702
1733860444577935600,6.310935546875,0.013240005323290824,-0.023460589760169386,0.10102759436964988
1733860444587886800,6.320886962890625,0.0010632270510308444,-0.036669323162361975,0.10475041428506374
1733860444597837600,6.330837646484375,0.01616671555810608,-0.022959581435471773,0.09427870463132858
1733860444607787800,6.340787841796875,0.014806533120805397,-0.024002806878089904,0.056145665591955184
1733860444617738800,6.35073876953125,0.026859374486142767,-0.009721402743086218,0.04255728522241115
1733860444627688700,6.360688720703125,0.012812144433194771,-0.02666917654313147,0.025691490617394445
1733860444637639700,6.3706396484375,0.019592607486713678,-0.016258622492104767,0.019441782572865485
1733860444647590700,6.380590576171875,0.013094441106449813,-0.020996318538486956,0.02470540218949318
1733860444657540900,6.390540771484375,0.01911150943888351,-0.020225918687880037,0.04296528150141239
1733860444667491600,6.40049169921875,0.01832418585293926,-0.019526245985925197,0.05373451279699802
1733860444677441800,6.41044189453125,0.019953823748230935,-0.024451208232715724,0.059413727477192875
1733860444687392800,6.420392822265625,-0.001700940432678908,-0.01761347116716206,0.07272387542724609
1733860444697342700,6.4303427734375,0.003438760543335229,-0.02327463873401284,0.08198913190066814
1733860444707293700,6.440293701171875,0.01116262366049923,-0.01582804905511439,0.059386839470267294
1733860444717245000,6.450244873046875,0.00746260009878315,-0.008260536410287022,0.04921557406783104
1733860444727195000,6.46019482421875,0.021959921139944345,-0.02545753573104739,0.04460428088009357
1733860444737145600,6.4701455078125,0.021337971583008764,-0.023473814567923544,0.07262275314033032
1733860444747095800,6.480095703125,0.0037613983601331707,-0.04374291481040418,0.07416004571020603
1733860444757046800,6.490046875,0.019894211648637427,-0.026923370499908922,0.05818623150885105
1733860444766997800,6.499997802734375,0.03293196326494217,-0.004278261841088533,0.045805473363399504
1733860444776947700,6.50994775390625,0.02178396178483963,-0.002748056599125266,0.016039280652999876
1733860444786899000,6.51989892578125,0.02375088707678951,-0.008201061308011412,-0.008506547060608863
1733860444796849000,6.529848876953125,0.0067430262531153855,-0.014971359160542487,0.0023977087914943693
1733860444806799600,6.539799560546875,0.006835398977994918,-0.018670725135132668,0.03887012114226818
1733860444816750800,6.549750732421875,-0.005301604406302795,-0.024936215270683168,0.07145370936095714
1733860444826700800,6.55970068359375,0.00837501136912033,-0.0324434490956366,0.10748305411934853
1733860444836651800,6.56965185546875,0.0024199206233024594,-0.03559862519092857,0.11688801132440567
1733860444846601700,6.579601806640625,0.002673027734691277,-0.031051337150111793,0.10432312878370284
1733860444856553000,6.589552978515625,0.016450199541449547,-0.015880875220894812,0.06318097105622292
1733860444866503700,6.599503662109375,-0.0035901334464550016,-0.02030855547003448,0.04210954145491123
1733860444876453600,6.60945361328125,0.01130290891402401,-0.021562501053884624,0.017765958315134046
1733860444886404900,6.61940478515625,0.020568749909335746,-0.013922069303318857,0.041461891201138495
1733860444896354600,6.6293544921875,-0.0016763996464665978,-0.0007864011373370886,0.06337035614848137
1733860444906305800,6.639305908203125,0.011040458585554733,-0.0018606793053448198,0.056260231882333755
1733860444916256800,6.6492568359375,0.02150456032156944,-0.004835165071487427,0.03388648751080036
1733860444926206700,6.659206787109375,0.02354629528224468,-0.01745835367068648,0.03933364700078964
1733860444936157700,6.66915771484375,0.02300443435735069,-0.008680515388026833,0.04759294130206108
1733860444946108000,6.67910791015625,0.014617138895392416,-0.04174516512192786,0.0625759909003973
1733860444956058600,6.68905859375,-0.0038923221302684394,-0.034563290793821214,0.0670680416226387
1733860444966008600,6.699008544921875,-0.0063613425923045724,-0.027363296287134287,0.05807984852492809
1733860444975959800,6.708959716796875,-0.007756002687942236,-0.014333499648422001,0.029790158107876778
1733860444985910500,6.71891064453125,0.024036124625802038,-0.019257950438559053,0.04581248762607574
1733860444995860700,6.72886083984375,0.033485514627629887,-0.019907719584181905,0.028343466430902478
1733860445005811700,6.738811767578125,0.034959660567110404,0.015162643948942421,-0.00030979660153388974
1733860445015762000,6.748761962890625,0.017174413029616697,0.04471417099535465,-0.0166875154286623
1733860445025712600,6.758712646484375,0.020480468837684018,0.022149141835421323,-0.04007131362557411
1733860445035664000,6.768663818359375,0.035620188568765296,0.0108952688280493,-0.0212754277408123
1733860445045613800,6.77861376953125,0.0445247859030962,-0.007809139380976557,0.016349661776423455
1733860445055564500,6.788564453125,0.024414310288429258,-0.02431589141525328,0.06158347273170948
1733860445065514800,6.7985146484375,0.01406943275160156,-0.028065014815703032,0.11564064161181449
1733860445075465700,6.8084658203125,0.02998539755218662,-0.05393807254508137,0.15850129369497298
1733860445085416700,6.818416748046875,0.009524802458751947,-0.06679689653106033,0.1780114653289318
1733860445095366700,6.82836669921875,-0.0013707038313150405,-0.05072122939042747,0.15726970607340335
1733860445105318000,6.83831787109375,0.0006534954726696014,-0.026097879461199045,0.11096154388487338
1733860445115267800,6.848267822265625,-0.019980730021465568,-0.020621420811489224,0.057176762205362316
1733860445125218600,6.858218505859375,0.015163648595940321,-0.03340250338613987,0.039758594414591786
1733860445135169800,6.868169677734375,0.015533066430222241,-0.040981779533997176,0.06301438231766224
1733860445145119700,6.87811962890625,-0.0006955993150360882,-0.043225832133740184,0.06979308267235755
1733860445155070700,6.88807080078125,-0.016214052698016165,-0.03252148276790976,0.07372340785861015
1733860445165020700,6.898020751953125,-0.0011865794360637664,-0.03237557149119675,0.0706318715840578
1733860445174972000,6.907971923828125,0.003134800027543679,-0.023456278911232947,0.04852057754099369
1733860445184922600,6.917922607421875,0.015917700099945066,-0.023791794475913047,0.04119768730700016
1733860445194872800,6.927872802734375,0.012099603116512299,-0.02000241213031113,0.0245867442458868
1733860445204823600,6.937823486328125,0.016805013461643828,-0.002197290848568082,0.005285246926546096
1733860445214773500,6.9477734375,0.03561200526230968,-0.0012955927684903145,-0.018214286604523656
1733860445224724500,6.957724365234375,0.04095160359144211,-0.0033407617952674624,-0.023923896422982215
1733860445234674400,6.96767431640625,0.03389116368591785,0.005844634374976158,-0.023504209706187246
1733860445244625700,6.977625732421875,0.028821029947930944,-0.003366115432232618,0.019563363125920295
1733860445254576400,6.987576416015625,0.029378663830691945,-0.006688537853211164,0.08435060033500194
1733860445264526600,6.997526611328125,0.012222361846501007,-0.009687281277775763,0.10817162090539932
1733860445274477600,7.0074775390625,0.024399103586142883,-0.019623788076266645,0.10883914490342139
1733860445284427500,7.017427490234375,0.03244622557461262,-0.005417421938851475,0.12794774999916553
1733860445294378500,7.02737841796875,0.03944529068171978,-0.009782266084849833,0.12283727511763572
1733860445304329500,7.03732958984375,0.030640646590525282,-0.017660890505462885,0.07134265020191669
1733860445314279700,7.04727978515625,0.010906603072816505,-0.007545446943491697,0.03524491638243198
1733860445324230400,7.05723046875,-0.004804769933223724,-0.021250877821445465,0.01799509089589119
1733860445334180600,7.0671806640625,-0.016738962488109244,-0.019634528665989637,0.020786767441034314
1733860445344131600,7.077131591796875,-0.01287292557656765,-0.03024148207195103,0.03941664910912514
1733860445354082600,7.08708251953125,-0.021739547254377975,-0.04069375637285411,0.06656359923183917
1733860445364032500,7.097032470703125,0.014697227527434005,-0.05462115943841636,0.11315291644930839
1733860445373983500,7.1069833984375,0.011245607502525672,-0.061942880628630514,0.13609949227273463
1733860445383933400,7.116933349609375,-0.02393557772762142,-0.05308255169428885,0.1322585989356041
1733860445393884400,7.126884521484375,-0.003031905908649787,-0.05153875631839037,0.10177928951978683
1733860445403835600,7.136835693359375,0.0028647417813539504,-0.04207008622735738,0.08313011862933635
1733860445413785300,7.146785400390625,0.010731228239601478,-0.052110126465559,0.07781623013019562
1733860445423736600,7.156736572265625,0.025686239053541792,-0.04912183136977255,0.06665127751529216
1733860445433686500,7.1666865234375,0.02619359492063522,-0.018045944300293923,0.043488428592681885
1733860445443637500,7.176637451171875,0.04374502456909977,0.010506196445226669,-0.007681202152371406
1733860445453588500,7.18658837890625,0.04737258568280376,0.006836494956538081,-0.07130348723530769
1733860445463538400,7.196538330078125,0.03930033838623203,0.009721183547377586,-0.08692366569340229
1733860445473489400,7.206489501953125,0.032216517605120315,0.011921543135866523,-0.09735328977108001
1733860445483439400,7.216439453125,0.030032159303361547,-0.011681962226331234,-0.05842822357118129
1733860445493390600,7.226390625,0.03236965320706367,-0.012790142663940787,-0.011582885766029357
1733860445503340500,7.236340576171875,0.026274852596456184,-0.010643997480720282,0.059680853980779644
1733860445513291500,7.24629150390625,0.03736031023436226,-0.006372896032780409,0.08458966978788375
1733860445523242500,7.256242431640625,0.03783612018572166,-0.008418284255266188,0.08168985669314861
1733860445533192400,7.2661923828125,0.02780160550600849,0.0004313040893524885,0.07385960145890712
1733860445543143400,7.276143310546875,0.019473931276798247,-0.007334069215133786,0.052421676632761954
1733860445553093400,7.28609326171875,-0.004547571168607101,-0.02098250920884311,0.03679682199954987
1733860445563044600,7.296044677734375,0.006699799032742157,-0.026426599958911536,0.03402677276432514
1733860445572995300,7.305995361328125,0.007827917146682739,-0.03314845555983484,0.06597323212325573
1733860445582945500,7.315945556640625,-0.007405298687284812,-0.04558868880756199,0.1178144785195589
1733860445592896500,7.325896484375,0.0020446575701236723,-0.03584975040778517,0.14170155006349086
1733860445602846500,7.335846435546875,0.0063590227710548786,-0.03546813067905605,0.1578337696969509
1733860445612797400,7.34579736328125,0.014458733463287353,-0.03725092244260013,0.14869067829847335
1733860445622748700,7.355748779296875,0.000364750792318955,-0.03805310567095876,0.12279986571669578
1733860445632698600,7.36569873046875,-0.007210086642438545,-0.031850305508077145,0.06056172846853733
1733860445642649300,7.3756494140625,0.003601239362359047,-0.018863252032548187,0.02345218725800514
1733860445652599600,7.385599609375,-0.015642965678637846,-0.014079524887353182,0.008638649007678032
1733860445662550500,7.395550537109375,-0.006109413657849654,-0.014996566667035222,0.026908465191721916
1733860445672501500,7.40550146484375,0.02397885061376728,-0.023311390547826886,0.03379705566167831
1733860445682451500,7.415451416015625,0.037197210360830645,-0.006275719268620014,0.026485855865478514
1733860445692402700,7.425402587890625,0.020350714111328123,-0.005005772398039698,0.0037806875824928283
1733860445702352600,7.4353525390625,0.016113505799835545,-0.005323898436501622,0.004402618873119354
1733860445712303400,7.445303466796875,-0.010737667113542557,-0.005735913303494453,0.018030162209272383
1733860445722254600,7.455254638671875,-0.004620051882928237,-0.002406111293658614,0.07417056710422039
1733860445732204500,7.46520458984375,0.03777415173226036,-0.014042773073539136,0.08857903168499469
1733860445742155500,7.475155517578125,0.027148119166493415,-0.022244272772967814,0.09615034372210501
1733860445752105500,7.48510546875,0.03678804503805004,-0.024169103355705737,0.08473287765085696
1733860445762056700,7.495056640625,0.02559679807126522,-0.025989085324481128,0.04741290856003761
1733860445772007400,7.50500732421875,0.010384615892171859,-0.014514920629933476,0.01068739823102951
1733860445781957400,7.514957275390625,0.008198504024744034,-0.03527311956360936,0.009387421548366547
1733860445791908600,7.52490869140625,-0.0005313395308796316,-0.032380393796786665,0.03769932379722595
1733860445801858300,7.5348583984375,0.027346281220251692,-0.03072700056657195,0.08832125753164291
1733860445811809500,7.5448095703125,0.026081951239705085,-0.03692585520669818,0.1564712491720915
1733860445821759500,7.554759521484375,0.01254091714322567,-0.04341675159595906,0.18539339227378368
1733860445831710500,7.56471044921875,-0.0133586632668972,-0.03268522196225822,0.0826093096256256
1733860445841661400,7.574661376953125,-0.01876783796721138,-0.011897943064570426,0.004962590843439102
1733860445851611600,7.584611572265625,0.014211480703949928,-0.010081322096660733,-0.013102642679214477
1733860445861562400,7.594562255859375,0.04308160135746002,-0.00820442230887711,-0.009921090033650397
1733860445871512300,7.60451220703125,0.05109304924434982,-0.013927403065562248,0.019129063361883164
1733860445881463600,7.614463623046875,0.043477898065513,-0.022262027625367043,0.027802783682942388
1733860445891414500,7.62441455078125,0.020578668515151364,-0.02393682896979153,0.03274374721646309
1733860445901364500,7.634364501953125,-0.01688566834926605,-0.004750920854136347,0.06298632526695729
1733860445911315500,7.6443154296875,-0.003359247300028801,-0.01815064678378403,0.11719605436027049
1733860445921265700,7.654265625,0.025052023670077323,-0.0405816012352705,0.13401216460466384
1733860445931216400,7.66421630859375,0.023137723614508283,-0.024765534878894685,0.11552432175576687
1733860445941167600,7.674167724609375,0.007807468013698235,0.000620616116374731,0.07415595405697822
1733860445951117600,7.68411767578125,0.00860123960673809,0.001098828087374568,0.037568975415825843
1733860445961068300,7.694068359375,0.006704456941550597,-0.012577157500386238,0.026573534148931502
1733860445971018500,7.7040185546875,0.011251452721422538,-0.02026610456779599,0.024254151290655133
1733860445980969500,7.713969482421875,0.007328150931000709,-0.036584421357885,0.02579553551375866
1733860445990920400,7.72392041015625,0.020400992126995695,-0.035961321023479105,0.04873568159639835
1733860446000870400,7.733870361328125,0.021551331205898895,-0.03408171782195568,0.06300561448931694
1733860446010821600,7.743821533203125,0.023427637338638303,-0.03410363739281892,0.06277005216777325
1733860446020771600,7.753771484375,0.023052958807349203,-0.030735622264444828,0.05445464376509189
1733860446030722300,7.763722412109375,0.011577031413977965,-0.01837510318942368,0.05392214432358741
1733860446040673500,7.773673583984375,0.004403203395009041,-0.02374795533418655,0.05578969176113605
1733860446050623500,7.78362353515625,-0.0003021978169679642,-0.005937865616381168,0.042376083436608314
1733860446060574500,7.793574462890625,0.007253332129120826,-0.03331621334217488,0.029991818159818648
1733860446070524400,7.8035244140625,0.025022797575592993,-0.04014255223087966,0.03480301783382892
1733860446080475600,7.8134755859375,0.01722936722040176,-0.04071275333426892,0.05083645326793194
1733860446090426400,7.82342626953125,0.01778991457945667,-0.04212722324207425,0.09170505475103854
1733860446100376600,7.83337646484375,0.0005552866620477289,-0.02420285949483514,0.09186521374881267
1733860446110327600,7.84332763671875,-0.0006833060890436172,-0.026384441317617892,0.09785656311810016
1733860446120277500,7.853277587890625,0.010482240180904046,-0.019382015209645033,0.07977613202631473
1733860446130228500,7.863228515625,0.03296704371147789,-0.019784239334985614,0.04194879793524742
1733860446140179500,7.873179443359375,0.04365267924368381,-0.00606054214797914,0.013252280282974243
1733860446150129700,7.883129638671875,0.028111411240696906,-0.004622618299350142,-0.02652618787586689
1733860446160080400,7.893080322265625,0.012366135965054854,-0.003927914033457636,-0.009613631519675253
1733860446170030600,7.903030517578125,0.021114693354303014,-0.009653890464827418,0.01896890436410904
1733860446179981600,7.912981689453125,0.008729249900579453,-0.010919453421235084,0.04126023114919662
1733860446189931500,7.922931640625,-0.01235327648348175,-0.02561820618547499,0.07790683102309703
1733860446199882500,7.932882568359375,0.0038724620857508853,-0.030172508488968013,0.08853285445570945
1733860446209833000,7.9428330078125,-0.003176301081711426,-0.03982720267139375,0.10172142185270786
1733860446219783200,7.952783203125,-0.0010293430477380753,-0.02781111311987042,0.09891688582599162
1733860446229734000,7.96273388671875,-0.003208440652489662,-0.02900748329758644,0.08953823210597038
1733860446239684000,7.97268408203125,0.01441138719022274,-0.03316504136845469,0.0654863253891468
1733860446249635000,7.982635009765625,0.009800098569062539,-0.03338781727366149,0.05071545723676681
1733860446259586000,7.9925859375,-0.006549567773938178,-0.02393602525219321,0.05763678093254566
1733860446269536000,8.002535888671876,0.008138298270106314,-0.02243197736479342,0.09508183770775794
1733860446279487000,8.012487060546874,0.022841946405172345,-0.041667569841071964,0.10977730253636836
1733860446289437000,8.02243701171875,0.014582067582011223,-0.04869871058687567,0.11982990999519824
1733860446299388000,8.032387939453125,0.01657645626962185,-0.04112601031027734,0.10533727426230907
1733860446309339100,8.042339111328126,0.003825124945840798,-0.04413249864988029,0.08230652728676796
1733860446319289000,8.0522890625,0.02494504703111015,-0.026000921892747282,0.039675592306256294
1733860446329240000,8.062239990234374,0.027304775599506684,-0.020547113466262815,-0.010285831692814827
1733860446339190000,8.07218994140625,0.008147066098451615,-0.0036676556620746847,-0.024496143352985382
1733860446349141000,8.08214111328125,0.025189979969197883,0.014002367997914551,-0.016710311782360075
1733860446359092000,8.092092041015626,0.033435241178539576,-0.006722513188049197,-0.019546411991119384
1733860446369042000,8.1020419921875,0.03534370971494354,-0.009957622651755808,-0.011164368093013763
1733860446378993200,8.1119931640625,0.014151864037779158,-0.0005292845711112023,0.019057167169451713
1733860446388942800,8.12194287109375,0.0216746607580455,0.0020066636472940444,0.031469489496946335
1733860446398894000,8.13189404296875,0.008777765217423439,-0.019097645310312508,0.03445347374379635
1733860446408844000,8.141843994140626,0.02212006643798668,-0.009964636914432048,0.046998482540249825
1733860446418795000,8.151794921875,0.02826104884445667,-0.0073435676958411925,0.04338672178387642
1733860446428746000,8.16174609375,0.034635250918334345,-0.029861981235072017,0.04679273083508014
1733860446438696000,8.171696044921875,0.020554712250828742,-0.02077288504615426,0.050503275790810584
1733860446448647000,8.18164697265625,0.01778816101378761,-0.01785604775138199,0.056471828806400295
1733860446458596900,8.191596923828126,0.0000853447624715045,-0.04006539534144103,0.08427870414257049
1733860446468548000,8.201548095703124,0.00006487279660068452,-0.025480112889036535,0.0980202292472124
1733860446478498800,8.211498779296875,-0.00001812931173481047,-0.010565452351793646,0.09380641094446182
1733860446488449000,8.221448974609375,0.019568048434192315,-0.01959127404615283,0.07494388956427574
1733860446498400000,8.23139990234375,0.022253921950724904,-0.030138825415074823,0.044105683708190915
1733860446508350000,8.241349853515626,0.022877022285130805,-0.0172870156917721,0.017462591454386712
1733860446518301000,8.251301025390624,0.018309554539388043,-0.010889277478680013,-0.007388941207528114
1733860446528252000,8.261251953125,0.008208431763714179,-0.021109861915558574,0.029709494087100028
1733860446538202000,8.2712021484375,0.008309554050629959,-0.027017405458912253,0.08119885830581187
1733860446548152800,8.28115283203125,0.02255144815915264,-0.015946780063956976,0.12207330500781535
1733860446558103000,8.29110302734375,0.04768704932630062,-0.016628405652567742,0.11520517280399799
1733860446568054000,8.301053955078125,0.018773089531064033,-0.028483167162537574,0.06883505129516124
1733860446578005000,8.3110048828125,0.014922852976853028,-0.040755204236507414,0.03144435505568981
1733860446587955000,8.320954833984375,0.001598658235138282,-0.025330986741930246,0.031000702941417692
1733860446597906200,8.33090625,-0.01847672779983841,-0.043073929507657885,0.04654606259763241
1733860446607856000,8.340856201171874,-0.00566635519862175,-0.041436537564173336,0.036468320697546006
1733860446617806800,8.350806884765625,0.006530278551578521,-0.03132401661165059,0.053453357768058776
1733860446627758000,8.360758056640625,0.03359657378667034,-0.013088102697208523,0.04004734822809696
1733860446637708000,8.3707080078125,0.05674362235195003,-0.010767989186570048,0.03575695755779743
1733860446647659000,8.380658935546874,0.05211888516074978,-0.0010878683019429445,0.005121580797433853
1733860446657609000,8.39060888671875,0.05510813923776149,0.015389073115959762,-0.056337973293662066
1733860446667560200,8.400560302734375,0.05186930344700813,0.0056866673342883586,-0.1015232689321041
1733860446677511000,8.410510986328125,0.02598842773735523,0.028261414170637725,-0.1148643965423107
1733860446687460900,8.4204609375,0.02363749896334484,0.00883658273257315,-0.05878653548955917
1733860446697412000,8.430412109375,0.0159218008863274,-0.003067205550894141,0.023025486278533933
1733860446707362000,8.440362060546875,0.015033884736429899,-0.021549203180894254,0.12519348285496235
1733860446717313000,8.45031298828125,0.0062397529060952365,-0.04963759887218475,0.18356033162772653
1733860446727264000,8.460263916015625,0.003139467069506645,-0.045269539855793114,0.19379414087235927
1733860446737214200,8.470214111328126,0.006518588113784789,-0.04679689555354416,0.20735446419119832
1733860446747165000,8.4801650390625,-0.006941763695608824,-0.04972352358996868,0.19595920995175836
1733860446757115000,8.490114990234375,-0.023135942649375647,-0.04064567944742739,0.193570853510499
1733860446767066000,8.500066162109375,-0.024736381849646567,-0.049403278659656644,0.17878946396410464
1733860446777017000,8.51001708984375,-0.02454290510416031,-0.05202507853060961,0.17018179461658
1733860446786967000,8.519967041015626,-0.0051233526294119655,-0.03860051042065024,0.15126549722254276
1733860446796918000,8.52991796875,0.009048398852348326,-0.02617547474205494,0.10153320580422878
1733860446806868000,8.539867919921875,0.03241816852390766,-0.03091967359445989,0.048209027373790736
1733860446816819000,8.54981884765625,0.03369945877240971,-0.013993088712915778,0.008343465453386305
1733860446826770200,8.559770263671876,0.017418761445814744,-0.01129274371303618,-0.04095978689789772
1733860446836719900,8.569719970703124,0.015102876585721969,-0.004223609044402838,-0.06215455061793327
1733860446846671000,8.579671142578125,0.021754735690355298,0.004936141227930784,-0.04911036012768745
1733860446856621000,8.58962109375,0.012166220345627516,-0.011416735418885946,-0.012139350605010986
1733860446866571800,8.59957177734375,-0.0034299561823718247,-0.018224442672356962,0.03258826439380646
1733860446876522000,8.60952197265625,0.014618874194752425,-0.0444444872085005,0.08254092056453227
1733860446886473000,8.619472900390624,0.02723346849554218,-0.06485029250793159,0.08788812681138515
1733860446896424000,8.629423828125,0.0334381774877198,-0.044302813715487714,0.0764572167366743
1733860446906374000,8.639373779296875,0.005416198096144944,-0.021185922826454043,0.033606501525640486
1733860446916325000,8.6493251953125,0.012134674429893492,-0.0260773481298238,0.031903789260983466
1733860446926275000,8.659275146484376,0.016486439898610115,-0.023991408701241015,0.04457213217616081
1733860446936225800,8.669225830078124,0.019305022716987877,-0.028919366622716186,0.04797814122736454
1733860446946177000,8.679177001953125,0.02646072142422199,-0.0024350451271981,0.03164250797629356
1733860446956127000,8.689126953125,0.027318799558281898,0.012022373161837458,0.01667173333764076
1733860446966078000,8.699077880859376,0.016923644005786626,0.0167550277069211,0.0180208098590374
1733860446976028000,8.70902783203125,0.01002806667261757,-0.006676920480653643,0.0374707757383585
1733860446985979100,8.718979248046875,0.009376900154352188,0.0008348433889448642,0.04314706780910492
1733860446995929900,8.728929931640625,0.015044442663062364,0.0017010317642241716,0.06140343998968601
1733860447005879800,8.7388798828125,0.012973481607902794,-0.021943463195487855,0.06709609867334365
1733860447015831000,8.7488310546875,0.004486790025234222,-0.027439064937084912,0.06889525704979896
1733860447025781000,8.758781005859374,-0.014055413359403609,-0.03668919690661132,0.08312076627910137
1733860447035732000,8.76873193359375,0.004483301160205155,-0.04783654079958796,0.08540157069265841
1733860447045683000,8.778682861328125,0.019275778356194494,-0.041751156471297145,0.09906009368896483
1733860447055633200,8.788633056640625,-0.003440495842695236,-0.03537248828485608,0.08011164759099483
1733860447065583900,8.798583984375,0.00772271233969368,-0.0030361528255045413,0.04095101906955242
1733860447075534000,8.8085341796875,0.012590610637003554,0.008981032704561949,0.03126490683555603
1733860447085485000,8.818485107421875,0.019252415746916083,-0.021408917927369472,0.024261165553331375
1733860447095436000,8.82843603515625,0.01649989303522743,-0.020426336630806327,0.023083938467502594
1733860447105386000,8.838385986328126,0.0019301095460541545,-0.009202493435516953,0.014113865548372267
1733860447115337000,8.8483369140625,-0.006588127952348441,-0.005145984586328267,0.018911036697030065
1733860447125287200,8.858287109375,0.015109324592817573,-0.02472965984791517,0.04495908566713333
1733860447135238000,8.86823779296875,0.02036416724794544,-0.026381226447224616,0.07682721909284591
1733860447145189000,8.878189208984375,0.007225293344724923,-0.03898351838886738,0.10554127240180969
1733860447155139000,8.88813916015625,0.002277863537799567,-0.04129252598360181,0.08637538416087627
1733860447165090000,8.898090087890624,0.009525953236222266,-0.032229441018775104,0.10494213746488093
1733860447175040000,8.9080400390625,-0.0005938742399215698,-0.02046922592446208,0.07847147916853428
1733860447184991000,8.917990966796875,0.018300814110506325,-0.029092019775882362,0.06187222654521465
1733860447194941000,8.92794091796875,0.01763738176571205,-0.026405703301355242,0.04884031101465225
1733860447204892200,8.93789208984375,0.036795068433880807,-0.013515826589986681,0.024869652840495107
1733860447214843400,8.947843505859375,0.020240230341022833,-0.012222498843818902,0.010616086560487747
1733860447224793000,8.95779296875,0.01168399891979061,-0.01159545298665762,0.01806464900076389
1733860447234744300,8.967744384765625,0.011713234147429466,-0.0072059127908200024,0.04017828113138675
1733860447244694300,8.9776943359375,0.025565827544266357,-0.022364026695117355,0.05629588771760463
1733860447254645000,8.98764501953125,0.015040341876680031,-0.013381021229177713,0.054772623673081396
1733860447264596200,8.99759619140625,0.026605682852864264,-0.02163308207206428,0.04233575142621994
1733860447274546200,9.007546142578125,0.03054243777990341,-0.011414616527035832,0.015671616384387015
1733860447284497200,9.0174970703125,0.019393258122866974,-0.023482144004851577,0.01279752225279808
1733860447294447000,9.027447021484376,0.008449839304154739,-0.013132014904171228,0.010216858109831809
1733860447304398300,9.0373984375,-0.001663540164893493,-0.005208747624233364,0.03140753017663955
1733860447314349000,9.04734912109375,0.018728081345558166,-0.014114523135498165,0.06562251898944378
1733860447324299000,9.057299072265625,0.03029284693300724,-0.01842851387709379,0.07665595417916775
1733860447334250200,9.067250244140626,0.010364751281077042,-0.0337254517301917,0.08964403056800364
1733860447344200200,9.0772001953125,0.016810831281077115,-0.020837474714964627,0.07989888162314891
1733860447354151200,9.087151123046874,0.0061252048820257185,-0.01808043109178543,0.07167641220092773
1733860447364102100,9.09710205078125,-0.0033744448691606518,-0.015109452456980943,0.07273907299637794
1733860447374052400,9.10705224609375,-0.01780512128174305,-0.014463921095058322,0.06137362937331199
1733860447384003000,9.117003173828126,-0.0024660978525876997,-0.01797397504262626,0.08966565787792205
1733860447393953300,9.126953369140624,0.008099153569806367,-0.022790435413643718,0.08713993879258632
1733860447403904300,9.136904296875,0.026797406032681464,-0.03115596656836569,0.09193886350691317
1733860447413855200,9.146855224609375,0.02514496265053749,-0.046814212014526124,0.08641805425882339
1733860447423805200,9.15680517578125,0.009934543170267715,-0.0494813123319298,0.06635141778588295
1733860447433756200,9.166756103515626,-0.021961062784260136,-0.03151332863867283,0.050908349460363385
1733860447443706400,9.176706298828124,-0.028578444230556485,-0.01839110447615385,0.025732991671562195
1733860447453657000,9.186656982421875,-0.007343933022022247,-0.024860300490260123,0.05667056624889374
1733860447463608300,9.1966083984375,0.015568165143067017,-0.03734429981447756,0.06995207262635231
1733860447473558300,9.206558349609375,0.0290583458351437,-0.021389482574537395,0.060359483894705766
1733860447483509200,9.21650927734375,0.019607786789536476,-0.017099749491363763,0.030134441500902175
1733860447493459200,9.226459228515624,0.01010111364251934,0.0025057722758501768,-0.0035199908196926113
1733860447503410200,9.23641015625,0.016899687741464,0.015283713045343756,-0.005156067588925361
1733860447513361200,9.246361083984375,0.017570700604515148,0.003975698697939515,0.002326397120952606
1733860447523311000,9.25631103515625,0.028836209250753742,0.003357493734359741,0.02893207997381687
1733860447533262300,9.266262451171874,0.042193118951981884,-0.026152239996939896,0.05358779780268669
1733860447543212300,9.27621240234375,0.01717032137638889,-0.02791822675615549,0.06476794798672199
1733860447553163300,9.286163330078125,0.01725975322551094,-0.014967559768259524,0.07056874321997166
1733860447563114200,9.2961142578125,0.00906419007652439,-0.026191476028785108,0.10150748684108257
1733860447573064200,9.306064208984376,0.021622652009595185,-0.03164060828015208,0.12244739901721477
1733860447583015200,9.31601513671875,0.01617783060716465,-0.025877587774023412,0.10330196904242038
1733860447592965000,9.325965087890625,0.0008522329151630402,-0.02704823898859322,0.0665104077398777
1733860447602916400,9.335916259765625,-0.0012157963973935693,-0.0008900807075202464,0.03077741557955742
1733860447612867000,9.3458671875,0.0034574561106506733,-0.013612930288910864,0.008663198927044868
1733860447622817300,9.3558173828125,0.012548515927791595,-0.031715573212504386,0.01752279720902443
1733860447632768300,9.365768310546875,0.008028992676734924,-0.02893302982188761,0.04582768519520759
1733860447642718200,9.37571826171875,0.01670797369480133,-0.027443594981729984,0.06875321823060512
1733860447652669200,9.385669189453125,0.025471116731828076,-0.024364187536388634,0.06234393571019172
1733860447662619100,9.395619140625,0.020012266804045064,-0.015398060140013693,0.0460626629948616
1733860447672570000,9.405570068359374,0.02755786901116371,-0.018764979289844632,0.038301381343603134
1733860447682521000,9.41552099609375,0.012279635858535766,-0.03583345686011016,0.056415130183100695
1733860447692471300,9.42547119140625,-0.018091527874534948,-0.03214271258339286,0.0555348402172327
1733860447702422000,9.435422119140625,-0.020037401245301588,-0.038758696657046676,0.06900865429639816
1733860447712372200,9.445372314453126,-0.0020574987853877245,-0.04420994780026376,0.0636170243859291
1733860447722323200,9.4553232421875,0.012678864309191703,-0.03940817354172468,0.08486205698847771
1733860447732274200,9.465274169921875,-0.004289806148409844,-0.035772301257401704,0.09834931507110595
1733860447742224100,9.47522412109375,0.011453112773364409,-0.027449878592044112,0.11813012033998965
1733860447752175000,9.485175048828125,0.010776236425107345,-0.02218180199600756,0.07251344754695892
1733860447762125300,9.495125244140626,0.010562904201680793,-0.019701748683303592,0.0231751238822937
1733860447772076000,9.505075927734374,0.0007768387245479971,-0.012953662662580608,0.011548983496427535
1733860447782027300,9.51502734375,0.019449372224276885,-0.01221687282063067,0.0300070157289505
1733860447791977200,9.524977294921875,0.030672795294458044,-0.0017884177867323158,0.03049801411628723
1733860447801928200,9.53492822265625,0.03353751880950294,-0.008157295231521129,0.019154782325029374
1733860447811878100,9.544878173828126,0.05058393981158733,-0.013327829737216234,0.018564999738335607
1733860447821829400,9.554829345703125,0.015051447792584076,-0.016824878072738646,0.04012508963942527
1733860447831780000,9.564780029296875,-0.008854912973707541,-0.022724895896762607,0.05522329005002975
1733860447841730000,9.57472998046875,-0.0071901946318801485,-0.02112454802803695,0.07945406046509743
1733860447851681300,9.584681396484376,-0.017388357174396515,-0.03047602148018777,0.0925958661109209
1733860447861631200,9.59463134765625,0.0010018613857682795,-0.027649785078316926,0.07521919937431812
1733860447871582200,9.604582275390625,0.002270876674586907,-0.04195573913268745,0.07597557069957256
1733860447881533200,9.614533203125,0.017171508686477318,-0.030612434276193378,0.06778291189372539
1733860447891483400,9.6244833984375,-0.007860074983770027,-0.019396847452595827,0.057652563023567194
1733860447901434000,9.63443408203125,-0.012763035461306572,-0.014852335890755056,0.07012918275892734
1733860447911384000,9.644384033203124,-0.010740005201101303,-0.020844342847168445,0.08471183486282825
1733860447921335300,9.654335205078125,0.005176534988218918,-0.03168210933431983,0.0874678555727005
1733860447931286000,9.6642861328125,0.023305481396848335,-0.026190891506895422,0.06581424216926098
1733860447941236200,9.674236328125,0.03195289823287167,-0.02310059734135866,0.034411388167738914
1733860447951187200,9.684187255859374,0.028519416652852667,-0.018512465833500028,-0.0292009600430727
1733860447961137400,9.694137451171875,0.032585332651203495,-0.001561257967352867,-0.03791208976507187
1733860447971088100,9.704088134765625,0.0023626374781131744,0.005171630484238267,-0.008474398356676101
1733860447981039400,9.714039306640625,0.005425532180070877,-0.009109116063639521,0.023663199660182
1733860447990989300,9.7239892578125,0.03189325873381458,-0.018078969787061215,0.06074526834189892
1733860448000940300,9.733940185546874,-0.007314122405648231,-0.029698899627849457,0.09888181451261042
1733860448010890200,9.74389013671875,0.01768060898608528,-0.022721096504479645,0.11130348919034004
1733860448020841200,9.75384130859375,0.008474389223521575,-0.031844460289180275,0.08647475288212299
1733860448030791200,9.763791259765625,-0.009381567196315154,-0.033985271710157396,0.051185997357964516
1733860448040742100,9.7737421875,-0.007996268584067002,-0.04541099415309727,0.043266894796490665
1733860448050693400,9.783693359375,0.013467384338378905,-0.03171250447258353,0.05629939484894275
1733860448060643000,9.79364306640625,0.008230077339941634,-0.029759324578195807,0.06185585993230343
1733860448070594300,9.80359423828125,0.03179682175517082,-0.03576324116811156,0.06470072796940803
1733860448080544300,9.813544189453125,0.03561784134805202,-0.031245909874141213,0.0605149667173624
1733860448090495200,9.8234951171875,0.002601716064149514,-0.023961963411048053,0.06589782879948615
1733860448100446200,9.8334462890625,0.007345695720845833,-0.025236659521982074,0.08025719354152679
1733860448110396200,9.843396240234375,-0.005426692090695724,-0.023598098534718153,0.06662672759592533
1733860448120347100,9.85334716796875,0.000772747071320191,-0.015090309365093707,0.04925473703444004
1733860448130297000,9.863297119140626,0.013655609520012511,-0.010519713513925671,0.04251695321202278
1733860448140248300,9.873248291015624,0.008058218771219252,-0.005965776536613702,0.027857728740572928
1733860448150199300,9.88319921875,0.025922385896975174,-0.01631480965875089,0.03312134835720062
1733860448160149000,9.89314892578125,0.03865267899930477,-0.016727043721452353,0.02642155845761299
1733860448170100200,9.903100341796875,0.03162496318644844,-0.011782573056593536,0.022419337078928948
1733860448180050200,9.91305029296875,0.004717667038505896,-0.011775339598208666,0.04744622630774974
1733860448190001200,9.923001220703124,0.018391387603944168,-0.020337343173101544,0.06932312707304954
1733860448199952100,9.9329521484375,0.01925357565754093,-0.03386705215796828,0.1033095678269863
1733860448209902800,9.94290283203125,0.015046771617466584,-0.025036168513819575,0.10424188024103641
1733860448219853600,9.952853515625,-0.0052110126465559,-0.01196837795227766,0.08333353224694728
1733860448229803800,9.9628037109375,0.002712181568145752,-0.011455094667896628,0.0630249037116766
1733860448239754800,9.972754638671875,0.016959902629256247,-0.019093042200431228,0.05048749369978905
1733860448249705700,9.982705810546875,-0.00713174244291149,-0.033696956288069485,0.053937341892719266
1733860448259655700,9.99265576171875,-0.0007458407980855554,-0.0486192156098783,0.05690788213610649
1733860448269607000,10.00260693359375,-0.01568506038784981,-0.043195656191185115,0.054633507463335985
1733860448279556900,10.012556884765624,-0.01782441963725723,-0.023317747223377226,0.08529226509928703
1733860448289507800,10.0225078125,0.010351298144459724,-0.012859262377396225,0.09156360045373439
1733860448299458800,10.032458740234375,0.033491350713372225,-0.019243994978442786,0.06792553523480892
1733860448309408800,10.04240869140625,0.02457097128801979,-0.013017740874737501,0.014824644166231155
1733860448319359700,10.05235986328125,0.00786357298195362,-0.02352240295000374,-0.001017068088054657
1733860448329309700,10.062309814453124,0.006903778905933722,0.002249970883876085,-0.016709142738580703
1733860448339261000,10.072260986328125,0.012483633998036384,0.0013002689436078072,-0.0034007483541965483
1733860448349211600,10.082211669921875,0.03201368850939907,-0.026984233841672537,0.03428220883011818
1733860448359161900,10.092161865234376,0.04267945943051018,-0.05042063900865614,0.06597147855758667
1733860448369112800,10.10211279296875,0.025450092210108414,-0.031605756162479515,0.07746785508394241
1733860448379062500,10.1120625,0.013190330095821991,-0.012621508098766207,0.09392331532239913
1733860448389013800,10.122013671875,0.013493094168370589,-0.01609028018787503,0.10125263529717922
1733860448398964700,10.13196484375,0.015178864431381224,-0.011999138416722416,0.07716682631075382
1733860448408914700,10.141914794921876,0.0031622725563589483,-0.019065496606379746,0.050694414448738095
1733860448418865700,10.15186572265625,0.004835165071487427,-0.03370440894216299,0.023047698110342026
1733860448428816000,10.16181591796875,-0.003212532305717468,-0.013214578621089457,0.034303836140036584
1733860448438766600,10.1717666015625,0.006196516552567481,-0.010895561088994145,0.04345978702008724
1733860448448717800,10.1817177734375,0.022504686407977714,-0.017115020125731826,0.04393383427262306
1733860448458667800,10.191667724609376,0.016518588602542877,-0.027296953052654862,0.05307692567110062
1733860448468618800,10.20161865234375,0.014631176553899422,-0.01607844361960888,0.06386603071093559
1733860448478568700,10.211568603515625,0.005184709161520004,-0.02331796641908586,0.046534372159838674
1733860448488519700,10.221519775390625,0.022365551931923255,-0.024690277685597537,0.03339548912346363
1733860448498470000,10.231469970703126,0.011032850667834281,-0.022012582908943295,0.022650807747244834
1733860448508420600,10.241420654296874,-0.006883329772949218,-0.02715396438539028,0.037650223958492275
1733860448518371800,10.251371826171875,-0.00191782545321621,-0.013620748269185422,0.047690556457638734
1733860448528321800,10.26132177734375,0.008697685718536376,-0.026975831339508295,0.0559270544052124
1733860448538272800,10.271272705078125,0.010426692335074766,-0.042701369868218896,0.07479016030728816
1733860448548222700,10.28122265625,0.005913023436069489,-0.007999620451778173,0.08541384565234184
1733860448558173700,10.291173583984374,0.0069826984941959375,-0.013117255726456641,0.09349427625536919
1733860448568124700,10.301124755859375,0.0014320877628866582,-0.027817469795420765,0.08076338949799537
1733860448578074600,10.31107470703125,-0.004538227951526642,-0.02186046108715236,0.05127601372897625
1733860448588025900,10.32102587890625,0.013275661158561707,-0.015845438581332562,0.02614624864757061
1733860448597975800,10.330975830078126,0.014085808497667312,-0.018970438734069464,0.04727086974084377
1733860448607926800,10.3409267578125,0.025541862146789208,-0.013390958101302385,0.03653729428052902
1733860448617877800,10.350877685546875,0.024636437739664688,-0.013602335829660295,0.029993571725487708
1733860448627827700,10.36082763671875,0.015115151545405388,-0.007629252769425511,0.018213117560744285
1733860448637778700,10.37077880859375,0.029885444309050217,-0.01070697971433401,0.021821955707669257
1733860448647728600,10.380728759765624,0.020028067161375656,-0.031029198383539913,0.022131752309203147
1733860448657680000,10.390679931640625,0.007346271109580993,-0.026715938294306397,0.051613867381215095
1733860448667630600,10.400630615234375,0.009877844546968117,-0.025755130438134072,0.06837444804608822
1733860448677580800,10.410580810546875,0.00830781875126995,-0.028955606979876754,0.08497486971318721
1733860448687531800,10.42053173828125,0.015281164895230903,-0.02696465235836804,0.07465221314132213
1733860448697481700,10.430481689453124,0.010298691174387932,-0.030217005217820406,0.07600245870649815
1733860448707432700,10.4404326171875,-0.00490354499942623,-0.021309476140886543,0.04441898744106292
1733860448717384000,10.450384033203125,0.0024181670576334,-0.009306173005700111,0.018833879807591436
1733860448727334000,10.460333984375,-0.010586869599157944,-0.00003616729192435741,0.01884732381105423
1733860448737284600,10.47028466796875,0.013660842817556113,-0.014617065830156206,0.033981180056929586
1733860448747234800,10.48023486328125,0.014551087921857834,-0.016559505134820938,0.05915069262683391
1733860448757185800,10.490185791015625,0.010638882914185523,-0.013749343084916472,0.09911562326848507
1733860448767136800,10.50013671875,0.011074351722002029,-0.04047003061957657,0.09583294833600521
1733860448777086700,10.510086669921876,-0.0001397007316350937,-0.04175729395113885,0.09255027340352534
1733860448787038000,10.520037841796874,0.004745139567321166,-0.02796710739918053,0.0735515584230423
1733860448796987600,10.529987548828124,0.018152911806106568,-0.02319039451666176,0.03569441371560097
1733860448806938600,10.539938720703125,0.027426342452829704,-0.022773265083134174,0.02777355758845806
1733860448816889900,10.549889892578125,0.031114693843061102,-0.02098141323029995,-0.0003612345278263092
1733860448826839800,10.55983984375,0.0063350573735777285,-0.0100669282451272,0.0035252515166997907
1733860448836790800,10.569790771484374,-0.0005085340440273285,0.002493716511875391,0.03210135765969753
1733860448846740700,10.57974072265625,0.012556105579202994,-0.027469533140584826,0.057248658397793764
1733860448856691700,10.589691650390625,-0.00788636020249687,-0.02658558991290629,0.08030804694592952
1733860448866642700,10.599642578125,-0.00006546645164489745,-0.028064211098104714,0.10141337881684302
1733860448876592600,10.609592529296876,0.0008440587418619543,-0.02397504208832979,0.09080196843147277
1733860448886544000,10.6195439453125,0.011094800854986533,-0.0055222705528140065,0.06731938603520393
1733860448896493600,10.62949365234375,0.01973228081888519,-0.01828917847163975,0.025132103168964384
1733860448906444800,10.63944482421875,0.022490064227581024,-0.007817614948377013,0.008068740165233611
1733860448916395800,10.649395751953126,0.014034361438220367,-0.00868117297515273,0.0008528174370527267
1733860448926345700,10.659345703125,0.0055418429029639804,-0.01749006398320198,-0.004704816690087319
1733860448936296700,10.669296630859375,0.005571087263757363,-0.01912351040393114,0.028804654201865194
1733860448946247000,10.679246826171875,0.0005710687530692667,-0.015943053736910223,0.06890168679058552
1733860448956197600,10.68919775390625,0.019061852477723733,-0.030098785665631293,0.08908639668524265
1733860448966148900,10.69914892578125,0.017383680999279023,-0.024392463782802222,0.09684767833650111
1733860448976098800,10.709098876953124,0.01635142447524704,-0.040436639806628226,0.0863654472887516
1733860448986049500,10.719049560546875,0.002259186236793175,-0.03492240642979741,0.06975158161818981
1733860448995999700,10.728999755859375,0.013890569053357466,-0.021619418872892857,0.04431201993525028
1733860449005950700,10.73895068359375,-0.002819733595848083,-0.024124460496380923,0.043404257440567015
1733860449015901700,10.748901611328124,-0.014264672195911406,-0.023016937645897267,0.0203343474984169
1733860449025851600,10.7588515625,0.02054067459232174,-0.017746011505648494,0.045609658530354494
1733860449035803000,10.768802978515625,0.02726151641309261,-0.011391089520975946,0.05953413898646831
1733860449045752800,10.7787529296875,0.012243386368220671,-0.008949395457282662,0.06807984901368618
1733860449055703600,10.78870361328125,0.020098785176873205,-0.023135668654739854,0.055390463310480115
1733860449065653800,10.79865380859375,0.02361176173388958,-0.024659151894971726,0.054069443839788435
1733860449075604700,10.808604736328125,0.0035509796130005268,-0.026911533931642768,0.03853577462136745
1733860449085555700,10.8185556640625,0.013939678025245665,-0.007171206803619861,0.04994973356127739
1733860449095505700,10.828505615234375,0.010059630854660644,-0.002050868115201592,0.07201718846261501
1733860449105457000,10.838456787109376,0.011480009913444519,-0.015393164769187569,0.09592764088213443
1733860449115406800,10.84840673828125,0.01873743369579315,-0.0323543095074594,0.0990706150829792
1733860449125357800,10.85835791015625,0.00869652580791153,-0.035453152305632826,0.1116536178022623
1733860449135308800,10.868308837890625,-0.012014262920618057,-0.03052745940648019,0.1148386775791645
1733860449145258800,10.8782587890625,-0.014652785597508773,-0.030555224196240304,0.13553425960540771
1733860449155209700,10.888209716796876,-0.01116728156930767,-0.03955452320985496,0.13332652042806148
1733860449165159700,10.89815966796875,-0.0025543515247758476,-0.0464792079064995,0.09622340895831584
1733860449175111000,10.90811083984375,0.006585214476054534,-0.022845526601746678,0.029611878931522367
1733860449185061600,10.9180615234375,0.026279510505264624,-0.011764745138958095,-0.02937222495675087
1733860449195011800,10.92801171875,0.004542913259798661,-0.0009475830484181642,-0.06788929487764835
1733860449204962800,10.937962890625,0.001089562502107583,0.012602365006878972,-0.052881695359945295
1733860449214912800,10.947912841796875,0.008891760685644111,-0.00017835224159061907,-0.04986322432160377
1733860449224863700,10.95786376953125,0.006039271031087264,-0.008426102235540748,-0.017228782698512076
1733860449234814700,10.967814697265625,0.011548403541115112,0.0021804858442395925,0.0348521176725626
1733860449244765000,10.977764892578126,0.014642857858538626,-0.020718086118996143,0.043235915136337275
1733860449254715600,10.987715576171874,0.017597031489014623,-0.030509193097427487,0.03904138605594635
1733860449264665900,10.997665771484375,0.01622515861392021,-0.03246588012315333,0.0601402881860733
1733860449274616800,11.007616943359375,0.009112696260213852,-0.03327281259186566,0.06628828942179679
1733860449284567800,11.01756787109375,0.01847497423416935,-0.035750381686538456,0.0872667800426483
1733860449294517800,11.027517822265626,-0.005141454541683197,-0.044565410174429415,0.10809446401596069
1733860449304468700,11.03746875,-0.011083110417192801,-0.0312269129127264,0.09224807558655738
1733860449314418700,11.047418701171875,0.013522329396009444,-0.03386339889615774,0.07054185521304607
1733860449324369700,11.05736962890625,0.007305354577302932,-0.017678133901208638,0.04687397937774658
1733860449334321000,11.06732080078125,0.006197694729501381,-0.014042480812594293,0.05342354715168476
1733860449344270600,11.0772705078125,-0.0037801030606031414,-0.011354629968106746,0.06806172883510589
1733860449354221800,11.087221923828125,0.013160519479447975,-0.014905235121771693,0.08345102114677429
1733860449364171800,11.097171875,0.025770410205656662,-0.02432129824273288,0.07460895852148533
1733860449374122800,11.107122802734375,0.029735797572135923,-0.017804609825089572,0.0643055911719799
1733860449384073700,11.11707373046875,0.028881226569414137,-0.024444340100511906,0.060438978871703145
1733860449394023700,11.127023681640624,-0.0023889409631490705,-0.03049881783388555,0.03145312288403511
1733860449403974700,11.136974609375,-0.012303601256012917,-0.023934710077941415,0.009775544083118438
1733860449413924600,11.146924560546875,-0.0032826657993253318,-0.0020024989288300273,0.017721534651517868
1733860449423875800,11.156875732421875,0.010033911891514435,-0.009031374652311205,0.021767010650038717
1733860449433826600,11.16682666015625,0.021993220621347426,-0.02898176433444023,0.05528524937033653
1733860449443776800,11.17677685546875,0.0230617266356945,-0.028248627754300832,0.06769114195704459
1733860449453727700,11.186727783203125,0.01973929508156143,-0.017933862227946518,0.04072422457635402
1733860449463677700,11.196677734375,0.023106150299310683,-0.002653510183468461,0.024666823744773865
1733860449473628700,11.206628662109376,0.010094108512997626,-0.007104059851542115,0.04556815747618675
1733860449483578600,11.21657861328125,0.00672375529706478,-0.01971139329448342,0.06977028631865978
1733860449493529900,11.22652978515625,0.01888940938711166,-0.0313686594709754,0.08560323074460029
1733860449503480600,11.23648046875,0.005316811108589172,-0.03292472980655729,0.08902560640871525
1733860449513430800,11.2464306640625,0.024080539156263694,-0.027727599554881452,0.06164017135500908
1733860449523381800,11.2563818359375,0.02294891391098499,-0.02096665405258536,0.04114449581503868
1733860449533331700,11.266331787109374,0.014817045381665228,-0.003139540134742856,0.025868016228079795
1733860449543282700,11.27628271484375,0.002051671832799911,-0.009104805214703082,0.00310439575612545
1733860449553234000,11.28623388671875,0.005215697954827919,-0.014630363703146576,0.036437925559282304
1733860449563183900,11.296183837890625,0.012453823381662368,-0.02062551246471703,0.05764964041411876
1733860449573134600,11.306134521484376,-0.0013987608820199965,-0.025019509639963505,0.07975625828206538
1733860449583084800,11.316084716796874,0.0059451721400022505,-0.02330642211176455,0.09259878872036933
1733860449593035800,11.326035888671875,0.012009586745500563,-0.03065357000418007,0.09243278450369834
1733860449602986800,11.33598681640625,0.00860650030374527,-0.01916954150274396,0.06295008490979671
1733860449612936700,11.345936767578126,0.000677451736992225,-0.02416070085354149,0.02988894230723381
1733860449622888000,11.355887939453124,0.008891162464022636,-0.01234488311447203,0.025714286971092223
1733860449632838000,11.365837890625,-0.0061871642023324964,-0.020291896596178412,0.04174246170818805
1733860449642788600,11.37578857421875,0.0010772738426923752,-0.030577509093284605,0.06853519156575202
1733860449652739800,11.38573974609375,0.010888473761081695,-0.03429492218121886,0.07780453969240188
1733860449662689800,11.395689697265626,0.017568380783265454,-0.028294074331223964,0.0971007763147354
1733860449672640800,11.405640869140624,0.028415371756488457,-0.01972381438463926,0.08767010014653205
1733860449682590700,11.4155908203125,0.007357377025485039,-0.01990121677815914,0.07241174073815346
1733860449692542000,11.4255419921875,0.0011854103922843931,-0.021796529005467892,0.022428104907274246
1733860449702492700,11.43549267578125,0.006169034890597686,-0.004940598207339644,-0.015150222858786581
1733860449712442600,11.445442626953126,0.013518256009090691,0.0013021686397492885,-0.00005786766707897186
1733860449722393900,11.455393798828124,0.005786784974206239,-0.022100699583813548,0.01069090536236763
1733860449732343600,11.465343505859375,0.00046059411591850216,-0.0234789291344583,0.04987316119372844
1733860449742294800,11.475294677734375,0.016048048481345174,-0.03271320594772696,0.08830138378739356
1733860449752245800,11.485245849609376,0.006652452759677544,-0.028409955795854328,0.0936544352531433
1733860449762195700,11.49519580078125,0.002065124969417229,-0.009770575647056102,0.0798690710067749
1733860449772146700,11.505146728515625,-0.004285714495182037,-0.020569179167598484,0.07476619490981101
1733860449782097000,11.515096923828125,0.012335174571210517,-0.019667992544174194,0.07402092950046062
1733860449792047600,11.525047607421875,0.017744924660259856,-0.03148797500170767,0.03631459144055843
1733860449801998800,11.534998779296876,-0.0006032265901565551,-0.02784012001864612,0.0198462717205286
1733860449811948800,11.54494873046875,-0.0037122893882449715,-0.011525310359895229,0.028809914898872375
1733860449821899800,11.554899658203125,0.02247720474600792,-0.028274712043628095,0.0424245987534523
1733860449831849700,11.564849609375,0.026848268570238722,-0.03720744862705469,0.04781155248880386
1733860449841800700,11.57480078125,0.013888240098953246,-0.03202456609643996,0.06725625767111777
1733860449851751700,11.584751708984374,0.004395604610443115,-0.020533669462800025,0.07802665801048278
1733860449861701600,11.59470166015625,-0.002101347060268745,-0.013632146446034311,0.06843991449773311
1733860449871652900,11.60465283203125,-0.007919102561473846,-0.0145171125870198,0.06963058558702469
1733860449881602800,11.614602783203125,-0.0006768763482570648,-0.01788088993169367,0.07396715348660945
1733860449891553500,11.624553466796876,0.013617031075293197,-0.029715777697414156,0.05750935516059398
1733860449901504800,11.6345048828125,0.00324410562091507,-0.017606164643540978,0.058848494809865946
1733860449911454700,11.644454833984375,0.004532382732629776,-0.020737156145647168,0.04509294117987156
1733860449921405700,11.65440576171875,-0.006650690060853958,-0.02406644669882953,0.0446335069745779
1733860449931355600,11.664355712890625,0.00267419677847065,-0.014616773569211363,0.07006546987295151
1733860449941307000,11.674306884765626,0.015170096603035926,-0.02323978661634028,0.07305413029491901
1733860449951256800,11.6842568359375,0.014941553110745735,-0.023402502897381782,0.03323883725702762
1733860449961207800,11.694207763671875,0.012666589349508284,-0.013220423839986324,0.019910569128394125
1733860449971158800,11.70415869140625,0.018750882265833206,-0.0020686229676008224,0.026355507484078406
1733860449981108700,11.714108642578125,0.019996493846178055,-0.008239493622258304,0.031153263154625892
1733860449991059700,11.724059814453126,0.02128127752628643,-0.009856281169131398,0.013497194954752921
1733860450001009700,11.734009765625,0.011079612419009208,-0.023881737781688568,0.02829845824539661
1733860450010961000,11.7439609375,0.006375964772701263,-0.008928571864962577,0.043407764571905136
1733860450020911600,11.75391162109375,0.0008206687331199646,-0.0042811113853007555,0.093684830391407
1733860450030861800,11.76386181640625,0.009942721910146064,-0.025165932373329994,0.11630232039093971
1733860450040812800,11.773812744140624,0.014010405173897742,-0.028112068827822804,0.13503098625838755
1733860450050762800,11.7837626953125,0.013255202892422675,-0.03900857976488769,0.09555179330706595
1733860450060713700,11.793713623046875,0.0019072949260473251,-0.017416121964156626,0.0527811575949192
1733860450070664700,11.803664794921875,0.011574108804529533,-0.03336735900752246,0.015081833797693251
1733860450080615000,11.813614990234376,0.0059533600130351255,-0.032436580963432785,0.022689970713853834
1733860450090565600,11.823565673828124,-0.017148118677735327,-0.04876739190891385,0.04162380376458168
1733860450100515800,11.833515869140625,-0.013461548252636566,-0.03929097690284252,0.065638885602355
1733860450110466800,11.843466796875,0.007828501668572425,-0.02774272405877709,0.06153846454620361
1733860450120417800,11.853417724609375,0.026489362996816635,-0.01578486750051379,0.03305588190555572
1733860450130367700,11.86336767578125,0.02006078212088905,0.003187763190641999,0.014174071303009987
1733860450140318700,11.873318603515624,0.026212875009840354,0.011148805197700857,0.018189152163267136
1733860450150268700,11.8832685546875,0.011474155561393126,-0.02043744254671037,0.004105097231268883
1733860450160219600,11.8932197265625,0.006658864234155044,-0.012258373874798417,0.012159808871150016
1733860450170171000,11.9031708984375,0.00032207156121730803,-0.021094737411662935,0.04505786986649036
1733860450180120800,11.913120849609374,0.008542787417769431,-0.04199855536110699,0.09816109902262687
1733860450190071800,11.92307177734375,0.017846622335910795,-0.04429704156182706,0.13315291742682456
1733860450200021800,11.933021728515625,0.015282909327745437,-0.04353526340909302,0.10678805759251117
1733860450209972000,11.942971923828125,0.01622048700537998,-0.03180317843072116,0.11948504208028315
