time,seconds_elapsed,z,y,x
1733860066273637600,0.0176376953125,0.03928805429339409,-0.08943579464480281,0.07906359984278678
1733860066283587300,0.02758740234375,0.044185178685188294,-0.09050167031064629,-0.04136544508934021
1733860066293538600,0.03753857421875,0.02125672304034233,-0.10673851936236023,-0.11566752961874008
1733860066303488500,0.047488525390625,0.0249222598105669,-0.08067424990981817,-0.002552607092261314
1733860066313439500,0.057439453125,0.040189971569180485,-0.07414820914193987,0.08640519477725028
1733860066323390500,0.067390380859375,0.04017243591248989,-0.1221397943727672,0.12956804467737673
1733860066333340700,0.077340576171875,0.0633995822429657,-0.13283011521324514,0.09789280347526073
1733860066343291600,0.087291748046875,0.05451368047595024,-0.13909151369556783,0.08330138354301451
1733860066353241300,0.097241455078125,0.05850596498250961,-0.12436989151239394,0.08549217158555984
1733860066363192600,0.107192626953125,0.06356850906908512,-0.13808584378436206,-0.06897650559246539
1733860066373142500,0.117142578125,0.08046411429047584,-0.14477292033284903,-0.09928922626972198
1733860066383093500,0.127093505859375,0.11192892761230468,-0.08884805788472294,0.012775894942879677
1733860066393043500,0.13704345703125,0.1380529644280672,-0.039877398488670585,0.097480131021142
1733860066402994700,0.14699462890625,0.11013853706419467,-0.04310059831887483,0.12843874838650227
1733860066412945400,0.1569453125,0.08562953422963619,-0.11576046859920024,0.09381400972902774
1733860066422895400,0.166895263671875,0.01571194839477539,-0.19036708903312682,-0.008422375908493995
1733860066432846600,0.1768466796875,-0.07324468443095683,-0.21072394062429664,-0.12258242357373236
1733860066442796500,0.186796630859375,-0.04447627058625221,-0.23714491456001996,-0.16734861701726914
1733860066452747500,0.19674755859375,0.015319734206795691,-0.1743652177810669,-0.0858726953357458
1733860066462697500,0.206697509765625,0.07612228569388389,-0.14074731807857752,-0.10183365005552768
1733860066472648700,0.216648681640625,0.09741291100382804,-0.15479498652294277,-0.12411737805604935
1733860066482599400,0.226599365234375,0.009134908092021941,-0.09373597605675459,-0.0774509039491415
1733860066492549600,0.236549560546875,0.034734628772735594,-0.06957914766073227,0.011003624573349953
1733860066502500600,0.24650048828125,0.01800678133368492,-0.06382745226621628,0.07745265751481056
1733860066512450600,0.256450439453125,-0.007065700602531433,-0.1342433430120349,0.10201076018810272
1733860066522401500,0.266401611328125,0.029558102917671202,-0.21928864761292932,0.09271510857641696
1733860066532351500,0.2763515625,-0.004687865555286407,-0.2611452372200787,0.08965981265902519
1733860066542302700,0.286302734375,-0.005097615399956703,-0.3131964731052518,0.0885918911665678
1733860066552253400,0.29625341796875,0.06316226635575294,-0.3846063433244824,0.19921148974597452
1733860066562203600,0.30620361328125,0.11382862375378608,-0.37724209816679355,0.4315086720138788
1733860066572154600,0.316154541015625,0.17503858699798583,-0.3208468417279422,0.6182295134991407
1733860066582104300,0.326104248046875,0.19324469029605387,-0.32570436476171016,0.7288426823377608
1733860066592055600,0.3360556640625,0.03032148850560188,-0.4174668487884104,0.7399789933800697
1733860066602005500,0.346005615234375,-0.14610183084905146,-0.37157033614069224,0.5264227519392967
1733860066611956500,0.35595654296875,-0.010028057539463042,-0.20243790444657206,0.2931125932365656
1733860066621906400,0.365906494140625,0.11634732857644557,-0.15454174241423607,0.2508569213092327
1733860066631857700,0.375857666015625,0.12251929520964622,-0.1389306240454316,0.26362054129242896
1733860066641808400,0.385808349609375,-0.022186112844943998,0.044170711768418545,0.30281156495213507
1733860066651758300,0.39575830078125,-0.15056874713003635,0.1979812172986567,0.4717804766476154
1733860066661709600,0.40570947265625,-0.0277151053994894,0.09866334945634007,0.34749475628733634
1733860066671659500,0.415659423828125,0.9563345101505517,-0.9980250955410301,0.11519757401943206
1733860066681610500,0.425610595703125,2.55005974586606,-2.3936741291508077,0.7433031693667173
1733860066691560400,0.435560546875,2.4896722049206494,-2.9660300724864004,2.315299972876906
1733860066701511700,0.44551171875,-0.13232991060614585,-1.4755610669754444,5.403580460503697
1733860066711462400,0.45546240234375,-0.1298129593491554,-0.1661231668755412,6.783896754294633
1733860066721412600,0.46541259765625,0.23009470378756522,0.4295740506894886,5.325023641139269
1733860066731363600,0.475363525390625,0.720727764943242,0.9555947976991533,1.4611322902590036
1733860066741313500,0.4853134765625,0.5483224490582943,1.0364264301277697,-2.2586738302916287
1733860066751264500,0.495264404296875,-0.7702981437981128,0.7170952536597848,-3.91378964651525
1733860066761214500,0.50521435546875,-1.2432049941271544,0.07749518148228525,-3.8772120202243325
1733860066771165700,0.515165771484375,-1.0218725657269359,0.16935352709889412,-3.4517052189737556
1733860066781115600,0.52511572265625,-0.7013368357747792,0.7508554844424128,-3.036009617641568
1733860066791066600,0.535066650390625,-0.2689350143134594,1.1442585899457334,-2.7578473407775164
1733860066801017600,0.545017578125,-0.08280658576339482,1.095327385777235,-2.3965946927726267
1733860066810967600,0.554967529296875,-0.10912380706369876,0.7178136310622095,-1.964552352273464
1733860066820918500,0.56491845703125,-0.09757307000160216,0.3171282595962286,-1.5094155519127845
1733860066830868500,0.574868408203125,-0.12940671663582323,0.06391381537541747,-1.0303706372201442
1733860066840820200,0.5848203125,-0.13063888877928256,-0.041892683833837506,-0.528387914532423
1733860066850770400,0.5947705078125,-0.06078150869905948,-0.04424728413596749,0.014278116199374198
1733860066860721400,0.604721435546875,0.05608896696865558,-0.04809694530144334,0.47274902941882607
1733860066870672400,0.61467236328125,0.17603198194950817,-0.13411401754394173,0.7910866648048162
1733860066880622300,0.624622314453125,0.2818596700772643,-0.18220745571404695,0.8983101912051439
1733860066890573600,0.634573486328125,0.3375771733850241,-0.23767945982813835,0.8043143951684236
1733860066900523500,0.6445234375,0.3276549143075943,-0.3799441967323422,0.5938637185275555
1733860066910474200,0.65447412109375,0.3083604312509298,-0.4915199269928038,0.42724224674105643
1733860066920424400,0.664424560546875,0.23734657461196182,-0.5042997674584389,0.19750410130620003
1733860066930375400,0.67437548828125,0.16996055308133362,-0.38776393057256936,0.024237200155854222
1733860066940326400,0.684326416015625,0.16514555401504039,-0.2716505568824708,-0.16973112823963163
1733860066950276400,0.6942763671875,0.1443967804968357,-0.19785817544087766,-0.428179235330224
1733860066960227600,0.7042275390625,0.1095385253444314,-0.15546733282655475,-0.632794629946351
1733860066970177500,0.714177490234375,0.03626666064560413,-0.14627324189320207,-0.7057879699647426
1733860066980128500,0.72412841796875,0.019392974995076657,-0.0904665989972651,-0.6279992123633623
1733860066990078500,0.734078369140625,-0.00029459903240203856,-0.020895050121098754,-0.43449440982639786
1733860067000029400,0.744029541015625,-0.015455051024258136,0.027427082238346338,-0.20606383985877036
1733860067009980400,0.75398046875,0.095961104760319,0.0837833218410611,-0.06832768629491329
1733860067019930400,0.763930419921875,0.1973844204492867,0.12680690940096973,-0.07193593991994858
1733860067029881600,0.773881591796875,0.22804259356334805,0.13469605521559713,-0.26384733578562736
1733860067039831300,0.783831298828125,0.23930457681193945,0.09670637016966939,-0.49450551867485043
1733860067049782500,0.793782470703125,0.13479849267676472,0.09290069427639246,-0.621106530240178
1733860067059732500,0.803732421875,-0.01349982530325651,0.13054171201512216,-0.5911410155653953
1733860067069683200,0.81368310546875,-0.16378712514340876,0.15601853696852921,-0.4646089775830507
1733860067079633400,0.82363330078125,-0.1938221979230642,0.17283377043008805,-0.31353052736520765
1733860067089584400,0.83358447265625,-0.1423342950090766,0.17517390381544828,-0.187701669216156
1733860067099535400,0.843535400390625,-0.06820318313241004,0.15665961135104298,-0.11266600971519947
1733860067109485300,0.8534853515625,0.01821077947318554,0.10802519817203282,-0.07951251265406609
1733860067119436500,0.8634365234375,0.07891060123816132,0.0586557487167418,-0.079764441588521
1733860067129386500,0.873386474609375,0.07312807231396436,0.036527795799821614,-0.08127952232658862
1733860067139337200,0.883337158203125,0.0024411095418035984,0.06220350432619452,-0.025979075387120246
1733860067149287400,0.893287353515625,-0.02834989617168903,0.07087649399489164,0.07440846751332282
1733860067159238400,0.90323828125,-0.035604689605534076,0.0656651890873909,0.12034779638946055
1733860067169189400,0.913189453125,-0.013014818265289068,0.06687938718274235,0.17123159593045711
1733860067179139300,0.923139404296875,0.029997663378715515,0.023374299716204402,0.1903203272819519
1733860067189090600,0.933090576171875,0.05975275017321109,-0.04197743950784206,0.16027414858639238
1733860067199040500,0.94304052734375,0.06625277971699833,-0.07856587945371865,0.10208967064321041
1733860067208991500,0.952991455078125,0.04297711806967854,-0.0960638344824314,0.050911856591701506
1733860067218941400,0.96294140625,0.06538666440695524,-0.12034019760489463,0.01073883615732193
1733860067228892400,0.972892333984375,0.05779226375520229,-0.14185469479858875,0.012692892834544181
1733860067238842400,0.98284228515625,0.015079641840606927,-0.14874401592090725,0.07214227614700794
1733860067248793300,0.99279345703125,0.010921937639266252,-0.21496844632625578,0.21084055274128913
1733860067258744600,1.00274462890625,-0.08003302939683199,-0.2598486215382814,0.42469197773635387
1733860067268694500,1.012694580078125,-0.19191183425709604,-0.23368512949496506,0.6292664558202028
1733860067278645500,1.0226455078125,-0.22528452702686189,-0.2175979180470109,0.7481365808725357
1733860067288595500,1.032595458984375,-0.16658377012461423,-0.2287923890173435,0.7927800247192383
1733860067298546400,1.04254638671875,-0.09685001642405987,-0.23348580753058193,0.7546984236061572
1733860067308496400,1.052496337890625,-0.06841872557923197,-0.2175384429447353,0.6509370203584433
1733860067318447400,1.062447265625,-0.11426204673498869,-0.20206848661229013,0.5336129557043313
1733860067328398600,1.072398681640625,-0.1658499028921127,-0.15416823292672632,0.4171873011946678
1733860067338348300,1.082348388671875,-0.19568083140179512,-0.1000933822594583,0.27091420543193817
1733860067348299500,1.092299560546875,-0.17094693377017975,-0.07395020235180855,0.10965279937386511
1733860067358249500,1.10224951171875,-0.11354673807248472,-0.10585092287287115,-0.04546235901415348
1733860067368200200,1.1122001953125,-0.05667290433645248,-0.11690028628408908,-0.17041794146001338
1733860067378150400,1.122150390625,0.01815861089453101,-0.12943097429424524,-0.23837562539875506
1733860067388101400,1.132101318359375,0.11240122129917145,-0.14425444941669702,-0.30161855577528474
1733860067398052400,1.14205224609375,0.1719382828950882,-0.14455796240791677,-0.36892274424135685
1733860067408002300,1.152002197265625,0.20426000530719757,-0.12443857283443212,-0.42164954130053517
1733860067417953500,1.16195361328125,0.22337971631884573,-0.11446049191653727,-0.47676644836664195
1733860067427903500,1.171903564453125,0.1748404340773821,-0.08169833226054907,-0.5086439341425896
1733860067437854500,1.1818544921875,0.11775836441814899,-0.03504237954765558,-0.5360293691962957
1733860067447804400,1.191804443359375,0.10174363368451594,-0.014107728068530558,-0.5115870018571614
1733860067457755400,1.20175537109375,0.13116013617441058,-0.06697305681556463,-0.3781459151387214
1733860067467705600,1.21170556640625,0.1334516081124544,-0.1023326856188476,-0.1943108582228422
1733860067477656300,1.22165625,0.10351590405404568,-0.10528788216263055,-0.10911036306023597
1733860067487607600,1.231607666015625,0.05293181811198592,-0.11355112198665737,-0.03155950586795807
1733860067497557500,1.2415576171875,0.018396657434105873,-0.13022519341185687,0.0672773004591465
1733860067507508500,1.251508544921875,0.041522243086248634,-0.1236040217064321,0.19921032070219516
1733860067517458400,1.26145849609375,0.035249592557549475,-0.11214973075613378,0.287246331551671
1733860067527409400,1.271409423828125,0.02464519643485546,-0.050827685439586635,0.29960546238720415
1733860067537359400,1.281359375,0.029616993498057125,0.007254647303372621,0.2779845822095871
1733860067547310300,1.291310302734375,0.07786839870885014,0.02886632126122713,0.2511620417356491
1733860067557261600,1.301261474609375,0.09719605338275432,0.054415773059427734,0.16260346831679343
1733860067567211300,1.311211181640625,0.09073518680557609,0.05489157387763261,0.03194470579326152
1733860067577162500,1.32116259765625,0.04639394077584147,0.03445537343993783,-0.09236731805205345
1733860067587112400,1.331112548828125,0.022823241704702377,0.0002690261997282505,-0.1361760646402836
1733860067597063400,1.3410634765625,0.043588381835818285,-0.0418831853531301,-0.12687632137537003
1733860067607013400,1.351013427734375,0.04964154439494013,-0.052313832344114776,-0.10488953049480915
1733860067616964400,1.36096435546875,0.03638531858921051,-0.06301394392624497,-0.09563187280595302
1733860067626915300,1.370915283203125,0.06599661299884318,-0.07905936205908656,-0.1077495961010456
1733860067636865300,1.380865234375,0.0856903245061636,-0.07712649430036544,-0.10700608425736427
1733860067646816500,1.39081640625,0.09649462711513042,-0.08774243473038076,-0.12352350381612777
1733860067656766500,1.400766357421875,0.09864522927775979,-0.06509601089730858,-0.1189163022816181
1733860067666717400,1.410717529296875,0.08134498877823353,-0.04666179793179035,-0.10693944876193999
1733860067676667400,1.42066748046875,0.06999079720154404,-0.04354205847606062,-0.08483399993777274
1733860067686618400,1.430618408203125,0.038434652334451674,-0.05887640573009848,-0.028850831431150435
1733860067696568600,1.440568603515625,0.019129501753300426,-0.09480901211574673,0.10022329224944114
1733860067706519300,1.450519287109375,0.0009423954166471958,-0.1343954648338258,0.2036445037573576
1733860067716470500,1.460470458984375,-0.0125755500651896,-0.13354922326803206,0.2565413966864347
1733860067726420500,1.47042041015625,-0.028853315649181602,-0.11510784990936516,0.2654793209016323
1733860067736371500,1.480371337890625,-0.01765621433034539,-0.11182415206357836,0.17673603856563566
1733860067746321400,1.4903212890625,0.008749123644828796,-0.12252280234098434,0.11612871738970279
1733860067756272400,1.5002724609375,0.015748919404298067,-0.11341770486533641,0.06929214741289615
1733860067766222600,1.51022265625,0.03472293833494186,-0.07057678039595484,0.04425298322439193
1733860067776173300,1.52017333984375,0.022202917849272488,-0.07895984720736741,0.032335750937461855
1733860067786124500,1.53012451171875,0.04684942945837974,-0.07014014254435896,0.030617256581783294
1733860067796074500,1.540074462890625,0.05847966149747371,-0.07868950583338737,-0.004910568395256996
1733860067806025500,1.550025390625,0.06026011517345905,-0.10708353340774773,-0.04668342524170875
1733860067815975400,1.559975341796875,0.03151975837945938,-0.10601181252300738,-0.038869536620378495
1733860067825926400,1.569926513671875,0.011815525478124618,-0.08568506380915641,-0.010962123519182205
1733860067835876400,1.57987646484375,0.02783653982207179,-0.09809417126625776,0.03150865246355533
1733860067845826800,1.589826904296875,0.039650457864999766,-0.09709303139969706,0.08209843749403953
1733860067855778000,1.599778076171875,0.04994622642993927,-0.07698942391723394,0.08351882568597793
1733860067865728000,1.60972802734375,0.038363779055327174,-0.0879134073831141,0.03801613466143608
1733860067875679000,1.619678955078125,0.03396539796590805,-0.09306626010164618,0.005737666869163513
1733860067885629000,1.62962890625,0.012604630029201506,-0.11052709799036382,-0.012817395997047424
1733860067895580000,1.639579833984375,0.026832477346062658,-0.12084317869096994,0.00047989247143268585
1733860067905529900,1.64952978515625,0.028449995545297858,-0.11963088029175996,0.040894904968142506
1733860067915480800,1.659480712890625,0.00632686493396759,-0.10416910726577043,0.1150216329306364
1733860067925432000,1.66943212890625,0.01366845986843109,-0.08854790589436888,0.15161445679068564
1733860067935382000,1.679382080078125,0.026866964137554166,-0.08403115912228822,0.12439268786609171
1733860067945333000,1.6893330078125,0.023320085310935972,-0.07677139725238084,0.06924070948660373
1733860067955283000,1.699282958984375,-0.013159779693931341,-0.08024652601704,0.03334346667528152
1733860067965234000,1.70923388671875,-0.03610986264869571,-0.07825301411226392,0.0766840112298727
1733860067975184000,1.719183837890625,-0.05425225306078791,-0.10519742740020155,0.16031038894355296
1733860067985134800,1.729134765625,-0.05690832052752375,-0.10517375426366925,0.2179179437816143
1733860067995085000,1.7390849609375,-0.029252836360782384,-0.0942012554809451,0.21966040353477
1733860068005035800,1.749035888671875,0.002970686373859644,-0.12061784550249575,0.2120218714803457
1733860068014987000,1.758987060546875,0.020621493876725433,-0.12485913633406162,0.1716232255965471
1733860068024937000,1.76893701171875,0.04244505701959133,-0.1447774503774941,0.12901859410107136
1733860068034888000,1.778887939453125,0.0452728277914226,-0.1374932847186923,0.09605214404463767
1733860068044838000,1.788837890625,0.022983546832948922,-0.12496215831711888,0.04301204325258732
1733860068054788900,1.798788818359375,0.03174903709068894,-0.14763795437514782,-0.016821955463290215
1733860068064739000,1.808739013671875,0.03462926870211959,-0.14951777677237987,-0.015422025537490844
1733860068074689800,1.818689697265625,0.034192192459106444,-0.1473679052621126,0.012726210582256316
1733860068084641000,1.82864111328125,0.04970145788863301,-0.13871478933766485,0.06062602587640285
1733860068094591000,1.838591064453125,0.06402399775162339,-0.11945800794288515,0.07517536023259162
1733860068104542000,1.8485419921875,0.07597396326437592,-0.10199702392369508,0.06883738938272
1733860068114492000,1.858491943359375,0.09038359688892961,-0.07913228116482496,-0.001678162345290184
1733860068124443000,1.86844287109375,0.08735796545743942,-0.03859524972364306,-0.08914251078665256
1733860068134393000,1.87839306640625,0.08426248366013168,-0.015458558155596255,-0.19605682510733602
1733860068144343800,1.88834375,0.10017667662873864,0.00010316811352968215,-0.26194939320981503
1733860068154295000,1.898294921875,0.0997457378655672,0.010902648416906595,-0.26822715830504895
1733860068164245000,1.908244873046875,0.12648702979683876,0.01571750135272741,-0.243079273045063
1733860068174196000,1.918196044921875,0.1439174725472927,0.012457915034890174,-0.25326398245096204
1733860068184146000,1.92814599609375,0.14939195843562483,0.008390665595978498,-0.25724808365106583
1733860068194097000,1.938096923828125,0.15828560511767864,0.02010536104813218,-0.24101707981824874
1733860068204046800,1.948046875,0.13723989447951315,-0.0017509353205561638,-0.23571371271312236
1733860068213997800,1.957997802734375,0.09746303375586866,-0.010288608171790838,-0.22613222989737986
1733860068223948000,1.967947998046875,0.07538461906909942,-0.01567731547281146,-0.1627922688871622
1733860068233898800,1.977898681640625,0.012673749742656946,-0.05363733603283763,-0.07378887431025505
1733860068243850000,1.98785009765625,-0.02058379221484065,-0.09485212060511111,0.060628363963961596
1733860068253800000,1.997800048828125,-0.027832448168843983,-0.13028086912184952,0.16889058576226235
1733860068263751000,2.0077509765625,-0.019830635759979485,-0.14710370136797427,0.2740472427606582
1733860068273700900,2.017700927734375,0.0036906712114810943,-0.17293299302086232,0.3760790457367897
1733860068283651800,2.02765185546875,0.007739069819450378,-0.1777475536957383,0.41983343178927895
1733860068293602000,2.03760205078125,0.00695887922719121,-0.15391104329526423,0.4111006747573614
1733860068303552800,2.047552734375,-0.015189385825395583,-0.12248188580870628,0.30806524769663807
1733860068313504000,2.05750390625,-0.04601517059132457,-0.09899828049913048,0.1511281345784664
1733860068323454000,2.067453857421875,-0.039013475135713814,-0.0741848878905177,-0.020488076755404473
1733860068333405000,2.077405029296875,-0.042175154037028546,-0.08983034692034125,-0.11697276699841022
1733860068343355000,2.08735498046875,-0.06866071764156222,-0.1264312079563737,-0.062059858071804044
1733860068353305900,2.097305908203125,-0.08110884193480014,-0.1584501480296254,0.06324409942030906
1733860068363256000,2.107256103515625,-0.0890489872843027,-0.19539353889301417,0.25128011515736576
1733860068373206800,2.117206787109375,-0.030368104126304387,-0.21745061853080985,0.37398119667470453
1733860068383158000,2.127157958984375,0.01304082948938012,-0.19526523633822798,0.328821035477519
1733860068393108000,2.13710791015625,0.058671530807763335,-0.15839491071105002,0.17164894455969332
1733860068403059000,2.147058837890625,0.05466974782049656,-0.1362861008860171,-0.024591420421004293
1733860068413009000,2.1570087890625,0.04045139898434281,-0.11960647650286554,-0.10091945782005786
1733860068422959900,2.1669599609375,0.021973346877098083,-0.13431173207312821,-0.05562719467580318
1733860068432910000,2.17691015625,0.014922843843698502,-0.1520550401650369,0.01807867752611637
1733860068442860800,2.18686083984375,0.015880875220894812,-0.109197018430382,0.08633797475993633
1733860068452812000,2.19681201171875,0.04917597270980477,-0.06404343310445547,0.10230302113294601
1733860068462762000,2.206761962890625,0.07141264669820666,-0.03969195891916752,0.03302373320162296
1733860068472713000,2.216712890625,0.09864961319193244,-0.024579291591793298,-0.08923252715766429
1733860068482663000,2.226662841796875,0.055657589814066884,-0.0006315759018063545,-0.20401509063541887
1733860068492614100,2.2366142578125,0.010207359629124403,-0.00882671892568469,-0.26520868726670743
1733860068502563800,2.246563720703125,-0.006034750119596719,-0.009318009573966264,-0.2508054833829403
1733860068512514800,2.256514892578125,0.020636545315384863,-0.023930764555186033,-0.16280571289062498
1733860068522465000,2.266465087890625,0.046927024739235636,-0.06095058165565133,-0.11523732150793074
1733860068532415700,2.276415771484375,0.07893748924508691,-0.06598492256104946,-0.07786006927192211
1733860068542367000,2.286366943359375,0.10848799337819218,-0.08013064455240965,-0.033765491479635236
1733860068552317000,2.29631689453125,0.08657295255959034,-0.09735328977108001,-0.0025818331867456436
1733860068562268000,2.306267822265625,0.04003507326841354,-0.12713979461714625,0.08525777830779552
1733860068572217900,2.3162177734375,0.026168314348906277,-0.1548999082021415,0.2142927390217781
1733860068582168800,2.3261689453125,0.043885318955779073,-0.16785700493082403,0.31391748085618015
1733860068592119000,2.336119140625,0.03641863633692265,-0.17395882893726228,0.34444472106695173
1733860068602069800,2.34606982421875,0.009692688105255365,-0.1402098502010107,0.3108493254572153
1733860068612021000,2.35602099609375,-0.00018397826477885244,-0.10964344702363013,0.2217687739908695
1733860068621971000,2.365970947265625,-0.005321487283706665,-0.11671367767080663,0.1298480306625366
1733860068631922000,2.375921875,-0.03578399169519544,-0.11998641573116182,0.08292144431471825
1733860068641872000,2.385871826171875,-0.04424845317974686,-0.1039306223347783,0.02941314148902893
1733860068651822800,2.39582275390625,-0.032234190259128805,-0.06504515749290585,0.006399930170178413
1733860068661773000,2.40577294921875,-0.03418342463076114,-0.06485533400923013,0.006952303355932235
1733860068671723800,2.415723876953125,-0.00960968599691987,-0.06573986175879835,0.022024200281500816
1733860068681675000,2.425675048828125,0.04289060883000493,-0.08171294530779123,0.028442250630259513
1733860068691625000,2.435625,0.030127427238225934,-0.0774900669157505,-0.0013356325179338453
1733860068701576000,2.445575927734375,0.00974734090194106,-0.07724559063538909,-0.06285597688555718
1733860068711526000,2.45552587890625,0.0026952304333448408,-0.07696268204078077,-0.08181435985565184
1733860068721477000,2.46547705078125,0.015489245554804802,-0.08995119682103395,-0.04224631957709789
1733860068731427000,2.475427001953125,0.025537030708044767,-0.0858557442009449,-0.008332359537482261
1733860068741377800,2.485377685546875,0.05353811344206333,-0.09592764088213443,0.014092238238453864
1733860068751329000,2.4953291015625,0.08834171579778194,-0.1094616607159376,0.00003857844471931457
1733860068761279000,2.505279052734375,0.08872399311363696,-0.12227452666833996,-0.007558452555537223
1733860068771230000,2.51522998046875,0.06881795402988791,-0.1114990117624402,-0.02305529689490795
1733860068781180000,2.525179931640625,0.042224838397651905,-0.10425517811402678,-0.004684942945837974
1733860068791131100,2.535131103515625,0.03537891802564263,-0.09016834670305252,0.05908756426274776
1733860068801080800,2.545080810546875,0.07525061742588877,-0.11316475301757455,0.11026946996748446
1733860068811031800,2.55503173828125,0.059481678146868944,-0.11937018352895974,0.11811901442408561
1733860068820983000,2.564983154296875,0.014540712658315896,-0.10109715247452258,0.1006646062761545
1733860068830932700,2.5749326171875,0.01202785305455327,-0.09678118897154926,0.08222235613465309
1733860068840884000,2.584884033203125,0.003363338953256607,-0.09561769815012812,0.09010989451408385
1733860068850835200,2.594835205078125,0.0041873686872422695,-0.07892068424075842,0.05835048215985298
1733860068860786400,2.604786376953125,0.02243745725750923,-0.06729834324717521,0.018420622831583022
1733860068870736400,2.614736328125,0.020882629030942915,-0.056695554559677834,-0.016833645901083945
1733860068880687400,2.624687255859375,0.018754823222011326,-0.07204729133993387,-0.0454699577987194
1733860068890637300,2.63463720703125,0.05188756975606083,-0.10325447663888335,-0.03512333582937717
1733860068900588300,2.64458837890625,0.04094707354679703,-0.1157905714765191,-0.008072247296571732
1733860068910539300,2.654539306640625,0.01583645155727863,-0.10830299220010638,0.0391699808716774
1733860068920489200,2.6644892578125,0.023055443025380373,-0.10975479844361544,0.07985270439386367
1733860068930440400,2.6744404296875,0.01690685726776719,-0.11560673934221267,0.13803309068381786
1733860068940390400,2.684390380859375,0.026335195348411798,-0.13205167818665503,0.15988661057353018
1733860068950341400,2.69434130859375,0.01674362953007221,-0.11687895123511552,0.1428928056746721
1733860068960291300,2.704291259765625,-0.0062993924051523206,-0.10169073445349931,0.11498363900780677
1733860068970242300,2.7142421875,0.000049099838733673096,-0.06732216251417994,0.07951485074162483
1733860068980193300,2.724193359375,0.021885814724117516,-0.055702744130045174,0.04820142858922481
1733860068990143200,2.734143310546875,0.025552812799066304,-0.08568959385380148,0.02546995682120323
1733860069000094500,2.744094482421875,0.030139848328381773,-0.08467223350480198,0.01934709002673626
1733860069010044400,2.75404443359375,0.03419043889343738,-0.09673778822124003,0.006976853275299072
1733860069019995400,2.763995361328125,0.004493219766020774,-0.09493307688683271,-0.00037467853128910064
1733860069029945300,2.7739453125,0.013932663762569427,-0.094604283323884,0.021202362504601478
1733860069039896600,2.783896484375,0.03684928283914923,-0.09020692514777183,0.041920156362652776
1733860069049847300,2.793847412109375,0.041363253132253884,-0.09993497682735324,0.048151159706711764
1733860069059797200,2.80379736328125,0.06426394398733973,-0.10871727208942174,0.042245735055208206
1733860069069748500,2.81374853515625,0.07820508331730962,-0.10730316750779748,-0.0005324994415044785
1733860069079698400,2.823698486328125,0.054158364232257006,-0.09453092582672834,-0.04287409608662128
1733860069089649400,2.8336494140625,0.04659874263294041,-0.08894187364801764,-0.06881868468225003
1733860069099599400,2.843599365234375,0.06536459870561957,-0.08316577446460724,-0.07076338900923729
1733860069109550600,2.853550537109375,0.07644961795210838,-0.08539499482139945,-0.057280807101726526
1733860069119501300,2.863501220703125,0.03901099091768265,-0.07430617618262768,-0.03112929775714874
1733860069129451300,2.873451171875,0.021707973939180374,-0.05711465675458312,-0.003214285871386528
1733860069139402500,2.883402587890625,0.044341684421151877,-0.06167509653791785,0.009245967251062392
1733860069149352200,2.893352294921875,0.04184774871356785,-0.06691387397423386,0.001418050104379654
1733860069159303400,2.903303466796875,0.03151756642237306,-0.08608926069587469,-0.001353168174624443
1733860069169253400,2.91325341796875,0.03577800034582615,-0.10045403226539493,0.028063480445742604
1733860069179204400,2.923204345703125,0.008259148170799016,-0.10006313325166702,0.07410626969635487
1733860069189155300,2.9331552734375,0.01150236787572503,-0.10566095325872302,0.11185177072286605
1733860069199105300,2.943105224609375,0.006397738213092088,-0.1159114213772118,0.12383505398333072
1733860069209056300,2.95305615234375,0.011064853241294621,-0.14072861337810755,0.09959376217424869
1733860069219006200,2.963006103515625,0.02010002728588879,-0.11540054924562573,0.07080547458529472
1733860069228957400,2.97295751953125,0.012832593566179275,-0.10243497694954276,0.0674994187772274
1733860069238907400,2.982907470703125,0.034253640322759744,-0.08986366466805339,0.045072482913732524
1733860069248858400,2.9928583984375,0.035383448070287704,-0.0862520500421524,0.010332008922100067
1733860069258809300,3.002809326171875,0.041626141852140426,-0.06103241472020745,-0.01810264292359352
1733860069268759600,3.012759521484375,0.048175125104188914,-0.06147548231258988,-0.03801788822710514
1733860069278710300,3.022710205078125,0.05011866038739681,-0.07399389536306261,-0.06720774235427379
1733860069288660200,3.03266015625,0.04558277052342891,-0.07704378445297479,-0.0413221904695034
1733860069298611500,3.042611572265625,0.03549436109885573,-0.10936375329941511,0.01471943022608757
1733860069308561400,3.0525615234375,0.012915011152625083,-0.1174148116774857,0.051208209189772605
1733860069318512400,3.062512451171875,-0.0034616847611963746,-0.11318462676182389,0.1009878468811512
1733860069328462300,3.07246240234375,0.002634878548234701,-0.10015636449307203,0.11542729112207889
1733860069338413600,3.08241357421875,0.024577830287069082,-0.10810425475761294,0.11035656372904777
1733860069348364300,3.0923642578125,0.03827726981565356,-0.12226648949235677,0.07868132252693176
1733860069358314200,3.102314208984375,0.025862024878710508,-0.11223901647478342,0.06975275066196918
1733860069368265500,3.112265380859375,0.028847178169339894,-0.09926876800358295,0.07303601011633873
1733860069378215400,3.12221533203125,0.025875030490756033,-0.07945639855265617,0.044216742867231366
1733860069388166400,3.13216650390625,0.03547638705074787,-0.065651014431566,0.02377601238489151
1733860069398116400,3.142116455078125,0.050921647333353755,-0.07219312955141068,0.00251227508187294
1733860069408067600,3.152067626953125,0.05034413970634341,-0.06661825202852487,-0.04789221650958061
1733860069418018300,3.162018310546875,0.021421412082761524,-0.07034910911992191,-0.05121346988677978
1733860069427968300,3.17196826171875,0.014025018221139907,-0.08834873006045818,-0.005777414357662201
1733860069437919500,3.18191943359375,0.008398410511016845,-0.098815471278131,0.05030979904532432
1733860069447869200,3.191869140625,0.010388123023509978,-0.11495660487040876,0.1225070202499628
1733860069457820400,3.2018203125,0.023094459861516953,-0.075719257850945,0.17462708358764648
1733860069467770400,3.211770263671875,0.031948212924599644,-0.0773671711884439,0.13136369592249392
1733860069477721300,3.221721435546875,0.016872881932929157,-0.08816343662142753,0.050127428215742106
1733860069487672300,3.23167236328125,0.028164602732658386,-0.09927461322247981,0.012615735945105552
1733860069497622500,3.24162255859375,0.022332900904491543,-0.099982030839473,0.022554361635446548
1733860069507573200,3.2515732421875,-0.008137129226326941,-0.13046923130080104,0.021124036571383474
1733860069517523200,3.261523193359375,-0.016771686580777167,-0.15921543331369756,0.0797206024467945
1733860069527474400,3.271474365234375,-0.008066402077674865,-0.16230331632643938,0.14104922363460062
1733860069537424400,3.28142431640625,0.030899069197848437,-0.15344795582816004,0.17905308333635328
1733860069547375400,3.291375244140625,0.0451857340298593,-0.14244272381961345,0.205290517398715
1733860069557326300,3.301326416015625,0.052908583366870876,-0.11817074461132288,0.1648316657602787
1733860069567276500,3.311276611328125,0.0643798254519701,-0.09915113297328353,0.10510288098454475
1733860069577227300,3.321227294921875,0.05172200393080711,-0.06993541375249623,0.029987141984701156
1733860069587177200,3.33117724609375,0.03771276780068874,-0.07484583601728081,-0.049019174712896345
1733860069597128400,3.34112841796875,0.006037964989989995,-0.05934928393885493,-0.0973755016028881
1733860069607078400,3.351078369140625,-0.005437222617864609,-0.04974252055138349,-0.08082534881830215
1733860069617029400,3.361029296875,-0.0025198008012026546,-0.04711772500574588,-0.051551908060908314
1733860069626980400,3.37098046875,0.04028349507153034,-0.05719663594961166,-0.02165244435966015
1733860069636930600,3.3809306640625,0.05232172338962555,-0.07723843024224042,-0.03228782014250755
1733860069646881300,3.39088134765625,0.0633287089638412,-0.07076850357577204,-0.09564882394075393
1733860069656831200,3.400831298828125,0.05833572298213839,-0.07539426368027925,-0.12774784351289273
1733860069666782500,3.410782470703125,0.061967357482761144,-0.07257862173765897,-0.12655658790171145
1733860069676732400,3.420732421875,0.05368197889216244,-0.08330211419537663,-0.07922142075300216
1733860069686683400,3.430683349609375,0.0479846440333873,-0.10266995474919677,0.0029342998862266537
1733860069696634400,3.44063427734375,0.05609174344763159,-0.10622881627455354,0.06688450174927711
1733860069706584600,3.45058447265625,0.04911386725902557,-0.09976575774028897,0.07709317655265331
1733860069716535300,3.460535400390625,0.052426352807879446,-0.10246244947835803,0.07520049467384815
1733860069726485500,3.470485595703125,0.05722571591362357,-0.1084624205455184,0.05581599524617195
1733860069736436500,3.4804365234375,0.0497520190320909,-0.11293620495870708,0.07032382854819297
1733860069746386200,3.49038623046875,0.039850802742689845,-0.11211246748566626,0.07462064895927906
1733860069756337400,3.50033740234375,0.012532587706297635,-0.11760142029076814,0.061410454252362245
1733860069766288400,3.510288330078125,-0.012031798577308654,-0.06747662242352961,0.0782043526649475
1733860069776238300,3.52023828125,-0.01923347358442843,-0.08541501469612121,0.06720598878860473
1733860069786189300,3.530189208984375,0.03283259454369545,-0.08296718315258622,0.08523790456354617
1733860069796139500,3.540139404296875,0.01649929938018322,-0.09842837165668607,0.08849544505476951
1733860069806090200,3.55009033203125,-0.005767477485537529,-0.09582052724584937,0.09963117157518864
1733860069816040200,3.560040283203125,0.0008702069632709026,-0.12190277074649929,0.09834171628654002
1733860069825991400,3.569991455078125,0.009274462693184613,-0.10570552305281161,0.09193068020045757
1733860069835942100,3.579942138671875,0.007393105925992131,-0.10488953049480915,0.02785071447789669
1733860069845891000,3.58989111328125,0.02516819739565253,-0.10167480623200535,-0.01848608928322792
1733860069855842000,3.599842041015625,0.05124956411346793,-0.11019318986088036,-0.07732990791797638
1733860069865792000,3.6097919921875,0.05596899385079741,-0.05648015824332833,-0.07574877620637416
1733860069875743000,3.619742919921875,0.0441150360584259,-0.07324497669190168,-0.06961071184277534
1733860069885693200,3.629693115234375,0.060562459120899435,-0.07918079648166894,-0.03704816641211509
1733860069895644000,3.639643798828125,0.04182736351266503,-0.11787716849222779,0.011696867534518242
1733860069905595100,3.64959521484375,0.018155396024137734,-0.13496756563335657,0.08050678438842296
1733860069915545000,3.659545166015625,-0.00508585189692676,-0.12391834835261106,0.12861352043151855
1733860069925496000,3.66949609375,-0.01733107402920723,-0.13563260541334748,0.16896365099847316
1733860069935446000,3.679446044921875,-0.011015315011143684,-0.12820172476023434,0.22034663223326204
1733860069945397000,3.68939697265625,0.0026144202820956707,-0.10857874040156602,0.2031511672824621
1733860069955347000,3.699346923828125,0.01319602005109191,-0.0941391500301659,0.15920973422527313
1733860069965298000,3.7092978515625,0.036916064465045924,-0.07307151982113719,0.07556231372356415
1733860069975249200,3.719249267578125,0.04781915127336979,-0.07825067602470517,0.0054810617595911024
1733860069985198800,3.72919873046875,0.04888166593834758,-0.08358736087754368,-0.07218260815739631
1733860069995150000,3.739150146484375,0.029222075896337626,-0.06702230278477073,-0.1014841059654951
1733860070005100000,3.74910009765625,0.021857173151522875,-0.0839560480594635,-0.08867197066545486
1733860070015051000,3.759051025390625,0.016042787784337997,-0.0723236240632832,-0.051228082934021944
1733860070025001000,3.7690009765625,0.04346913937032223,-0.08462196462228894,-0.0013619360029697416
1733860070034952000,3.778951904296875,0.05650047037899494,-0.10481807269379496,0.03572247076630592
1733860070044902100,3.788902099609375,0.04480068023502826,-0.10252747753858565,0.04911912795603275
1733860070054852900,3.798852783203125,0.05280051988251507,-0.07856661010608076,0.03701367962062359
1733860070064804000,3.80880419921875,0.045621933490037916,-0.08319485442861914,0.028744448447227476
1733860070074754000,3.818754150390625,0.027406477841734885,-0.09926219213232397,0.03780746034681797
1733860070084705000,3.828705078125,0.046272579418495295,-0.1126750698044896,0.037628596648573875
1733860070094655000,3.838655029296875,0.02936995993442833,-0.11060293970555067,0.03210544931292534
1733860070104606000,3.84860595703125,0.047751346734166145,-0.08650076410621405,0.021069091513752938
1733860070114557000,3.858556884765625,0.037517537489533424,-0.08204305404499172,-0.009919336467981339
1733860070124507000,3.8685068359375,0.036899113330245016,-0.08290040152668952,-0.04055938940346241
1733860070134458000,3.8784580078125,0.045649479084089395,-0.08097966259717941,-0.029421909317374227
1733860070144408000,3.888407958984375,0.02593874337673187,-0.1079588549375534,-0.017338672813773156
1733860070154359000,3.898359130859375,0.028237667968869208,-0.08728796896114945,0.02046294231414795
1733860070164309000,3.90830908203125,0.015425532668828963,-0.09096972621381283,0.0481149193495512
1733860070174260000,3.918260009765625,0.028530513435602187,-0.09977876335233449,0.02716273221373558
1733860070184211000,3.9282109375,0.03914820743128657,-0.1112701714426279,0.02345744795501232
1733860070194161000,3.938160888671875,0.03130421593263745,-0.10908201374858617,0.03934884456992149
1733860070204112100,3.948112060546875,0.026305896188691256,-0.09900748671889305,0.07569675375819206
1733860070214062000,3.95806201171875,0.00789279907643795,-0.07588219332769512,0.09812719675302504
1733860070224013000,3.968012939453125,0.005720715734362602,-0.08956482785195112,0.10566051486730575
1733860070233963000,3.977962890625,0.035187633237242694,-0.08949249326810241,0.1046083754658699
1733860070243914000,3.9879140625,0.02159852221533656,-0.07353548407107591,0.07995558024644851
1733860070253865000,3.997864990234375,0.005122749841213226,-0.08872384698316454,0.039594343763589855
1733860070263815000,4.00781494140625,-0.003993453550338745,-0.09966697354093193,0.01388064131438732
1733860070273766100,4.01776611328125,-0.005374678775668144,-0.11352744885012507,0.03753215053677559
1733860070283715800,4.0277158203125,0.0027291327029466627,-0.12265855754986404,0.08177928854227065
1733860070293667000,4.0376669921875,0.006476502537727356,-0.12846388282775878,0.07764204260706901
1733860070303617000,4.047616943359375,0.02159735317155719,-0.104711689709872,0.09440028518438338
1733860070313568000,4.057568115234375,0.030944004318118095,-0.09585574468970298,0.06992986079454422
1733860070323519000,4.06751904296875,0.034874914026260376,-0.09431202237904071,0.026913141366839408
1733860070333469000,4.077468994140625,0.050022287340834734,-0.06548004177883267,-0.002410568273067474
1733860070343420000,4.087419921875,0.04415376063361764,-0.06625088002085686,-0.027175591695308685
1733860070353369900,4.097369873046875,0.04366320063769817,-0.06883636646941303,-0.009723521634936332
1733860070363321000,4.107321044921875,0.046263738524913785,-0.08365253506824373,0.0058270987182855605
1733860070373271000,4.11727099609375,0.04112286850512027,-0.10928308927863836,0.05189911406338214
1733860070383222000,4.127221923828125,0.010582184290885924,-0.11320011659190057,0.06851824043095112
1733860070393173000,4.137173095703125,0.00491005693860352,-0.09689297878295183,0.07636661584377288
1733860070403123000,4.147123046875,0.012151114108040928,-0.08857391711845994,0.08160919267237186
1733860070413074000,4.157073974609375,0.012814619518071411,-0.0852259218648076,0.07477905439138412
1733860070423023900,4.16702392578125,0.027266338718682524,-0.09100172878727317,0.05840075104236602
1733860070432975000,4.17697509765625,0.04750657819285989,-0.10073372598960995,0.014634674552083015
1733860070442925000,4.186925048828125,0.043336014509946105,-0.10583134138956665,0.0049181671798229215
1733860070452876000,4.1968759765625,0.011038184430077671,-0.08686609028726816,0.015365911436080931
1733860070462827000,4.206826904296875,0.034445948024466634,-0.08427432022839784,0.03267418911159038
1733860070472777000,4.21677685546875,0.033146482798457146,-0.08043971050158143,0.050614334949851035
1733860070482728000,4.22672802734375,0.03788476336672902,-0.08140972457751632,-0.002220014137029648
1733860070492678000,4.236677978515625,0.04333645290136337,-0.05044160873144865,-0.022948329389095305
1733860070502629000,4.246629150390625,0.010104629907011985,-0.051564621412008994,-0.03237900555729866
1733860070512579000,4.2565791015625,0.02188625311553478,-0.057762453138828274,-0.029860300734639165
1733860070522530000,4.266530029296875,0.03449007942713797,-0.10895035019293427,-0.011647767695784569
1733860070532481000,4.27648095703125,0.029742227312922476,-0.10824775488153099,0.027437457501888272
1733860070542431200,4.28643115234375,0.03398234910070896,-0.11377382482662796,0.05167173504829407
1733860070552382000,4.2963818359375,0.03784326231256127,-0.11735986661985516,0.08051029151976108
1733860070562332000,4.306331787109375,0.03874444893598556,-0.1154625085659325,0.07854395988285541
1733860070572283100,4.316283203125,0.04171148204803467,-0.10939590200334787,0.0979115081757307
1733860070582232800,4.32623291015625,0.024760420312359928,-0.09721227386519313,0.10268120679557323
1733860070592184000,4.33618408203125,0.012254501417279243,-0.08745207348167895,0.09586918869316577
1733860070602135000,4.346135009765625,0.012598200288414954,-0.07223550738841295,0.049447044736146924
1733860070612085000,4.3560849609375,0.0013649316776543855,-0.07859349811300635,0.03101473146677017
1733860070622036000,4.366035888671875,0.024643004477769136,-0.06391498441919684,0.012567805150151252
1733860070631986000,4.37598583984375,0.03932137204110622,-0.07414587105438113,-0.015980243942141533
1733860070641937000,4.38593701171875,0.0455691803894937,-0.10871259591430425,-0.024848610052466392
1733860070651886800,4.395886962890625,0.03666106679067015,-0.10713424068167805,-0.014207973572611807
1733860070661838000,4.405838134765625,0.01583513638302684,-0.08187325043603777,0.004635258585214614
1733860070671789000,4.4157890625,0.025144231998175382,-0.1102664012275636,0.05583645351231098
1733860070681739000,4.425739013671875,0.03489544535763561,-0.11875161323919892,0.0772761319041252
1733860070691690000,4.43568994140625,0.02635499602742493,-0.12433832733035087,0.06868190656006336
1733860070701640000,4.445639892578125,0.033826354821398855,-0.11521730163320898,0.08111819428503513
1733860070711591000,4.4555908203125,0.035428017864376306,-0.10036942272186279,0.053669046345353126
1733860070721540900,4.465540771484375,0.04971365978308022,-0.09533055177181958,0.021897943553328515
1733860070731492000,4.4754921875,0.05600720696933567,-0.0846824626378715,0.019345920982956885
1733860070741442800,4.48544287109375,0.055948827845603226,-0.06402662810012698,0.01983399676084518
1733860070751393000,4.49539306640625,0.02931143468022346,-0.05982625380083918,-0.0007288987964391708
1733860070761344000,4.505343994140625,0.009682020580768584,-0.09104220692813396,-0.023959552258253095
1733860070771294200,4.515294189453125,0.03839607388973236,-0.12172434543967246,-0.034878421157598496
1733860070781245000,4.525244873046875,0.036417540358379484,-0.15034882076904177,-0.017959435060620307
1733860070791195000,4.53519482421875,0.050348962011933326,-0.131847533916682,0.044489714589715
1733860070801146000,4.54514599609375,0.028301380854845046,-0.12853680193349717,0.11512743139266968
1733860070811096800,4.555096923828125,0.006117094640806317,-0.13188991175368428,0.13945523244142533
1733860070821047000,4.565047119140625,0.013276318745687602,-0.11828282668367028,0.1578121423870325
1733860070830998000,4.574998046875,0.005008256616070866,-0.08303089603856205,0.11205810694992542
1733860070840948200,4.5849482421875,-0.009738646138831972,-0.05576499571129679,0.07268471246063708
1733860070850902300,4.59490234375,-0.029897564005106687,-0.015017244128882884,0.011003624573349953
1733860070860852500,4.6048525390625,-0.021640900052338836,0.0013699731789529324,-0.0037953006297349926
1733860070870803500,4.614803466796875,0.004102759143710136,-0.010122896216064691,-0.028567922836542126
1733860070880754400,4.62475439453125,0.01861409957706928,-0.026255846501886844,-0.038004444223642346
1733860070890704400,4.634704345703125,0.03129866297468543,-0.0461355821006,-0.04351473207771778
1733860070900655400,4.6446552734375,0.08283040503039955,-0.05417977234646678,-0.07153904955685138
1733860070910605300,4.654605224609375,0.07415420049130916,-0.06215718096643686,-0.10604746835827827
1733860070920556300,4.664556396484375,0.049185251994803544,-0.06742416158393025,-0.13330664668381215
1733860070930506500,4.674506591796875,0.0574912349820137,-0.10060469278246163,-0.1013625254124403
1733860070940457500,4.68445751953125,0.04486541603431105,-0.1128742456384003,-0.032142858713865276
1733860070950408400,4.694408447265625,0.04767945054173469,-0.1072290793582797,0.06848550720512867
1733860070960358400,4.7043583984375,0.05397650485932827,-0.11375687369182705,0.1379436588346958
1733860070970309400,4.714309326171875,0.03609656477570534,-0.12738733963742851,0.17149463078081606
1733860070980259300,4.72425927734375,0.03558540038317442,-0.11962006663680076,0.15775778185129163
1733860070990210300,4.734210205078125,0.01855630497522652,-0.13724939296022057,0.10778759002387522
1733860071000160500,4.744160400390625,-0.01779474601820111,-0.10157982142493129,0.06071195059418678
1733860071010111200,4.754111328125,0.03371872972846031,-0.0969461702749133,-0.0037029461711645126
1733860071020062500,4.7640625,0.05780570775866508,-0.10076324434503912,-0.0610205781519413
1733860071030012400,4.774012451171875,0.01184774724729359,-0.06932721872627735,-0.09925006330311298
1733860071039963400,4.78396337890625,-0.0025175357788801193,-0.055909811009466646,-0.1375467684715986
1733860071049913300,4.793913330078125,-0.01574219740256667,-0.027759236802160737,-0.13383446995019913
1733860071059864300,4.8038642578125,-0.010399082808941602,-0.014376169746369122,-0.10496785642802715
1733860071069814500,4.813814453125,0.007122983747720718,-0.05229731960073113,-0.024306758260726927
1733860071079765200,4.82376513671875,0.04606777756139636,-0.06210851951912045,0.058015551117062567
1733860071089716500,4.833716552734375,0.07087912434339523,-0.041492870861291886,0.12769465202093125
1733860071099666400,4.84366650390625,0.11272855355739593,-0.13986498228609562,0.14069383432567117
1733860071109617400,4.853617431640625,0.06541968989372253,-0.16591756130084395,0.1586222897261381
1733860071119567400,4.8635673828125,-0.017760113096237182,-0.11650909500941634,0.18295067529678344
1733860071129518300,4.873518310546875,-0.005163227982074022,-0.10302475953623652,0.20162965680360792
1733860071139468500,4.883468505859375,-0.02304112223908305,-0.11805047923251986,0.20430735158026217
1733860071149419300,4.893419189453125,0.025332740307599303,-0.11482976362034678,0.21694705292284489
1733860071159370500,4.90337060546875,0.016349661776423455,-0.12597323505580424,0.18074936586022375
1733860071169320400,4.913320556640625,0.017365999212116002,-0.12582929654046893,0.14040391146838666
1733860071179271400,4.923271484375,-0.02150879810526967,-0.08060849119722843,0.09690846861302851
1733860071189221400,4.933221435546875,-0.034145430707931516,-0.08147153776735067,0.048127778831124304
1733860071199172400,4.94317236328125,-0.01274330784752965,-0.13094196337908506,-0.0028378537744283673
1733860071209122300,4.953122314453125,0.012555384059995412,-0.15133490919694303,-0.01890168434679508
1733860071219073300,4.9630732421875,-0.006057546473294496,-0.10030439466163515,0.000025134441256523132
1733860071229024500,4.9730244140625,0.01049041435420513,-0.08514701140969991,0.061359600847959515
1733860071238974200,4.98297412109375,0.049651115940883755,-0.10928601188808679,0.09642097735702991
1733860071248925400,4.992925537109375,0.06505619034357368,-0.10396130973398685,0.07640870141983032
1733860071258875400,5.00287548828125,0.05512107178457081,-0.058494859066605565,-0.01374912388920784
1733860071268826400,5.012826416015625,0.03676299279518425,-0.06272226750329137,-0.10050678536593913
1733860071278776300,5.0227763671875,0.013557400709390639,-0.0721184568800032,-0.14996201340854168
1733860071288727300,5.032727294921875,0.03325812647938728,-0.08870558067411184,-0.08944880025684833
1733860071298678300,5.04267822265625,-0.0005973813712596892,-0.09852642520368099,0.010194646278023719
1733860071308628200,5.052628173828125,-0.007915157038718462,-0.11410568712949752,0.12642565499842165
1733860071318579500,5.062579345703125,0.04850640288516879,-0.11300503241121768,0.19141221417188642
1733860071328529400,5.072529296875,0.06163666422367096,-0.11370090572088956,0.18788287100195883
1733860071338480400,5.08248046875,0.017011925077438355,-0.11547054574191569,0.13498480902910232
1733860071348430300,5.092430419921875,0.008933101909607648,-0.11746274247244,0.09140402597784995
1733860071358381300,5.10238134765625,0.024569866176322102,-0.11354074672311544,0.06779460233151913
1733860071368332300,5.112332275390625,0.01993577663488686,-0.07034267937913537,0.028805238723754883
1733860071378282200,5.1222822265625,0.01195522620975971,-0.06199497614204883,-0.009874912804365157
1733860071388233500,5.1322333984375,0.05218889079019427,-0.06479015981853008,-0.037975218129158016
1733860071398183400,5.142183349609375,0.05037804197594523,-0.07773805032745003,-0.07424129425287246
1733860071408134400,5.152134521484375,0.015894392289593814,-0.0748923055075109,-0.11581424461305141
1733860071418084400,5.16208447265625,0.009717676416039467,-0.0662619859367609,-0.07774667202532291
1733860071428035300,5.172035400390625,0.028443492739275097,-0.09246464094668626,-0.001353168174624443
1733860071437986300,5.181986328125,0.046700376376509665,-0.11053381999209523,0.0879161838620901
1733860071447936300,5.191936279296875,0.027266265653446316,-0.11262494705244898,0.1147387243360281
1733860071457887500,5.201887451171875,0.0024422055203467607,-0.0829110690511763,0.08794131830334663
1733860071467837400,5.21183740234375,0.0344653103120625,-0.08993921412229537,0.054604281368851655
1733860071477788400,5.221788330078125,0.03379486370459199,-0.08637962194457649,0.029595512318611142
1733860071487739400,5.231739501953125,0.03425765891075134,-0.0850868056550622,0.013202011400461197
1733860071497689600,5.241689697265625,0.04819266076087951,-0.0857302181251347,-0.013361585876345634
1733860071507640300,5.251640380859375,0.051478258302807806,-0.0876028801292181,-0.01599777959883213
1733860071517590300,5.26159033203125,0.03697108258791268,-0.0760068426206708,0.02262859591543674
1733860071527541500,5.27154150390625,0.0011836568266153334,-0.07894260381162166,0.06073416242599487
1733860071537491200,5.2814912109375,0.019734628039598464,-0.1025135951437056,0.13325345519185067
1733860071547442400,5.2914423828125,0.028397242444753647,-0.13552593016847966,0.1717979976415634
1733860071557393400,5.301393310546875,0.005178937007859349,-0.12821852976456283,0.16592004551887513
1733860071567343400,5.31134326171875,0.009156023945286869,-0.0975422364719212,0.08421323769092559
1733860071577294300,5.32129443359375,0.014645269011333584,-0.07811872020810842,-0.030532500907778738
1733860071587244300,5.331244384765625,0.03180383601784706,-0.06731997055709361,-0.014537643918395042
1733860071597195300,5.3411953125,0.04657134316936135,-0.09102467127144336,0.0033259295523166655
1733860071607145200,5.351145263671875,0.03927300285473466,-0.11625526637881993,0.017552607825398445
1733860071617096400,5.361096435546875,0.0073761547911912195,-0.11715367652326822,0.033682489371299744
1733860071627047400,5.37104736328125,-0.008305471530556678,-0.11149638141393661,-0.011817863565683364
1733860071636997400,5.380997314453125,-0.005329816720634699,-0.09610212066620588,-0.03498480414152145
1733860071646948400,5.3909482421875,0.0006071721129119396,-0.08365516541674732,-0.032442718443274496
1733860071656898300,5.400898193359375,0.020574074538424608,-0.08359685935825109,-0.004377484431862831
1733860071666849300,5.410849365234375,0.03886909822896123,-0.08372910743579268,0.038709962144494056
1733860071676799200,5.42079931640625,0.04794087795689702,-0.09857464825958014,0.06781681416332722
1733860071686750500,5.43075048828125,0.038829935262352226,-0.08642448399960995,0.09316460590958595
1733860071696701200,5.440701171875,0.019758155045658348,-0.07475494286343455,0.06077741704583168
1733860071706651400,5.4506513671875,0.02772102368362248,-0.05542582688480615,0.017760697618126868
1733860071716602400,5.460602294921875,0.011398249914124607,-0.07390212542638182,-0.005396306085586547
1733860071726552600,5.470552490234375,0.02175480875559151,-0.09559285596981644,0.013500117564201355
1733860071736503300,5.48050341796875,0.029650895767658947,-0.11497998574599623,0.0680003540366888
1733860071746453200,5.490453369140625,0.027214024009555575,-0.11467837245091796,0.06850421190559863
1733860071756404500,5.500404541015625,0.016158961509913205,-0.08907412172555923,0.04503682707846164
1733860071766355200,5.510355224609375,0.02028919318243861,-0.0732214496858418,0.02567512400448322
1733860071776305400,5.520305419921875,0.06689158907718956,-0.08824088577181101,0.017429273706674575
1733860071786256400,5.53025634765625,0.07097966210842133,-0.09113032360300422,-0.005263035094738007
1733860071796206600,5.54020654296875,0.04271927085109055,-0.07105740351974964,-0.018808160844445226
1733860071806157300,5.5501572265625,0.01834938422627747,-0.08277005314528942,-0.054036710613965984
1733860071816107300,5.560107177734375,0.03884221022203564,-0.11753332349061965,-0.0680441931784153
1733860071826058500,5.57005859375,0.02344232345111668,-0.10897066232860088,-0.029539982739090916
1733860071836009200,5.58000927734375,0.007981719468906521,-0.10061813678592443,0.06634615708887577
1733860071845959200,5.589959228515625,-0.009089315384626389,-0.10090309120714663,0.15586393092870712
1733860071855910400,5.599910400390625,-0.004148278785869479,-0.09993307713121174,0.2067149972438812
1733860071865860000,5.609860107421875,-0.01048858772329986,-0.13052213053181766,0.17103928822875022
1733860071875811300,5.619811279296875,-0.006042129708454013,-0.12333674907237291,0.10085457589030265
1733860071885761300,5.62976123046875,-0.007340937347337603,-0.08262070780247449,0.07425824538767338
1733860071895712300,5.639712158203125,0.0066845923304557795,-0.08443637892231344,0.06559037028551101
1733860071905663200,5.649663330078125,0.054296092202514405,-0.09412161437347531,0.04568272376656532
1733860071915613200,5.65961328125,0.05746551601886749,-0.07741159485206008,0.021858196064829825
1733860071925564400,5.669564453125,0.018598390551283955,-0.08225801196992397,-0.015938742887973784
1733860071935514000,5.67951416015625,0.028472134311869738,-0.08635638719946145,-0.019499650239944457
1733860071945465300,5.68946533203125,0.04190788140296936,-0.09395604854822158,-0.006833060890436172
1733860071955415300,5.699415283203125,0.011110445948690175,-0.07291179921478033,0.019486206236481667
1733860071965366300,5.7093662109375,-0.017823168395087123,-0.0629297727741301,0.04770809211432934
1733860071975317200,5.719317138671875,0.02642689221985638,-0.07978446146324276,0.06629121203124523
1733860071985267200,5.72926708984375,0.05319952913746238,-0.08809680112600327,0.056144496548175805
1733860071995218200,5.73921826171875,0.05149228682816028,-0.09629676645547151,-0.004594342052936554
1733860072005168000,5.749168212890625,0.04492642550654709,-0.09038242784515023,-0.009462824872136115
1733860072015119400,5.759119384765625,0.06007014555931091,-0.08914382596090435,0.0057744917482137675
1733860072025070000,5.769070068359375,0.029750995141267774,-0.0903572934038937,-0.005930559092760085
1733860072035020300,5.779020263671875,0.012796426274254917,-0.06927388110384344,-0.011225158369541167
1733860072044971300,5.78897119140625,0.01025777464210987,-0.08840235994383693,-0.00006137479841709136
1733860072054921200,5.798921142578125,0.004577390918135643,-0.08123641383722424,0.026321020692586898
1733860072064872200,5.8088720703125,0.003923895445466041,-0.09309344036951661,0.06007657530009746
1733860072074822100,5.818822265625,0.005800795233249664,-0.10811565293446182,0.059711833640933035
1733860072084773400,5.8287734375,0.01823474487066269,-0.11465089992210269,0.07143091300725936
1733860072094724000,5.83872412109375,0.033657354930043216,-0.12479542344808578,0.07173603343367577
1733860072104674300,5.84867431640625,0.036574703681468965,-0.12076704471483826,0.10388298380076885
1733860072114625300,5.858625244140625,0.04011281467974186,-0.11077230492308736,0.10448737943470478
1733860072124575200,5.8685751953125,0.031121698972582816,-0.11565320883244275,0.05550678316652775
1733860072134526200,5.878526123046875,-0.004423223269730806,-0.09833221780583262,0.032035306686162945
1733860072144476200,5.88847607421875,-0.0017338380552828312,-0.0772159261494875,0.0545370613515377
1733860072154427400,5.898427490234375,0.03945296253152191,-0.09405804761797189,0.032653146323561665
1733860072164378000,5.908378173828125,0.04231178602874279,-0.09605988895967602,-0.003121346890926361
1733860072174328300,5.918328369140625,0.0347474882543087,-0.07363646022751927,0.0008323591709136962
1733860072184279300,5.928279296875,0.020969722792506217,-0.08030366303175687,-0.005813654714822769
1733860072194229200,5.938229248046875,0.022494594272226096,-0.08282149107158183,0.03939852893054485
1733860072204180200,5.94818017578125,0.03305807386264205,-0.08076572758555411,0.06140402451157569
1733860072214130200,5.958130126953125,0.030129838391020892,-0.10157689881548285,0.050663434788584705
1733860072224081200,5.9680810546875,0.0367572206415236,-0.09861687996610999,0.03500233979821205
1733860072234032000,5.9780322265625,0.023793621106818316,-0.07518982714936137,0.011685761618614196
1733860072243982300,5.987982421875,0.01398892399445176,-0.07224427521675825,0.02585340318083763
1733860072253933300,5.997933349609375,0.013742840278893708,-0.10202025866881012,0.0309393281430006
1733860072263883300,6.00788330078125,0.026880042814835903,-0.09251374078541993,0.05888239707946777
1733860072273834200,6.017834228515625,0.015883213308453558,-0.09093275520429014,0.0567547374010086
1733860072283784200,6.0277841796875,-0.006853080765157938,-0.08692278891056776,0.08306991287469863
1733860072293735200,6.037735107421875,0.0050122752040624614,-0.0977042951658368,0.10487608649134636
1733860072303686100,6.04768603515625,0.01993753020055592,-0.09713087919205426,0.08793255047500133
1733860072313636400,6.05763623046875,0.020886136162281035,-0.0885547740265727,0.05364566546976566
1733860072323587000,6.067587158203125,0.014426657824590801,-0.10594020859152078,0.020855156502127645
1733860072333537300,6.077537353515625,-0.01871449121162295,-0.09793971135690807,-0.007802782705426216
1733860072343488300,6.08748828125,0.007182458849996328,-0.08887231554314494,0.004905307698249817
1733860072353438200,6.097438232421875,0.05103168357908725,-0.11883286178186535,0.036435587471723554
1733860072363389200,6.10738916015625,0.07734685905277729,-0.12395663453638553,0.025751696372032163
1733860072373340400,6.11734033203125,0.0027776480197906493,-0.06433087174370884,0.016133973199129105
1733860072383290400,6.127290283203125,-0.023581366595625874,-0.04578282314017415,0.036432080340385434
1733860072393241000,6.137240966796875,-0.002240472403168678,-0.06681450525298714,0.0608025514870882
1733860072403191300,6.14719140625,0.020523148068785666,-0.09389394309744238,0.054853287693858145
1733860072413142300,6.157142333984375,0.03438201594278216,-0.08700184549614787,-0.0028799393504858016
1733860072423093200,6.16709326171875,0.016700374910235405,-0.09347118764072657,-0.04578735318481922
1733860072433043200,6.177043212890625,0.017367898908257483,-0.083110244885087,-0.037186698099970814
1733860072442994400,6.186994384765625,0.028366262784600256,-0.08802388202026486,0.038187984097003934
1733860072452944400,6.1969443359375,0.05678747062683105,-0.09779460379779338,0.08027356015443801
1733860072462895000,6.20689501953125,0.03181538032516837,-0.09911299291998148,0.08779694139659404
1733860072472845300,6.21684521484375,0.01632460040040314,-0.08557634273767471,0.08269348077774047
1733860072482796300,6.22679638671875,0.0009201835848391055,-0.08094532193616032,0.06711363433003426
1733860072492747300,6.236747314453125,-0.01644778838865459,-0.0912247238881886,0.04445172066688537
1733860072502697200,6.246697265625,0.018082842244580385,-0.08490823421776295,0.06428688647150993
1733860072512648400,6.2566484375,0.038171032962203026,-0.10328984021320939,0.0718611211180687
1733860072522598100,6.26659814453125,0.03631444531008601,-0.09646408584639429,0.05545826784968376
1733860072532549000,6.276549072265625,0.03135711516365409,-0.07530117856934666,-0.0001765256106853485
1733860072542499300,6.286499267578125,0.018215894039720296,-0.0810585730522871,-0.04260872314870357
1733860072552450300,6.2964501953125,0.028521599476784468,-0.09886369433403014,-0.03818681505322456
1733860072562401300,6.3064013671875,0.037276129949092865,-0.07800970687568187,0.014975450813770294
1733860072572351200,6.316351318359375,0.005563917737454176,-0.07856704849749803,0.03928045550882816
1733860072582302200,6.32630224609375,0.006890928557515144,-0.07246931614428759,0.06040098494887352
1733860072592252200,6.336252197265625,0.012222425778582692,-0.06987462347596883,0.048054129073023796
1733860072602203400,6.346203369140625,0.02003521842136979,-0.08055529970526695,0.04331365654766559
1733860072612153300,6.3561533203125,0.0031160861939191816,-0.0832533066175878,0.04633037402033806
1733860072622104000,6.36610400390625,0.0118511813133955,-0.10411927677467465,0.06266600727140903
1733860072632055300,6.37605517578125,0.023484335961937903,-0.11943375028446317,0.087149875664711
1733860072642005200,6.386005126953125,-0.000683817545697093,-0.12993410151079296,0.09871522577404976
1733860072651956200,6.395956298828125,-0.006992050844430923,-0.10476868059411644,0.12234276959896087
1733860072661906200,6.40590625,0.020782164331153034,-0.09177665868252516,0.09572656535208225
1733860072671857400,6.415857421875,0.014840426257252692,-0.06676642832756043,0.030796704801917076
1733860072681807400,6.425807373046875,0.025347207224369048,-0.04025631480365991,0.0038397242933511733
1733860072691758000,6.435758056640625,0.04079853192158043,-0.06926628231927752,-0.023845570489764212
1733860072701709300,6.445709228515625,0.036583033118396995,-0.09732859372124075,-0.01397474933862686
1733860072711659300,6.4556591796875,0.02153656289502978,-0.09138561353832483,-0.013650339689850806
1733860072721610200,6.4656103515625,0.0013664660476148127,-0.08248889811635017,0.017068623700737952
1733860072731560200,6.475560302734375,0.024225071326643227,-0.1131603691034019,0.05429623833298683
1733860072741511400,6.485511474609375,0.019838088414072988,-0.1121586447149515,0.07211831074953079
1733860072751462100,6.495462158203125,0.014006532716378568,-0.09826835878938436,0.08045242385268211
1733860072761412000,6.505412109375,-0.0018889555517584084,-0.08463584701716899,0.07732756983041762
1733860072771363300,6.51536328125,-0.010189312515780329,-0.07438932442143559,0.05689385361075401
1733860072781313300,6.525313232421875,0.01868672642186284,-0.09003346827700734,0.023210195195674896
1733860072791264300,6.53526416015625,-0.0033398850124329326,-0.08710545200109482,-0.00431260250210762
1733860072801214200,6.545214111328125,0.031255627550557254,-0.07030190897732973,-0.011383563801646231
1733860072811165400,6.55516552734375,0.036334538250043985,-0.09415683181732892,-0.00203822782933712
1733860072821116200,6.5651162109375,0.02060797680802643,-0.08266746955364943,0.012829670956730842
1733860072831066400,6.57506640625,0.0002000526167452335,-0.07632233831062912,0.03018295681774616
1733860072841017300,6.585017333984375,0.0026858780831098554,-0.07939151662290096,0.060388125467300414
1733860072850963500,6.59496337890625,0.025415011763572692,-0.09485723517164588,0.07832008799910545
1733860072860914400,6.60491455078125,0.03379647113978863,-0.07950286804288625,0.04752396771907806
1733860072870864400,6.614864501953125,0.025616671815514563,-0.09084186205044388,-0.0029050737917423247
1733860072880815600,6.624815673828125,0.0010994856745004653,-0.08021320826932787,-0.007995090407133101
1733860072890766300,6.634766357421875,0.028052812921255825,-0.08461538875102996,0.019563363125920295
1733860072900716300,6.64471630859375,0.041421705321222545,-0.09851999546289443,0.04697860879600048
1733860072910667500,6.65466748046875,0.03392141269370913,-0.09703194886222481,0.07511340091228484
1733860072920617200,6.6646171875,0.007755436432361602,-0.09133183752447366,0.09993629200160503
1733860072930568400,6.674568359375,-0.00014437690675258636,-0.08597586344927549,0.07538695715665816
1733860072940518400,6.684518310546875,0.0024620061993598937,-0.09394567328467965,0.07643792751431465
1733860072950469400,6.694469482421875,0.023865298103541134,-0.11169190398603678,0.08004910374879837
1733860072960420400,6.70442041015625,0.00803410724326968,-0.09971417368352413,0.07831950347721577
1733860072970370600,6.71437060546875,0.016719079610705373,-0.05747822936996817,0.07190203765034675
1733860072980321300,6.7243212890625,0.022388795810192822,-0.04095803333222866,0.022469605961441992
1733860072990271200,6.734271240234375,-0.01618891825675964,-0.03245879279524088,0.018664368459582328
1733860073000222500,6.744222412109375,0.006280103182792663,-0.046728725688159466,0.012013093876838684
1733860073010172400,6.75417236328125,-0.002495835403725505,-0.0718706195987761,0.019878420424461363
1733860073020123400,6.764123291015625,-0.04224266631528735,-0.08077756415382027,0.055284080326557156
1733860073030074400,6.774074462890625,-0.015175941821932791,-0.1102548569202423,0.10409633429050445
1733860073040024600,6.784024658203125,0.013625205248594284,-0.14760741310641168,0.13013327734470367
1733860073049975300,6.793975341796875,0.040434886240959166,-0.1453917828835547,0.11583119574785232
1733860073059925200,6.80392529296875,0.05644771727845072,-0.13237053487747907,0.0409650475949049
1733860073069876500,6.81387646484375,0.09504325926303862,-0.12242884044721722,-0.05476210227906703
1733860073079827200,6.8238271484375,0.053369186615943906,-0.07295081605091691,-0.11726736603081225
1733860073089777400,6.83377734375,0.010902502286434173,-0.047223377337306735,-0.12911796282231808
1733860073099728400,6.843728271484375,0.010887743108719587,-0.08210515949577092,-0.07561725878119469
1733860073109678600,6.8536787109375,0.03275660669803619,-0.11174041930288076,0.017331658551096914
1733860073119629300,6.86362939453125,0.04408120685406029,-0.10953443369120358,0.08143968132436274
1733860073129579300,6.873579345703125,0.012200725403428076,-0.09799056476131081,0.11103402459919452
1733860073139530500,6.883530517578125,0.02319032145142555,-0.1132582765199244,0.11300269432365893
1733860073149481500,6.8934814453125,0.02976034749150276,-0.10217734892666339,0.10212824908792972
1733860073159431400,6.903431396484375,0.0040974984467029565,-0.08225085157677531,0.06716916390955448
1733860073169382400,6.91338232421875,0.02145195335149765,-0.05798150271698832,0.0009293898046016692
1733860073179332600,6.92333251953125,0.0061883332461118695,-0.05329699816256761,-0.010722469544410704
1733860073189283300,6.933283447265625,0.028721652093529698,-0.07803001901134848,-0.004173486292362213
1733860073199233500,6.943233642578125,0.02701718626320362,-0.09245411955267191,0.030690906339883802
1733860073209184500,6.9531845703125,0.0021539631634950635,-0.10278320586532354,0.09452946452200413
1733860073219135500,6.963135498046875,-0.00525711681060493,-0.10919336516857146,0.11222820281982421
1733860073229085400,6.97308544921875,0.017424013009667394,-0.11055983121618627,0.07941255941092967
1733860073239036400,6.983036376953125,0.03426942241378128,-0.1117616082213819,0.05510638567209243
1733860073248986400,6.992986328125,0.04858202540464699,-0.11810410911589861,0.014276947155594825
1733860073258937300,7.002937255859375,0.02363397356569767,-0.10107567129507661,-0.04592120869755745
1733860073268888600,7.012888671875,-0.006906637583300471,-0.06130977035686373,-0.03183364663422107
1733860073278838300,7.02283837890625,-0.006722001731395721,-0.06296791282743215,0.007803951749205589
1733860073288789500,7.03278955078125,0.04342252374961972,-0.08669540989547968,0.03772971893548965
1733860073298739500,7.042739501953125,0.0583641453590244,-0.090779172077775,0.05627776753902435
1733860073308690400,7.0526904296875,0.03652341188564896,-0.0768703275822103,0.04486614668667316
1733860073318640400,7.062640380859375,0.016637246546149252,-0.06372881419733166,0.03973813614845276
1733860073328591400,7.07259130859375,-0.018325345763564108,-0.07827303398698568,0.052446811074018475
1733860073338542300,7.082542236328125,0.01106383032798767,-0.09550444703400135,0.0783569128781557
1733860073348492300,7.0924921875,0.02241590301282704,-0.11695537747219205,0.09850713598132133
1733860073358443500,7.102443603515625,0.021539704700186846,-0.11647007817327976,0.088020813280344
1733860073368393500,7.1123935546875,0.02517711135447025,-0.1044099302843213,0.05067395618259907
1733860073378344400,7.122344482421875,0.03475041086375713,-0.09470365204513072,-0.0014420155018568038
1733860073388294400,7.13229443359375,0.029506080469489097,-0.07548121131137013,0.0018967735320329665
1733860073398245400,7.142245361328125,0.012810381734371185,-0.04895823830589652,0.03149228585064411
1733860073408196400,7.1521962890625,0.011485855132341384,-0.058813715757429594,0.0462456183463335
1733860073418146300,7.162146240234375,0.0255028361774981,-0.07129603458121418,0.022524551019072532
1733860073428097500,7.17209765625,0.016193594431877137,-0.08576558169946075,-0.014219079488515854
1733860073438047500,7.182047607421875,0.029767361754179,-0.07880217242762445,-0.01135842936038971
1733860073447998500,7.19199853515625,0.017840265660360455,-0.09158712745979428,0.002212415352463722
1733860073457948400,7.201948486328125,0.01931508745327592,-0.08644903391897678,0.025645313388109204
1733860073467899400,7.2118994140625,0.023908844984322785,-0.09273045227602124,0.03323006942868233
1733860073477850400,7.221850341796875,0.019758155045658348,-0.0883320711866021,0.0014753332495689392
1733860073487800300,7.23180029296875,0.0049047962415963405,-0.09010419542565941,-0.004217909955978393
1733860073497751600,7.24175146484375,-0.006437339571118354,-0.08173734909668565,0.04860124156177044
1733860073507701500,7.251701416015625,0.012064531803131103,-0.09065876056849956,0.08840133703052996
1733860073517652500,7.261652587890625,0.02062317437715828,-0.09395999407097697,0.11759294472336769
1733860073527602400,7.2716025390625,0.037292131235823034,-0.09184095609039068,0.11461188308596611
1733860073537553400,7.281553466796875,0.02515299982652068,-0.10645385720208286,0.06856500218212604
1733860073547504400,7.29150439453125,0.01447261585816741,-0.08548135793060063,0.019056582647562027
1733860073557454300,7.301454345703125,0.00614317893013358,-0.055641077070683234,0.0007639701098203659
1733860073567405600,7.311405517578125,0.03249751737043261,-0.07826850394234061,-0.0008107318609952926
1733860073577355300,7.321355224609375,0.060317836710065596,-0.08502046242058277,-0.011560089412331581
1733860073587306500,7.331306396484375,0.021238675926998258,-0.08095745076537132,-0.044478608673810954
1733860073597257500,7.341257568359375,0.017022519536688922,-0.06818886234611272,-0.09343874667584895
1733860073607207400,7.35120751953125,0.003198065388947725,-0.06861746302172542,-0.0709592038422823
1733860073617158400,7.361158447265625,-0.00614215601682663,-0.08836874993517994,0.04960720373392105
1733860073627108400,7.3711083984375,0.006440846702456474,-0.09574760814011096,0.14707096814215181
1733860073637059300,7.381059326171875,0.007703413984179497,-0.0979823814548552,0.22510990111231802
1733860073647009300,7.39100927734375,0.0077535367362201206,-0.11801219304874538,0.2147235316544771
1733860073656960500,7.40096044921875,0.010222703328728676,-0.13729600858092308,0.1481751299917698
1733860073666911500,7.410911376953125,0.022294833916425703,-0.12793109112530945,0.06733458360433578
1733860073676861400,7.420861328125,-0.0008697685718536376,-0.10894435884356499,-0.028381460353732107
1733860073686812400,7.4308125,0.002920271360874176,-0.07560469156056641,-0.06857786166369914
1733860073696762400,7.440762451171875,0.024477511717751622,-0.0696253248900175,-0.06945932067334651
1733860073706713300,7.45071337890625,0.02914323850646615,-0.08848901531398295,-0.003262801188230514
1733860073716663300,7.460663330078125,0.025067221239209174,-0.08999562048465012,0.05970072772502899
1733860073726614500,7.470614501953125,0.0005881020862609148,-0.0744575673520565,0.08016659264862537
1733860073736565200,7.480565185546875,0.020411065996438264,-0.0749760382682085,0.09476736493110656
1733860073746515500,7.490515380859375,0.01875438483059406,-0.1018729591526091,0.06051204410791397
1733860073756466400,7.500466552734375,0.0017711743909865616,-0.08606251881942152,0.037626843082904815
1733860073766416400,7.51041650390625,0.012956658337265252,-0.06949994494467973,0.049850364840030664
1733860073776367400,7.520367431640625,0.024691958186030386,-0.0906307035177946,0.05140753115415573
1733860073786318300,7.530318359375,0.026976269730925557,-0.09425678506046534,0.06987550025880336
1733860073796268500,7.5402685546875,0.035706104153394695,-0.08599062262699007,0.03869008840024471
1733860073806219300,7.55021923828125,0.008769581910967826,-0.07494754282608627,0.016611527583003043
1733860073816169500,7.56016943359375,0.010776318623498081,-0.08238076156675815,0.01772796439230442
1733860073826120400,7.570120361328125,0.02336509349644184,-0.09046542995348572,0.021253800430893897
1733860073836070400,7.5800703125,0.01996668322980404,-0.08650427123755217,0.00009469254612922667
1733860073846021400,7.590021484375,0.021992051577568054,-0.07408055073320866,-0.01675415092408657
1733860073855972900,7.599972900390625,0.03635784606039524,-0.0824951817266643,-0.031772271835803986
1733860073865922800,7.6099228515625,0.03858838159143924,-0.08578004861623048,-0.016828385204076767
1733860073875873800,7.619873779296875,0.015521978780627249,-0.08833192505612969,0.04179156154692173
1733860073885823700,7.62982373046875,0.005325432806462049,-0.08857990846782922,0.07486497910916805
1733860073895774700,7.639774658203125,0.01178732229694724,-0.0757753719523549,0.04948211604952812
1733860073905724700,7.649724609375,0.00001388239488005638,-0.07236687868312001,0.024548750323057172
1733860073915676000,7.659676025390625,0.011077858853340148,-0.08607347860485315,0.03180734314918518
1733860073925627000,7.669626953125,0.018850684811919927,-0.10424188024103641,0.07024784070253372
1733860073935576600,7.67957666015625,-0.0035584961991757154,-0.10816372985988855,0.0860123960673809
1733860073945527800,7.68952783203125,0.027992241840437054,-0.11845365320593118,0.06609539719820022
1733860073955477800,7.699477783203125,0.02975391775071621,-0.113562081772089,0.04182663286030292
1733860073965428700,7.7094287109375,0.028576690664887428,-0.07122033899649977,0.0022591771036386487
1733860073975378700,7.719378662109375,0.012988076388835906,-0.06640417088642717,0.020040332987904547
1733860073985330000,7.729329833984375,0.03747720547914505,-0.09285802417844534,0.0795990218937397
1733860073995280600,7.73928076171875,0.02684774798043072,-0.10796616146117448,0.11237784042358398
1733860074005230800,7.74923095703125,-0.0027342472694814202,-0.11635974966660141,0.10277180768847465
1733860074015181800,7.759181884765625,0.013400748842954635,-0.09079305447265505,0.08175649218857288
1733860074025131800,7.7691318359375,0.03056172700226307,-0.0824000507891178,0.02715221081972122
1733860074035082800,7.779082763671875,0.023216624936461448,-0.07296279874965549,-0.015670447340607643
1733860074045033700,7.78903369140625,0.004257072922587394,-0.06889569544121622,-0.02415185995995998
1733860074054984000,7.79898388671875,0.004630582410097122,-0.05967705458849668,-0.012496493479609488
1733860074064934700,7.8089345703125,0.007291326051950454,-0.07707651767879724,0.011278934383392333
1733860074074884900,7.818884765625,0.01910670539960265,-0.07700973605290055,0.023393150547146795
1733860074084835800,7.8288359375,0.027782909938693045,-0.0771336546935141,0.022020693150162696
1733860074094785800,7.838785888671875,0.021782208219170568,-0.07354293672516941,0.040028059005737304
1733860074104736800,7.84873681640625,0.014144845208525656,-0.08751900123804807,0.05873860469460487
1733860074114687700,7.858687744140625,0.023447584148123857,-0.09906360082030295,0.06818915460705757
1733860074124638000,7.868637939453125,0.02599544200003147,-0.1010654421620071,0.07005845561027527
1733860074134588700,7.878588623046875,0.019932634829729793,-0.09884849676489829,0.04170914396047592
1733860074144539000,7.888538818359375,0.012548369797319173,-0.07611863243207335,-0.007721534162759781
1733860074154489900,7.89848974609375,0.005664601632952689,-0.06852817730307578,0.003014379385113716
1733860074164439600,7.908439453125,0.0039034371793270108,-0.0627569004252553,0.03645253860652446
1733860074174390800,7.918390869140625,0.008349310672283172,-0.08496478671059012,0.05701601868569851
1733860074184342000,7.928342041015625,0.013390081318467854,-0.10237871671766043,0.09987491720318793
1733860074194291700,7.938291748046875,0.010917115333676338,-0.11529153591319918,0.10285831692814826
1733860074204242700,7.94824267578125,0.015590806233137845,-0.12168313664644956,0.09170914640426635
1733860074214193000,7.95819287109375,0.03157937961220741,-0.09994973600506782,0.07627601495087147
1733860074224143600,7.9681435546875,0.033746859844401476,-0.0872289322502911,0.014192191481590271
1733860074234094800,7.9780947265625,0.023831615029647944,-0.0877149622015655,-0.05049626152813434
1733860074244044800,7.988044921875,0.010995587397366762,-0.06141790690645575,-0.021754735690355298
1733860074253995800,7.997995849609375,0.03687091014906764,-0.0758212569206953,0.014233692535758017
1733860074263945700,8.00794580078125,0.019085808742046354,-0.08982172522246837,0.056798576542735096
1733860074273896700,8.017896728515625,0.03303082052953541,-0.08941519024819135,0.04830021278858185
1733860074283847000,8.027846923828125,0.026442601245641708,-0.07707096472084522,0.005702595555782318
1733860074293797600,8.037797607421876,-0.005194646033644676,-0.0495123650573194,-0.007502922976016998
1733860074303748900,8.047748779296874,0.020323972234874962,-0.07482990779578685,-0.01225683950483799
1733860074313698800,8.05769873046875,0.012539894229918717,-0.09465659803301095,0.015841127732396126
1733860074323649800,8.06764990234375,-0.0039080402892082925,-0.08384645020514726,0.06921849765479564
1733860074333599700,8.077599853515625,0.014595584650710224,-0.10885931090861559,0.09034428779184818
1733860074343550700,8.08755078125,0.020648893340304494,-0.10591478188931941,0.09119009096622467
1733860074353501700,8.097501708984375,0.009719503046944737,-0.0978777520366013,0.05272855062484741
1733860074363451600,8.10745166015625,0.008760302625969052,-0.0975504197783768,0.05569675278067589
1733860074373403000,8.11740283203125,0.01444528945982456,-0.09164908678010106,0.06616261721551418
1733860074383352800,8.127352783203126,0.012134747495129704,-0.07039411730542779,0.05407178192734718
1733860074393303800,8.1373037109375,0.009860372822359204,-0.07544350964948535,0.03491349247097969
1733860074403253800,8.147253662109375,0.029398674572259188,-0.10964783093780278,0.03558861525356769
1733860074413205000,8.157205078125,0.013805968642979859,-0.1046921082265675,0.04362228410542011
1733860074423155700,8.16715576171875,-0.004631751453876495,-0.07444047008678317,0.02488485040962696
1733860074433105700,8.177105712890626,0.013346461372449993,-0.06389233419597148,0.057792848277091975
1733860074443057000,8.187056884765624,0.024906550784781573,-0.09516016364097594,0.08294599423408508
1733860074453006800,8.1970068359375,0.03882511295676231,-0.09544716388881205,0.07299450906217098
1733860074462957800,8.206957763671875,0.009076455903053284,-0.08142112275436521,0.05878595096766948
1733860074472907800,8.21690771484375,-0.008107318609952925,-0.07999050542935729,0.013486673560738563
1733860074482859000,8.22685888671875,0.02575578802525997,-0.08358575344234705,-0.0430868620544672
1733860074492809700,8.236809814453125,0.01760170766413212,-0.07851853318065405,-0.03482932131886482
1733860074502759700,8.246759765625,0.025088117896765467,-0.0780963622458279,0.030024551385641095
1733860074512711000,8.2567109375,0.04216857816576958,-0.08918371957987546,0.08339198443591594
1733860074522660600,8.26666064453125,0.017817469306662677,-0.08748729092553258,0.0634954438328743
1733860074532611800,8.27661181640625,-0.013259879067540168,-0.07451163562685251,0.034683190846443175
1733860074542561800,8.286561767578124,0.003413607835769653,-0.09410320193395018,0.05594692814946174
1733860074552512800,8.2965126953125,0.006344985112547874,-0.09740355865359306,0.04490121800005436
1733860074562463700,8.306463623046875,0.01355564714372158,-0.10651362456530332,0.055746437141299246
1733860074572413700,8.31641357421875,0.009748071554303168,-0.1084327560596168,0.04685059850215911
1733860074582364700,8.32636474609375,0.02010170778632164,-0.10811492228209972,0.019965514186024665
1733860074592314600,8.336314697265625,0.01855973904132843,-0.09325886006429791,0.0214671509206295
1733860074602265900,8.346265869140625,0.007756605476140975,-0.0725099404156208,0.03537643380761146
1733860074612216800,8.356216796875,0.006386486166715622,-0.0766381262615323,0.05679974558651447
1733860074622166800,8.366166748046876,0.023012042275071143,-0.08435439972728491,0.10126257216930389
1733860074632117800,8.37611767578125,0.020589783564209936,-0.07563099504560232,0.09036123892664909
1733860074642068000,8.38606787109375,0.012920856371521948,-0.08719298415407538,0.05244271942079067
1733860074652018700,8.396018798828125,0.0028712445873767135,-0.08102306334748864,-0.010118658432364463
1733860074661968600,8.40596875,0.0158477036036551,-0.08130231868028641,-0.04488485138714313
1733860074671919900,8.415919921875,0.018470891714096067,-0.09080372199714183,-0.023615853387117386
1733860074681870600,8.42587060546875,0.022589871340245007,-0.08514657301828264,0.021041618984937668
1733860074691820800,8.43582080078125,0.03227379161715507,-0.09396028633192181,0.08852291758358478
1733860074701771800,8.445771728515625,0.026547230663895607,-0.10765256546735763,0.121779290497303
1733860074711722000,8.455721923828126,0.012222206582874059,-0.10482903247922658,0.08604337572753429
1733860074721672700,8.465672607421874,-0.015726561442017555,-0.07799801643788815,0.022011925321817397
1733860074731624000,8.4756240234375,0.009474953701347112,-0.051298956213146445,0.009435936865210532
1733860074741574000,8.485573974609375,0.03187412477508187,-0.07014671841561794,0.005756371569633483
1733860074751524600,8.495524658203125,0.030298838282376526,-0.07577493356093763,0.01965630210638046
1733860074761474800,8.505474853515626,0.025255583418160674,-0.07393398186936974,0.012854805397987366
1733860074771425800,8.51542578125,0.008293342701345682,-0.09328545581027865,0.017107786667346952
1733860074781376000,8.5253759765625,0.017541940300911663,-0.11077990370765328,0.05892331361174583
1733860074791326700,8.53532666015625,0.03471124789714813,-0.08970292114838957,0.061547816896438595
1733860074801278000,8.54527783203125,0.020905425384640693,-0.08004252787753939,0.037867666101455685
1733860074811228000,8.555227783203126,0.017483634242415426,-0.059939066525548694,0.04296177437007427
1733860074821178600,8.5651787109375,0.024535890841484068,-0.07323737790733575,0.017545593562722204
1733860074831128800,8.57512890625,0.010495090529322624,-0.08407733635157347,0.008448679393529892
1733860074841079800,8.585079833984375,0.008536576872691512,-0.08070669087469577,0.03912438816428184
1733860074851030300,8.5950302734375,0.006836641087010502,-0.09270151844248176,0.07637304558455944
1733860074860981200,8.604981201171874,0.011411693917587399,-0.09609116088077425,0.07070318325459957
1733860074870932200,8.61493212890625,0.011256211094930767,-0.10354337658286095,0.053853170740604396
1733860074880882200,8.624882080078125,0.028725743746757505,-0.095924718272686,0.020768647262454032
1733860074890833400,8.63483349609375,0.016816548635810613,-0.07076251222640276,0.010965046128630638
1733860074900783400,8.644783447265626,0.02083411371409893,-0.05412395050600171,0.0020528408765792846
1733860074910734000,8.654734130859374,0.028585312362760303,-0.0851063871383667,0.03384147932529449
1733860074920684300,8.664684326171875,0.027102380328625438,-0.06866013311967253,0.047106034567952156
1733860074930635300,8.67463525390625,0.018114333361387253,-0.06690364484116434,0.02971417026221752
1733860074940586200,8.684586181640626,0.013792963030934333,-0.07986600226685404,0.016390578308701515
1733860074950536200,8.6945361328125,0.03469510047994554,-0.0808392312131822,0.010506196445226669
1733860074960487400,8.7044873046875,0.013333601890876888,-0.093386431966722,0.010310381612181663
1733860074970437400,8.714437255859375,-0.011945800794288515,-0.07470482011139393,0.04854863459169864
1733860074980388400,8.724388427734375,-0.019049422254413365,-0.10031389314234256,0.0947264483988285
1733860074990339300,8.73433935546875,0.012730448365956545,-0.10481135069206357,0.10358780024647712
1733860075000289300,8.744289306640624,0.0003812544025480747,-0.08702201150134205,0.06208966868817806
1733860075010240300,8.754240234375,0.007000307216122746,-0.06456994119659065,0.031166122636198997
1733860075020190200,8.764190185546875,0.017788754668831824,-0.08822232720181346,0.04956920981109142
1733860075030141400,8.774141357421875,0.02726677711009979,-0.1184612519904971,0.06824643775224686
1733860075040091400,8.78409130859375,0.001011222869157791,-0.09867124050185083,0.08711188174188136
1733860075050042400,8.79404248046875,0.006868132203817367,-0.0746371617026627,0.07854922057986259
1733860075059993300,8.803993408203125,0.0009440028518438339,-0.07213190088346601,0.026064415583014488
1733860075069943300,8.813943359375,0.021699059980362652,-0.07687602667063474,-0.0007166238367557525
1733860075079894300,8.823894287109376,0.008920242428034544,-0.0787403592377901,-0.010951017603278159
1733860075089844200,8.83384423828125,0.017360884645581245,-0.07136953820884227,-0.004294482323527336
1733860075099795500,8.84379541015625,-0.006785130095481872,-0.06768588126003741,0.012390110495686531
1733860075109746200,8.85374609375,-0.006307502646371722,-0.08073197144642472,0.05430325259566307
1733860075119696400,8.8636962890625,0.023147066831588743,-0.11182751306444406,0.08960662116706371
1733860075129647400,8.8736474609375,0.04842398529872298,-0.10327055099084972,0.107135263594985
1733860075139597000,8.88359716796875,0.02707154679894447,-0.08474880587235092,0.07743570638000964
1733860075149548300,8.89354833984375,0.01685702677667141,-0.0660027504786849,0.010681553012132644
1733860075159498200,8.903498291015625,0.015032295567542313,-0.07116144841611385,-0.02632569686770439
1733860075169449200,8.91344921875,0.004757423660159111,-0.06997749932855367,0.017432780838012696
1733860075179400200,8.923400146484376,0.018758476483821868,-0.0807609052799642,0.06986790147423744
1733860075189350400,8.933350341796874,0.04150112723298371,-0.0906657748311758,0.06965513550639152
1733860075199301000,8.943301025390625,0.0066869304180145256,-0.0726841279387474,0.06837795517742633
1733860075209251300,8.953251220703125,0.008355155891180037,-0.0726449649721384,0.04703706098496914
1733860075219202300,8.963202392578125,0.024893106781318782,-0.0926201237693429,0.033007366588711735
1733860075229152300,8.97315234375,0.023651582287624477,-0.08827376512810588,0.01419394504725933
1733860075239103200,8.983103271484374,0.008944353955984115,-0.07962313342168927,0.020066636472940443
1733860075249054200,8.99305419921875,0.0027530981004238128,-0.08552402802854776,0.011572364372014999
1733860075259004400,9.00300439453125,0.00993109997101128,-0.08210881275758147,0.0183387897670269
1733860075268955100,9.012955078125,-0.0008767828345298766,-0.08627586930915712,0.04770984567999839
1733860075278905300,9.0229052734375,0.006648425038531422,-0.0943909328341484,0.07154606381952762
1733860075288856300,9.032856201171874,0.006029197161644697,-0.08022066092342138,0.08390051847994327
1733860075298806300,9.04280615234375,0.008331263558939098,-0.08152458312883973,0.05035246914327144
1733860075308757200,9.05275732421875,0.01628024980202317,-0.06565963612943887,0.0030213936477899547
1733860075318708200,9.062708251953126,0.03631890228949487,-0.06617270021811127,-0.01787818651795387
1733860075328658400,9.072658447265624,0.013871142833679913,-0.060791737832128996,-0.026737200278043747
1733860075338609200,9.082609130859375,0.014709493353962898,-0.0672239628367126,0.01719897208213806
1733860075348559400,9.092559326171875,0.011460136169195174,-0.08284063416346907,0.030606735187768935
1733860075358510300,9.10251025390625,0.007097849306464195,-0.09477189497575163,0.0470604418605566
1733860075368461300,9.11246142578125,0.008504282038286327,-0.10733253973275422,0.08089139979183674
1733860075378411300,9.122411376953124,-0.005080006678029894,-0.09034837944507598,0.12268003872931003
1733860075388362500,9.132362548828125,-0.0017417291007936,-0.09128829064369201,0.11068974120616912
1733860075398312400,9.1423125,-0.00037343642227351666,-0.09205547562390565,0.0783130737364292
1733860075408263200,9.15226318359375,0.019167130349949,-0.07984247526079416,0.05542378105819225
1733860075418213400,9.16221337890625,0.025079496198892593,-0.07859379037395119,0.011131050345301628
1733860075428164400,9.172164306640624,-0.010009352838993072,-0.0724329296566546,-0.011837152788043022
1733860075438115300,9.182115234375,-0.017852467554807662,-0.07463935365974902,-0.021145663881301877
1733860075448065300,9.192065185546875,0.02783500545211136,-0.08467880937606095,-0.002451484805345535
1733860075458016500,9.2020166015625,0.028621114328503606,-0.09586845804080367,0.028315409380197522
1733860075467966200,9.21196630859375,0.01833060646057129,-0.09432502799108623,0.05519406395554542
1733860075477917200,9.221917236328125,0.009089899906516074,-0.07337941672652959,0.08991758681237697
1733860075487868400,9.231868408203125,0.007322305712103843,-0.08818126453906297,0.06773790370821953
1733860075497818000,9.241818115234375,0.022123569002747534,-0.09307108240723609,0.029608956322073936
1733860075507769300,9.251769287109376,0.0246259072124958,-0.07794672464206814,0.010334347009658813
1733860075517719300,9.26171923828125,0.018081600135564802,-0.06284720905721188,-0.0022872341543436047
1733860075527670300,9.271670166015625,0.02480659754164517,-0.06822948661744595,0.04286825086772442
1733860075537620200,9.2816201171875,0.03974697704203427,-0.10024360438510775,0.0679395637601614
1733860075547571200,9.2915712890625,0.011707388928532599,-0.10540040262639522,0.08548165019154548
1733860075557522200,9.301522216796876,0.014716507616639136,-0.08083207082003355,0.06300795257687568
1733860075567472000,9.31147216796875,0.02271342465467751,-0.06572700227722525,0.03025017683506012
1733860075577423400,9.32142333984375,0.006525602376461028,-0.06490253415182233,-0.003415361401438713
1733860075587373300,9.331373291015625,0.014576368493586778,-0.05968216915503144,-0.02756488327383995
1733860075597324300,9.34132421875,0.025825492260605095,-0.05955708147063851,0.006231587865948677
1733860075607274200,9.351274169921876,0.027559476446360347,-0.07628244469165801,0.03977028485238552
1733860075617225500,9.3612255859375,0.034684359890222546,-0.08990326602607965,0.05430266807377338
1733860075627176200,9.37117626953125,0.037460838866233824,-0.10534867243915795,0.04131809881627559
1733860075637126100,9.381126220703125,-0.0033230069428682326,-0.08724179173186421,0.04387947373688221
1733860075647077400,9.391077392578126,0.012976970472931861,-0.07227803135588765,0.019999416455626487
1733860075657027300,9.40102734375,0.00800035110414028,-0.08951631253510713,0.006964578315615653
1733860075666978300,9.410978271484375,-0.0112334878064692,-0.06650178604200482,0.04203881430625915
1733860075676929300,9.42092919921875,0.011289455777406691,-0.07159267944023012,0.07821604310274123
1733860075686879500,9.43087939453125,0.01198795943558216,-0.08668708045855164,0.10978957749605178
1733860075696830200,9.440830322265626,0.022245222621038556,-0.09447013555020094,0.110686234074831
1733860075706780200,9.4507802734375,0.004451207255199551,-0.1038144486092031,0.07671849802136421
1733860075716731400,9.4607314453125,0.011214198584109544,-0.0876150089584291,0.04957271694242954
1733860075726681300,9.470681396484375,0.0003777472712099552,-0.0868367180623114,0.011008300748467445
1733860075736632300,9.48063232421875,0.004875497081875801,-0.07859145228639244,-0.01671440343558788
1733860075746583300,9.490583251953124,0.00906111220344901,-0.0806575910359621,-0.004236030134558678
1733860075756533500,9.500533447265624,0.018684680595248936,-0.08125789501667022,0.021904373294115067
1733860075766484200,9.510484130859375,0.02472417995519936,-0.09073518680557609,0.05242810637354851
1733860075776434200,9.52043408203125,0.019406272868067027,-0.10796996085345745,0.04679331535696983
1733860075786385400,9.530385498046876,0.001957636873796582,-0.07855974197387695,0.03700082013905048
1733860075796335000,9.540335205078126,0.011669541136175394,-0.06975055870488285,0.09020341801643371
1733860075806286300,9.550286376953125,0.014690934783965348,-0.09916735345572232,0.06666472151875495
1733860075816237300,9.5602373046875,-0.002716200156137347,-0.07035057042464614,0.0490121604502201
1733860075826187300,9.570187255859375,-0.0014414309799671173,-0.06103124567642808,0.04838321489691734
1733860075836138200,9.58013818359375,0.03821078045070171,-0.08037482857182622,0.027948914155364036
1733860075846088400,9.59008837890625,0.024417232897877693,-0.06040127720981836,0.01550502764582634
1733860075856039200,9.6000390625,-0.0009808277308940886,-0.08575213769599795,0.020358897417783735
1733860075865990100,9.609990234375,0.03649484337829053,-0.09991466469168662,0.01355214001238346
1733860075875940000,9.619940185546875,0.025467034211754797,-0.07115399576202035,0.01815057371854782
1733860075885891000,9.62989111328125,-0.013281652507930994,-0.057015726424753665,0.03171908034384251
1733860075895841000,9.639841064453124,0.007438479437679052,-0.07824702276289462,0.05094634338319301
1733860075905792300,9.649792236328125,0.03748232004567981,-0.1060084515221417,0.06452186427116394
1733860075915742200,9.6597421875,0.01640972140058875,-0.07422931155413388,0.06332008726596831
1733860075925693000,9.66969287109375,-0.0012200433142483234,-0.06553937075063586,0.028611761978268622
1733860075935644200,9.67964404296875,-0.008432897302508353,-0.07088540795370936,0.02468962009847164
1733860075945594000,9.689593994140624,0.023562734960392115,-0.07989099057763814,0.03351297802329063
1733860075955545000,9.699545166015625,0.027218919380381703,-0.10340177615508436,0.06331190395951271
1733860075965495000,9.7094951171875,0.004647533544898033,-0.09047902008742094,0.0884130274683237
1733860075975446300,9.7194462890625,-0.010045008674263953,-0.09817439689561724,0.06824994488358498
1733860075985397000,9.72939697265625,0.008616510241106152,-0.08902356058210134,0.041565351575613016
1733860075995347000,9.739346923828125,0.030564065089821815,-0.06716916390955448,0.029788989064097403
1733860076005298200,9.749298095703125,0.03976736224293709,-0.05392784341201186,0.025270634856820105
1733860076015248100,9.759248046875,0.03216273245811462,-0.05825125956907868,-0.005555880561470985
1733860076025199000,9.76919921875,0.011976342063024639,-0.07120762564539909,-0.02073123786151409
1733860076035149000,9.779149169921874,0.004900631523132324,-0.08490092769414186,0.001457213070988655
1733860076045100300,9.789100341796875,0.02675890065319836,-0.07753405218794941,0.025712533405423163
1733860076055051000,9.799051025390625,0.010876783323287963,-0.08634878841489553,0.05372632949054241
1733860076065001000,9.8090009765625,0.00730250503309071,-0.09881664032191037,0.07865618808567523
1733860076074952200,9.8189521484375,0.006729746646434069,-0.09448328729271888,0.08914251078665256
1733860076084902100,9.828902099609374,0.008460808222740888,-0.08329334636703133,0.07952128048241137
1733860076094853000,9.83885302734375,0.03021685908734798,-0.0852664000056684,0.05065466696023941
1733860076104803000,9.848802978515625,0.0295277077794075,-0.09708367904946208,0.03377952000498771
1733860076114754300,9.85875439453125,0.0076602324295789,-0.08174743209928274,0.017656652721762655
1733860076124705000,9.868705078125,-0.002338014493510127,-0.07884323509037494,0.023768413600325583
1733860076134655200,9.8786552734375,0.00237557002492249,-0.08652999020069838,0.043968321064114566
1733860076144606200,9.888606201171875,0.0276226048104465,-0.09536357725858688,0.051714405146241184
1733860076154556200,9.89855615234375,0.026609847571328282,-0.09146320881918073,0.041565936097502705
1733860076164507100,9.908507080078126,-0.00013728957884013651,-0.07259718030765652,0.02638005740344524
1733860076174458000,9.9184580078125,-0.0004966974757611751,-0.0599944499745965,0.011676993790268897
1733860076184408000,9.928407958984375,0.004790741407871246,-0.05762991280034184,0.035282325783371926
1733860076194359000,9.938359130859375,0.02426452655419707,-0.07014335741475224,0.01820142712295055
1733860076204309200,9.948309326171875,0.02256020685434341,-0.06710983493775129,0.012537410011887549
1733860076214260200,9.95826025390625,0.013364581551030277,-0.07652882066816091,0.004176993423700332
1733860076224210000,9.9682099609375,-0.01842296091914177,-0.061610214608162635,0.03747019121646881
1733860076234161200,9.9781611328125,0.0030716625303030013,-0.072713792424649,0.09517945286333561
1733860076244112100,9.988112060546875,0.023266893818974493,-0.10118483075797557,0.1545446650236845
1733860076254062000,9.99806201171875,-0.002559621354937553,-0.08304287873730062,0.14985563042461872
1733860076264013000,10.008012939453126,-0.002865326303243637,-0.07833426265493035,0.08078560132980346
1733860076273963300,10.01796337890625,0.020415011519193647,-0.09796031575351953,-0.003951367974281311
1733860076283914000,10.0279140625,0.04199621727354824,-0.09451236725673079,-0.06464052221477032
1733860076293865200,10.037865234375,0.0349750133998692,-0.09249664352014661,-0.09715805945992469
1733860076303815200,10.047815185546876,-0.015654080727696418,-0.07089855969622731,-0.04032791873514652
1733860076313766100,10.05776611328125,0.0045341362982988355,-0.08080313698649406,0.05973112286329269
1733860076323716000,10.067716064453125,0.020087094739079474,-0.10197115883007644,0.13214812429845332
1733860076333667000,10.0776669921875,-0.012586509850621222,-0.083408643309772,0.134916419968009
1733860076343617300,10.0876171875,0.011815671608597039,-0.07172405073493719,0.09468786995410919
1733860076353568000,10.097568115234376,0.03526778580136597,-0.06340601198375224,0.05211597168445587
1733860076363519200,10.107519287109374,0.02434358313977718,-0.030447014581412076,-0.02581190212666988
1733860076373469200,10.11746923828125,-0.0021919570863246918,-0.033772651872783895,-0.034273441001772875
1733860076383420200,10.127420166015625,0.03229724555797875,-0.05581584911569953,-0.01723988861441612
1733860076393370000,10.1373701171875,0.028005174387246368,-0.06710106710940598,0.010684475621581077
1733860076403321000,10.147321044921876,0.033507863456755875,-0.0825903126642108,0.012562544453144073
1733860076413272000,10.15727197265625,0.011452537384629249,-0.08750789532214402,0.016664719074964522
1733860076423222000,10.167221923828125,0.0022952713303267956,-0.07866495591402053,0.05948153201639652
1733860076433173200,10.17717333984375,0.02424479894042015,-0.09656783848181366,0.10157295329272746
1733860076443123200,10.187123291015626,0.011299392649531365,-0.0875583103351295,0.11526596308052539
1733860076453074200,10.19707421875,-0.0007839899845421313,-0.07433291805908084,0.0785877990245819
1733860076463024000,10.207024169921874,0.0053406303755939005,-0.07916662182584404,0.04135959987044334
1733860076472975000,10.21697509765625,-0.01811506401374936,-0.05819251511916518,0.02223871981501579
1733860076482926000,10.226926025390625,-0.006686857352778315,-0.07241627078279853,0.011992635610699652
1733860076492876000,10.2368759765625,0.005071458045393228,-0.0872464679069817,0.03323533012568951
1733860076502827300,10.2468271484375,0.027121304224804042,-0.07401800689101219,0.05013268891274929
1733860076512777200,10.256777099609375,0.012452654337882995,-0.07028393492922186,0.04473462926149368
1733860076522728200,10.266728271484375,0.01135316866338253,-0.06691475075706839,0.04919628484547138
1733860076532678100,10.27667822265625,0.023963059389591215,-0.07502163097560405,0.053766076979041094
1733860076542629000,10.286629150390626,0.021107669958472252,-0.09283785817325114,0.06087094054818153
1733860076552580000,10.296580078125,0.026827801170945166,-0.09518295999467373,0.019479191973805425
1733860076562530000,10.306530029296875,0.0003045359045267105,-0.07267141458764671,-0.013176292437314987
1733860076572481300,10.316481201171875,0.006547229686379432,-0.0761735774897039,0.0003045359045267105
1733860076582431000,10.326430908203125,0.018080284961313007,-0.09275003375932574,0.039357027876377106
1733860076592382200,10.33638232421875,0.011728431716561316,-0.10306143828481436,0.0820738875746727
1733860076602333200,10.346333251953125,0.013936170893907546,-0.10486585735827683,0.11936463057100773
1733860076612283100,10.356283203125,0.006838321587443351,-0.10125497338473796,0.11832476612925528
1733860076622234000,10.366234130859375,0.021366613155603408,-0.07546323726326226,0.07890870154201984
1733860076632184000,10.37618408203125,0.037017040621489285,-0.07235562663674354,0.015649404552578926
1733860076642135000,10.386135009765624,0.016749474748969078,-0.053688920089602465,-0.041752983102202414
1733860076652085000,10.3960849609375,0.043871363495662806,-0.0438490785986185,-0.042833764076232905
1733860076662036200,10.4060361328125,0.03835523042269051,-0.05421396687701344,-0.03318681480884552
1733860076671987000,10.415987060546875,-0.009632336220145225,-0.049086248599737876,-0.004561024305224418
1733860076681937200,10.425937255859376,0.0137029466599226,-0.04960121238455176,0.031654198414087294
1733860076691888000,10.43588818359375,0.036808366306871176,-0.0785094730913639,0.062142860180139536
1733860076701838000,10.445838134765625,0.03395882209464907,-0.09991291112601756,0.0787099640995264
1733860076711789000,10.4557890625,0.025296207689493894,-0.10982932498455047,0.08980185147821902
1733860076721740000,10.465739990234376,-0.006649521017074584,-0.08229615202322602,0.08885375697314739
1733860076731690200,10.475690185546876,-0.01146598138809204,-0.08701631241291762,0.09786591546833515
1733860076741641000,10.485640869140624,-0.0033171617239713667,-0.0904861804805696,0.14735738386809824
1733860076751591200,10.495591064453125,0.006731938603520393,-0.10820376960933208,0.1445966869831085
1733860076761542100,10.505542236328125,0.03903539470657706,-0.08726663391217589,0.11561258456110954
1733860076771492400,10.515492431640626,0.02128887174427509,-0.07796089929789304,0.06740823336243629
1733860076781443000,10.525443115234374,0.011343816313147544,-0.07133402850404381,0.009342997884750365
1733860076791394300,10.535394287109375,0.001258548693731427,-0.06001899989396333,-0.032744331738352776
1733860076801344300,10.54534423828125,-0.0036252047598361965,-0.0494819699190557,-0.014331892213225363
1733860076811295000,10.555294921875,0.005117562209442258,-0.06903685747757554,0.043212534260749814
1733860076821245200,10.5652451171875,0.0206469205789268,-0.10448694104328751,0.08534954824447631
1733860076831196200,10.575196044921874,0.014756255105137825,-0.10294058838412165,0.1070434936583042
1733860076841146000,10.58514599609375,0.014945640197396278,-0.08517550685182214,0.0828407802939415
1733860076851098600,10.5950986328125,0.014226678273081779,-0.07372998372986912,0.05715396585166454
1733860076861049600,10.605049560546876,0.009399696508049964,-0.08806830568388103,0.02140928325355053
1733860076870999600,10.61499951171875,0.028763007017225027,-0.08094999811127782,0.027837854996323585
1733860076880950800,10.62495068359375,0.019787088879197834,-0.07271130820661782,0.0194324302226305
1733860076890900700,10.634900634765625,-0.003655746028572321,-0.07255728668868541,0.030909517526626584
1733860076900851700,10.644851806640625,-0.008007949888706206,-0.076367346496135,0.047296004182100296
1733860076910802700,10.654802734375,0.006766863786429166,-0.07140124852135778,0.07697861026227473
1733860076920752600,10.664752685546874,-0.006783522660285234,-0.07367723062932491,0.0738689538091421
1733860076930703600,10.67470361328125,0.0037660745352506636,-0.07748699817582964,0.062090837731957435
1733860076940653600,10.684653564453125,0.01125387300737202,-0.08729849035516381,0.060790861049294466
1733860076950604800,10.694604736328126,0.011105988969281316,-0.0597230856873095,0.07057809557020664
1733860076960554500,10.704554443359376,0.020344941957667468,-0.05034150935783982,0.04536474385857582
1733860076970505700,10.714505615234375,0.03023439474403858,-0.04651975911259651,0.0254886615216732
1733860076980456700,10.724456787109375,0.029963176587224007,-0.05151975935697555,-0.005833528459072113
1733860076990406400,10.734406494140625,0.03715791039690375,-0.06729293641969561,-0.02570961079597473
1733860077000357600,10.744357666015626,0.04188216243982315,-0.075680094884336,-0.02910977462828159
1733860077010307600,10.7543076171875,0.024743249981850384,-0.06371770828142762,-0.008819850793480872
1733860077020258600,10.764258544921875,0.009259484319761395,-0.05577274062633514,0.009061258333921431
1733860077030209500,10.77420947265625,0.032841362372040744,-0.056564621656388044,0.04405950647890568
1733860077040159700,10.78415966796875,0.022822657182812688,-0.07756663928329945,0.05090250424146652
1733860077050110500,10.7941103515625,0.016909633746743202,-0.10634615904390811,0.01158756194114685
1733860077060060700,10.804060791015624,0.008256956213712691,-0.08651888428479433,0.039344168394804
1733860077070011600,10.81401171875,-0.013962474378943442,-0.0806913471750915,0.04614566510319709
1733860077079961600,10.823961669921875,0.019246552261710168,-0.09586685060560703,0.05552139621376991
1733860077089912600,10.83391259765625,0.029908304594829675,-0.10887553139105438,0.05003039758205414
1733860077099863600,10.843863525390624,0.04990362939722836,-0.08566445941254495,0.03174772191643715
1733860077109813800,10.853813720703124,0.04946165778338909,-0.06529971677586435,0.012696984487771987
1733860077119764500,10.863764404296875,0.02764481664225459,-0.06176978908404707,-0.006692191115021705
1733860077129714700,10.873714599609375,0.008519844933599233,-0.07230243514478206,-0.007555529946088791
1733860077139665700,10.883665771484376,0.023936244447901843,-0.07074409978687762,0.018931494963169097
1733860077149616600,10.89361669921875,0.02462481123395264,-0.06826850345358253,0.042998014727234836
1733860077159566600,10.903566650390625,0.017939049859717487,-0.06640563219115138,0.0366121130824089
1733860077169517600,10.913517578125,0.016419804403185842,-0.07206658056229352,0.04330079706609249
1733860077179467800,10.9234677734375,0.03151157507300377,-0.07473243877068161,0.04466799376606941
1733860077189418500,10.93341845703125,0.030182518426328894,-0.07233078445643186,0.036464229044318196
1733860077199368700,10.94336865234375,0.00211545778401196,-0.08959551525115966,0.062497664967179296
1733860077209319700,10.953319580078125,0.013753215542435646,-0.08880655683055519,0.06682195790708065
1733860077219270700,10.963270751953125,0.004737622981145977,-0.07781769143491983,0.07056465156674385
1733860077229220600,10.973220703125,0.008393222879245876,-0.07983926039040089,0.07866904756724834
1733860077239171800,10.983171875,0.00806413705535233,-0.07486570976153016,0.08859130664467811
1733860077249121800,10.993121826171874,0.009181669843196868,-0.07908814976215361,0.07716390370130538
1733860077259072500,11.003072509765625,0.01625789183974266,-0.08178732571825384,0.05438625470399856
1733860077269022700,11.013022705078125,-0.0035661680489778515,-0.0937536578439176,0.03728898943066597
1733860077278973700,11.0229736328125,-0.002263780213519931,-0.08134615782201289,0.028300796332955357
1733860077288924700,11.032924560546874,0.008716463484242558,-0.07704553801864385,0.049907647985219954
1733860077298874600,11.04287451171875,0.012171937700361013,-0.06136208506599068,0.02513502577841282
1733860077308825900,11.052825927734375,0.02730484409816563,-0.0488346119262278,0.03644201721251011
1733860077318775600,11.062775634765625,0.02884747043028474,-0.04510390096530318,0.020521394503116606
1733860077328726500,11.0727265625,0.009664484924077987,-0.0492281412884593,-0.004125555497407913
1733860077338677800,11.082677734375,0.019646584429964423,-0.060889791379123925,0.0009165303230285644
1733860077348627500,11.09262744140625,0.00861183406598866,-0.07707198763415217,-0.007388941207528114
1733860077358578700,11.10257861328125,0.01033851172812283,-0.08835304090939462,0.01884381667971611
1733860077368528600,11.112528564453125,0.03296761910021305,-0.07967515586987137,0.045516135028004646
1733860077378479600,11.122479736328126,0.009631751698255538,-0.08201324342861771,0.05803191772997379
1733860077388429600,11.1324296875,0.015934139778092504,-0.0766164989516139,0.0749631787866354
1733860077398380500,11.142380615234375,0.031710312515497205,-0.0417123588308692,0.054932782670855516
1733860077408331500,11.15233154296875,0.04054609153047204,-0.048261342082917685,0.013451017725467682
1733860077418281500,11.162281494140625,0.03873451206386089,-0.04756378827281296,-0.02377601238489151
1733860077428232700,11.172232666015624,0.03883570741601288,-0.054042555832862854,-0.04451835616230965
1733860077438182700,11.1821826171875,0.052850131177902215,-0.04914674661532044,-0.06226502525508403
1733860077448133600,11.192133544921875,0.04728372922241687,-0.046133390143513676,-0.07327157243788242
1733860077458084600,11.202084716796875,0.040137364599108695,-0.04607040790989995,-0.06140227094590663
1733860077468034800,11.212034912109376,0.06962634780332445,-0.06502915620617568,-0.04604162020683288
1733860077477985500,11.221985595703124,0.0745277830440551,-0.060962491289153695,-0.025342531049251556
1733860077487935500,11.231935546875,0.0647018970131874,-0.04291691231504082,-0.02187456267774105
1733860077497886700,11.24188671875,0.04312251788973808,-0.04195983078591525,-0.05623743552863598
1733860077507836700,11.251836669921875,0.0528122103203088,-0.01164871754385531,-0.08767769893109797
1733860077517787600,11.26178759765625,0.020847119326144456,-0.015780118260160087,-0.0652075084477663
1733860077527738600,11.271738525390624,0.009371639457345008,-0.013462635098025201,-0.034570378121733664
1733860077537688800,11.281688720703125,0.008684314780309796,-0.010453808670863509,-0.02008475665152073
1733860077547639600,11.2916396484375,-0.0067355918653309345,-0.03294109641946852,-0.007510521760582923
1733860077557589500,11.301589599609375,0.0013186813831329346,-0.04221249037273228,-0.010363573104143143
1733860077567540700,11.311540771484376,0.024758666746690867,-0.07687631893157959,0.015892565658688546
1733860077577491500,11.321491455078124,0.025818185736984012,-0.105621790292114,0.07407645907998085
1733860077587441700,11.331441650390625,0.01885024642050266,-0.13848470690883696,0.13980126940011978
1733860077597392600,11.341392578125,0.006465396621823311,-0.1883835870657116,0.1645353131622076
1733860077607342800,11.3513427734375,-0.024762685334682462,-0.19672851382382212,0.2003454622119665
1733860077617293600,11.36129345703125,-0.01896364366710186,-0.18136121414825318,0.2264876192063093
1733860077627243500,11.371243408203124,-0.03284150850251317,-0.14941424333266912,0.216335058504343
1733860077637194800,11.38119482421875,-0.023631635478138922,-0.1141555176205933,0.20435645141899583
1733860077647145500,11.3911455078125,0.004487228416651487,-0.08680128142274916,0.16930267369449137
1733860077657095700,11.401095703125,0.0017383680999279022,-0.05974237490966916,0.13314064246714113
1733860077667046700,11.411046630859374,0.009364186803251504,-0.02529942255988717,0.052722705405950546
1733860077676996600,11.42099658203125,0.02874035679399967,-0.016585151032730935,-0.054425417670607566
1733860077686947600,11.430947509765625,0.06869549669399858,-0.047966743050515646,-0.13580781584978102
1733860077696898800,11.44089892578125,0.07199673019647598,-0.04698328497111797,-0.15001812750995158
1733860077706848500,11.4508486328125,0.08455766721442341,-0.05109532339982688,-0.1303928050637245
1733860077716799700,11.4607998046875,0.08074643836319446,-0.06682137338519097,-0.09311784415841103
1733860077726749700,11.470749755859375,0.10370587366819381,-0.07758008328676223,-0.09982523284256457
1733860077736700400,11.480700439453125,0.09441022205650806,-0.09046835256293416,-0.06043254913091659
1733860077746650600,11.490650634765625,0.07991875536739826,-0.12335881477370858,0.026907880669832226
1733860077756601600,11.5006015625,0.07103636073172093,-0.1648122304074466,0.12178455119431018
1733860077766552600,11.510552490234375,0.053688920089602465,-0.1555156289476901,0.18446984768807886
1733860077776502500,11.52050244140625,0.04163827068135142,-0.11542897162251174,0.1933048960506916
1733860077786453800,11.530453857421875,0.028325200121849775,-0.0966301631283015,0.2005149735599756
1733860077796403700,11.54040380859375,-0.01269815353155136,-0.0951841290384531,0.18087737615406513
1733860077806354400,11.5503544921875,-0.0282261236615479,-0.07494622765183448,0.20619477276206016
1733860077816304600,11.5603046875,-0.055029959435015915,-0.03556852231360972,0.23399112670421598
1733860077826255600,11.570255615234375,-0.06040449208021163,0.003990677071362733,0.18727789084613322
1733860077836206600,11.58020654296875,-0.03488777350783348,0.01974215375892818,0.07131985384821891
1733860077846156500,11.590156494140626,-0.03437967785522342,0.027541356267780065,-0.06342763929367065
1733860077856105500,11.60010546875,-0.026778116810321807,0.026446473703160882,-0.13103461009860037
1733860077866055400,11.610055419921874,-0.0036747429899871347,-0.009644465049356222,-0.11725158393979072
1733860077876006700,11.620006591796875,-0.02720291809365153,-0.03397577322944999,0.009587328034639358
1733860077885957400,11.629957275390625,-0.05268880313634872,-0.06748166392482817,0.1450455997943878
1733860077895907600,11.639907470703125,-0.011732523369789123,-0.09808306535035372,0.24795652369260787
1733860077905858600,11.649858642578126,0.024067688807845114,-0.09708981652930378,0.2604378196030855
1733860077915808500,11.65980859375,0.031481910587102174,-0.10921009710766375,0.2303612457692623
1733860077925759500,11.669759521484375,0.02493818803206086,-0.07374211255908011,0.1354126790523529
1733860077935709400,11.67970947265625,0.0105799923337996,-0.06554682340472937,0.05470306556820869
1733860077945660700,11.68966064453125,-0.02802738621905446,-0.09796199625395238,0.028282676154375075
1733860077955611400,11.699611328125,-0.0650387277521193,-0.11796616194993256,0.07698679356873035
1733860077965561600,11.7095615234375,-0.055229135268926616,-0.16362901197224855,0.200702605086565
1733860077975512600,11.7195126953125,-0.012038666709512471,-0.17439590518027542,0.2770651292771101
1733860077985462500,11.729462646484375,0.04593567561432719,-0.18775683346949518,0.2594996619701385
1733860077995413500,11.73941357421875,0.06846198019906878,-0.1649194171089679,0.13226502867639064
1733860078005364700,11.74936474609375,0.07132628358900546,-0.10588935518711805,-0.034518940195441244
1733860078015314700,11.759314697265625,0.011375965017080306,-0.06123232120648026,-0.18310615811944006
1733860078025265400,11.769265380859375,-0.0063252574987709516,-0.03174626061171293,-0.22592414010465145
1733860078035215600,11.779215576171875,-0.014629413855075836,-0.01738981847912073,-0.17566870159506798
1733860078045166600,11.78916650390625,0.038340982701629396,-0.007974559075757861,-0.11209668539464474
1733860078055116500,11.799116455078124,0.07518573549613357,-0.05108187939636409,-0.051879240319132804
1733860078065067500,11.809067626953125,0.05809738418161869,-0.08636398598402738,-0.012196049228310584
1733860078075018800,11.819018798828125,0.05828194696828723,-0.10367021783292293,0.015128011026978493
1733860078084968400,11.828968505859375,0.040294600987434384,-0.1275473525047302,0.021880407896637914
1733860078094919400,11.83891943359375,0.023332798662036656,-0.11204385922886431,0.015954524978995323
1733860078104869600,11.84886962890625,-0.003017301994562149,-0.11162285733781754,-0.011181903749704361
1733860078114820600,11.858820556640625,-0.004365940124541521,-0.15507526476904748,-0.0013274492114782332
1733860078124770600,11.8687705078125,-0.038283991817384955,-0.17331980038136244,0.04911562082469463
1733860078134721500,11.878721435546876,-0.07880947895124554,-0.18577486587204037,0.15108721804618835
1733860078144672500,11.888672607421874,-0.07196268179640174,-0.18107129129096863,0.2340168456673622
1733860078154622500,11.89862255859375,-0.0569464605808258,-0.1772599893745035,0.26646131767630576
1733860078164573400,11.908573486328125,0.009228285463899373,-0.14874788837842642,0.2132815161526203
1733860078174523600,11.918523681640625,0.016074351966381073,-0.10974296187534928,0.137137603148818
1733860078184474400,11.928474365234376,0.013025485789775847,-0.039392829842120405,0.051263154247403145
1733860078194425600,11.938425537109374,-0.019415040696412325,0.03584185936227441,-0.05963409222960472
1733860078204375600,11.94837548828125,-0.05803184466473758,0.1253707391180098,-0.11970423778891563
1733860078214326500,11.958326416015625,-0.03771379071399569,0.18314999726116657,-0.12004033787548542
1733860078224276500,11.9682763671875,0.01605199400410056,0.17742168274223805,-0.11102701033651828
1733860078234227700,11.978227783203126,0.08830649835392833,0.12556428892873228,-0.1444008721500635
1733860078244177700,11.988177734375,0.1521785204142332,0.09473777351044117,-0.2375847672820091
1733860078254128400,11.99812841796875,0.1543880862224847,0.07143091300725936,-0.3259621389150619
1733860078264079600,12.00807958984375,0.14458148941397667,0.04430259451977908,-0.34077567716538903
1733860078274029600,12.018029541015625,0.1033095678269863,0.005685571355745196,-0.3283294525682926
1733860078283980500,12.02798046875,0.06496851206012069,-0.04573262732289731,-0.21096154877245424
1733860078293930500,12.037930419921874,0.02926591503806412,-0.13726568650789558,0.018791794231534004
