time,seconds_elapsed,z,y,x
1733859503179569000,0.02156884765625,0.18753800308704374,-0.19020137707740067,0.4854483519941568
1733859503189518800,0.031518798828125,0.15094737118408083,-0.15029884414747358,0.5912146653234959
1733859503199470000,0.041469970703125,-0.2517372112751007,-0.05836655651181936,0.06957447148561477
1733859503209420800,0.0514208984375,-0.11857304180189966,0.07896773825287819,-0.33393092583715916
1733859503219371000,0.06137109375,-0.07510171047449112,0.03811915664449334,-0.36428105591535564
1733859503229322000,0.071322021484375,-0.001513327172398567,-0.05878522031530738,-0.3195896812736988
1733859503239272200,0.081272216796875,0.107849549344182,0.011370558189600706,-0.11444938600063323
1733859503249223000,0.091222900390625,0.07983867586851119,0.039207901729270814,-0.024171149182319638
1733859503259174100,0.101174072265625,0.03192307848334312,0.021573022447898983,0.006482347756624221
1733859503269124000,0.1111240234375,0.02392521159723401,0.003709375911951065,-0.04232523003220558
1733859503279075000,0.121074951171875,0.014350012391805647,0.01028166697435081,-0.08807575833797454
1733859503289025000,0.13102490234375,0.003264554753899574,0.0068622869849205015,-0.027515783435106276
1733859503298976000,0.14097607421875,-0.012236965760588645,-0.021110738698393104,0.06747837598919867
1733859503308925700,0.15092578125,-0.010960369953513144,-0.04804346154853701,0.17419336834549903
1733859503318876400,0.16087646484375,0.009335837491601705,-0.09065744539424776,0.25601006628870965
1733859503328827600,0.17082763671875,0.018823942935466766,-0.06965791198536753,0.2518465168684721
1733859503338777600,0.180777587890625,0.020971914749592542,-0.0628818419791758,0.1432066939294338
1733859503348728300,0.190728271484375,0.0035356267802417276,-0.029469401720911264,0.011042787539958953
1733859503358678500,0.200678466796875,-0.01869827072918415,-0.014683262934163211,-0.041754152145981785
1733859503368629500,0.21062939453125,0.022827771749347445,-0.02485905838124454,-0.013220131579041481
1733859503378580500,0.22058056640625,0.01327683020234108,-0.025931729114055634,0.036948213168978686
1733859503388530400,0.230530517578125,0.02330021156668663,-0.034698242285102605,0.05045417595207691
1733859503398481700,0.240481689453125,0.022552169678360223,-0.015307751508057117,0.04701017297804355
1733859503408431600,0.250431640625,0.01795724310353398,-0.013779080636054276,0.015841712254285812
1733859503418382600,0.260382568359375,0.022528204280883073,-0.023071444312110542,-0.004398527219891548
1733859503428333600,0.27033349609375,0.027235359058529137,-0.021318609295412898,-0.000682137045264244
1733859503438283500,0.280283447265625,0.002697568520903587,-0.025796777622774242,0.015444237369298935
1733859503448234500,0.290234375,0.01918459294140339,-0.025120924187824127,0.05070025966763496
1733859503458184400,0.300184326171875,0.021227935337275267,-0.01632467346563935,0.06207388659715652
1733859503468135700,0.3101357421875,0.038582390242069955,-0.02771408248618245,0.07131868480443954
1733859503478086400,0.32008642578125,0.01677913923487067,-0.02247720474600792,0.10036708463430404
1733859503488036600,0.33003662109375,0.011392916151881217,-0.025602789420634507,0.062442719909548756
1733859503497987600,0.339987548828125,-0.0005120411753654479,-0.017717881389707327,0.03021218291223049
1733859503507937500,0.3499375,0.015434300497174262,-0.004619184233248233,0.018341712376475333
1733859503517888500,0.359888427734375,0.014217764314264058,-0.016793533086404203,0.014545242702960967
1733859503527839500,0.369839599609375,-0.0051221653193235395,-0.00727941641844809,0.010425532424449921
1733859503537789700,0.379789794921875,0.011602174988389015,-0.012666881610453129,-0.01306114162504673
1733859503547740400,0.389740478515625,0.0327694661796093,-0.023592764772474763,-0.0038233576804399486
1733859503557690600,0.399690673828125,0.032528643161058426,-0.036321532637998456,0.04534194750487804
1733859503567641600,0.4096416015625,0.0243646259278059,-0.038868148380890484,0.08675240077972411
1733859503577592600,0.419592529296875,0.002469751114398241,-0.03305215557850897,0.0765834734648466
1733859503587542500,0.42954248046875,0.014083616540580986,-0.014158362277224659,0.08790157081484794
1733859503597493800,0.43949365234375,0.01796761836707592,-0.018434797487407922,0.06846914059221744
1733859503607443500,0.449443359375,0.016757511924952267,-0.026686712199822066,0.05396539894342422
1733859503617394400,0.45939453125,0.011474603085964917,-0.01694777380004525,0.05220657257735729
1733859503627345700,0.469345703125,0.011972177344560622,-0.019282938749343156,0.06919511677920819
1733859503637295400,0.47929541015625,0.02038052472770214,-0.040338586259633304,0.05757248352468013
1733859503647246600,0.48924658203125,0.002044073048233986,-0.04590929906405508,0.04606850821375846
1733859503657196500,0.499196533203125,0.0196545485407114,-0.04717953819558024,0.052713353055715555
1733859503667147500,0.5091474609375,0.015640052202343938,-0.04038512881509959,0.06898527342081069
1733859503677098500,0.519098388671875,0.0028057050704956054,-0.03219524648822844,0.08848258557319641
1733859503687048400,0.52904833984375,0.01599675668552518,-0.019438275441527365,0.08567804954648017
1733859503696999400,0.53899951171875,0.04186944908872246,-0.025879341339692472,0.03485737836956978
1733859503706949400,0.548949462890625,0.030449644929915663,-0.012673603612184524,-0.03990530940890312
1733859503716900600,0.558900634765625,0.035478286746889354,-0.0077488605611026285,-0.05368424391448497
1733859503726851600,0.5688515625,0.026171821480244398,0.0030460166323930025,-0.01182546235024929
1733859503736801500,0.578801513671875,0.013142390167713165,-0.019483722018450497,0.03293137874305248
1733859503746752500,0.58875244140625,0.009674421796202658,-0.026773586765676736,0.09342647171616554
1733859503756702500,0.598702392578125,0.010435907687991857,-0.036713016173616046,0.12958148868083952
1733859503766653400,0.6086533203125,0.011125351256877183,-0.034606399283185596,0.11974924597442149
1733859503776604700,0.618604736328125,0.013918050715327262,-0.04798968553468585,0.10155366407036781
1733859503786554600,0.6285546875,-0.015353051954507826,-0.02651895441748202,0.09253273774683475
1733859503796505300,0.63850537109375,-0.008641571617126465,-0.0350141763664782,0.07779051116704941
1733859503806455600,0.64845556640625,-0.010457681128382683,-0.04698803421147167,0.05621288560926914
1733859503816406500,0.658406494140625,-0.004824059155583382,-0.02609912157021463,0.04059095358550548
1733859503826357500,0.668357421875,0.020105214917659757,-0.02592369193807244,0.04244447249770164
1733859503836307500,0.678307373046875,0.014674422040581702,-0.023635288739949464,0.03189092977941036
1733859503846258700,0.6882587890625,-0.004401595959812403,-0.019595073438435792,0.07221300329566001
1733859503856208600,0.698208740234375,0.01956570121347904,-0.010702376604452729,0.06818915460705757
1733859503866159400,0.708159423828125,0.02096913827061653,-0.003100742494314909,0.0016179565906524658
1733859503876110600,0.718110595703125,0.022093173864483832,-0.013553309056162833,-0.0411392351180315
1733859503886060500,0.728060546875,0.009936725994199513,-0.015102949650958179,-0.02870587000250816
1733859503896011500,0.738011474609375,0.017210662519931794,-0.012640651190653442,0.025545944666862486
1733859503905961500,0.74796142578125,0.02038213216289878,-0.027016894002258776,0.06682137338519097
1733859503915912700,0.75791259765625,0.026482348734140394,-0.020588614520430565,0.06659224080443382
1733859503925863400,0.767863525390625,0.02812777785360813,-0.01790368628539145,0.04010112424194812
1733859503935813400,0.7778134765625,0.024591420421004293,-0.02594407713897526,0.004110942450165749
1733859503945764600,0.7877646484375,0.028096359802037476,-0.015374387003481387,-0.020746435430645943
1733859503955714600,0.797714599609375,0.009129209003597497,-0.01778312864564359,-0.02187982337474823
1733859503965665500,0.80766552734375,0.0327519305229187,-0.024344532987847924,0.012619243076443671
1733859503975616500,0.817616455078125,0.03267068198025226,-0.02879164858981967,0.005499766460061073
1733859503985566700,0.827566650390625,0.041540217134356495,-0.010235928136482834,-0.0008504793494939803
1733859503995517400,0.837517333984375,0.039111528682708736,-0.024434330163151025,0.01999532480239868
1733859504005467600,0.847467529296875,0.010704933887720107,-0.038008901203051206,0.06724690532088279
1733859504015418600,0.857418701171875,0.0060502399496734135,-0.0329659385997802,0.08546294549107551
1733859504025368600,0.86736865234375,-0.00880816035568714,-0.03886142637915909,0.0868354028880596
1733859504035319600,0.877319580078125,0.0005680091463029385,-0.027328371104225514,0.07939677731990814
1733859504045270500,0.8872705078125,0.002883008090406656,-0.03639576691798865,0.06837795517742633
1733859504055220500,0.897220458984375,0.029264672929048538,-0.00656746875680983,0.04465922593772411
1733859504065171500,0.90717138671875,0.01480827755331993,-0.014832389081269501,0.03517652732133865
1733859504075121700,0.91712158203125,0.008833294796943664,-0.017426789488643405,0.039683775612711907
1733859504085072600,0.92707275390625,0.013922142368555069,-0.01993044287264347,0.04894552495479584
1733859504095023600,0.937023681640625,-0.012606383594870567,-0.010878098497539759,0.05687164177894592
1733859504104973600,0.9469736328125,0.00450257211625576,-0.009521569322049617,0.05548749394416809
1733859504114924500,0.956924560546875,0.01867152885273099,-0.013214359425380824,0.061595747691392894
1733859504124874500,0.96687451171875,0.02300210540294647,-0.012693550421670079,0.06639584144949913
1733859504134825500,0.976825439453125,0.0040402153015136714,-0.022866715520247816,0.06278349617123603
1733859504144776700,0.986776611328125,0.03586991641297936,-0.03765263511128723,0.03037994069457054
1733859504154726400,0.996726318359375,0.02587809923067689,-0.04510748116187751,0.004314356067776679
1733859504164677600,1.006677734375,0.004472323108464479,-0.04839804713986814,0.017751345267891884
1733859504174627600,1.016627685546875,0.007702975592762232,-0.049184667472913855,0.02894260136783123
1733859504184578300,1.026578369140625,-0.007505845585465431,-0.049766120622679585,0.05261223076879978
1733859504194529500,1.036529541015625,0.009654548051953316,-0.06147453246451914,0.07111819379627704
1733859504204479500,1.0464794921875,0.014361118307709694,-0.03242357535138726,0.08624503577947616
1733859504214430500,1.056430419921875,0.03007540479004383,-0.02260346147418022,0.09123100749850273
1733859504224380400,1.06638037109375,0.013908698365092276,-0.01634125927425921,0.0672509969741106
1733859504234331600,1.07633154296875,0.01297419399395585,-0.004507978943735361,0.02228372800052166
1733859504244282400,1.086282470703125,0.0051468613691627975,-0.0023545272368937727,0.013123685467243193
1733859504254232600,1.096232666015625,0.006311082842946052,-0.013872384942695498,-0.004326046505570411
1733859504264183600,1.10618359375,0.02002089763507247,-0.023243951334804294,0.01963116766512394
1733859504274133500,1.116133544921875,0.010985358264297246,-0.018552067191526293,0.05648351924419403
1733859504284084500,1.12608447265625,0.01961728527024388,-0.009714826871827243,0.0762964732170105
1733859504294035500,1.136035400390625,0.024893325977027415,-0.017158713136985897,0.0635123949676752
1733859504303985700,1.145985595703125,0.02061784061491489,-0.016995047007873652,0.029937457624077794
1733859504313937000,1.15593701171875,0.0083785367667675,-0.01898950876072049,0.027816812208294867
1733859504323886800,1.165886962890625,0.011445669252425432,-0.013407105518504976,0.014011574217677115
1733859504333838000,1.175838134765625,0.02825359619036317,-0.014301935466378927,0.023100889602303505
1733859504343788800,1.185788818359375,0.034641251400858164,-0.03649425885640085,0.016112345889210702
1733859504353739000,1.195739013671875,0.0163040690690279,-0.02377082475312054,0.009341244319081305
1733859504363690000,1.20568994140625,0.020992665276676415,-0.02335515662431717,0.048183892932534216
1733859504373640000,1.215639892578125,0.03038593204393983,-0.022342910841852425,0.0792594146758318
1733859504383591000,1.2255908203125,0.016462036109715698,-0.020782675787806508,0.1070744733184576
1733859504393542100,1.235542236328125,0.0067414370842278,-0.016063099920004605,0.0788578481376171
1733859504403492000,1.2454921875,0.028064211098104714,-0.012523892943188548,0.030296938586235046
1733859504413442800,1.25544287109375,0.018861352336406706,0.004770867663621902,0.005466448712348937
1733859504423393000,1.26539306640625,0.019529899247735738,-0.003923091727867722,0.0024006314009428023
1733859504433344000,1.275343994140625,0.014725275444984436,-0.03621997195966541,0.018704115948081017
1733859504443295000,1.285294921875,0.002722849092632532,-0.06285122764520347,0.05832943937182426
1733859504453245000,1.295244873046875,0.015619155544787645,-0.05360241084992885,0.07617489266395569
1733859504463196200,1.305196044921875,0.013197189094871282,-0.04453669553659856,0.07526888373494148
1733859504473145900,1.315145751953125,0.004193506167083978,-0.05259973661340773,0.10603227078914641
1733859504483096800,1.325096923828125,-0.00013619360029697419,-0.018221373932436107,0.0919599062949419
1733859504493048000,1.335048095703125,0.005002192201465368,-0.024322759547457096,0.05961538752913475
1733859504502997800,1.344997802734375,0.021923662516474724,-0.015890812093019485,0.023172785794734953
1733859504512949000,1.354948974609375,0.02165069079399109,-0.005033756383508443,0.0007762450695037841
1733859504522899000,1.36489892578125,0.015221680659800767,-0.004923939333483576,0.011148001480102539
1733859504532850000,1.374849853515625,0.01590264866128564,-0.010377017107605933,0.005931143614649772
1733859504542801000,1.38480078125,0.024197891058772802,-0.030598259620368478,0.016990882289409637
1733859504552751000,1.394751220703125,0.023779519516229627,-0.012758140090480445,0.02565291217267513
1733859504562701800,1.404701904296875,0.02425648937821388,-0.017280074494332075,0.042403555965423584
1733859504572651800,1.41465185546875,0.020299276185035704,-0.009624006783217192,0.03517418923377991
1733859504582603000,1.42460302734375,0.035085926428437234,-0.00832242266535759,0.022972294786572454
1733859504592553000,1.434552978515625,0.03733472826853394,-0.018092413790524006,0.032303017711639403
1733859504602504000,1.44450390625,0.03589914250746369,-0.02006283708065748,0.05618249047100544
1733859504612455000,1.454454833984375,0.029799656588584182,-0.027109759917482733,0.0842827957957983
1733859504622405000,1.464405029296875,0.02493292733505368,-0.03324592458494007,0.07676525977253913
1733859504632355800,1.47435595703125,0.020443214700371026,-0.01876212974563241,0.06273848798573017
1733859504642305800,1.484305908203125,0.008072393427044152,-0.02895604537129402,0.035195232021808624
1733859504652257000,1.494257080078125,0.013972557381540535,-0.01680142413191497,0.029187516039609906
1733859504662207700,1.504207763671875,0.0011642214737832546,-0.028569676402211187,0.03760755386054516
1733859504672158000,1.514157958984375,0.000045008185505867,-0.02735920463390648,0.046672903847694396
1733859504682109000,1.52410888671875,0.001508066475391388,-0.013474544731527566,0.033306057274341584
1733859504692059100,1.53405908203125,0.02823343018516898,-0.013086787522956727,0.030563480567932125
1733859504702009900,1.544009765625,0.009106704910844563,-0.03339103214405477,0.029965514674782753
1733859504711961000,1.553961181640625,-0.027702976570278405,-0.026668957347422837,0.08812661174237728
1733859504721911000,1.5639111328125,-0.009059650898724793,-0.027223595555499195,0.13680559471547601
1733859504731862000,1.573862060546875,0.008780687826871872,-0.030085853118821976,0.11341419773399829
1733859504741812000,1.58381201171875,0.004595511096715927,-0.029436595429852604,0.074579732427001
1733859504751763000,1.593762939453125,0.02432823944017291,-0.03723397130779922,0.004431260445713996
1733859504761714000,1.6037138671875,0.014438421327620745,-0.025437808117270467,-0.002911503532528877
1733859504771664000,1.613663818359375,0.021931553561985492,-0.005799406993761658,-0.007011924588680267
1733859504781615000,1.623614990234375,0.007886515466123819,-0.00003733633570373058,-0.02081657805740833
1733859504791565000,1.63356494140625,0.04083192273452878,-0.004446458014845848,-0.02877951976060867
1733859504801516000,1.64351611328125,0.035694559846073386,-0.01364449447095394,-0.014795418071746825
1733859504811467000,1.653467041015625,0.015208236656337975,0.005018778010085225,0.018666122025251388
1733859504821417000,1.6634169921875,0.008897007682919502,0.01080810200124979,0.05456921005547046
1733859504831368000,1.673367919921875,0.026415713238716124,-0.019535744466632605,0.07503156784772873
1733859504841318000,1.68331787109375,0.014770283630490303,-0.037842823921144006,0.07327975574433804
1733859504851269000,1.69326904296875,0.014659224471449852,-0.022412249751016498,0.06850830355882644
1733859504861219800,1.7032197265625,0.024928105029463767,-0.02849083901233971,0.05516600690484046
1733859504871170000,1.713170166015625,0.018152765675634144,-0.01803944149427116,0.04538344855904579
1733859504881121000,1.72312109375,0.03399696214795112,-0.018524156271293758,0.07150923894047737
1733859504891070700,1.73307080078125,0.04073664566650986,-0.04052132241539657,0.0647761312931776
1733859504901022000,1.74302197265625,0.029597265884280202,-0.026644918884709476,0.05196750312447548
1733859504910973000,1.752972900390625,0.013040098837018012,-0.021220921074599025,0.04095218811333179
1733859504920923000,1.7629228515625,0.011688830358535051,-0.02293188971094787,0.019275778356194494
1733859504930873900,1.772873779296875,0.030375264519453046,-0.032158202413469554,0.018912790262699125
1733859504940824000,1.782823974609375,0.02516658996045589,-0.04929623808860779,0.028837387427687645
1733859504950774800,1.79277490234375,0.007157908930629491,-0.04159304330013692,0.06415653809010982
1733859504960726000,1.80272607421875,0.015000439124554395,-0.04578260394446552,0.08947568826377392
1733859504970676000,1.812676025390625,0.006946458137035369,-0.04718633326254785,0.12617723319530486
1733859504980627000,1.822626953125,0.013251695761084556,-0.04386719877719879,0.10606091236174106
1733859504990577000,1.832576904296875,0.010726122806221245,-0.04304010030329227,0.08258826683759689
1733859505000528000,1.84252783203125,-0.005930559092760085,-0.025543022057414055,0.052151042997837065
1733859505010478800,1.852478759765625,-0.0017692016296088694,-0.031697087707743044,0.040590369063615794
1733859505020428800,1.8624287109375,0.014282938504964112,-0.024449308536574243,0.028417700710892675
1733859505030380000,1.872380126953125,0.0030108722537755964,-0.0047471214618533845,0.006584054565429687
1733859505040330000,1.882330078125,0.018572598522901534,0.006163710261508822,-0.016395254483819007
1733859505050281000,1.892281005859375,0.014215572357177733,-0.011747720938920974,-0.029882512566447257
1733859505060232000,1.90223193359375,0.028223054921627043,0.0003207563869655132,-0.0007195464462041854
1733859505070182000,1.912181884765625,0.010236731854081154,-0.010647066220641136,0.043609424623847
1733859505080132900,1.9221328125,0.012033406012505292,-0.012182897485792637,0.07019348016679286
1733859505090082800,1.932082763671875,0.010835136138647793,-0.005332885460555553,0.05547989515960216
1733859505100034000,1.942033935546875,-0.0007234919689595698,-0.012771511028707027,0.03391279099583626
1733859505109984800,1.95198486328125,0.003165332163125276,-0.0009027940586209297,-0.004104512709379196
1733859505119935000,1.96193505859375,0.012501315785199403,-0.00580488688647747,-0.004873743516206741
1733859505129886000,1.971885986328125,0.030031565648317337,-0.030313670525327324,0.023242343899607658
1733859505139836000,1.9818359375,0.006332856283336878,-0.032258667113259434,0.033006197544932364
1733859505149787000,1.991786865234375,0.011370704320073127,-0.02343092527426779,0.06498188299834728
1733859505159738000,2.001738037109375,0.029543489870429037,-0.018390519954264162,0.05926642796099186
1733859505169688000,2.01168798828125,0.03504676346182823,0.0008809475529938936,0.03993161289393902
1733859505179638800,2.021638671875,0.040014761132746934,-0.0014257219541817902,0.03141688252687454
1733859505189589000,2.031589111328125,0.04361059366762638,-0.010062252070009707,0.035218612897396084
1733859505199540000,2.0415400390625,0.02826630954146385,-0.023920389291644095,0.04585165059268474
1733859505209491000,2.051490966796875,0.019519816245138644,-0.041312765054032204,0.08658639656305313
1733859505219441000,2.06144091796875,0.02977802927866578,-0.043577129789441824,0.15830664790570734
1733859505229392100,2.07139208984375,0.030165567291527983,-0.06549677371792495,0.17977964404523372
1733859505239342000,2.081342041015625,0.01974821817353368,-0.056394744982197875,0.14923545269966124
1733859505249292800,2.091292724609375,0.007967179486900568,-0.05892806285209953,0.09870411985814571
1733859505259244000,2.101244140625,-0.016177812340855597,-0.06526596063673495,0.04597440018951893
1733859505269194000,2.111194091796875,-0.007102963872998952,-0.06111315180622041,-0.010700842234492301
1733859505279145000,2.12114501953125,0.02330386482849717,-0.03112133364640176,-0.053626376247406
1733859505289095000,2.131094970703125,0.021725071204453706,-0.017736586090177295,-0.07756079406440257
1733859505299046100,2.141046142578125,0.014172902259230612,-0.020243600475043057,-0.07083177807033061
1733859505308996000,2.15099609375,0.0006960194401443004,0.0073503627628088,-0.034114451047778126
1733859505318947300,2.160947265625,-0.011582447374612092,0.0035104923389852045,0.026885668838024138
1733859505328898300,2.170898193359375,-0.023414339465647936,-0.004964563604816794,0.08203589365184306
1733859505338848000,2.180847900390625,-0.0235464414127171,-0.01675327414125204,0.119587917932868
1733859505348799200,2.19079931640625,-0.02282090361714363,-0.017607845143973826,0.14629998376965522
1733859505358749200,2.200749267578125,-0.009685527712106705,-0.006008958091214299,0.12624620677828788
1733859505368700200,2.2107001953125,0.0013614976115524768,-0.008636091724410653,0.0754594378709793
1733859505378651100,2.220651123046875,0.025713702449202538,-0.019060016713663936,0.010130933392047882
1733859505388601300,2.230601318359375,0.027511253390461204,-0.02728190161399543,-0.002139350116252899
1733859505398552000,2.240552001953125,0.04068403869643807,-0.008406666882708668,0.011564181065559386
1733859505408502000,2.250501953125,0.022991730139404535,-0.0020963146921247244,0.08208557801246642
1733859505418453200,2.260453369140625,0.02089914177432656,-0.022260420190170407,0.12147650815844535
1733859505428404000,2.270404052734375,0.029516747993975877,-0.03697086339220405,0.1055149689167738
1733859505438354200,2.280354248046875,0.02659998376443982,-0.041072526557371015,0.10318097301125526
1733859505448305200,2.29030517578125,0.024212065714597702,-0.044875352906435725,0.08048223446905613
1733859505458255400,2.30025537109375,0.025931144592165944,-0.030155995745584366,0.04951192666590214
1733859505468206000,2.3102060546875,0.019022680377960205,-0.034581337907165284,-0.00589899491071701
1733859505478157300,2.3201572265625,0.01499020999148488,-0.043759354488551616,-0.008814590096473693
1733859505488107300,2.330107177734375,0.021108400610834358,-0.04690386305935681,-0.004580313527584075
1733859505498058200,2.340058349609375,0.01953822868466377,-0.03984926837272942,-0.015840543210506437
1733859505508008200,2.35000830078125,0.03445888057127595,-0.05281454840786755,-0.01676291875243187
1733859505517959200,2.359959228515625,0.01772255756482482,-0.03491583055853843,-0.01988251207768917
1733859505527910100,2.36991015625,0.01263078738376498,-0.027122254072874784,-0.004966682496666908
1733859505537860000,2.379860107421875,0.01514656959697604,-0.011665595613420008,0.027896891707181928
1733859505547811300,2.389811279296875,0.004505056334286928,-0.027186405350267884,0.045969724014401435
1733859505557761300,2.39976123046875,0.0006657704323530197,-0.03667655662074685,0.06303484058380127
1733859505567712300,2.409712158203125,-0.004241290831565857,-0.04081409481689334,0.07479191387295722
1733859505577663200,2.419663330078125,-0.013563099797815083,-0.026946605245023965,0.10779694237411022
1733859505587613200,2.42961328125,-0.00152954765483737,-0.02510411918349564,0.10860241353809832
1733859505597564200,2.439564208984375,0.008590279821306467,-0.018729761845991014,0.07627016973197459
1733859505607514000,2.44951416015625,0.021156915927678346,-0.007917275930568575,0.055900166398286814
1733859505617465300,2.45946533203125,0.03001519903540611,-0.011536416275799273,0.010465279912948608
1733859505627416000,2.469416015625,0.030681553989648818,-0.00017959435060620308,-0.04461480227410793
1733859505637366300,2.4793662109375,0.013486089038848877,0.011805369410291313,-0.022965280523896216
1733859505647317200,2.489317138671875,0.025674539482593534,0.005314180760085582,0.0182908589720726
1733859505657267200,2.49926708984375,0.034640959139913316,-0.005040770646184682,0.05904021798968315
1733859505667218200,2.50921826171875,0.04607420730218291,-0.0021444646827876567,0.052256841459870335
1733859505677169200,2.519169189453125,0.04113295150771737,-0.029055048766359684,0.023133038306236267
1733859505687119400,2.529119384765625,0.03408171782195568,-0.04753383152596652,0.0195674547791481
1733859505697070000,2.539070068359375,0.044918753656744956,-0.03368680022023618,0.002333411383628845
1733859505707020300,2.549020263671875,0.03902399652972817,-0.03365202116779983,-0.02339607315659523
1733859505716971300,2.55897119140625,0.017938538403064013,-0.024376827822253106,-0.02450608022511005
1733859505726922200,2.568922119140625,-0.0010420563988387584,-0.015982947355881332,-0.002970540243387222
1733859505736872200,2.5788720703125,-0.01220993162319064,-0.021906711381673813,0.0429646969795227
1733859505746823400,2.588823486328125,-0.014905308187007903,-0.0015733137313276527,0.04924480016231537
1733859505756773000,2.598773193359375,-0.015565817922353743,0.005684036985784769,0.06771919900774956
1733859505766724000,2.60872412109375,-0.009407733684033154,-0.014126725029945372,0.07322597973048686
1733859505776675300,2.61867529296875,-0.010507365489006042,-0.029442805974930524,0.08888999733030796
1733859505786625000,2.628625,0.0025479309171438217,-0.034789062373712654,0.1051268463820219
1733859505796576300,2.638576171875,0.018813567671924828,-0.06401625283658505,0.12086276017427444
1733859505806526200,2.648526123046875,0.030108722537755966,-0.08039316794611513,0.10649404308199882
1733859505816477200,2.658477294921875,0.03290975143313408,-0.07444894565418363,0.09407470649182796
1733859505826428200,2.66842822265625,0.027520898001641033,-0.0694930037472397,0.06637012248635292
1733859505836378000,2.678378173828125,0.01255421501621604,-0.059312970516458154,0.0617740268677473
1733859505846329000,2.6883291015625,0.0058266603268682955,-0.03502404017336666,0.09006839345991612
1733859505856279000,2.698279052734375,0.009263649038225411,-0.017911065874248743,0.09978314726650714
1733859505866230300,2.708230224609375,0.015713263569027185,-0.0033428806871175763,0.08770458693802356
1733859505876181200,2.71818115234375,0.027344664651900528,0.0019487959802150724,0.05246142412126064
1733859505886131200,2.728131103515625,0.028597295061498877,0.008484700554981827,0.006869885769486427
1733859505896082200,2.738082275390625,0.031028759992122647,-0.003364946388453245,-0.01855272477865219
1733859505906032000,2.7480322265625,0.008279752567410469,-0.009643953592702747,-0.03442541669309139
1733859505915983000,2.757983154296875,0.014672668474912642,0.016705635607242583,-0.009380991807579994
1733859505925934300,2.767934326171875,0.01090308680832386,-0.002747106751054525,0.01705050352215767
1733859505935884300,2.77788427734375,0.024427169770002363,-0.018838263721764087,0.020350129589438437
1733859505945835000,2.7878349609375,0.015614917761087416,-0.021991320925205945,0.056172553598880764
1733859505955785200,2.79778515625,0.004227262306213378,-0.034597266128659244,0.0834942757666111
1733859505965736200,2.807736083984375,-0.004285714495182037,-0.03392258173748851,0.09388064522445201
1733859505975687200,2.817687255859375,0.00008534019589424133,-0.03654737728312611,0.07890402536690234
1733859505985637000,2.82763720703125,-0.008383212941884995,-0.0290429930023849,0.06210661982297897
1733859505995588400,2.83758837890625,0.02304652906656265,-0.033538916182145474,0.048565585726499556
1733859506005538300,2.847538330078125,0.014865560698509216,-0.04826689504086971,0.05621814630627632
1733859506015489000,2.857489013671875,0.015920038187503812,-0.039278117421269416,0.06458674620091914
1733859506025440300,2.867440185546875,0.011985621348023414,-0.02762618500702083,0.07249708093404769
1733859506035390200,2.87739013671875,0.018335867157578466,-0.041684155649691815,0.08504033616483211
1733859506045341200,2.887341064453125,0.02073547564521432,-0.044875937428325414,0.08068973973989486
1733859506055291100,2.897291015625,0.01686345651745796,-0.03751863346807659,0.049286301216483114
1733859506065242400,2.907242431640625,0.022025369325280188,-0.01259337798282504,0.01830138036608696
1733859506075193000,2.917193115234375,0.027211101400107143,-0.0006144786365330219,0.007617489266395569
1733859506085143000,2.92714306640625,0.01973345899581909,-0.007643500490486621,-0.008024901023507117
1733859506095094300,2.93709423828125,0.010956862822175025,-0.0026244302194565533,-0.0043909284353256224
1733859506105044200,2.947044189453125,0.011447861209511757,-0.0076260378990322345,0.022102526214718816
1733859506114995200,2.9569951171875,0.023260610208660364,-0.010310820003598929,0.031474750193953516
1733859506124946200,2.9669462890625,0.03462415413558483,0.006524798658862709,0.01894318540096283
1733859506134896400,2.976896484375,0.024663462743908165,0.004959814364463091,0.011626140385866164
1733859506144847000,2.98684716796875,0.024182401228696106,-0.006271189223974943,0.00793897630572319
1733859506154797300,2.99679736328125,0.03165463680550456,-0.02212071945853531,0.013131284251809119
1733859506164748300,3.006748291015625,0.03566986379623413,-0.03780154206268489,0.04557283365130424
1733859506174699300,3.01669921875,0.026619857508689164,-0.05266717582643032,0.054506081691384316
1733859506184649200,3.026649169921875,0.024792057559639213,-0.030483620264753698,0.09423545001149176
1733859506194600200,3.03660009765625,0.021052724900841712,-0.039653380474448205,0.09700023854970931
1733859506204550100,3.046550048828125,0.024307342782616613,-0.03167027276605368,0.07374152803719043
1733859506214501000,3.056501220703125,0.019448212313652038,-0.031094007248058914,0.06369008962213993
1733859506224452400,3.066452392578125,-0.0010813654959201812,-0.02396349778100848,0.091581136110425
1733859506234402300,3.07640234375,0.01174465219900012,-0.03714826578572392,0.11459200934171676
1733859506244353300,3.086353271484375,0.01129807747527957,-0.031548107691109176,0.09798749602138995
1733859506254303200,3.09630322265625,0.010980243697762489,-0.03185403183512389,0.08724164560139179
1733859506264254200,3.106254150390625,0.0010118073910474776,-0.027277736895531413,0.06674889267086982
1733859506274205200,3.116205078125,0.006872808378934859,-0.0272445652782917,0.04466331759095192
1733859506284155100,3.126155029296875,-0.0027437457501888274,-0.03850713304877281,0.042587680360674854
1733859506294106400,3.1361064453125,0.0019458733707666397,-0.0355629693556577,0.05120704014599323
1733859506304056000,3.14605615234375,-0.004224339696764946,-0.030222631241008636,0.03413023313879966
1733859506314007300,3.15600732421875,0.0023410101681947708,-0.018025997490808368,0.01718026738166809
1733859506323958300,3.165958251953125,0.01428279237449169,-0.016449761150032282,0.006490531063079834
1733859506333908200,3.175908203125,0.01176686403080821,-0.024085370595008135,0.00428863710463047
1733859506343859200,3.185859130859375,0.021171821235865352,-0.009375073523446917,0.0006663549542427063
1733859506353809400,3.195809326171875,0.028511954865604636,-0.00959375777542591,0.020451251876354215
1733859506363760000,3.205760009765625,0.028914544317126274,-0.024512363835424184,0.010710779106616974
1733859506373711400,3.21571142578125,0.029618893194198605,-0.028379341461881993,0.01800678133368492
1733859506383661300,3.225661376953125,0.023728812242299318,-0.012521993247047065,0.023783611169457434
1733859506393612300,3.2356123046875,0.05714183702245354,-0.0299165609665215,0.04333879098892212
1733859506403562200,3.245562255859375,0.03876213072314858,-0.002339256602525711,0.049179918232560155
1733859506413513200,3.25551318359375,0.033359833288192746,-0.003274930017441511,0.04951484927535057
1733859506423464200,3.265464111328125,0.01309679746031761,-0.0033836510889232157,0.04565057506263256
1733859506433414100,3.2754140625,0.008448825524002314,-0.010057648960128425,0.0460930581331253
1733859506443365400,3.285365478515625,0.012570873890072106,-0.017260566076263785,0.05240414097607136
1733859506453315300,3.2953154296875,0.0070376435518264766,-0.015467106788232921,0.08885901767015457
1733859506463266300,3.305266357421875,0.017457915279269216,-0.032461057817563414,0.09946399831473826
1733859506473217300,3.31521728515625,0.009352204104512929,-0.03622983576655388,0.08182312768399715
1733859506483167200,3.325167236328125,0.012070961543917656,-0.04152195082530379,0.04433656985461712
1733859506493118200,3.3351181640625,0.00850713158249855,-0.040973230901360506,-0.00030804303586483
1733859506503068200,3.345068115234375,0.008628858266025781,-0.05035648773126304,-0.019568039301037787
1733859506513019400,3.355019287109375,-0.009705985978245735,-0.06152618958652019,0.011031681624054908
1733859506522970000,3.36497021484375,-0.00007598784565925598,-0.03223185217157006,0.04330605776309967
1733859506532920300,3.37492041015625,0.007456307355314493,-0.029220030069723724,0.065120414686203
1733859506542871300,3.384871337890625,0.019372370598465204,-0.033495734627544876,0.055094695234298705
1733859506552821500,3.394821533203125,0.023492519268393516,-0.037301556651294226,0.04895429278314113
1733859506562772200,3.404772216796875,0.010305851567536592,-0.007078706214576959,0.0537397734940052
1733859506572723500,3.414723388671875,0.03258373434916138,-0.002303746897727251,0.05043430220782757
1733859506582673400,3.42467333984375,0.02617562087252736,-0.015764920691028236,0.06896072350144386
1733859506592624000,3.4346240234375,0.017309446719288826,-0.0029753625489771364,0.08240764957368374
1733859506602574300,3.44457421875,0.023752046987414357,-0.014776640306040643,0.07490764920711517
1733859506612525300,3.454525390625,0.014184592697024344,-0.009177139798551797,0.06909925518929957
1733859506622476300,3.464476318359375,0.009177139798551797,-0.02434511750973761,0.0687193159610033
1733859506632426200,3.47442626953125,0.016202362260222435,-0.026632570859789848,0.04955225867629051
1733859506642377500,3.48437744140625,0.011064999371767043,-0.007000161085650324,0.04522328956127167
1733859506652327400,3.494327392578125,0.014779635980725287,-0.022720877308771013,-0.0002484218031167984
1733859506662278100,3.504278076171875,0.0025724808365106583,-0.01702595360279083,-0.014169395127892493
1733859506672229400,3.5142294921875,0.019006898286938665,-0.0020511603761464354,-0.015798457634449006
1733859506682179300,3.524179443359375,0.04146788255050778,-0.007404065711423755,-0.017749007180333138
1733859506692130300,3.53413037109375,0.05296776620820164,-0.009905161812156438,-0.013384966751933097
1733859506702080300,3.544080322265625,0.037508915791660546,-0.03235335965938866,0.0285123932570219
1733859506712031500,3.554031494140625,0.010776245558261871,-0.04068666904494166,0.0649631782978773
1733859506721982200,3.563982177734375,0.008871727111190556,-0.01852854018546641,0.11337503476738929
1733859506731932400,3.573932373046875,0.0026921616934239864,-0.012536314033344388,0.12836509862840176
1733859506741883400,3.58388330078125,0.02267988771125674,-0.018922142612934113,0.09610942718982696
1733859506751833000,3.5938330078125,0.02491159228608012,-0.02337481117285788,0.035495676273107526
1733859506761784300,3.603784423828125,0.010245645812898874,-0.02626790226586163,-0.0193844994276762
1733859506771735300,3.6137353515625,0.008766220910102129,-0.035625147871673105,-0.05114449630379676
1733859506781685200,3.623685302734375,0.011780015773326158,-0.03189567901976406,-0.005077157133817673
1733859506791636200,3.63363623046875,0.01915185971558094,-0.03068206544630229,0.05767652842104434
1733859506801586400,3.64358642578125,0.01967149967551231,-0.034400720643252135,0.09638415247797966
1733859506811537200,3.653537109375,0.02107303703650832,-0.028424057386443016,0.09887772285938262
1733859506821488400,3.66348828125,0.020976737055182455,-0.026718714773282408,0.06693827776312827
1733859506831438300,3.673438232421875,0.018669629156589505,-0.007359130591154098,0.007532733592391014
1733859506841389000,3.68338916015625,0.022024784803390502,-0.00262771815508604,-0.01307633919417858
1733859506851339300,3.69333935546875,0.019765023177862166,-0.008125584919005632,-0.02835048069357872
1733859506861290200,3.703290283203125,0.021471827095746993,-0.006674217066913843,0.018003858724236488
1733859506871241200,3.7132412109375,0.02221007824242115,-0.03796937291026115,0.09054419427812099
1733859506881191200,3.723191162109375,0.030789836669713258,-0.030800065802782772,0.15147826319038868
1733859506891142400,3.733142333984375,0.041633302245289085,-0.032963015990331766,0.16090484770536423
1733859506901093000,3.743093017578125,0.022816958094388246,-0.041960999829694624,0.12019056000113487
1733859506911043000,3.75304296875,0.01134966153204441,-0.026425430915132164,0.05503273591399192
1733859506920994300,3.762994384765625,-0.0021994097404181958,-0.026392624624073505,0.020894903990626334
1733859506930944300,3.7729443359375,0.024394436544179915,-0.024955431427806613,-0.008139467313885687
1733859506940895200,3.782895263671875,0.014819967991113661,-0.020180545176193117,-0.029347090515494344
1733859506950845200,3.79284521484375,0.022658844923228023,0.0010248130030930042,-0.026627310162782667
1733859506960796400,3.80279638671875,0.021267098303884267,-0.004460997996851802,-0.011518003836274146
1733859506970747100,3.8127470703125,0.016354337951540947,-0.016474018808454276,0.005289338579773903
1733859506980697300,3.822697265625,0.022001842319220304,-0.025546675319224596,0.03267418911159038
1733859506990648300,3.8326484375,0.028654870467633008,-0.023327391834557055,0.04885141693055629
1733859507000598300,3.842598388671875,0.006031681379675865,-0.027373013963550328,0.05135667774975299
1733859507010549200,3.85254931640625,0.004974719672650099,-0.04330452339313924,0.07608896794617176
1733859507020500200,3.862500244140625,0.002744330272078514,-0.029731486723199484,0.0829407335370779
1733859507030450400,3.872450439453125,0.01229600247144699,-0.017950082710385323,0.07140928569734097
1733859507040401200,3.882401123046875,0.031119214754551646,-0.022176979690417646,0.03907879545688629
1733859507050352400,3.892352294921875,0.044682752943783995,-0.025207652623206376,0.007924947780370712
1733859507060302300,3.90230224609375,0.021231150207668543,-0.028844255559891462,0.0023509470403194426
1733859507070253300,3.91225341796875,0.015543752221018075,-0.013584215651080011,0.03272738060355186
1733859507080203300,3.922203369140625,0.021969401354342697,-0.019945494311302898,0.06037818859517574
1733859507090154200,3.932154296875,0.042782910671830175,-0.020055384426563978,0.07289923199415206
1733859507100105200,3.942105224609375,0.04062427133321762,-0.014035539615154266,0.045702597510814666
1733859507110055200,3.95205517578125,0.04598609062731266,-0.019387787363305688,0.025906010150909424
1733859507120006400,3.96200634765625,0.03960150415673852,-0.02686374926716089,0.00023088614642620086
1733859507129956400,3.971956298828125,0.029396921006590127,-0.019319325236976145,-0.0025549451798200606
1733859507139907300,3.9819072265625,0.015884528482705353,-0.022411811359599233,0.022508768928050992
1733859507149858300,3.9918583984375,0.006373772815614938,-0.033681320327520366,0.03789280054271221
1733859507159808500,4.00180859375,0.021833207754045722,-0.03341404769346118,0.08538988025486469
1733859507169759200,4.01175927734375,0.01433057703897357,-0.040259968065470456,0.1045347257077694
1733859507179709200,4.021709228515625,-0.000761047500371933,-0.021709289113432166,0.1273521221935749
1733859507189660400,4.031660400390625,0.0014361702829599379,-0.01896919662505388,0.11885492748320102
1733859507199611100,4.041611083984375,0.017588263660669325,-0.010484788331016898,0.07943243315517902
1733859507209561300,4.051561279296875,0.0010522855319082735,-0.009974427656084299,0.022799276307225225
1733859507219512300,4.06151220703125,0.026640754166245458,-0.01154408812560141,-0.02975684036016464
1733859507229462300,4.071462158203125,0.031211276952177285,-0.017187062448635698,-0.05085808057785034
1733859507239413200,4.081413330078125,0.029137393287569282,-0.03414923010021448,-0.026762919241189956
1733859507249364500,4.091364501953125,0.010578677159547805,-0.03388232279233634,0.0137421096265316
1733859507259314200,4.101314208984375,0.01043430025279522,-0.05640870044231414,0.03046703445613384
1733859507269265200,4.11126513671875,0.004837503159046173,-0.05118037133477628,0.06922551191747188
1733859507279215400,4.12121533203125,0.006838321587443351,-0.028390593508258462,0.0830669902652502
1733859507289166300,4.131166259765625,0.026815526211261747,-0.021065219056233764,0.08560907596349716
1733859507299117300,4.141117431640625,0.022459815219789743,-0.0021202070243656634,0.0472825601786375
1733859507309069600,4.151069580078125,0.018141952020674944,-0.0007768295913934707,-0.002353285127878189
1733859507319020800,4.161020751953125,0.026153701301664112,-0.013630685141310096,-0.00718260498046875
1733859507328970800,4.170970703125,0.026672318348288534,-0.015074161947891115,0.01834580402970314
1733859507338921500,4.18092138671875,0.015651742640137672,-0.036544600804150104,0.08388298282325267
1733859507348872700,4.190872802734375,0.01679872071817517,-0.04426576964072883,0.09799567932784557
1733859507358822700,4.20082275390625,0.015315788684040307,-0.044680999378114934,0.08866203379333018
1733859507368773600,4.210773681640625,0.029787966150790452,-0.03895334244631231,0.0805704972743988
1733859507378723600,4.2207236328125,0.020000585499405858,-0.024877616951242087,0.05955342820882797
1733859507388674800,4.2306748046875,0.015679799690842627,-0.008902560640871525,0.05278349568247795
1733859507398625500,4.24062548828125,0.02014627758041024,-0.024036782212927935,0.04095101906955242
1733859507408575700,4.25057568359375,0.01638663278594613,-0.0257053730122745,0.0529991842597723
1733859507418526700,4.260526611328125,0.02783493238687515,-0.018325857220217585,0.014807693031430244
1733859507428476700,4.2704765625,0.02346095508635044,-0.024783508927002547,0.00452478394806385
1733859507438427600,4.280427734375,0.008189736196398735,-0.016765183774754402,0.025532500663399696
1733859507448378600,4.290378662109375,-0.006544745468348264,-0.022701441955938935,0.06731470986008643
1733859507458328800,4.300328857421875,0.014288199201971292,-0.022810674484074114,0.08420622342824935
1733859507468279600,4.310279541015625,0.03146671301797032,-0.028341128343343732,0.05371171644330024
1733859507478229800,4.320229736328125,0.0396850907869637,-0.02349383444264531,-0.016609189495444297
1733859507488180700,4.3301806640625,0.03063201575949788,-0.012619754533097147,-0.060117491832375525
1733859507498131700,4.340131591796875,0.02284764549359679,0.004239245004951954,-0.08762976813614368
1733859507508081700,4.35008154296875,0.024399112719297407,-0.01909516109228134,-0.03761690621078014
1733859507518032600,4.36003271484375,0.01262450377345085,-0.041938203475996846,0.04270984543561935
1733859507527982600,4.369982666015625,0.01579378145933151,-0.030290728041157126,0.08822656498551368
1733859507537933600,4.37993359375,0.028250089059025048,-0.04232179596610367,0.11994973698258399
1733859507547884800,4.389884765625,0.00004091653227806091,-0.036887349827215074,0.15660335111916066
1733859507557834800,4.399834716796875,-0.007298778706043958,-0.039336131218820805,0.14595277776718138
1733859507567785700,4.40978564453125,0.010357727885246276,-0.029249329229444263,0.09902794498503208
1733859507577735700,4.419735595703125,0.02277297282218933,-0.020055384426563978,0.023322423398494718
1733859507587686700,4.429686767578125,0.0467944844007492,-0.01959492730796337,-0.036519174101948736
1733859507597637600,4.4396376953125,0.05083879135549068,-0.018404037022963164,-0.051446109598875044
1733859507607587600,4.449587646484375,0.03087371556088328,-0.026055866950377822,-0.02950549594759941
1733859507617538800,4.459538818359375,0.03260740748569369,-0.034497605146467686,0.036057401809096334
1733859507627488500,4.469488525390625,0.01956497056111693,-0.01758870205208659,0.05328793807327747
1733859507637439700,4.479439697265625,0.02165712053477764,-0.01720679006241262,0.06766425395011902
1733859507647390700,4.489390625,0.03310688144043088,-0.007142492165789008,0.07188800912499427
1733859507657340700,4.499340576171875,0.01786108925268054,0.000912146408855915,0.03784837687909603
1733859507667291600,4.509291748046875,0.016775778234004973,-0.016293693805485964,0.028961890590190886
1733859507677241600,4.51924169921875,0.0015245792187750338,-0.030759733792394398,0.0163040690690279
1733859507687192600,4.529192626953125,0.010850479838252066,-0.010373290780559182,-0.005324409893155098
1733859507697143600,4.5391435546875,0.012973024950176477,-0.036999578030034896,0.0034247137516736983
1733859507707093800,4.54909375,0.021362083110958337,-0.026540800923109054,0.04795300678610801
1733859507717044500,4.55904443359375,0.017745500048995017,-0.04206446020416915,0.06873626709580422
1733859507726994700,4.56899462890625,0.017658406287431715,-0.033998569583147766,0.12340367682874202
1733859507736945700,4.578945556640625,0.020597382348775863,-0.03550451716668904,0.10555354736149311
1733859507746896600,4.588896728515625,0.027044658792018887,-0.04873575466163456,0.08184007881879805
1733859507756846600,4.5988466796875,0.021122429136186838,-0.022870441847294566,0.018546879559755324
1733859507766797600,4.608797607421875,0.02446341012716293,0.0016732669744640588,-0.01535071386694908
1733859507776747800,4.618747802734375,0.014471154553443192,-0.003908259484916925,-0.007470189750194549
1733859507786698500,4.628698486328125,0.005920768351107835,-0.01609086470976472,0.013885317489504813
1733859507796649700,4.638649658203125,-0.001712064614892006,-0.00063917468637228,0.03664601535201072
1733859507806599700,4.648599609375,0.009706716630607843,-0.017766031380370258,0.023349895927309988
1733859507816550700,4.658550537109375,0.02978080575764179,-0.03183057789430022,0.026210546055436133
1733859507826500600,4.66850048828125,0.026677579045295715,-0.028905922619253396,0.052719198274612425
1733859507836451800,4.678451904296875,0.036461306434869764,-0.01879603201523423,0.0642184974104166
1733859507846402600,4.688402587890625,0.03683437753096223,-0.02692958104498684,0.07227496261596679
1733859507856352500,4.6983525390625,0.0175752580486238,-0.03579604745917022,0.07792787381112574
1733859507866303700,4.7083037109375,0.007511544673889875,-0.04194923632666468,0.09229659090340137
1733859507876253700,4.718253662109375,0.00989654011428356,-0.04678001748397946,0.10421849936544894
1733859507886204700,4.72820458984375,0.016287702456116677,-0.05205247799418866,0.12878887699842453
1733859507896155600,4.73815576171875,0.029125702849775552,-0.05104994988813996,0.12586919015944004
1733859507906105900,4.74810595703125,0.02542275667861104,-0.04483538622222841,0.09659867201149464
1733859507916056600,4.758056640625,0.020957009441405532,-0.013228168755024671,0.02538110949397087
1733859507926006500,4.768006591796875,0.0244091957218945,-0.0012785685684531926,-0.011155015742778777
1733859507935957800,4.777957763671875,0.03977861428931355,0.005515767746791243,-0.02466565470099449
1733859507945908500,4.787908447265625,0.045336248416453596,-0.020114494202658532,-0.04148468755483627
1733859507955858700,4.797858642578125,0.034141923576593396,-0.006481178712844848,-0.012242226457595824
1733859507965809700,4.8078095703125,0.01557341670691967,-0.006349003700539469,0.032469021928310395
1733859507975760000,4.817759765625,-0.013505232130736112,-0.015167027863115072,0.09299567908346652
1733859507985710600,4.827710693359375,-0.007622749963402748,-0.03314940540790558,0.16169629034399985
1733859507995661800,4.837661865234375,0.009320932183414697,-0.03287606835924089,0.16534370693564415
1733859508005611800,4.84761181640625,0.024288053560256956,-0.04172331861630082,0.11333178014755248
1733859508015562800,4.857562744140625,0.029043577524274587,-0.02538571260385215,0.055143795073032374
1733859508025512700,4.8675126953125,0.018487988979369402,-0.03301818024367094,0.004555763608217239
1733859508035463700,4.877463623046875,0.00882233501151204,-0.04070778489820659,-0.01160977377295494
1733859508045414700,4.88741455078125,0.002390840659290552,-0.06361914327777922,0.021784546306729314
1733859508055364600,4.897364501953125,0.006912701997905969,-0.04794738076291978,0.05578969176113605
1733859508065315800,4.90731591796875,0.03532280392423272,-0.05232018901966512,0.05785889925062656
1733859508075265500,4.917265625,0.05169584657624363,-0.026842633413895964,0.02676759541630745
1733859508085216800,4.927216796875,0.03681158117726445,-0.03206475197635591,-0.012189034965634345
1733859508095167700,4.937167724609375,0.032264585397392506,-0.026124548272415993,0.010177110621333122
1733859508105117400,4.947117431640625,0.01467515269294381,0.0037780572339892386,0.04940671272575855
1733859508115068700,4.957068603515625,0.02463525956273079,-0.010903452134504913,0.08454173899292945
1733859508125018600,4.9670185546875,0.02228723513185978,-0.018503478809446094,0.09286766878962516
1733859508134969600,4.976969482421875,0.018535189121961594,-0.016636369763314722,0.10815817690193652
1733859508144920600,4.986920654296875,0.016233926442265508,-0.026744214540719985,0.10503156931400298
1733859508154870800,4.996870849609375,0.014204904832690953,-0.03176459998600185,0.08385024959743022
1733859508164821500,5.006821533203125,0.021648498836904763,-0.01796571867093444,0.061736617466807364
1733859508174772700,5.016772705078125,0.028263386932015418,0.004053513174504041,0.029289222848415373
1733859508184722700,5.02672265625,0.03511471413150429,0.0010498013138771057,0.0030786767929792402
1733859508194673700,5.036673583984375,0.03769873927533626,-0.008318915534019469,-0.02160568260848522
1733859508204623600,5.04662353515625,0.05125321737527847,-0.0035176527321338653,-0.03758709559440612
1733859508214574600,5.05657470703125,0.03798164786994457,-0.004372369865328073,-0.07543605699539184
1733859508224525600,5.066525634765625,0.04158756340742111,-0.0079984514079988,-0.09895546427071093
1733859508234475500,5.0764755859375,0.05180193729922175,-0.01969327311590314,-0.06966331881284714
1733859508244426800,5.0864267578125,0.027703268831223246,-0.0337611806306988,-0.016513327905535696
1733859508254376700,5.096376708984375,0.01977685974612832,-0.03754954006299376,0.04837853872179985
1733859508264327700,5.10632763671875,0.024194091666489836,-0.04165317598953843,0.11457681177258491
1733859508274278700,5.116278564453125,0.012245149067044258,-0.05252404102869331,0.12974515480995177
1733859508284228600,5.126228515625,0.028500118297338485,-0.05810257181338965,0.13354220900535582
1733859508294179600,5.1361796875,0.001615764633566141,-0.048478491964936254,0.14548808286488055
1733859508304129500,5.146129638671875,0.0006361059464514256,-0.03508314994946122,0.11633680718243121
1733859508314078000,5.156077880859375,0.004671645072847604,-0.04904175187088549,0.07641103950738906
1733859508324029000,5.16602880859375,0.014880319876223801,-0.04497428323626518,0.07927753485441208
1733859508333979000,5.175978759765625,0.021038842505961657,-0.036691096602752805,0.078727499756217
1733859508343930000,5.18593017578125,0.02694704363644123,-0.032291838730499144,0.06613806729614734
1733859508353879800,5.1958798828125,-0.014074556451290845,-0.017820026589930055,0.07998363729715346
1733859508363830800,5.205830810546875,-0.01027808677777648,-0.01709426959864795,0.08359773614108562
1733859508373782000,5.215781982421875,0.0017566344089806078,-0.016636442828550934,0.06423661758899689
1733859508383732000,5.22573193359375,0.0075474927701056,-0.01563479150533676,0.04578618414103985
1733859508393683000,5.235682861328125,0.01387611126974225,-0.019489055780693886,0.030021628776192664
1733859508403633000,5.2456328125,0.03170695151463151,-0.03618343934156001,0.013452186769247055
1733859508413584000,5.255583984375,0.042176323080807925,-0.02937953148037195,0.01036065049469471
1733859508423534800,5.265534912109375,0.03172200295329094,-0.031067411502078174,-0.00758300247490406
1733859508433484800,5.27548486328125,0.042568975660204886,-0.03942395563274622,-0.01678454606235027
1733859508443436000,5.28543603515625,0.025808248864859343,-0.043452772757411,0.00291617970764637
1733859508453385700,5.2953857421875,0.008169424060732126,-0.039437764962390064,0.06625672523975372
1733859508463337000,5.3053369140625,0.012926117068529128,-0.044397871587797996,0.1271820263236761
1733859508473288000,5.315287841796875,0.019955723444372415,-0.02170600117780268,0.0989835213214159
1733859508483238000,5.32523779296875,0.0233668470621109,-0.003467749175801873,0.05132920522093773
1733859508493188900,5.33518896484375,0.03433554645255208,-0.0033130700707435607,0.005574000740051269
1733859508503139000,5.34513916015625,0.009183569539338349,-0.020520517720282076,-0.0047691140979528425
1733859508513089800,5.35508984375,0.030741905874758956,-0.015355316976830362,0.0032300679624080657
1733859508523041000,5.365041015625,0.03552563301995396,-0.02956862431168556,0.03299275354146957
1733859508532991000,5.374990966796875,0.02978328997567296,-0.052578913021087643,0.03232406049966812
1733859508542941700,5.384941650390625,0.028853754040598867,-0.05258548889234662,0.030991350591182708
1733859508552892000,5.394891845703125,0.012972878819704055,-0.01932407447732985,0.03563070082962513
1733859508562843000,5.4048427734375,0.020418518650531767,-0.01725201744362712,0.022211831808090207
1733859508572793900,5.4147939453125,0.016479425635933874,-0.009346578081324696,0.030682138511538504
1733859508582743800,5.424743896484375,-0.004399111741781234,-0.020060645123571155,0.03260989170372486
1733859508592695000,5.434695068359375,0.017992168286442754,-0.015664309860765932,0.04144786267578601
1733859508602645000,5.44464501953125,0.03209492791891098,-0.010759878945350645,0.051365445578098294
1733859508612595700,5.454595703125,0.018286913449317217,-0.03563713057041168,0.07332534845173358
1733859508622547000,5.464546875,0.024089316117763517,-0.03480740174800157,0.07937807261943816
1733859508632497000,5.474496826171875,0.03361351578831673,-0.02806727983802557,0.07612228569388389
1733859508642448000,5.48444775390625,0.027134675163030624,-0.019473054493963717,0.038228900629282
1733859508652397800,5.494397705078125,0.03527238891124725,-0.020697043330967425,-0.0017155717462301254
1733859508662349000,5.50434912109375,0.02658127906396985,-0.03391425230056047,0.009758008426427841
1733859508672299800,5.5142998046875,0.005045592951774597,-0.014962372136488556,0.042511107993125914
1733859508682250000,5.52425,0.0005143792629241943,-0.03529503913447261,0.09522855270206927
1733859508692201000,5.534200927734375,-0.009934095645695924,-0.04355915574133396,0.12827858938872813
1733859508702151000,5.54415087890625,0.004719429737329483,-0.0312856573626399,0.12803309019505976
1733859508712102000,5.554101806640625,0.009363310020416975,-0.04395487706065178,0.08470131346881389
1733859508722052900,5.564052978515625,0.024634236649423834,-0.05190386330373585,0.03925239845812321
1733859508732003000,5.574003173828125,0.026446839029341935,-0.040115152767300606,0.001482347512245178
1733859508741953800,5.583953857421875,0.014427607672661541,-0.03689684830792248,0.024929858595132828
1733859508751904000,5.593904052734375,-0.011013561445474624,-0.02371397999934852,0.07132569906711578
1733859508761855000,5.60385498046875,0.01813128449618816,-0.022031579870358108,0.11968319500088691
1733859508771806000,5.613805908203125,0.03058671531304717,-0.018456570927798746,0.12930617887079715
1733859508781756000,5.623755859375,0.02145019978582859,-0.025411650762706992,0.07193535539805888
1733859508791707000,5.633706787109375,0.034003391888737675,-0.02092471460700035,-0.00026771102547645565
1733859508801657000,5.643656982421875,0.023102643167972562,-0.02574241708703339,-0.046328620454669
1733859508811607800,5.65360791015625,0.015666794078797102,-0.012054083474352955,-0.07053016477525234
1733859508821559000,5.66355908203125,0.016990882289409637,-0.01828808249309659,-0.047694063588976855
1733859508831509000,5.673509033203125,0.005821399629861116,-0.04264722852818668,-0.004380407041311264
1733859508841460000,5.6834599609375,0.009055413115024566,-0.041697161261737344,0.08886895454227924
1733859508851410000,5.693409912109375,0.005416910482198,-0.041769276649877424,0.144562200191617
1733859508861361200,5.703361083984375,0.018153496327996253,-0.041346667323634026,0.16509119347929954
1733859508871312000,5.713311767578125,0.02667655613198876,-0.03459653547629714,0.11910627189576625
1733859508881261800,5.72326171875,0.01991466078162193,-0.02471811554059386,0.04632803593277931
1733859508891213000,5.733213134765625,0.025622955425828695,-0.0026566519886255264,0.005234393522143364
1733859508901162800,5.743162841796875,0.017176175728440282,-0.004842179334163666,-0.011671733093261718
1733859508911114000,5.753114013671875,0.03537117311060428,-0.007404504102841019,0.0028927988320589064
1733859508921065000,5.76306494140625,0.03410802130699157,-0.01622055550403893,0.0032622166663408276
1733859508931015000,5.773014892578125,0.0363582844518125,-0.008551774441823362,-0.03483575105965137
1733859508940966000,5.7829658203125,0.04997603704631328,-0.013017667809501289,-0.0639221448123455
1733859508950915800,5.792915771484375,0.04040639079883694,-0.00841653068959713,-0.0683750325679779
1733859508960866800,5.80286669921875,0.013638795382529496,-0.007724018380790948,-0.052098436027765274
1733859508970817800,5.81281787109375,0.008847469452768564,-0.02739274157732725,0.020527239722013473
1733859508980768000,5.82276806640625,0.016007278079539538,-0.04247808250635862,0.08684943141341209
1733859508990718700,5.83271875,0.04553951590359211,-0.05254537607766688,0.11969897709190845
1733859509000669000,5.8426689453125,0.08287979713007808,-0.04052329517677426,0.09913198988139629
1733859509010620000,5.852619873046875,0.08863032348081469,-0.03167589878924191,0.04260170888602734
1733859509020571000,5.86257080078125,0.05573693866059184,-0.03428396239578724,-0.005735913303494453
1733859509030520800,5.872520751953125,0.010517302361130713,-0.022089228341728447,0.016571195572614668
1733859509040471800,5.882471923828125,-0.015382278048992157,0.003786532801389694,0.06687982557415961
1733859509050422000,5.892422119140625,0.019879735598713158,0.0019509148720651863,0.07737959227859974
1733859509060372700,5.902372802734375,0.030952918276935814,-0.016865502344071866,0.05982932254076004
1733859509070324000,5.912323974609375,0.009868629194051027,-0.0296654357496649,0.0173889416962862
1733859509080274000,5.92227392578125,0.008179945454746484,-0.035783772499486804,0.022287819653749465
1733859509090225000,5.932224853515625,-0.00949073579236865,-0.02396232873722911,0.05456570292413234
1733859509100174800,5.9421748046875,-0.006718932991474866,-0.0248155845656991,0.0710153179436922
1733859509110126000,5.9521259765625,0.022226006463915107,-0.02233896531909704,0.04743453586995602
1733859509120076800,5.962076904296875,0.03777721133902669,-0.011313640370592475,0.008370937982201575
1733859509130026800,5.97202685546875,0.058454088664799925,-0.009497530859336257,-0.04278992493450642
1733859509139978000,5.98197802734375,0.04923734750822186,-0.019651260605081915,-0.06153846454620361
1733859509149928000,5.991927978515625,0.036533933279663325,-0.01587254578396678,-0.05890870056450367
1733859509159879000,6.00187890625,0.026974954556673765,-0.03295461348816752,0.0051303486257791514
1733859509169830000,6.011829833984375,0.006422872654348611,-0.037335020529478784,0.10792729075551033
1733859509179780000,6.021780029296875,0.0014957915157079696,-0.0472190664883703,0.17658640096187592
1733859509189730800,6.031730712890625,0.010796557693928479,-0.06062120357081294,0.23796762911975383
1733859509199680800,6.0416806640625,0.015233663358539342,-0.052599517417699096,0.24613281539678572
1733859509209632000,6.051632080078125,0.029747634140402077,-0.04679156179130077,0.19204817398786544
1733859509219582700,6.061582763671875,0.014526684132963418,-0.046979412513598794,0.12531214079856873
1733859509229533000,6.071532958984375,0.003262801188230514,-0.022871172499656676,0.0656043988108635
1733859509239484000,6.08148388671875,0.013106003680080174,0.012637070994079113,-0.0074824647098779675
1733859509249434000,6.09143408203125,0.029392537092417476,0.030557343088090418,-0.06488894401788711
1733859509259384800,6.101384765625,0.0469112426482141,0.019657544215396044,-0.08866729449033736
1733859509269336000,6.111336181640625,0.03465323409959674,0.023023732712864873,-0.0815460643082857
1733859509279286000,6.1212861328125,0.0306213482350111,0.02534742642007768,-0.03971533979475498
1733859509289237000,6.131237060546875,0.032381197514384986,0.00012348024919629097,-0.003493687334656715
1733859509299187000,6.14118701171875,0.019554449167102573,-0.0036211131066083905,0.05630524006783962
1733859509309138000,6.151137939453125,0.023848054707795382,-0.04129040709175169,0.07850479691624641
1733859509319088400,6.16108837890625,0.02696925546824932,-0.0721622960217297,0.0644148967653513
1733859509329038600,6.17103857421875,0.0184008952178061,-0.07098842993676661,0.06034545536935329
1733859509338989600,6.180989501953125,0.028265725019574164,-0.08266147820428013,0.08289923248291015
1733859509348940500,6.1909404296875,0.022985300398617983,-0.05916128708608448,0.05826105031073093
1733859509358890500,6.200890380859375,0.0194803610175848,-0.048963060611486434,0.06396247682273387
1733859509368841700,6.210841796875,0.029297406154870986,-0.03322875425443053,0.07279518709778786
1733859509378791700,6.220791748046875,0.032658407020568846,-0.014242898755520582,0.08523439743220805
1733859509388742400,6.230742431640625,0.048208442851901054,-0.01002418508194387,0.1028220765709877
1733859509398692600,6.240692626953125,0.0312923793643713,-0.0031011808857321736,0.067917936450243
1733859509408643600,6.2506435546875,0.013253595457226037,-0.025588176373392342,0.031255554485321045
1733859509418594600,6.260594482421875,0.03531228253021836,-0.004217471564561128,0.016142741027474403
1733859509428544500,6.27054443359375,0.012705752316117286,-0.0014628390941768884,0.0016506898164749145
1733859509438495700,6.280495849609375,0.01150675178989768,-0.02046469587981701,0.005377601385116577
1733859509448446500,6.290446533203125,0.019362141465395687,-0.04905607265718281,0.03916062852144241
1733859509458396400,6.300396484375,0.0037334874399006365,-0.0527474014557898,0.07890051823556422
1733859509468347600,6.31034765625,0.0037532150536775588,-0.0484112719476223,0.1249035599976778
1733859509478297600,6.320297607421875,0.002660159119963646,-0.046683279111236334,0.1452419991493225
1733859509488248600,6.33024853515625,0.021981676314026116,-0.06975391970574855,0.10378303055763244
1733859509498199600,6.340199462890625,0.036629064217209815,-0.04938566993772983,0.023969489130377768
1733859509508149500,6.3501494140625,0.0061040159635245795,-0.016579159683361648,0.002021276694536209
1733859509518100500,6.3601005859375,-0.021971593311429023,-0.017667247181013226,0.030815409502387044
1733859509528050400,6.370050537109375,-0.000005845218896865844,-0.008099719825387,0.0662011956602335
1733859509538001700,6.380001708984375,0.012652560824155806,-0.013713468053936957,0.09319441652595996
1733859509547952600,6.38995263671875,0.01590820161923766,-0.0389728508643806,0.08356967909038067
1733859509557902600,6.399902587890625,0.01879690879806876,-0.02475355218015611,0.0873936212927103
1733859509567853600,6.409853515625,0.011273089164495468,-0.012499489154294132,0.0595388151615858
1733859509577803500,6.419803466796875,0.014435937109589576,-0.018423764636740086,0.007221767947077751
1733859509587754500,6.42975439453125,0.028471622855216264,-0.027715397660434245,-0.055550622308254236
1733859509597705700,6.439705810546875,0.032841362372040744,-0.041542847482860086,-0.05862111579477787
1733859509607655400,6.449655517578125,0.02752513578534126,-0.03765679982975125,-0.030666940942406653
1733859509617606700,6.459606689453125,0.02674582197591662,-0.040683308044075966,0.020110475614666938
1733859509627556600,6.469556640625,0.03813347743079066,-0.04144296730495989,0.08210077558159827
1733859509637507300,6.47950732421875,0.04153334900215268,-0.049240489313378925,0.10384732796549796
1733859509647458600,6.48945849609375,0.026703444138914345,-0.033891090620681644,0.11607611041963099
1733859509657408500,6.499408447265625,0.01796937193274498,0.001198635200038552,0.08615443488657475
1733859509667359500,6.509359375,0.024266572380810973,-0.009010185733810067,0.0541886863052845
1733859509677309400,6.519309326171875,0.01932137106359005,0.005276259902492165,0.021154431709647176
1733859509687260700,6.5292607421875,0.01999240219295025,-0.0009197451934218406,0.00023439327776432036
1733859509697211400,6.53921142578125,0.034801702659577126,-0.00889773833528161,0.023119594302773473
1733859509707161300,6.549161376953125,0.03899287073910236,-0.0262190946880728,0.01846387745141983
1733859509717112600,6.559112548828125,0.027030045744776725,-0.04038206007517874,0.02980477115511894
1733859509727062500,6.5690625,0.022916765207052228,-0.035287659545615316,0.03243278157114982
1733859509737013500,6.579013427734375,0.015346622213721274,-0.00969217664860189,0.03683364687860012
1733859509746964500,6.588964599609375,0.023011457753181457,-0.008823065663874148,0.007028875723481178
1733859509756914700,6.598914794921875,0.026925854717940092,0.003300064458698034,-0.015623101067543029
1733859509766865400,6.608865478515625,0.045318566629290576,-0.011569222566857933,-0.034200375765562056
1733859509776815600,6.618815673828125,0.021304069313406945,-0.025758126112818715,-0.010278232908248901
1733859509786766600,6.6287666015625,-0.005648235020041466,-0.043642961567267775,0.06961188088655472
1733859509796717600,6.638717529296875,0.017891045999526976,-0.055915510097891086,0.18141688985824583
1733859509806667500,6.64866748046875,0.01030643608942628,-0.05677388049289584,0.19721943914592266
1733859509816618500,6.658618408203125,0.02068228415325284,-0.05270107809603214,0.1649959164112806
1733859509826568700,6.668568603515625,0.009664484924077987,-0.013831979867070913,0.060599722391366954
1733859509836519400,6.67851953125,0.0059545244902372355,-0.0033473376665264366,0.0021411036819219587
1733859509846470700,6.688470703125,0.017049334478378295,-0.010530527168884873,-0.0394967286080122
1733859509856420600,6.698420654296875,0.023266893818974493,0.002508037298172712,-0.04857376903295517
1733859509866371600,6.70837158203125,0.025483400824666023,-0.015076792296394704,-0.03468962058722973
1733859509876321500,6.718321533203125,0.04325871149003505,-0.03938157779574394,-0.007703998506069183
1733859509886272500,6.7282724609375,0.027616759591549633,-0.038139249584451314,0.06511047781407833
1733859509896223500,6.738223388671875,0.008757453081756829,-0.05345774168223142,0.1301134036004543
1733859509906173400,6.74817333984375,0.002515928343683481,-0.05456957538165152,0.1471890415638685
1733859509916124700,6.758124755859375,0.0030446283929049965,-0.0680583678342402,0.11180267088413239
1733859509926074600,6.76807470703125,0.023402356766909358,-0.06491765865571797,0.05548223324716091
1733859509936025600,6.778025634765625,0.013716244532912968,-0.02425305531211197,0.004219078999757766
1733859509945976600,6.7879765625,0.025002485439926385,-0.010489172245189547,-0.031871056035161015
1733859509955926500,6.797926513671875,0.021947774044424294,-0.0010877221714705228,-0.03783025670051574
1733859509965877500,6.80787744140625,0.024433599510788915,0.0027949644807726145,-0.04045183737576007
1733859509975827500,6.817827392578125,0.042057519006729126,0.0030578532006591557,-0.032546763339638705
1733859509985778700,6.82777880859375,0.030083003574609756,-0.016323139095678924,-0.0053594812065362925
1733859509995729400,6.8377294921875,0.03628609599843621,-0.010021043276786804,0.0773942053258419
1733859510005679600,6.8476796875,0.02927212558314204,-0.0179755824778229,0.10650047282278537
1733859510015630600,6.857630615234375,0.02085705619826913,-0.024875863385573026,0.09123334558606147
1733859510025580500,6.86758056640625,0.027634441378712654,-0.036581206487491726,0.0737210697710514
1733859510035531500,6.877531494140625,0.04509235665798187,-0.027966815138235686,0.03540039920508861
1733859510045482800,6.887482666015625,0.02146247474551201,-0.022077391773462293,0.037333997616171836
1733859510055432400,6.897432373046875,0.010094693034887314,-0.02451645548865199,0.05249474186897277
1733859510065383400,6.907383544921875,0.0021961948700249196,-0.029236762008816003,0.06040507660210132
1733859510075333600,6.917333740234375,-0.007976531837135552,-0.04352079649232328,0.06979658980369567
1733859510085284400,6.927284423828125,-0.02190846494734287,-0.03589563537612557,0.09788052851557731
1733859510095235600,6.937235595703125,-0.0033818975232541557,-0.04397219352163374,0.151507489284873
1733859510105185500,6.947185546875,0.021610358783602714,-0.04607157695367932,0.14743103362619875
1733859510115136500,6.957136474609375,0.021844167539477346,-0.029672888403758407,0.08694763109087944
1733859510125086500,6.96708642578125,0.023341712620854375,-0.027738632405549288,0.034142508098483085
1733859510135037400,6.977037353515625,0.012353285616636275,-0.04676825398094952,-0.0359936889231205
1733859510144988400,6.986988525390625,0.019006898286938665,-0.05162884575463831,-0.05308978515267372
1733859510154938400,6.9969384765625,0.03195756527483463,-0.044878056320175524,-0.01409632989168167
1733859510164889600,7.0068896484375,0.024537059885263442,-0.03391074516922235,0.01739069526195526
1733859510174839600,7.016839599609375,0.02295943530499935,-0.04044350793883204,0.05427344197928905
1733859510184790500,7.02679052734375,0.034450112742930646,-0.04377382140532136,0.0769493841677904
1733859510194741500,7.036741455078125,0.03004106412902474,-0.0356170376304537,0.05186754988133907
1733859510204691700,7.046691650390625,0.019527853421121833,-0.020636033858731386,0.02583937465548515
1733859510214642400,7.056642333984375,0.04463526054024696,-0.01879325553625822,0.013665537258982658
1733859510224592400,7.06659228515625,0.031892244953662156,-0.014220175467059015,0.013835048606991767
1733859510234543600,7.076543701171875,0.03761646781936288,-0.025595629027485845,0.046910804256796834
1733859510244494300,7.086494384765625,0.05323138558045029,-0.017609890970587728,0.059980129188299175
1733859510254444500,7.096444580078125,0.01610723132267594,-0.008804287898167968,0.09705343004167079
1733859510264395500,7.1063955078125,0.020093378349393606,-0.005302271126583219,0.08046469881236552
1733859510274345700,7.116345703125,0.020255583173781632,-0.028805896310880777,0.0468774865090847
1733859510284296400,7.12629638671875,0.02000584619641304,-0.0376240666039288,0.004696633383631706
1733859510294247700,7.13624755859375,-0.004875935473293066,-0.023763079838082193,0.007293079617619514
1733859510304197600,7.14619775390625,-0.005080079743266105,-0.019978592863306402,0.02797054146528244
1733859510314148900,7.15614892578125,0.024842764833569526,-0.024479046087712047,0.06564005464613437
1733859510324098800,7.166098876953125,0.049051907938718796,-0.03502820489183068,0.08786883758902549
1733859510334049800,7.1760498046875,0.0326527079321444,-0.04178089402243495,0.0566501079827547
1733859510344000800,7.186000732421875,0.012597177375108003,-0.025704788490384815,0.04022387383878231
1733859510353950700,7.19595068359375,0.015401128879934549,-0.025546967580169437,0.004741057047247886
1733859510363902000,7.20590185546875,0.00670855772793293,-0.033267405764386054,-0.00101999069750309
1733859510373852000,7.215851806640625,-0.004920066875964403,-0.05289068238399922,0.026563012754917143
1733859510383803000,7.225802978515625,0.007954027744382619,-0.05989230477437377,0.06975742683708668
1733859510393753900,7.23575390625,0.025563334193080663,-0.04729008589796722,0.06884440364539623
1733859510403703800,7.245703857421875,0.04268646456003189,-0.021044249333441255,0.029025603476166725
1733859510413654800,7.25565478515625,0.05178220968544483,-0.00870696500353515,-0.02011690535545349
1733859510423604700,7.265604736328125,0.025750965719670057,-0.00641563919596374,-0.06288111132681369
1733859510433556000,7.275555908203125,0.01437587748542428,0.0138521458722651,-0.018413024047017095
1733859510443506700,7.285506591796875,0.010595774424821137,0.0030587299834936854,0.03998421986401081
1733859510453457000,7.295456787109375,0.018757453570514917,-0.0051307870171964165,0.06262976691424846
1733859510463407900,7.305407958984375,0.023495003486424682,-0.027997794798389077,0.07686462849378585
1733859510473357600,7.315357666015625,0.04119724891558289,-0.014895663575828074,0.08446165949404238
1733859510483308800,7.325308837890625,0.045368835511803624,-0.029799656588584182,0.0755816029459238
1733859510493259800,7.335259765625,0.033684827458858486,-0.03562668224163353,0.07125204930901527
1733859510503209700,7.345209716796875,0.01739785565510392,-0.037339404443651435,0.08608779939115047
1733859510513160700,7.35516064453125,0.02773015683814883,-0.04350486827082932,0.054991819381713866
1733859510523111000,7.36511083984375,0.02326382507905364,-0.037747985244542356,0.00770107589662075
1733859510533061600,7.3750615234375,0.030894758348911998,-0.03361073930934071,-0.012947744378447533
1733859510543012900,7.385012939453125,0.026160861694812774,-0.018034838384389875,-0.004409048613905907
1733859510552962800,7.394962890625,0.010716478195041417,-0.024176044553145766,0.013868366354703902
1733859510562913800,7.404913818359375,0.008922142124176025,-0.02149184697046876,0.03645370765030384
1733859510572863700,7.41486376953125,0.010958470257371664,-0.026755612717568874,0.0538093315988779
1733859510582814700,7.424814697265625,0.03203998286128044,-0.04507883958928287,0.075969140958786
1733859510592765700,7.434765625,0.0046200610160827636,-0.03955569225363433,0.11365618979632854
1733859510602715600,7.444715576171875,0.00745250796303153,-0.030997634201496836,0.08695464535355567
1733859510612667000,7.4546669921875,0.030994857722520825,-0.03338569838181138,0.04831307227015495
1733859510622616800,7.464616943359375,0.033879911639541384,-0.019129063361883164,-0.0036357261538505553
1733859510632567800,7.47456787109375,0.041312984249740836,-0.022733298398926852,-0.0607242255538702
1733859510642518800,7.484518798828125,0.04236673108637333,-0.016894947634264825,-0.0493564438432455
1733859510652468700,7.49446875,0.014937456890940665,-0.026661139367148277,0.02762099737524986
1733859510662419700,7.504419677734375,0.0022634148873388765,-0.04718509115353226,0.0861994430720806
1733859510672369700,7.51436962890625,0.002523380997776985,-0.04903006143309176,0.12333294968008994
1733859510682321000,7.52432080078125,0.00797989283800125,-0.050652182742208236,0.15040741908848285
1733859510692271600,7.534271728515625,0.015923545318841933,-0.05187916725389659,0.1589396851122379
1733859510702221800,7.544221923828125,0.019479776495695114,-0.037744770374149084,0.12103344056606292
1733859510712172800,7.5541728515625,0.032521044376492496,-0.04082410475425422,0.042377252480387685
1733859510722122800,7.564122802734375,0.04444163766428828,-0.01626855936422944,-0.030589784052968024
1733859510732073700,7.57407373046875,0.04811199674010277,-0.004985387197136879,-0.07849602908790111
1733859510742025000,7.58402490234375,0.03853621301278472,0.0035555735897272824,-0.1009878468811512
1733859510751975000,7.593974853515625,0.030133856979012486,0.00731667968891561,-0.05011749134361743
1733859510761925600,7.603925537109375,0.021712650114297866,-0.016436901668459177,0.026917233020067214
1733859510771875800,7.613875732421875,0.014034955093264578,-0.03353460533320904,0.0748018507450819
1733859510781826800,7.623826904296875,-0.00013736264407634735,-0.03210815272666514,0.08103460765480995
1733859510791777800,7.63377783203125,-0.0012035305708646773,-0.026263737547397612,0.09415420146882533
1733859510801727700,7.643727783203125,0.001491115340590477,-0.054459173809736965,0.11864391508102416
1733859510811679000,7.653678955078125,0.005156505980342626,-0.052280149270221586,0.09581891981065273
1733859510821629000,7.66362890625,-0.005251344656944275,-0.04134630199745297,0.062442719909548756
1733859510831579600,7.67357958984375,0.016433394537121056,-0.041724926051497455,0.056469490718841546
1733859510841531000,7.68353076171875,0.030151392635703086,-0.03530329550616443,0.04861936174035072
1733859510851480800,7.693480712890625,0.02184066040813923,-0.040711218964308495,0.028856092128157613
1733859510861431800,7.703431884765625,0.013158172258734703,-0.03341200186684728,0.024272855991125105
1733859510871381800,7.7133818359375,0.006148147366195917,-0.02252089775726199,0.03452478541433811
1733859510881333000,7.7233330078125,0.01732932046353817,-0.016053966765478253,0.05756722282767295
1733859510891283700,7.73328369140625,0.022849106798321007,-0.013615341441705823,0.05690963570177555
1733859510901233700,7.743233642578125,0.01760536092594266,-0.016693214517086743,0.03850362591743469
1733859510911185000,7.753184814453125,0.024526538491249084,-0.0247980489090085,0.029116204369068144
1733859510921134600,7.763134521484375,0.034420594387501474,-0.04005041696801782,0.021391163074970243
1733859510931085800,7.7730859375,0.00987505893483758,-0.04718721004538238,0.03174889096021652
1733859510941036800,7.783036865234375,0.013329437172412872,-0.058798591253533955,0.06646423051059246
1733859510950986800,7.79298681640625,0.03449731288552284,-0.04552607190012931,0.05389993249177932
1733859510960937700,7.802937744140625,0.04739727259948849,-0.05366532001830637,0.016761165186762808
1733859510970888000,7.812887939453125,0.04729293544217944,-0.05487433048188686,0.004229600393772125
1733859510980838700,7.822838623046875,0.020688713894039392,-0.03501454169265926,0.014160627299547195
1733859510990790000,7.832789794921875,0.0205227096773684,-0.01818359920531511,0.06353343775570393
1733859511000739800,7.84273974609375,0.002923924622684717,-0.03392740404307842,0.07703823149502277
1733859511010690800,7.85269091796875,0.015422756189852952,-0.047039326007291674,0.06423895567655563
1733859511020640800,7.862640869140625,0.017533172472566364,-0.04169058539047837,0.0687321754425764
1733859511030591700,7.872591796875,0.010616086560487747,-0.038202451013773675,0.07031447619795798
1733859511040542700,7.882542724609375,0.0008469722181558609,-0.04315525111556053,0.06440554441511631
1733859511050492700,7.89249267578125,0.0078546590231359,-0.024618966015055775,0.0656605129122734
1733859511060444000,7.90244384765625,0.008284428742527961,-0.02301438036262989,0.04743453586995602
1733859511070393900,7.912393798828125,0.02665945886671543,-0.008115136590227483,0.03734159640073776
1733859511080344600,7.922344482421875,0.018019786945730448,-0.01738543456494808,-0.021940613651275632
1733859511090295800,7.9322958984375,0.01983458128273487,-0.009524638061970472,-0.054846273431181904
1733859511100245800,7.942245849609375,0.009065934509038925,-0.0006998188324272632,-0.02723287484049797
1733859511110196700,7.95219677734375,0.018714637342095376,-0.015421148754656314,0.05112286899387836
1733859511120146700,7.962146728515625,0.041242110970616336,-0.0384820716727525,0.09575579144656658
1733859511130098000,7.972097900390625,0.03224105839133262,-0.039846053502336144,0.10891162561774254
1733859511140048600,7.982048583984375,0.03618541210293769,-0.033569019059464335,0.06788578774631022
1733859511149998800,7.991998779296875,0.026345570611953733,-0.024285057885572312,-0.019935119047760963
1733859511159949800,8.00194970703125,0.031587709049135444,-0.03791654674448073,-0.05192483302652835
1733859511169899800,8.011899658203125,0.019623715011030433,-0.04480404123589396,-0.029942718321084975
1733859511179850800,8.021850830078124,0.018816782542318104,-0.05712495895288884,0.020320903494954107
1733859511189801700,8.0318017578125,0.013377367967367172,-0.03875584711283445,0.07596563382744789
1733859511199752000,8.041751953125,0.015048662180453538,-0.042726796570420264,0.08102993147969245
1733859511209702700,8.05170263671875,0.03689166067615151,-0.027528862112388013,0.09150514826476573
1733859511219652900,8.06165283203125,0.030288170757889747,-0.010736644200235604,0.08855740437507628
1733859511229603800,8.071603759765624,0.021711627200990916,0.007514394218102097,0.06094342126250267
1733859511239554800,8.081554931640625,0.02807999318912625,0.008636091724410653,0.014741057536005972
1733859511249504800,8.0915048828125,0.010606295818835496,-0.002969371199607849,-0.016983868026733396
1733859511259455700,8.101455810546875,0.019411387434601784,-0.013743570931255817,-0.012038228318095206
1733859511269406000,8.111406005859376,0.018746786046028138,-0.005175429876521229,0.015091186147928237
1733859511279356700,8.121356689453124,0.009185761496424675,-0.013359028593078255,0.05959083760976791
1733859511289308000,8.131307861328125,0.009434183299541472,-0.026623510770499705,0.08942191224992274
1733859511299257900,8.1412578125,0.023754238944500683,-0.04203413813114166,0.06137129128575325
1733859511309208800,8.151208740234376,0.0036344109795987604,-0.043746056615561246,0.05162555781900882
1733859511319158300,8.161158203125,0.009296820655465126,-0.029813173657283185,0.05296469746828079
1733859511329109500,8.171109619140625,0.027464930030703542,-0.02853073263131082,0.059707741987705225
1733859511339060200,8.181060302734375,0.01933028502240777,-0.049740036333352326,0.03153320238292217
1733859511349010200,8.19101025390625,0.03649184770360589,-0.04678958902992308,0.022609891214966774
1733859511358961400,8.20096142578125,0.02482888243868947,-0.036274551691114904,0.046615620702505106
1733859511368911400,8.210911376953124,0.02137201998308301,-0.037122473757341505,0.07096797167062759
1733859511378862300,8.2208623046875,0.029515578950196502,-0.03761515264511108,0.05748012906610966
1733859511388813300,8.230813232421875,0.020566548819094897,-0.022634295003861188,0.03934007674157619
1733859511398763500,8.240763427734375,0.03141337539553642,-0.01420198222324252,0.013414777368307113
1733859511408714200,8.25071435546875,0.02138195685520768,-0.008195143023878335,0.039781390768289564
1733859511418664200,8.260664306640624,0.005181202030181884,-0.020306728839129207,0.07396598444283008
1733859511428615400,8.270615478515625,-0.0022043781764805315,-0.03196392195038497,0.07256430095136165
1733859511438566100,8.280566162109375,0.004223755174875259,-0.03548763909712434,0.06634089639186859
1733859511448516400,8.290516357421875,0.01632628090083599,-0.041065731490403413,0.07589549120068549
1733859511458467300,8.30046728515625,0.013486089038848877,-0.05117817937768995,0.06101940910816192
1733859511468417300,8.310417236328124,0.01104439497515559,-0.0360619318537414,0.05184066187441349
1733859511478368300,8.3203681640625,0.015516133561730384,-0.02857946714386344,0.051695700445771216
1733859511488319500,8.330319580078125,0.015025281304866075,-0.027718977857008574,0.026492870128154752
1733859511498269400,8.34026953125,0.011745382851362228,-0.015222119051218033,0.0030213936477899547
1733859511508220400,8.350220458984374,0.02282967144548893,0.0007881547030061483,0.014181670087575912
1733859511518170400,8.36017041015625,0.037639556434005496,-0.024333207876235247,0.028427053061127663
1733859511528121300,8.370121337890625,0.054580315971374506,-0.02529584236331284,0.03567453997135162
1733859511538072300,8.380072265625,0.036163200271129604,-0.01631933970339596,0.017709844213724135
1733859511548022300,8.390022216796876,0.026025837138295174,-0.022457769393175838,0.023479075264930725
1733859511557973500,8.399973388671874,0.022836247316747903,-0.025131080255657433,0.06369067414402961
1733859511567923200,8.409923095703125,0.016486439898610115,-0.03799545719958842,0.1105383500367403
1733859511577874400,8.41987451171875,0.01902501846551895,-0.04354870741255581,0.10103694671988486
1733859511587825400,8.429825439453126,0.019912322694063185,-0.05336261074468493,0.06418050348758697
1733859511597775000,8.439775146484376,0.0049644905395805836,-0.02837554206959903,0.03105214086771011
1733859511607726300,8.449726318359374,0.017717589128762482,-0.014494316233322023,0.011965163081884384
1733859511617676300,8.45967626953125,0.01995455440059304,-0.0102194884583354,-0.02186754841506481
1733859511627627300,8.469627197265625,0.030122897193580866,-0.005451324208453298,-0.02347615265548229
1733859511637578200,8.479578125,0.03408361751809716,-0.02215045700967312,-0.02157353390455246
1733859511647528400,8.489528564453124,0.034007483541965484,-0.019363748900592326,0.018015549162030218
1733859511657479200,8.499479248046875,0.01691372539997101,-0.020183760046586393,0.0545195256948471
1733859511667429000,8.50942919921875,0.005165858330577612,-0.02985197129771113,0.076888593891263
1733859511677380400,8.51938037109375,0.0044246845744550225,-0.029972236676514146,0.09259937324225902
1733859511687331300,8.529331298828126,0.013445757028460502,-0.016614304061979054,0.0926350290775299
1733859511697281300,8.53928125,-0.004624591060727834,-0.006683496351912618,0.0644236645936966
1733859511707232300,8.549232177734375,0.01635039242878556,-0.024969606083631513,0.06364625048041343
1733859511717182500,8.559182373046875,0.025013006833940744,-0.032861382246762515,0.07380640996694564
1733859511727133200,8.56913330078125,0.035835429621487856,-0.05249057715050876,0.07183774024248123
1733859511737083400,8.57908349609375,0.02423325463309884,-0.04445939251668751,0.03947977747321128
1733859511747034400,8.589034423828124,0.037004911792278286,-0.017925605856254696,0.0074181673020124435
1733859511756985300,8.5989853515625,0.027100772893428802,-0.018900296107307077,-0.02080313405394554
1733859511766935300,8.608935302734375,0.02687690100967884,-0.022454992914199827,-0.008943184912204742
1733859511776886300,8.61888623046875,0.030703765821456907,-0.020828195429965852,0.05613982037305831
1733859511786836500,8.62883642578125,0.039952655681967736,-0.045332229828462,0.0900906052917242
1733859511796787200,8.638787109375,0.02286956506446004,-0.05519501380361616,0.12438859621286391
1733859511806738400,8.648738525390625,0.024994886655360458,-0.0567108251940459,0.12431728454232215
1733859511816688400,8.6586884765625,0.013044921142607926,-0.05756598071865737,0.11099719972014427
1733859511826639400,8.668639404296876,0.019401012171059846,-0.038382410690560934,0.09876491013467312
1733859511836589300,8.67858935546875,0.026973493251949546,-0.01711209751628339,0.04611702353060245
1733859511846540300,8.688540283203125,0.026139965037256477,-0.025919673350080847,-0.027485388296842574
1733859511856491300,8.6984912109375,0.024778613556176422,-0.00908420081809163,-0.10176818360388279
1733859511866441200,8.708441162109375,0.0434365522749722,-0.0047534050721675155,-0.12307049935162066
1733859511876392400,8.718392333984376,0.029801264023780822,0.0019121902968734501,-0.08902911354005336
1733859511886342400,8.72834228515625,0.009673106621950865,0.0064327364612370725,-0.03493570430278778
1733859511896293400,8.73829345703125,0.037786417558789254,-0.011080708397552371,-0.007103110003471374
1733859511906244400,8.748244384765625,0.03664133917689323,-0.013059899516031145,0.0533083963394165
1733859511916194600,8.758194580078126,0.01785670533850789,-0.010052972785010933,0.08199848425090313
1733859511926145300,8.768145263671874,0.019247136783599853,-0.03537592235095799,0.09519114330112934
1733859511936095200,8.77809521484375,0.013395488145947456,-0.03599814590252936,0.0975064345061779
1733859511946046500,8.78804638671875,-0.007948328655958176,-0.058558133561164134,0.10926643040478229
1733859511955997200,8.7979970703125,-0.008619213654845952,-0.04784129003994166,0.1258405485868454
1733859511965947400,8.807947509765626,-0.0007468728445470333,-0.05074417187459766,0.1282107848495245
1733859511975898400,8.8178984375,0.012051672321557998,-0.05330744649134576,0.11992694062888622
1733859511985848300,8.827848388671875,0.013473667948693036,-0.03606814239881932,0.09055822280347346
1733859511995799300,8.83779931640625,0.022246903121471404,-0.034676980301365255,0.06911854441165924
1733859512005750500,8.84775048828125,0.028697102174162863,-0.019968363730236888,0.062196636193990705
1733859512015700200,8.8577001953125,0.019269933137297628,-0.0023185060754418374,0.04314180711209774
1733859512025651200,8.867651123046874,0.01931961749792099,-0.0036921325162053106,0.03017594255506992
1733859512035601400,8.877601318359375,0.016989274854212998,-0.008307736552879214,-0.00042202480435371396
1733859512045552000,8.88755224609375,0.03232479115203023,-0.01969531894251704,-0.032035306686162945
1733859512055503400,8.89750341796875,0.034825375796109434,-0.021227131619676945,-0.04533668680787086
1733859512065453300,8.907453369140624,0.03432429440617561,-0.0241128431238234,-0.025294015732407568
1733859512075404300,8.917404296875,0.011069675546884535,-0.005419029374048113,0.017107202145457266
1733859512085354200,8.927354248046875,-0.002729863355308771,-0.01987301359698176,0.07170739186108112
1733859512095305500,8.937305419921875,0.016802520110458134,-0.025040625493228434,0.08848317009508609
1733859512105256200,8.947256103515626,0.0338138606660068,-0.0338239436686039,0.08407002982795238
1733859512115206100,8.9572060546875,0.024819968479871748,-0.03915032632313668,0.06021101533472538
1733859512125157400,8.967157470703125,0.026119360640645024,-0.019935411308705804,0.03887538183927536
1733859512135107300,8.977107421875,0.03772854989171028,-0.020947949352115393,0.016539046868681906
1733859512145058300,8.987058349609375,0.04567629402577877,-0.028820874684304,0.00239244809448719
1733859512155009300,8.99700927734375,0.04735796350240707,-0.009654840312898158,-0.005931143614649772
1733859512164959500,9.00695947265625,0.04468552942276001,-0.016797917000576854,0.0013946692287921906
1733859512174910200,9.01691015625,0.031788638448715205,-0.022524697149544953,0.029463410371541977
1733859512184860200,9.026860107421875,0.02285831301808357,-0.024017931381985543,0.0769540603429079
1733859512194811400,9.036811279296876,0.029313188245892522,-0.025117051730304953,0.09401099360585212
1733859512204762000,9.04676220703125,0.0023866028755903245,-0.054489349752292034,0.10170447071790695
1733859512214712300,9.05671240234375,0.0010801964521408081,-0.04675700193457305,0.0967699369251728
1733859512224663300,9.066663330078125,-0.008747223948687315,-0.05468450699821114,0.10469780731499194
1733859512234613500,9.076613525390625,0.006549713904410601,-0.05225304206758737,0.12047405311763286
1733859512244564200,9.086564208984376,0.018540449818968772,-0.03157872202508152,0.10318097301125526
1733859512254515500,9.096515380859374,0.028450433936715123,-0.0319789733890444,0.06531096882224083
1733859512264465400,9.10646533203125,0.02454407414793968,-0.03548237840011716,0.003867196822166443
1733859512274416000,9.116416015625,0.03223535930290818,-0.00802775056771934,-0.016739537876844405
1733859512284366300,9.126366455078125,0.01677811632156372,0.00861994430720806,-0.018373861080408095
1733859512294317300,9.1363173828125,0.018042875560373067,-0.004293313279747963,-0.04461304870843887
1733859512304268300,9.146268310546875,0.03435059789121151,-0.007976604902371764,-0.044295068800449366
1733859512314222800,9.156222900390626,0.03267594267725944,-0.0075295187219977374,-0.0006207622468471527
1733859512324173800,9.166173828125,0.029692396821826696,-0.022371917740628123,0.04316752607524395
1733859512334123800,9.176123779296875,0.017828502157330513,-0.030331425377726554,0.07681611317694187
1733859512344074800,9.18607470703125,0.007885054161399603,-0.03829487853758037,0.11183949576318264
1733859512354025700,9.196025634765626,0.02850947064757347,-0.042973830134049054,0.1136620350152254
1733859512363975700,9.2059755859375,0.027341011390089986,-0.04608772437088191,0.08932195900678634
1733859512373927000,9.215927001953125,0.0180512049973011,-0.03645071197561919,0.059929275783896445
1733859512383876900,9.225876953125,0.01866787559092045,-0.020235563299059865,0.043451603713631624
1733859512393827800,9.235827880859375,0.015252075798064469,-0.008445464523136615,0.03274374721646309
1733859512403778800,9.24577880859375,0.018626520667225123,-0.02159581880159676,0.016803250762820243
1733859512413728800,9.255728759765624,0.033752193606644866,-0.031465105582773684,0.023592472511529922
1733859512423679700,9.2656796875,0.02202010862827301,-0.040306072229519485,0.04173895457684994
1733859512433629700,9.275629638671875,0.018330021938681603,-0.0209601512465626,0.07023322765529155
1733859512443581000,9.285580810546875,0.0059470718361437315,-0.016167875468730927,0.0774772074341774
1733859512453531000,9.29553076171875,0.01607566714063287,-0.031272724815830585,0.07456102772653102
1733859512463481900,9.30548193359375,0.022415976078063247,-0.03281220934279263,0.06672492727339267
1733859512473432800,9.315432861328125,0.018394319346547127,-0.027445786938816306,0.04291209000945091
1733859512483383000,9.325383056640625,0.017584902659803628,-0.02776486282534897,0.03245674696862697
1733859512493333800,9.335333740234375,0.018334844244271516,-0.031245909874141213,0.02173077029287815
1733859512503283700,9.34528369140625,0.009523176757246255,-0.023154519485682246,0.005253098222613334
1733859512513235000,9.35523486328125,0.015224311008304356,-0.025391996214166282,-0.00997018987238407
1733859512523185700,9.365185546875,0.027129560596495864,-0.033728301274403925,0.002063362270593643
1733859512533136000,9.375135986328125,0.02695931859612465,-0.039966903403028844,0.03650923722982406
1733859512543086800,9.3850869140625,0.026939444851875303,-0.03312047157436609,0.07483750658035278
1733859512553037000,9.395037109375,0.030691929253190753,-0.044188978077471255,0.06802431943416595
1733859512562987800,9.40498779296875,0.02781257442459464,-0.03284180076345801,0.0616916092813015
1733859512572939000,9.41493896484375,0.021323358535766602,-0.03209668148458004,0.07035422368645668
1733859512582889000,9.424888916015625,0.020014029502868652,-0.04316365361772477,0.061545478808879846
1733859512592839700,9.434839599609376,0.003837386205792427,-0.0375443524312228,0.06639116527438163
1733859512602790000,9.444789794921874,0.009876666370034218,-0.02484144965931773,0.07021861460804939
1733859512612740900,9.454740966796875,0.021808511704206467,-0.023051643633097408,0.033037177205085755
1733859512622691800,9.46469189453125,0.029500819772481916,-0.01643383292853832,0.009123802176117897
1733859512632641800,9.474641845703125,0.0339805955350399,-0.016295958827808498,-0.0031973347365856167
1733859512642593000,9.484593017578124,0.03472644546627998,-0.02113419263921678,0.01223112054169178
1733859512652542700,9.494542724609374,0.024281477688997983,-0.014175021151080727,0.027774726632237432
1733859512662494000,9.504493896484375,0.0087619831264019,-0.012553849690034985,0.03826104933321476
1733859512672445000,9.51444482421875,-0.006668956369906664,-0.027288331354781984,0.07231178749501704
1733859512682394600,9.52439453125,0.007501900062710046,-0.02831248677074909,0.06993336792588234
1733859512692345900,9.534345947265624,0.026628040815144777,-0.023408932638168335,0.07748948239386082
1733859512702295800,9.5442958984375,0.01320332657471299,-0.02614829447418451,0.0528857870131731
1733859512712246800,9.554246826171875,0.019787965662032364,-0.022881913089379667,0.018513561812043187
1733859512722197800,9.56419775390625,0.0175381409086287,-0.021417758820950983,-0.017318214547634124
1733859512732148000,9.57414794921875,0.023781857603788373,-0.027678207455202934,-0.0402548534989357
1733859512742098700,9.5840986328125,0.023393881199508904,-0.031331542330980296,-0.011773439902067183
1733859512752048600,9.594048583984375,0.008625935656577348,-0.0473183621443808,0.0826052179723978
1733859512762000000,9.603999755859375,0.017638678673654793,-0.050654520829766986,0.1394254218250513
1733859512771950800,9.613950927734376,0.0010362111799418925,-0.035501083100587125,0.15852409004867077
1733859512781900800,9.62390087890625,0.011326134525984525,-0.02908127918615937,0.09918518137335777
1733859512791851800,9.633851806640624,0.0007458499312400817,-0.028319939424842594,0.07027706679701805
1733859512801802000,9.643802001953125,0.010116466475278139,-0.03274637756496668,0.03253799551129341
1733859512811752700,9.653752685546875,0.02273673246502876,-0.02507935006842017,0.0224345346480608
1733859512821704000,9.663703857421876,0.03391220647394657,-0.022327932468429207,0.020600304958224295
1733859512831654000,9.67365380859375,0.06256736920252443,-0.012983984735608101,0.007245733344554901
1733859512841604600,9.6836044921875,0.04079728981256485,-0.0027184651784598825,0.0024169980138540265
1733859512851554800,9.693554931640625,0.04089607401192188,-0.028997911751642822,0.036626726129651066
1733859512861505800,9.703505859375,0.02505421562716365,-0.01812770429961383,0.09616787937879562
1733859512871456800,9.713456787109376,0.014711685311049221,-0.027391280272603034,0.10448504134714603
1733859512881406700,9.72340673828125,0.02601663091853261,-0.03911174787841737,0.0863695389419794
1733859512891358000,9.73335791015625,0.021213468420505522,-0.04072495522871613,0.051204702058434484
1733859512901308000,9.743307861328125,0.023854922839999196,-0.02377973871193826,0.013213701838254929
1733859512911259000,9.7532587890625,0.012659721217304467,-0.03776055246517062,-0.0033358664244413374
1733859512921209900,9.7632099609375,-0.002460691025108099,-0.030967092932760714,0.03625730829536915
1733859512931159800,9.773159912109374,0.0037007542140781876,-0.02912460687123239,0.06429623882174491
1733859512941110800,9.78311083984375,0.03621829145923257,-0.024648265174776314,0.0391261417299509
1733859512951060700,9.793060791015625,0.04166895808055997,-0.0325176833756268,0.005653495717048645
1733859512961012000,9.803011962890626,0.027870734352618453,-0.02179141443893313,0.003605331015586853
1733859512970962000,9.8129619140625,0.014523761523514984,-0.0028403379924595356,-0.007854805153608322
1733859512980913000,9.822912841796875,0.028779665891081094,-0.007343859956786036,-0.011660042655467986
1733859512990864000,9.83286376953125,0.024020927056670187,-0.006604293635860085,0.013417699977755547
1733859513000813800,9.842813720703125,0.003435819667577743,-0.008597367149218917,0.048958968958258624
1733859513010764800,9.852764892578126,0.017142273458838463,-0.031835254069417715,0.08853694610893725
1733859513020714800,9.86271484375,0.02020750624835491,-0.05495514063313603,0.09172083684206009
1733859513030666000,9.872666015625,0.03698284609094262,-0.06814728822670876,0.0790367118358612
1733859513040616700,9.88261669921875,0.03212824566662311,-0.0694828476794064,0.09888882877528667
1733859513050567000,9.89256689453125,0.02529576929807663,-0.06388787721656262,0.1368207922846079
1733859513060518000,9.902517822265626,0.0042968204110860825,-0.03602218436524272,0.1461655437350273
1733859513070467600,9.912467529296874,0.01631809759438038,-0.040178500327095384,0.12662322339713572
1733859513080418800,9.922418701171875,0.026547376794368027,-0.023185279950127004,0.061461892178654665
1733859513090370000,9.9323701171875,0.04735518702343106,-0.018779300076141953,-0.04824935938417911
1733859513100319700,9.94231982421875,0.04836699441447854,-0.0002278904717415571,-0.12352116572856903
1733859513110270700,9.952270751953124,0.07032748181000352,-0.009044672525301575,-0.20339315934479235
1733859513120221000,9.962220947265624,0.07372925307750701,0.0028948446586728096,-0.20989421180188655
1733859513130171600,9.972171630859375,0.05711129575371742,0.0117323772393167,-0.15019406859874723
1733859513140123000,9.982122802734375,0.046115416095405815,-0.004876885321363806,-0.056896191698312754
1733859513150072800,9.99207275390625,0.03725976333618164,-0.027779622003063557,0.042863574692606925
1733859513160023800,10.00202392578125,0.03153261786103249,-0.03846205179803073,0.12904139045476912
1733859513169973800,10.011973876953125,0.031994536284357306,-0.027685513978824017,0.15684709674715994
1733859513179924700,10.0219248046875,0.03799216926395893,-0.03397350820712745,0.12889642902612686
1733859513189876000,10.0318759765625,0.031814357411861414,-0.056126887826249,0.09711363579630851
1733859513199825700,10.04182568359375,0.002720803266018629,-0.04741093579865992,0.10237491732537746
1733859513209777000,10.05177685546875,-0.010605126775056123,-0.033226635362580415,0.1159539453446865
1733859513219726800,10.061726806640625,-0.036273090386390684,-0.030742417331412433,0.1575461849272251
1733859513229677800,10.071677734375,-0.012157909175008535,-0.03539871870465577,0.16384031663537024
1733859513239628800,10.08162890625,-0.007213438510149717,-0.04503470818661153,0.16977438285946844
1733859513249578800,10.091578857421876,-0.025269465813040733,-0.044568113588169214,0.15615326926410197
1733859513259529700,10.10152978515625,-0.017635609933733937,-0.02654430805444717,0.10650865612924099
1733859513269479700,10.111479736328125,0.010175357055664061,-0.008256444757059216,0.012507599395513535
1733859513279431000,10.121430908203125,0.03911488968357443,-0.008992942338064313,-0.07968260852396487
1733859513289380900,10.131380859375,0.0336754751086235,0.0012591332156211138,-0.11783493678569792
1733859513299331800,10.141331787109374,0.04094999615624547,-0.005242211502417922,-0.10598901616930961
1733859513309282800,10.15128271484375,0.02129310952797532,-0.020562237970158458,-0.03642565059959888
1733859513319229000,10.16122900390625,0.016376549783349036,-0.03318381913416087,0.09150514826476573
1733859513329180000,10.171179931640625,0.021315613620728254,-0.05301774282976985,0.18483634291291237
1733859513339129900,10.1811298828125,0.017048603826016185,-0.037341450270265336,0.2202706443876028
1733859513349080800,10.191080810546875,0.010514818143099547,-0.06205978500656783,0.17506196787357328
1733859513359031800,10.20103173828125,0.011524433577060698,-0.05749430372193455,0.09823650234639644
1733859513368981800,10.210981689453124,0.009054244071245193,-0.03587649228423834,0.019795418316125867
1733859513378933000,10.22093310546875,-0.003728226742893457,-0.033539792964980004,0.00014379238486289978
1733859513388883000,10.230883056640625,0.01997559718862176,-0.011956614449247718,0.04721884729266167
1733859513398834000,10.240833984375,0.03822437058463692,-0.017223083610087633,0.06937924117445946
1733859513408785000,10.250784912109374,0.04310907388627529,-0.028677593756094574,0.04757774373292923
1733859513418735000,10.260735107421874,0.02857610614299774,-0.032186917051300404,0.015693243694305418
1733859513428685800,10.270685791015625,0.010305120915174484,-0.022629618828743696,0.008925064733624458
1733859513438635800,10.2806357421875,0.006244008956104516,0.0038368016839027404,-0.00817687671482563
1733859513448587000,10.2905869140625,0.01895195322930813,-0.01863280427753925,0.01058978307545185
1733859513458537700,10.300537841796874,0.012016016486287116,-0.01009893081858754,0.002803366982936859
1733859513468488000,10.310488037109375,0.021506752278655766,-0.019341756264492867,-0.00016717326045036316
1733859513478439000,10.32043896484375,0.03686097327694297,-0.03179901371225714,0.0054833998471498484
1733859513488389000,10.33038916015625,0.024459318473935125,-0.028713980243727562,0.0390916549384594
1733859513498339800,10.34033984375,0.028100889846682547,-0.03565386250950396,0.08711071269810199
1733859513508291000,10.350291015625,0.00047463177442550657,-0.020783041113987565,0.12090484575033188
1733859513518241000,10.360240966796875,-0.021983283749222753,-0.008910451686382293,0.1474555835455656
1733859513528191700,10.370191650390625,-0.008980594313144684,0.005745265653729438,0.09967267262935638
1733859513538142000,10.380141845703125,0.0372210387609899,-0.013789236703887582,0.04133855708241462
1733859513548093000,10.390093017578126,0.035337709232419724,-0.024599749857932326,-0.012689385703206062
1733859513558044000,10.4000439453125,0.04047010368481278,-0.041960634503513575,-0.08248597550690173
1733859513567993900,10.409993896484375,0.024916560722142458,-0.054538084264844654,-0.07759937250912188
1733859513577945000,10.419945068359375,0.04270122373774647,-0.07228672611899674,-0.00760346074104309
1733859513587895000,10.42989501953125,0.03260536165907979,-0.07373553668782115,0.08163491163551807
1733859513597845800,10.439845703125,0.02648468682169914,-0.06575396334938705,0.11683014365732669
1733859513607797000,10.449796875,0.00913476196154952,-0.03268463744036853,0.1444973182618618
1733859513617747000,10.459746826171875,0.035623686566948885,-0.022972221721336245,0.1146948851943016
1733859513627698000,10.469697998046875,0.039652795952558516,-0.02196501744017005,0.040217444097995755
1733859513637648000,10.47964794921875,0.03896846695020795,-0.011299538780003785,-0.014161796343326568
1733859513647599000,10.48959912109375,0.031806904757767915,-0.003439545994624495,-0.021589315995573996
1733859513657548800,10.499548828125,0.0006074643738567829,0.021790976047515866,0.012729717713594435
1733859513667500000,10.5095,-0.0015079203449189663,0.01752827710174024,0.05697159502208233
1733859513677451000,10.519450927734376,0.019718553687632083,0.005837035590410232,0.06945639806389808
1733859513687400700,10.529400634765626,0.030965193236619233,0.00014978373423218727,0.03573825285732746
1733859513697352000,10.53935205078125,0.030771716491132972,-0.014137684815376996,-0.027356208959221837
1733859513707302000,10.549302001953125,0.040405660146474835,-0.021618249829113482,-0.040250177323818206
1733859513717252900,10.5592529296875,0.029593758752942085,-0.042835809902846814,-0.04174012362062931
1733859513727203800,10.569203857421876,0.030339608684182166,-0.06052833765558898,-0.02160392904281616
1733859513737154000,10.579154052734374,0.012052256843447684,-0.056193523321673274,0.04312719406485557
1733859513747104800,10.589104736328125,0.013542933792620896,-0.07052000870741904,0.12452537433505058
1733859513757054700,10.5990546875,0.011443915686756371,-0.07963343561999499,0.1964426095545292
1733859513767006000,10.609005859375,0.02760594593659043,-0.0859050632353872,0.21134908678531644
1733859513776956700,10.618956787109376,0.011041180104762315,-0.07119907701276243,0.1809177081644535
1733859513786907000,10.628906982421874,-0.002540770523995161,-0.028434651845693586,0.11577741973400116
1733859513796857900,10.63885791015625,0.0054724400617182254,-0.01337378777079284,0.04386895234286785
1733859513806808000,10.64880810546875,0.023151743006706235,-0.00804630913771689,0.0010322656571865082
1733859513816758800,10.6587587890625,0.025180180094391106,0.0027978870902210474,-0.008630465701222419
1733859513826710000,10.6687099609375,0.021141718358546495,-0.00903079013042152,-0.006796820533275604
1733859513836660000,10.678659912109374,0.011757219419628382,-0.023127266152575612,-0.037730887979269025
1733859513846611000,10.68861083984375,0.02643383341729641,-0.03636507951878011,-0.02317863101363182
1733859513856561000,10.698560791015625,0.024082886376976965,-0.03636756373681128,0.030775662013888358
1733859513866512000,10.708511962890626,0.027808775032311675,-0.030873934756591913,0.06684650782644748
1733859513876462800,10.718462890625,0.030190701732784507,-0.03883687645979225,0.07838789253830909
1733859513886412800,10.728412841796874,0.021635639355331658,-0.04079392881169915,0.06913374198079109
1733859513896364000,10.738364013671875,0.024557664281874895,-0.04176043575629592,0.07056348252296447
1733859513906314000,10.74831396484375,0.02656184371113777,-0.024619039080291984,0.05662614258527755
1733859513916265000,10.758264892578126,0.015809417419880626,-0.02661057822369039,0.05476502488851547
1733859513926215000,10.76821484375,0.040453590941429134,-0.02612937057800591,0.03656242872178554
1733859513936166000,10.778165771484375,0.02998421937525272,-0.023495003486424682,0.003325345030426979
1733859513946116900,10.788116943359375,0.019392682734131812,-0.031029271448776125,0.007982230925559997
1733859513956066800,10.79806689453125,0.0208973882086575,-0.039185982158407566,0.03712999947667121
1733859513966018000,10.80801806640625,0.025624855121970175,-0.029719065633043645,0.05289163223206997
1733859513975968000,10.817968017578124,0.029505642078071832,-0.029506884187087416,0.03751110774874687
1733859513985919000,10.8279189453125,0.02285641332194209,-0.012194295662641524,0.03289221577644348
1733859513995870000,10.837869873046875,0.0186121998809278,-0.02627951963841915,0.039406127715110775
1733859514005820000,10.84781982421875,0.0099373105160892,-0.046850452371686696,0.039299744731187816
1733859514015771000,10.85777099609375,0.03065978054925799,-0.049198549867793914,0.0459317300915718
1733859514025720800,10.867720947265624,0.019621815314888953,-0.0611380670517683,0.029766777232289314
1733859514035672000,10.877672119140625,0.004946954882889986,-0.045097252028807995,0.05436112026274204
1733859514045622800,10.887622802734375,-0.014957769026607275,-0.044159167461097236,0.1139320841282606
1733859514055573000,10.897572998046876,-0.000459580335766077,-0.05658478766158223,0.12937632149755954
1733859514065524000,10.90752392578125,0.0025637130081653595,-0.0500341969743371,0.13950082514882087
1733859514075474000,10.917473876953125,0.013134645252674817,-0.02287489882670343,0.10445873786211013
1733859514085425000,10.9274248046875,0.03534603866934776,-0.015818915900588034,0.004487374547123908
1733859514095376100,10.937376220703126,0.04718903667628765,-0.016765622166171668,-0.09569909282326698
1733859514105325800,10.947325927734376,0.06696063572540879,0.0016680062774568796,-0.17525018392205238
1733859514115276800,10.95727685546875,0.06189443837702274,-0.012040128014236687,-0.17369301760792732
1733859514125227000,10.96722705078125,0.04647124379575252,0.0037904783241450783,-0.12663959001004696
1733859514135177700,10.977177734375,0.04199979747012257,-0.0058235185217112295,-0.0309393281430006
1733859514145129000,10.98712890625,0.04092354654073715,-0.020830241256579757,0.03262450475096702
1733859514155079000,10.997078857421876,0.026701544442772864,-0.048876112980395556,0.09065525343716144
1733859514165030000,11.00702978515625,-0.021499884146451948,-0.04495587079674005,0.15837971314191818
1733859514174979800,11.016979736328125,-0.03274666982591152,-0.05237462262064218,0.23368483723402023
1733859514184930800,11.026930908203125,-0.03540083759650588,-0.04808401275463402,0.2549772161096334
1733859514194881000,11.036881103515626,-0.0019371055424213409,-0.0449508292954415,0.2147141793042421
1733859514204831700,11.046831787109374,0.038348727616667744,-0.051087651550024746,0.09350713573694229
1733859514214783000,11.056782958984375,0.042702831172943115,-0.04514920141175389,-0.029991233637928962
1733859514224733000,11.06673291015625,0.03815978091582656,-0.011445450056716799,-0.0886310541331768
1733859514234684000,11.076683837890625,0.00880801422521472,-0.00012443009726703167,-0.05065408243834972
1733859514244633900,11.0866337890625,-0.019854455026984213,-0.004428191705793142,0.032981647625565526
1733859514254585000,11.096585205078124,-0.010216273587942123,-0.013908186908438801,0.08635024971961974
1733859514264535800,11.106535888671875,-0.0018741233088076113,-0.01538162046186626,0.13313596629202365
1733859514274485800,11.11648583984375,-0.023470453567057847,-0.0162392602045089,0.16962240716814994
1733859514284437000,11.12643701171875,-0.01538344709277153,-0.02402121931761503,0.20757365989983081
1733859514294387000,11.136386962890626,0.0031913433872163294,-0.02879544798210263,0.1775409252077341
1733859514304338000,11.146337890625,0.006210106686502695,-0.029048107568919658,0.05808452470004558
1733859514314289000,11.156288818359375,0.047374914637207985,-0.010716843521222472,-0.07783376578688621
1733859514324238600,11.166238525390625,0.06117781454026699,-0.02325505725070834,-0.15341361516714094
1733859514334189600,11.176189453125,0.04572144834175706,-0.02826893988996744,-0.1530979733467102
1733859514344139500,11.186139404296876,0.04952551679983735,-0.04144552458822727,-0.07707739446163177
1733859514354090500,11.196090576171875,0.031535102079063654,-0.046819180450588464,0.015611995151638984
1733859514364041500,11.20604150390625,0.038323008653521534,-0.048013139475509524,0.08965630552768707
1733859514373991400,11.215991455078125,0.028190467826277016,-0.03465067681632936,0.11100304493904113
1733859514383942700,11.225942626953126,0.020160890627652406,-0.03928016324788332,0.10575929906666279
1733859514393892600,11.235892578125,0.009709054718166589,-0.027849253173172474,0.08819909245669841
1733859514403843600,11.245843505859375,0.008717997854202986,-0.023924700140580533,0.06776245362758636
1733859514413793500,11.25579345703125,0.025667525219917296,-0.0090104049295187,0.06293138020932675
1733859514423744500,11.26574462890625,0.04166121316552162,-0.013148966038972138,0.033252281260490416
1733859514433695500,11.275695556640626,0.05453633069917559,-0.021897432096675037,0.015389876833558082
1733859514443645400,11.2856455078125,0.0416010074108839,-0.0011946166120469569,-0.011658873611688613
1733859514453596700,11.2955966796875,0.06137187580764293,-0.0023641718480736018,-0.04044949928820133
1733859514463546600,11.305546630859375,0.0415064609952271,-0.008446049045026301,-0.050479310393333435
1733859514473497600,11.31549755859375,0.04453998347222805,-0.01066964337863028,-0.05048866274356842
1733859514483448600,11.325448486328124,0.021920155385136603,-0.027525354981049893,-0.026027006182074545
1733859514493398500,11.3353984375,-0.00710895522236824,-0.038753728220984336,0.05016600666046142
1733859514503349500,11.345349609375,0.019727467646449802,-0.05927578031122684,0.08416822950541973
1733859514513299500,11.355299560546875,0.011681085443496704,-0.057048898041993375,0.12945932360589504
1733859514523250700,11.365250732421876,0.017100187882781028,-0.05267185200154781,0.14849018729031085
1733859514533201400,11.375201416015624,0.00790522016659379,-0.06793781019449234,0.1527408304721117
1733859514543151600,11.385151611328125,-0.0036316345006227493,-0.047544499050453305,0.15374211646914482
1733859514553102600,11.3951025390625,-0.009493804532289504,-0.020418372520059347,0.11492810942828655
1733859514563052300,11.40505224609375,0.006955956617742776,-0.0235498024135828,0.05484510438740253
1733859514573003500,11.41500341796875,0.018082915309816597,-0.009285130217671394,0.023376783934235573
1733859514582954800,11.424954833984375,0.0189922852396965,0.0011909633502364158,-0.04182838642597198
1733859514592904400,11.434904541015625,0.029759762969613072,0.01130085395425558,-0.07834756052792072
1733859514602855400,11.44485546875,0.026102263375371693,-0.005161912807822227,-0.06520809296965599
1733859514612805600,11.4548056640625,0.029181670820713042,-0.031938349117711186,-0.03299626067280769
1733859514622756600,11.464756591796874,0.014731705185770988,-0.051337973049283024,0.036194179931282995
1733859514632707600,11.47470751953125,0.02766059873327613,-0.034672888648137445,0.09857786312997341
1733859514642657500,11.484657470703125,0.02730827816426754,-0.04513203108124435,0.12854922302365301
1733859514652608500,11.4946083984375,0.05234174326434731,-0.036470147328451274,0.08920096297562122
1733859514662558500,11.504558349609376,0.03039163113236427,-0.0407672600004822,0.04546761971116066
1733859514672509400,11.514509521484374,0.019818214669823645,-0.027355843633040784,0.024035540103912352
1733859514682459600,11.524459716796875,0.041103579282760615,-0.02412336451783776,0.0007844283759593963
1733859514692410400,11.534410400390625,0.02463993573784828,-0.028359175456687806,-0.01468845056593418
1733859514702361600,11.544361572265625,0.03790507550239563,-0.02725494054183364,0.032092005309462546
1733859514712311600,11.5543115234375,0.02715045725405216,-0.02512625795006752,0.05790858361124992
1733859514722262500,11.564262451171874,0.02959083614349365,-0.022636048569530248,0.06824760679602622
1733859514732212500,11.57421240234375,0.03517711184322834,-0.025777488400414585,0.0447206007361412
1733859514742163500,11.58416357421875,0.03272971869111061,-0.024425708465278147,0.01784253068268299
1733859514752114400,11.594114501953126,0.02139773894622922,-0.02080839475095272,0.011409282764792441
1733859514762064400,11.604064453125,0.01803966068997979,-0.01865055912993848,0.013527005571126937
1733859514772015600,11.614015625,0.024996640221029518,-0.037201384212449194,0.034438276174664495
1733859514781965600,11.623965576171875,0.01698036089539528,-0.03712481184490025,0.07741758620142936
1733859514791916500,11.63391650390625,0.02554550627544522,-0.03609977964609861,0.07839490680098533
1733859514801867500,11.643867431640626,0.02102773659005761,-0.04000555491298437,0.06881108589768409
1733859514811817700,11.653817626953124,0.007718757683783769,-0.03251373785287141,0.07846504942774772
1733859514821768400,11.6637685546875,-0.006178834765404462,-0.0348095937050879,0.10574819315075874
1733859514831718400,11.673718505859375,0.002756166840344667,-0.016349954037368296,0.10409107359349727
1733859514841669600,11.683669677734375,0.0008821896620094775,-0.027105814394727347,0.0876636704057455
1733859514851619600,11.69361962890625,0.014341975215822457,-0.02636054898537695,0.04506663769483566
1733859514861570600,11.703570556640624,0.024687282010912893,-0.01842405689768493,-0.002100187149643898
1733859514871521500,11.713521484375,0.02785539065301418,-0.02348236320056021,-0.00592296030819416
1733859514881471700,11.7234716796875,0.005574000740051269,-0.017548589237406848,0.0041787469893693925
1733859514891422500,11.73342236328125,0.031041034951806067,-0.030566987699270246,0.044969607061147686
1733859514901372400,11.743372314453126,0.019983195973187685,-0.043749344551190734,0.0466898549824953
1733859514911323600,11.75332373046875,0.03558233164325356,-0.06073715810067951,0.036268998733162874
1733859514921274400,11.7632744140625,0.042234190747886896,-0.038713250080123544,0.01601823786497116
1733859514931224600,11.773224609375,0.0434473659299314,-0.03738499715104699,0.020967969226837156
1733859514941175600,11.783175537109376,0.04100055729970336,-0.04234320408031344,0.006630231794714927
1733859514951125500,11.79312548828125,0.02388181084692478,-0.036551395871117706,0.034845687931776045
1733859514961076500,11.803076416015625,0.027023762134462594,-0.03599390811882913,0.07723404632806778
1733859514971027700,11.81302783203125,0.024309827000647783,-0.050597529945522544,0.09753566060066222
1733859514980977400,11.822977294921875,0.020734160470962524,-0.051176352746784684,0.10643968254625796
1733859514990928600,11.8329287109375,0.017028876212239266,-0.021828677709400654,0.09119242905378341
1733859515000878600,11.842878662109374,0.018977672192454338,-0.012022153966128825,0.04260404697358608
1733859515010829600,11.85282958984375,0.04350961751118302,-0.0018534458469599484,-0.02519113987982273
1733859515020780500,11.862780517578125,0.013891454969346522,0.0011159984178841114,-0.05218552978932857
1733859515030730500,11.87273046875,0.0298861658282578,-0.019206658642739058,-0.04769347906708717
1733859515040681700,11.882681640625,0.03654562371745705,-0.019589958871901035,-0.045510289809107776
1733859515050631400,11.89263134765625,0.04561024305224418,-0.012872706380859017,-0.04757949729859828
1733859515060582700,11.902582763671875,0.040026889961957926,-0.03140606887191534,-0.026046879926323888
1733859515070532600,11.91253271484375,0.024648119044303893,-0.01760536092594266,-0.0013853168785572052
1733859515080483300,11.9224833984375,-0.004671937333792448,-0.02877148258462548,0.04914426239728927
1733859515090434600,11.9324345703125,-0.013082038282603025,-0.041973420919850464,0.10417524474561214
1733859515100384500,11.942384521484374,0.00787774763777852,-0.05505341337583959,0.15008768561482427
1733859515110335500,11.95233544921875,0.016870909171551464,-0.06295118088833987,0.15555588789284228
