time,seconds_elapsed,z,y,x
1733359645784986000,0.018986083984375,-0.027950667721033096,-0.06374357337504626,0.024176994401216505
1733359645794951000,0.028950927734375,-0.0673988810122013,-0.09038549658507108,0.009037292936444282
1733359645804916700,0.038916748046875,-0.09951660528481006,-0.09979337639957665,-0.010758709901571272
1733359645814883000,0.048883056640625,-0.11107961730659008,-0.0963473275989294,-0.015759294667840002
1733359645824848000,0.058847900390625,-0.09371814813911915,-0.08883505227267742,-0.011979776129126547
1733359645834814000,0.06881396484375,-0.053205520486831664,-0.06140022511929273,0.002827332380414009
1733359645844779000,0.078779052734375,0.06611994711756705,-0.04965981070399284,-0.0005132102191448212
1733359645854744800,0.088744873046875,0.16803192310631274,-0.055499768903851505,-0.01803074673116207
1733359645864710000,0.0987099609375,0.18322773867249487,-0.0309980725929141,-0.02298515426814556
1733359645874676000,0.108676025390625,0.12780220404863357,0.013607669591903685,0.018960721057653427
1733359645884641800,0.118641845703125,0.046076691520214076,0.014319617253541946,0.09631167176365851
1733359645894607000,0.128607177734375,-0.07034136420488357,0.013883563923835754,0.154334821665287
1733359645904573000,0.138572998046875,-0.0966132850587368,0.021929215474426746,0.18470716357529163
1733359645914538000,0.1485380859375,-0.09932663567066193,0.04187047200202942,0.15322656816244123
1733359645924504000,0.158504150390625,-0.006961655706167221,0.10791998423188924,0.15052432346642017
1733359645934470000,0.168469970703125,0.07315583710372447,0.1584141999334097,0.16349311063289643
1733359645944435000,0.17843505859375,0.10037585246264934,0.1769780306279659,0.1903162356287241
1733359645954401000,0.188401123046875,0.059442953571677205,0.14987316608130932,0.21844284443855283
1733359645964366000,0.198365966796875,-0.00900339066684246,0.14150690427422521,0.21810791339576244
1733359645974332000,0.208331787109375,-0.03199439015388489,0.10122808537781237,0.2068763252854347
1733359645984297000,0.218296875,-0.028680151039361952,0.054928691017627713,0.18157354172468185
1733359645994263000,0.228262939453125,-0.030815409502387044,0.03688917645812034,0.1712929707288742
1733359646004229000,0.23822900390625,-0.004756254616379738,0.04931172791868448,0.1875789196193218
1733359646014194000,0.24819384765625,0.0462239910364151,0.004600479532778263,0.1796142243504524
1733359646024160000,0.258159912109375,0.0626759441435337,-0.021742168469727038,0.18082009300887583
1733359646034124800,0.268124755859375,0.02226093164682388,-0.031236849784851074,0.21231354790329932
1733359646044091000,0.2780908203125,-0.05767652842104434,-0.03181464967280626,0.21111001733243465
1733359646054057000,0.288056884765625,-0.04611643900871277,-0.03717120826989412,0.20786416727900503
1733359646064022000,0.29802197265625,-0.03462006248235702,-0.019995617063343525,0.2276806283831596
1733359646073987800,0.30798779296875,-0.041244449058175085,-0.003906652049720287,0.23088673094809053
1733359646083953000,0.317952880859375,0.008949030131101607,-0.021654782447218895,0.20036065978109835
1733359646093919000,0.3279189453125,-0.0006125789403915405,-0.04404430890977382,0.1502437529593706
1733359646103885000,0.337885009765625,-0.020862755286693572,-0.012295417949557304,0.13536825538873673
1733359646113849900,0.347849853515625,-0.004635843107104301,0.024993571481108662,0.14791384870707988
1733359646123816000,0.35781591796875,0.014064765709638594,0.0770803170710802,0.1540823082089424
1733359646133781000,0.367781005859375,0.021216975551843643,0.09822598095238208,0.13062719834148884
1733359646143746800,0.377746826171875,0.10499766704440117,0.07076046639978885,0.11638298441171645
1733359646153712000,0.387712158203125,0.17420681234896182,0.006183364810049534,0.08643325182795523
1733359646163678000,0.397677978515625,0.21134908678531644,-0.0017930208966135978,0.11262392413914203
1733359646173644000,0.40764404296875,0.15267770210802553,-0.03823620715290308,0.16377543470561504
1733359646183609000,0.417609130859375,-0.12041384736299514,-0.06589052227586507,0.12374854474365711
1733359646193575000,0.427574951171875,-0.4024743007093668,-0.07466448810100555,0.0953144774198532
1733359646203540000,0.4375400390625,-0.45452422142028803,-0.03728372873365879,0.07804010201394558
1733359646213506000,0.447506103515625,-0.47889001639187334,-0.06834346838593483,0.002091419321298599
1733359646223471900,0.457471923828125,-0.7125824524104595,-0.056059156352281564,-0.011633739170432091
1733359646233437200,0.467437255859375,-1.0686176580280065,0.04679477666169405,0.23636720818579196
1733359646243403000,0.477403076171875,-1.3390040401935577,0.21812837166190147,0.6096139531061053
1733359646253367800,0.487367919921875,-1.2532745527207851,0.3407914592564106,0.8919248740822077
1733359646263334100,0.497334228515625,-1.0770552315056323,0.276220495146513,1.1002037596419454
1733359646273299000,0.507298828125,0.37722996933758257,0.024916414591670034,1.084754553836584
1733359646283264800,0.5172646484375,1.4971142887443303,0.10490531258583068,0.0404182273671031
1733359646293231400,0.5272314453125,0.9370674996227025,0.22639672605246305,-0.1233043081074953
1733359646303196200,0.537196044921875,1.3306699270904063,-0.10781213994324207,-0.1972165165364742
1733359646313162000,0.547161865234375,1.3549813615262507,-0.26994273005127906,-0.41135289595276114
1733359646323127300,0.557127197265625,0.7614139955967665,-0.12992460303008554,-0.2853431282788515
1733359646333093000,0.567093017578125,0.3176151663303375,-0.1107151679083705,-0.15848054316788912
1733359646343059200,0.57705908203125,0.17495850749909878,-0.18330401877909897,-0.25357114870399233
1733359646353024300,0.587024169921875,0.1762345187842846,-0.2378527705684304,-0.43642157849669455
1733359646362990000,0.596989990234375,0.38739188238978384,-0.25826836660951374,-0.6362175901323557
1733359646372955100,0.606955078125,0.4902028530448675,-0.2645443781390786,-0.7798138679012656
1733359646382921200,0.616921142578125,0.4666214864492416,-0.23511340873241424,-0.7510533451020717
1733359646392887000,0.626886962890625,0.350761064606905,-0.27211510565429925,-0.6518345537200569
1733359646402852400,0.636852294921875,0.20752397553920746,-0.2640259072229266,-0.4984186004653573
1733359646412818200,0.646818115234375,0.1114402673125267,-0.22645810085088014,-0.37570144459605215
1733359646422783200,0.656783203125,0.13250760526061056,-0.20650135449320076,-0.28649785127192734
1733359646432749300,0.666749267578125,0.21370120286941527,-0.1887061700835824,-0.2097682473346591
1733359646442714000,0.676714111328125,0.2036667155891657,-0.13271949444562195,-0.17854717964082956
1733359646452680200,0.68668017578125,0.14619593887329102,-0.06966214976906776,-0.14225976846814153
1733359646462646300,0.696646240234375,0.0850976193100214,-0.04385053990334272,-0.11222557247132062
1733359646472611000,0.706611083984375,0.0522673628538847,-0.06064473057687282,-0.11600304518342018
1733359646482577200,0.7165771484375,0.04886719902157783,-0.10863280867636203,-0.13624620726704598
1733359646492542200,0.726542236328125,0.028736265140771863,-0.14845307015031575,-0.10600333695560693
1733359646502508300,0.73650830078125,-0.04014847051501274,-0.16691782438457012,-0.005132394452393055
1733359646512474400,0.746474365234375,-0.09350479764938353,-0.17443068423271177,0.09767682263702153
1733359646522439200,0.756439208984375,-0.03918108678758144,-0.18646862028986214,0.08310907584130764
1733359646532405200,0.7664052734375,0.0198725752055645,-0.25874153707921504,-0.009700725281238555
1733359646542370300,0.776370361328125,-0.09476911849677562,-0.2462333531618118,0.012690847007930278
1733359646552336100,0.786336181640625,-0.2648866157054901,-0.08373305295854806,0.13619623064547776
1733359646562302200,0.79630224609375,-0.3245534411609173,0.0024649288088083266,0.2684948693305254
1733359646572267300,0.806267333984375,-0.2477589552938938,-0.011793313646316528,0.22783961833715438
1733359646582233000,0.816233154296875,-0.178124862575531,-0.022820319095253942,0.12597381957769394
1733359646592198100,0.8261982421875,-0.10814414837658405,-0.020361527766287326,0.057768006096780296
1733359646602164200,0.836164306640625,-0.08684358619451522,0.014808862075209617,0.07745148847103119
1733359646612129300,0.84612939453125,-0.12678864309191704,0.034601065520942206,0.09276099354475736
1733359646622095000,0.85609521484375,-0.11835340770184993,0.01077536877542734,0.09440466909855603
1733359646632061200,0.866061279296875,-0.15521160449981689,0.011093640944361686,0.056839785335958
1733359646642026200,0.876026123046875,-0.1873053633749485,0.012443009726703166,0.023864275190234183
1733359646651992000,0.885991943359375,-0.2503893037974834,-0.015788520762324332,0.041995559686422344
1733359646661957400,0.895957275390625,-0.3431950132668018,-0.019451427184045314,0.04724076686352491
1733359646671923200,0.905923095703125,-0.36317806310951706,0.00907704042494297,0.04782470423132181
1733359646681889300,0.91588916015625,-0.2839315079152584,0.01628390306383371,0.07171294481903315
1733359646691854300,0.925854248046875,-0.1462315947085619,0.0011564765587449074,0.09243073867708444
1733359646701820200,0.935820068359375,0.0499228455543518,-0.014060966317355632,0.10303513479977845
1733359646711785200,0.94578515625,0.23163667253255843,-0.026681378437578677,0.08817980323433876
1733359646721751300,0.955751220703125,0.41842298046946524,-0.0969029156550765,-0.027086159846186637
1733359646731717000,0.965717041015625,0.48631753604412076,-0.18412614881694317,-0.15638824706375598
1733359646741682200,0.97568212890625,0.43623803862333294,-0.22422698079794645,-0.25731121201515195
1733359646751648300,0.985648193359375,0.41685003206431864,-0.2249611402913928,-0.2847784801334142
1733359646761613000,0.995613037109375,0.4651812245130539,-0.2532537533178925,-0.27530425708442924
1733359646771579400,1.005579345703125,0.41946810560822484,-0.3328822935670614,-0.2916717467784881
1733359646781544200,1.015544189453125,0.3306815686523914,-0.33563013097047806,-0.27995354419499635
1733359646791510000,1.025510009765625,0.23943361001908778,-0.32596038534939287,-0.23881401681602
1733359646801476400,1.035476318359375,0.1919891372770071,-0.249231950455904,-0.23066490489095448
1733359646811441200,1.045441162109375,0.1740723723143339,-0.19273031103312968,-0.23342326368838548
1733359646821407200,1.0554072265625,0.14789046783149243,-0.14974720161408184,-0.253942904625833
1733359646831372300,1.065372314453125,0.054848026996850964,-0.0804267048895359,-0.21994360439032315
1733359646841338000,1.075338134765625,-0.0421019426703453,0.04842325464636087,-0.10563011972904204
1733359646851304200,1.08530419921875,-0.058655602586269374,0.1124050206914544,-0.04528671018630266
1733359646861269200,1.095269287109375,-0.15481529865860938,0.12134440621137618,0.050970308780670166
1733359646871235000,1.105235107421875,-0.27927520654201504,0.16766835049092768,0.2149436041459441
1733359646881200400,1.115200439453125,-0.2270014139473438,0.2129690892025828,0.3360188380271196
1733359646891166200,1.125166259765625,-0.07772212210595607,0.19347820679098365,0.3790048700556159
1733359646901132000,1.135132080078125,-0.021686931151151657,0.09416296929717063,0.44015345850139853
1733359646911097300,1.145097412109375,-0.022315292182564735,0.04327624714672565,0.44729777729809284
1733359646921063200,1.155063232421875,-0.1143985325962305,0.05336246461421251,0.3221367354080081
1733359646931028200,1.1650283203125,-0.1891477763712406,0.04412468066960573,0.23993103814721106
1733359646940994300,1.174994384765625,-0.23928631050288676,0.08663695770651102,0.2887286790639162
1733359646950960000,1.184960205078125,-0.1454728852957487,0.1549585065215826,0.4082590215906501
1733359646960925200,1.19492529296875,0.005343699115514755,0.22718407703787086,0.4562190426394343
1733359646970891300,1.204891357421875,0.07219137598574162,0.24369126746356487,0.40441608242690563
1733359646980856000,1.21485595703125,0.03511865965425968,0.16567103919386864,0.2982718756958842
1733359646990822400,1.224822509765625,-0.007910334733128547,0.035031565892696376,0.1663303798854351
1733359647000787200,1.234787109375,-0.06447451799809932,-0.03308130860775709,0.023648878873884678
1733359647010753300,1.244753173828125,0.0324292744398117,-0.06834376064687966,-0.04876081603765487
1733359647020719400,1.25471923828125,0.12183482007682322,-0.06756459296792745,-0.12227233471125364
1733359647030684200,1.26468408203125,0.14634557647705076,-0.11441256112158298,-0.21178572463691234
1733359647040650200,1.274650146484375,0.18966390919983386,-0.2028089297160506,-0.22020137854367494
1733359647050615300,1.284615234375,0.24433248797655105,-0.25289398009479047,-0.17191227167099712
1733359647060581000,1.2945810546875,0.15028642305731774,-0.23554566266983745,-0.1159565756931901
1733359647070547200,1.304547119140625,0.10504559783935546,-0.17531389680802822,-0.06419365523010492
1733359647080512300,1.31451220703125,0.09810556944310665,-0.13830313979685305,-0.12384820572584866
1733359647090478000,1.32447802734375,0.11290274108052253,-0.145491005474329,-0.2609472304299474
1733359647100443100,1.334443115234375,0.14814473485350607,-0.12605009968429803,-0.2887710569009185
1733359647110409200,1.3444091796875,0.18837971460819244,-0.15064970341175793,-0.15520751284658907
1733359647120375000,1.354375,0.04380231684744358,-0.2574371764823794,0.06298954013735056
1733359647130340000,1.364340087890625,-0.06539397093057632,-0.2829991955012083,0.18430822738558053
1733359647140306200,1.37430615234375,-0.07741700167953967,-0.2705623232543468,0.2173483272001147
1733359647150271200,1.384271240234375,-0.041214638441801066,-0.2371533901274204,0.2265633147910237
1733359647160237300,1.3942373046875,-0.005250760135054588,-0.19913111798614264,0.16857611298561095
1733359647170203100,1.404203125,0.029723522612452504,-0.18802344851642847,0.16609832469522953
1733359647180168200,1.414168212890625,0.03412672600746155,-0.15124445443451404,0.15356354503184555
1733359647190134300,1.42413427734375,0.09242927737236023,-0.12901713279634713,0.12133739194869994
1733359647200099300,1.434099365234375,0.1319014560610056,-0.09658931966125965,0.09709960727095604
1733359647210065200,1.444065185546875,0.11623743846118449,-0.06750088008195161,0.06815232972800732
1733359647220031200,1.45403125,0.14725918419063092,-0.09635931029766798,-0.019511925199627876
1733359647229996300,1.463996337890625,0.11752981635928153,-0.15148732327967881,-0.20803747801929712
1733359647239962000,1.473962158203125,0.07308160282373428,-0.1288596041470766,-0.47317163874506946
1733359647249927200,1.48392724609375,0.05116437004804611,-0.07870353435873985,-0.7390370363548397
1733359647259893200,1.493893310546875,0.07006663891673087,-0.09556260696202516,-0.8256573351874947
1733359647269859300,1.503859375,0.06411211442649364,-0.1774836420625448,-0.6993003615111112
1733359647279824400,1.513824462890625,0.06811959650218487,-0.1900774584367871,-0.43737873309105635
1733359647289789400,1.52378955078125,0.06534136396050452,-0.17173399249464272,-0.21619944942593572
1733359647299754500,1.53375439453125,0.026979192340373992,-0.1979819479510188,-0.07176555178910493
1733359647309720600,1.543720458984375,0.01830313393175602,-0.21082330934554339,0.056146250113844866
1733359647319686400,1.553686279296875,-0.04027940341830254,-0.17456746235489845,0.09291413827985524
1733359647329651500,1.5636513671875,-0.06742167736589909,-0.10195990678369998,0.026166414652764796
1733359647339617500,1.573617431640625,0.05145604647099972,-0.07433306418955325,-0.020184709894657135
1733359647349582300,1.583582275390625,0.09784896433353424,-0.08507248486876487,-0.050437224817276
1733359647359548700,1.593548583984375,0.042756022664904594,-0.0678220748603344,0.016561843222379684
1733359647369514500,1.603514404296875,0.013261048111319541,-0.04525310017764568,0.11635551188290119
1733359647379479300,1.613479248046875,0.0028068741142749784,-0.017932547053694722,0.2193532372817397
1733359647389445600,1.623445556640625,-0.06722177087962627,-0.014128478595614433,0.230885854165256
1733359647399410400,1.633410400390625,-0.0304208572268486,0.005475801062583923,0.21016016926169395
1733359647409376300,1.643376220703125,-0.011876315754652023,0.045346331419050694,0.13968173467367886
1733359647419341600,1.653341552734375,-0.028238252490758894,0.02327653843015432,0.09424743271023034
1733359647429307400,1.663307373046875,-0.002436287236213684,0.03274754660874605,0.06550298426300287
1733359647439273500,1.6732734375,0.03090484135150909,0.0522714545071125,0.005649988585710525
1733359647449238500,1.683238525390625,0.039787820509076116,0.02756576005667448,-0.049883974848687646
1733359647459204400,1.693204345703125,0.0432306544393301,0.02457417702525854,-0.07809270898401736
1733359647469169400,1.70316943359375,0.05411094489395618,0.022663374967873094,-0.09038754241168498
1733359647479135500,1.713135498046875,0.021899112597107886,-0.010544190368056297,-0.052312663300335405
1733359647489101300,1.723101318359375,0.018110826230049133,-0.023467969349026677,-0.005967968493700027
1733359647499066400,1.73306640625,0.010367080235481262,-0.035464112091064454,0.002328442947566509
1733359647509032400,1.743032470703125,0.004719429737329483,-0.050852235358953474,-0.030885259868204593
1733359647518997500,1.75299755859375,0.030139117676019667,-0.0769824096545577,-0.10811667584776878
1733359647528963600,1.762963623046875,0.11976268997788428,-0.0996153894841671,-0.11278116052746773
1733359647538929400,1.772929443359375,0.11897124733924865,-0.06212386321872473,-0.05140110141336918
1733359647548894500,1.78289453125,0.0760784465521574,-0.06858283009976149,0.01327595341950655
1733359647558860500,1.792860595703125,0.02570084296762943,-0.09714783032685517,0.04103840509206056
1733359647568825600,1.80282568359375,0.04031739734113216,-0.04297697193920612,0.006406506041437387
1733359647578791400,1.81279150390625,0.042781157106161115,-0.0577045854717493,-0.1062447444960475
1733359647588757500,1.822757568359375,-0.005467033234238625,-0.11292846004366874,-0.09821297534033656
1733359647598722600,1.83272265625,-0.04370937786698341,-0.08380991758704184,-0.10056962146908044
1733359647608688400,1.8426884765625,0.014555764096975326,-0.06553571748882532,-0.13483049525022506
1733359647618653400,1.8526533203125,0.11562895117402076,-0.08730009779036045,-0.12395751131922006
1733359647628619500,1.86261962890625,0.17460311819016933,-0.11966273673474788,-0.004706862516701221
1733359647638585600,1.872585693359375,0.14798866750895975,-0.12315174789428711,0.14828969628214836
1733359647648550400,1.88255029296875,0.008466215050220488,-0.08356441839337349,0.2456197513081133
1733359647658516500,1.8925166015625,-0.10332534991800785,-0.06748129859864711,0.26339287001639605
1733359647668481300,1.902481201171875,-0.10706862809956073,-0.04356090930700302,0.22879823423624038
1733359647678447400,1.912447265625,-0.07001987716555595,-0.06548135695308446,0.18281039004325866
1733359647688413400,1.922413330078125,-0.03283201002180576,-0.10076397499740124,0.15489815463647247
1733359647698378500,1.93237841796875,-0.036408114942908285,-0.10209113194793462,0.11344123187139629
1733359647708344600,1.942344482421875,-0.0988829835563898,-0.10860796649605035,0.03559197625443339
1733359647718309400,1.952309326171875,-0.11437924337387084,-0.12015198155641556,-0.025048954930156467
1733359647728275500,1.962275390625,-0.094486794424057,-0.1089937509432435,-0.052725774145871394
1733359647738241500,1.972241455078125,-0.014593758019804953,-0.11070260068774222,-0.053942748720198865
1733359647748206300,1.982206298828125,0.08160159388780594,-0.1449152514129877,-0.12679419604986905
1733359647758172400,1.99217236328125,0.11530980222225189,-0.10363076260536909,-0.19494097281992434
1733359647768137500,2.002137451171875,0.13816753071844576,-0.029065643225610255,-0.180536307631433
1733359647778103300,2.012103271484375,0.1328062959462404,-0.015017244128882884,-0.11945084754973649
1733359647788069400,2.0220693359375,0.11001228033602237,-0.013171031740307808,-0.042102819453179834
1733359647798034400,2.032034423828125,0.10714636951088904,-0.033359833288192746,-0.03508870290741324
1733359647808000500,2.04200048828125,0.13614800758957862,-0.047962066875398154,-0.0851630857616663
1733359647817965600,2.051965576171875,0.11178805783689022,-0.07955079883784055,-0.09863003170862793
1733359647827931400,2.061931396484375,0.05615618698596954,-0.11789923419356345,-0.055307753463089464
1733359647837897500,2.0718974609375,0.08715104470849036,-0.1611611605539918,-0.012245149067044258
1733359647847862500,2.081862548828125,0.09347674059867858,-0.21952099506407974,0.013914689714461564
1733359647857828400,2.091828369140625,-0.014886018964648246,-0.18016513623148203,-0.01812909253910184
1733359647867793700,2.101793701171875,-0.03818330792188644,-0.15882511882185935,-0.027355770567804572
1733359647877759500,2.111759521484375,0.027996844950318334,-0.16287965490967035,0.026595161458849905
1733359647887725300,2.121725341796875,0.05109539646506309,-0.143652099609375,0.04336217186450958
1733359647897690600,2.131690673828125,0.07321779642403126,-0.09238894536197186,0.062321870008856056
1733359647907656400,2.141656494140625,0.06372048476040362,-0.07010550962239503,0.03382423592954874
1733359647917621200,2.151621337890625,0.0038502456873655317,-0.05470832626521587,0.034688451543450356
1733359647927587600,2.161587646484375,-0.012456161469221114,0.01801145750880241,0.09545520106479526
1733359647937553400,2.171553466796875,0.03731295482814312,0.0110842885941267,0.09473112457394599
1733359647947518500,2.1815185546875,0.00028407763838768005,0.032634441623091696,0.033412732519209384
1733359647957484500,2.191484619140625,-0.02181494144499302,0.03447597783654928,-0.008431874389201403
1733359647967449300,2.201449462890625,0.016855273211002348,0.008136544704437256,0.016222966656833888
1733359647977415700,2.211415771484375,-0.017988076633214948,-0.007824702276289463,0.04063932277187705
1733359647987381500,2.221381591796875,-0.0843354027658701,0.010669278052449226,0.06638298196792602
1733359647997346300,2.23134619140625,-0.06039455520808697,0.019584698174893854,0.005142477454990148
1733359648007312600,2.241312744140625,-0.003565583527088165,-0.01885784520506859,-0.07309212421774863
1733359648017277400,2.25127734375,0.006602759265899658,-0.05780541549772024,-0.06595920359790325
1733359648027243300,2.2612431640625,0.007355038937926292,-0.08869125988781451,0.04832563949078321
1733359648037209600,2.271209716796875,0.025779168900847433,-0.0966173767119646,0.040349546045064924
1733359648047174400,2.28117431640625,0.03180383601784706,-0.0681879855632782,-0.0500821277692914
1733359648057140200,2.29114013671875,0.053065819755196565,-0.09702595751285552,-0.10681100007668137
1733359648067105500,2.30110546875,0.01658639314174652,-0.10615765073448419,-0.06077654026299715
1733359648077071400,2.3110712890625,-0.026749475237727163,-0.08842968634217976,0.005965630406141281
1733359648087037400,2.321037353515625,-0.0053571431189775465,-0.07884381961226462,-0.010006430229544639
1733359648097002500,2.33100244140625,0.03304419146776199,-0.06274053381234407,-0.019130963058024645
1733359648106968300,2.34096826171875,0.10299801765978336,-0.06526333028823136,0.02406798106878996
1733359648116933400,2.350933349609375,0.051531449794769285,-0.10872311730831861,0.07199366145655513
1733359648126899500,2.3608994140625,-0.03462181604802608,-0.08661065422147513,0.024673399616032838
1733359648136865300,2.370865234375,0.040322073516249654,-0.08241437157541513,-0.039614655899256467
1733359648146830600,2.38083056640625,0.13721768264770506,-0.09829933844953775,-0.11464023239761591
1733359648156796400,2.39079638671875,0.1280962185591459,-0.0853919260814786,-0.15304361281096934
1733359648166761500,2.400761474609375,0.13911913235485554,-0.10136953967511653,-0.1247151978187263
1733359648176727600,2.4107275390625,0.11917933713197708,-0.11354571515917777,-0.08778481256738305
1733359648186693400,2.420693359375,0.0663274523884058,-0.0917304814532399,-0.10619842113628983
1733359648196658400,2.430658447265625,0.023881226325035095,-0.06830196733176708,-0.11791808502450585
1733359648206624500,2.44062451171875,0.01682078641951084,-0.04687865555286407,-0.12885682766810058
1733359648216589600,2.450589599609375,0.028154665860533713,-0.045288171491026874,-0.13572612891569732
1733359648226555400,2.460555419921875,0.06482523113191127,-0.07970102096349001,-0.18845526406243443
1733359648236521500,2.470521484375,0.13060440198779105,-0.12974690837562083,-0.2486636490486562
1733359648246486500,2.480486572265625,0.20244448031783102,-0.17373451866209505,-0.32526202782168984
1733359648256452600,2.49045263671875,0.31186580902338024,-0.22681319789886473,-0.41196372132748366
1733359648266418400,2.50041845703125,0.3830500537931919,-0.25681232258230446,-0.47793695345073933
1733359648276383500,2.510383544921875,0.3835620949685573,-0.2645475930094719,-0.4874525314234197
1733359648286349300,2.520349365234375,0.25023499001860616,-0.275888486713171,-0.47016062036082146
1733359648296314000,2.530314208984375,0.12807751385867594,-0.21127894415855406,-0.3831890238724649
1733359648306280200,2.5402802734375,0.06772329066097736,-0.1614692035898566,-0.26891923222243785
1733359648316245200,2.550245361328125,-0.017841946160793303,-0.18784166220873594,-0.19678192451149223
1733359648326211300,2.56021142578125,-0.02024023947417736,-0.15494944643229244,-0.22879326580017803
1733359648336177200,2.57017724609375,0.03896422916650772,-0.24829817673712967,-0.4041702909722924
1733359648346142200,2.58014208984375,0.182878779104352,-0.30135259831547734,-0.601966068701446
1733359648356108300,2.5901083984375,0.21532851181030271,-0.3009524930819869,-0.7774705196455121
1733359648366074000,2.60007421875,-0.07807458880543708,-0.48400341388285156,-0.7864768329218029
1733359648376039200,2.6100390625,-0.33283611633777616,-0.7887284112408757,-0.7401373988121748
1733359648386005200,2.620005126953125,-0.5296732781678438,-0.7293333884641527,-0.26774317418038845
1733359648395970000,2.629969970703125,-0.334072964656353,-0.7961427791506052,1.0825675651863216
1733359648405936000,2.63993603515625,0.11463292587399482,-1.5600152738153934,2.2514909330502153
1733359648415902200,2.649902099609375,-0.2507020230084658,-1.4717507149070501,0.669731152677536
1733359648425867300,2.6598671875,-0.7242249594092368,-0.66118193551898,0.264468974815309
1733359648435833000,2.6698330078125,-0.69728843716681,-0.21640140173882244,0.13279343646466732
1733359648445798100,2.679798095703125,-0.2610211724489927,-0.3692652740687132,-0.29744740757048127
1733359648455764200,2.68976416015625,0.16153087064921856,-0.5747764484807849,-0.9057806732162833
1733359648465730300,2.699730224609375,0.308913973480463,-0.5726788916796446,-1.5828911224901676
1733359648475695000,2.709695068359375,0.22299217830598353,-0.544583554790914,-1.9892513247221708
1733359648485661200,2.7196611328125,0.1410860485136509,-0.5059256150946021,-2.097305456727743
1733359648495626200,2.729626220703125,0.3154799078673124,-0.3476268582344055,-1.823390023653209
1733359648505592000,2.739592041015625,0.6579594663411379,-0.03315788097530603,-1.1896651271194219
1733359648515558100,2.74955810546875,0.7927320939242839,0.2699941679775715,-0.4628592113062739
1733359648525523200,2.759523193359375,0.5821218428075313,0.3569973286479711,0.04171469691842794
1733359648535489300,2.7694892578125,0.2925152118653059,0.24869068318605422,0.2537310154408216
1733359648545454300,2.779454345703125,0.10348901604712009,0.073982935577631,0.11099106224030256
1733359648555420200,2.789420166015625,0.00783960758447647,-0.08574556182473897,-0.2638558113530278
1733359648565386200,2.79938623046875,-0.043891748696565626,-0.22392449072003362,-0.7513526203095913
1733359648575351300,2.809351318359375,-0.010361235016584395,-0.33049949008375407,-1.2418565021276473
1733359648585317000,2.819317138671875,0.05014905552566051,-0.36584728231877084,-1.5661019002526997
1733359648595282400,2.829282470703125,0.23916765255928038,-0.25645576422959565,-1.5716653795987368
1733359648605248300,2.839248291015625,0.6495207238197326,-0.05440262131690979,-1.16548900950104
1733359648615214000,2.849214111328125,0.854439485296607,0.16582359940707683,-0.4259405164927244
1733359648625179400,2.859179443359375,0.785846426063776,0.3181888745650649,0.3366039444386959
1733359648635145200,2.869145263671875,0.4318810124576091,0.29600451528578997,0.916476839275658
1733359648645111000,2.879111083984375,0.08448153323829173,0.2014659906744957,1.2432716296225785
1733359648655076400,2.889076416015625,-0.1875099460363388,0.03360825509130955,1.2301479441553353
1733359648665042200,2.899042236328125,-0.43127427873611446,-0.1268809975504875,0.9240145413041114
1733359648675007200,2.90900732421875,-0.5681862564355135,-0.22511866894066332,0.4722849190384149
1733359648684973300,2.918973388671875,-0.6516372775822877,-0.25097820960134265,0.04562894775271415
1733359648694939100,2.928939208984375,-0.6014449674367904,-0.2549956285491586,-0.2141179669767618
1733359648704904200,2.938904296875,-0.248155845656991,-0.19193302317559718,-0.10113397735357284
1733359648714870300,2.948870361328125,0.03888473418951034,-0.12189736391901969,0.265422037756443
1733359648724835000,2.9588349609375,0.21812837166190147,-0.06657733549624681,0.7331354110956192
1733359648734801400,2.968801513671875,0.29370939008593555,-0.00627455022484064,1.1212480089753865
1733359648744767200,2.978767333984375,0.257644974014163,0.03169453042447567,1.3750918371409178
1733359648754732000,2.98873193359375,0.10177812047600746,0.02900660651475191,1.3770096534609795
1733359648764698400,2.998698486328125,-0.04335340403616428,0.03728723586499691,1.0630027407556772
1733359648774663200,3.0086630859375,-0.1824339579463005,0.05977963818013668,0.5703665230840445
1733359648784629000,3.01862890625,-0.19670856701433656,0.18039836046546698,0.14918810642659663
1733359648794595300,3.02859521484375,0.0373398428350687,0.4303580406740308,0.03126081518232822
1733359648804560100,3.03856005859375,0.19849311234354972,0.6845493671029805,0.10946575236916542
1733359648814526200,3.048526123046875,0.16606383790373802,0.8333864681348204,0.23298048835694787
1733359648824491300,3.0584912109375,0.0625368279337883,0.809378985081613,0.2519377022832632
1733359648834457000,3.06845703125,-0.07177519640028476,0.6180646783262491,0.09653963530063629
1733359648844423200,3.078423095703125,-0.15057400782704353,0.35234862605929373,-0.15721300745010375
1733359648854388200,3.08838818359375,-0.18196049521565436,0.14448358199745415,-0.39431145251989363
1733359648864354000,3.09835400390625,-0.10738602348566055,0.040328210996091365,-0.5375163928836584
1733359648874319400,3.1083193359375,-0.11361702682971954,0.022850129711627958,-0.5569470695406198
1733359648884285200,3.11828515625,0.006378887382149696,0.09818594120293855,-0.3653022156566381
1733359648894251000,3.1282509765625,0.13000234444141387,0.21225772606283425,-0.014881342789530754
1733359648904216300,3.13821630859375,0.20702187123596666,0.2474924133121967,0.3244903127968311
1733359648914182100,3.14818212890625,0.12344517788290976,0.2086018339037895,0.5644540841698646
1733359648924148000,3.15814794921875,-0.22072715598344803,0.13906857121139765,0.7845973027855158
1733359648934113300,3.16811328125,-0.38468554604053495,0.034893910987675185,0.8028700415790081
1733359648944079000,3.1780791015625,-0.3640004854083061,-0.04217120851427317,0.5941945579171181
1733359648954044200,3.188044189453125,-0.3220598707795143,-0.0871823166295886,0.36295126861631866
1733359648964010200,3.19801025390625,-0.21253332813382148,-0.06361673212498425,0.2777355758845806
1733359648973976000,3.20797607421875,-0.10709493158459663,-0.03899228621721267,0.35166531997025013
1733359648983941400,3.21794140625,0.007437456524372101,-0.029421617056429386,0.5011480254292487
1733359648993907200,3.2279072265625,0.1311778179615736,-0.032177930027246476,0.5996633447170258
1733359649003872300,3.237872314453125,0.19733692804574965,-0.07360884156823158,0.6757704328417777
1733359649013838300,3.24783837890625,0.24885434931516645,-0.09232230986654757,0.6099865858107805
1733359649023804200,3.25780419921875,0.25744097587466236,-0.11419190410822629,0.37756665394604205
1733359649033769200,3.267769287109375,0.16082067655324936,-0.13111907351166008,0.151272511485219
1733359649043735300,3.2777353515625,0.061770519736409187,-0.09167816674411296,0.007320552146434784
1733359649053700000,3.2877001953125,-0.010888473761081695,-0.06827741741240025,-0.04757365207970142
1733359649063666200,3.297666259765625,0.013942016112804411,-0.05875672487318515,-0.02354337267279625
1733359649073632300,3.30763232421875,0.06963759984970093,-0.05427373424023389,0.02980535567700863
1733359649083597000,3.31759716796875,0.07798340339064598,-0.06823533183634281,0.09249883547723292
1733359649093563400,3.3275634765625,0.029906477963924406,-0.058490475152432914,0.18482406795322895
1733359649103528200,3.337528076171875,-0.02536532740294933,-0.026256723284721374,0.22800796064138412
1733359649113494300,3.347494384765625,-0.0463590155929327,0.013722235882282257,0.2315413954645395
1733359649123460400,3.35746044921875,0.0070364745080471035,0.0840755827859044,0.22256898445785045
1733359649133425200,3.367425048828125,0.0000637128859758377,0.13437398365437983,0.23317513414621352
1733359649143391200,3.37739111328125,-0.0026677579045295712,0.20435586689710616,0.2849737104445696
1733359649153357300,3.387357421875,-0.010855740535259246,0.2337988190025091,0.33894495460689067
1733359649163322000,3.397322021484375,-0.005367079991102218,0.27780688755512234,0.4033627739816904
1733359649173288200,3.4072880859375,-0.0008475567400455475,0.3254530203491449,0.4284551296621561
1733359649183253200,3.417253173828125,0.01706044039428234,0.36061668818891046,0.4110387154370546
1733359649193219000,3.427218994140625,0.043731005176901816,0.3715177291706204,0.3483826450377703
1733359649203185400,3.437185302734375,0.041886254093050954,0.35635347778648135,0.23844284541606903
1733359649213150200,3.447150146484375,-0.03274374721646309,0.3418292778715491,0.06501753883361816
1733359649223116000,3.457115966796875,-0.012902151671051978,0.32679858973920345,-0.09197978003919124
1733359649233081000,3.4670810546875,0.046076691520214076,0.2999845248326659,-0.2484294019013643
1733359649243047200,3.477047119140625,0.08432605041563511,0.27421529280394313,-0.29982348905205725
1733359649253013200,3.48701318359375,0.04770049332976341,0.23390520198643205,-0.25681319936513897
1733359649262978300,3.496978271484375,0.000754033237695694,0.16246873602122067,-0.20141163013875482
1733359649272944000,3.506944091796875,-0.03566811023056507,0.04221972383111715,-0.1515945830464363
1733359649282909200,3.5169091796875,-0.05064765269756317,-0.13736410538107155,-0.15269406872093677
1733359649292875800,3.526875732421875,-0.07808511019945144,-0.30687077721506356,-0.18914076210856437
1733359649302841600,3.536841552734375,-0.13537410060763358,-0.4642898286312818,-0.221529120016098
1733359649312806700,3.546806640625,-0.1446095464646816,-0.5666150615960359,-0.21717969263494014
1733359649322772700,3.556772705078125,-0.11019289759993553,-0.6179840143054723,-0.2046107184410095
1733359649332738600,3.566738525390625,-0.1156008941233158,-0.6431380370452999,-0.20719605875909328
1733359649342703900,3.576703857421875,-0.12990648285150527,-0.646675855782628,-0.20931436608731746
1733359649352669700,3.586669677734375,-0.18715163411796093,-0.6530749091699719,-0.24382103132307528
1733359649362634800,3.596634765625,-0.22586159626245497,-0.6462032698348165,-0.299249488556385
1733359649372600800,3.606600830078125,-0.25037527527213094,-0.6049769409552216,-0.3430950600236654
1733359649382566700,3.616566650390625,-0.26694179466962814,-0.5670192584827543,-0.3364946388453245
1733359649392531700,3.62653173828125,-0.27854806131124493,-0.5571507754191756,-0.34664895311295985
1733359649402497800,3.636497802734375,-0.2577063488125801,-0.5070388370335102,-0.3710486503541469
1733359649412462600,3.646462646484375,-0.20978432168662547,-0.44520460441112514,-0.3935895679861307
1733359649422428700,3.6564287109375,-0.1807131255030632,-0.3214765179336071,-0.3655477148503065
1733359649432394800,3.666394775390625,-0.17318623712956904,-0.22600597316920756,-0.26710604532063004
1733359649442359800,3.67635986328125,-0.16459259630739687,-0.12524930469542742,-0.14681728564202784
1733359649452325600,3.68632568359375,-0.13444646436870097,-0.057656070154905315,-0.036247955945134164
1733359649462290700,3.696290771484375,-0.08065349938273429,-0.008099135303497314,0.04606617012619972
1733359649472256800,3.7062568359375,-0.02062660844326019,0.00450169533342123,0.07667465887963772
1733359649482222800,3.716222900390625,0.11847907990813254,0.02299129174798727,0.06417348922491073
1733359649492187600,3.726187744140625,0.2271849538207054,0.02924392240196466,0.04989361945986748
1733359649502153700,3.73615380859375,0.2809597986280918,0.06414981608837843,0.04930675948262214
1733359649512119800,3.746119873046875,0.27774609727859495,0.0926978651806712,0.06288344941437245
1733359649522084600,3.756084716796875,0.23092706295847892,0.11059095700681208,0.07031915237307548
1733359649532050700,3.76605078125,0.15987842726707457,0.11798720473796129,0.07286240711510181
1733359649542015700,3.776015625,0.09917641354501247,0.11545125651955604,0.04051788834929466
1733359649551981600,3.785981689453125,0.03609071955680847,0.11574936268329619,0.025569910064339636
1733359649561947600,3.79594775390625,0.010281155517697333,0.09495295063108206,0.047585342517495154
1733359649571912700,3.80591259765625,0.01652794095277786,0.07713818473815917,0.07290741530060768
1733359649581878800,3.815878662109375,0.022996260184049606,0.07397036835700273,0.1195090074777603
1733359649591843600,3.825843505859375,0.07488251476585865,0.028164018210768697,0.13376315827965735
1733359649601809700,3.8358095703125,0.08717384106218815,-0.04677051900327205,0.106098321762681
1733359649611775700,3.845775634765625,0.1316916127026081,-0.13838760320991278,0.019819968235492706
1733359649621740800,3.85574072265625,0.16836159345209598,-0.22223405341506003,-0.12134148360192774
1733359649631706600,3.86570654296875,0.1984282304137945,-0.3300143369153142,-0.2818044327586889
1733359649641672700,3.875672607421875,0.23552608118653295,-0.4124392298847437,-0.405543625152111
1733359649651637800,3.8856376953125,0.2334200488179922,-0.4437412538602948,-0.4339741853445768
1733359649661603600,3.895603515625,0.12134089908003806,-0.44559652633816,-0.4360620975345373
1733359649671568600,3.905568603515625,-0.04289747696220875,-0.4190235767111182,-0.4089531413346529
1733359649681534700,3.91553466796875,-0.17316694790720938,-0.40572073528468605,-0.43815936207473277
1733359649691500500,3.92550048828125,-0.2426350364089012,-0.4317869044333696,-0.5684861161649227
1733359649701465600,3.935465576171875,-0.262359727576375,-0.46331133898794646,-0.6189788705617189
1733359649711431700,3.945431640625,-0.1875140376895666,-0.4958353059738874,-0.6074836630791426
1733359649721396700,3.955396728515625,-0.09725158296227454,-0.46035950344502924,-0.4880979897201061
1733359649731362800,3.96536279296875,0.06434416961669921,-0.3474742980211973,-0.3101899847656488
1733359649741328600,3.97532861328125,0.022974048352241514,-0.14297873039245604,0.009458733218908309
1733359649751293700,3.985293701171875,-0.06647475190460682,0.010588029509782791,0.3424018170624971
1733359649761259800,3.995259765625,-0.05031915139555931,0.13316753047406674,0.5826590184241532
1733359649771224800,4.005224853515625,-0.053980011990666384,0.17959201251864432,0.6388882706463337
1733359649781190700,4.015190673828125,-0.035757542079687114,0.1992389622747898,0.6168547180145979
1733359649791156700,4.02515673828125,-0.007091419565677643,0.21863106048703193,0.5054518601030111
1733359649801121800,4.035121826171875,-0.03932312560677528,0.19388707985281944,0.25785949354767795
1733359649811087600,4.045087646484375,-0.1054103394985199,0.19068799155056476,-0.010986673438549041
1733359649821053700,4.0550537109375,-0.13125965102612971,0.19250000940859316,-0.24642682990729808
1733359649831018800,4.065018798828125,-0.12385492772758007,0.2090548383682966,-0.3414747653454542
1733359649840984600,4.074984619140625,-0.08430091597437858,0.21067864017784593,-0.2869955716609955
1733359649850950000,4.084949951171875,0.02551175013631582,0.21181027455627918,-0.1614502066284418
1733359649860915700,4.094915771484375,0.1702142355814576,0.19244389530718325,0.005265373182296753
1733359649870881800,4.1048818359375,0.16766513562053442,0.19044775305390357,0.21989771942198275
1733359649880846800,4.114846923828125,0.03155424517095089,0.19353636671900748,0.47186172519028186
1733359649890812700,4.124812744140625,-0.023185645276308058,0.25926760677993294,0.7236971361428499
1733359649900777700,4.13477783203125,-0.14000819014906882,0.2774970909535885,0.9005278672546148
1733359649910743800,4.144743896484375,-0.2506765963062644,0.2896031238108873,0.9503940141856669
1733359649920709600,4.154709716796875,-0.29930794074535366,0.24941665937304494,0.7375906369388103
1733359649930674700,4.1646748046875,-0.4035992130860686,0.1674105763375759,0.400817765673995
1733359649940640800,4.174640869140625,-0.5583192346766591,0.11201485233008861,0.19588322210609913
1733359649950606600,4.184606689453125,-0.5655246360108256,-0.013735095363855362,0.0386035791605711
1733359649960571600,4.194571533203125,-0.44487113467305894,-0.13093524137735366,-0.07581132004857064
1733359649970537700,4.204537841796875,-0.3543134963914752,-0.21063947721123694,-0.11903262213766574
1733359649980502500,4.21450244140625,-0.28302871385663747,-0.2360994971603155,-0.061063832771778105
1733359649990468900,4.22446875,-0.17179828990250826,-0.23183482545316217,0.024782559078931808
1733359650000434700,4.2344345703125,-0.06972761622071266,-0.25025311019718643,0.09754325938522815
1733359650010399700,4.244399658203125,0.12071779874563217,-0.23843115497827527,0.18193010007739066
1733359650020365800,4.25436572265625,0.28565117131471635,-0.20711071856319904,0.1859498571127653
1733359650030330600,4.26433056640625,0.2704419117450714,-0.22987550807893276,0.1649929938018322
1733359650040296700,4.274296630859375,0.12364800697863101,-0.2237520567625761,0.16857026776671408
1733359650050262800,4.2842626953125,-0.024132862998545168,-0.13548866689801214,0.1622206064790487
1733359650060227600,4.2942275390625,-0.011072598156332969,-0.06467442448437213,0.14602701204717158
1733359650070193700,4.304193603515625,0.020759879434108734,-0.010102876341342925,0.19045593636035918
1733359650080159700,4.31415966796875,0.044588498789072034,0.06406710624098777,0.27937457526326176
1733359650090124500,4.32412451171875,0.12728022600114344,0.1266062722623348,0.34799861415624617
1733359650100090600,4.334090576171875,0.20325813478827476,0.13268237730562688,0.3385562475502491
1733359650110055700,4.3440556640625,0.2346796934902668,0.1224719489365816,0.24776187790334223
1733359650120021800,4.354021728515625,0.20798662461489437,0.0865571704685688,0.1420697988539934
1733359650129987800,4.36398779296875,0.18140286133289335,0.08624971195459365,0.10377543177306651
1733359650139952600,4.37395263671875,0.14147183296084404,0.12887363267242907,0.09729425306022167
1733359650149918700,4.383918701171875,0.056524435776472086,0.17533961577117443,0.09688801034688949
1733359650159884800,4.393884765625,-0.0055818917855620384,0.19508125807344912,0.1021639049232006
1733359650169849600,4.403849609375,-0.05752922890484333,0.2031599351108074,0.13338847974836826
1733359650179815700,4.413815673828125,0.011080489201843739,0.19356033211648463,0.16046353367865085
1733359650189780700,4.42378076171875,0.05605564922094345,0.16072364591956137,0.15032792411148546
1733359650199746600,4.43374658203125,0.10411270090341568,0.11292086125910282,0.14497487264573572
1733359650209712600,4.443712646484375,0.09746639475673437,0.047644963750243186,0.14678572145998478
1733359650219677700,4.453677734375,0.09009352790117263,0.01675239735841751,0.12070903091728687
1733359650229643500,4.4636435546875,0.01767009672522545,-0.027425182542204857,0.012435118681192398
1733359650239608800,4.47360888671875,-0.12275836466252803,-0.060714288681745526,-0.13151917874515057
1733359650249574700,4.48357470703125,-0.22248539782762528,-0.05913081888258457,-0.16230243954360485
1733359650259540700,4.493540771484375,-0.17066285613179205,-0.0508031355202198,-0.16291034230887888
1733359650269505800,4.503505859375,-0.0883914001584053,-0.08313245671689509,-0.192847215411067
1733359650279471600,4.5134716796875,-0.000879120922088623,-0.1292600016415119,-0.21721827107965944
1733359650289438000,4.52343798828125,0.054793081939220424,-0.147673025688529,-0.19251286889016628
1733359650299403300,4.5334033203125,0.06075228260457515,-0.1473854409188032,-0.14722119026780128
1733359650309369000,4.543369140625,0.056175476208329196,-0.15216799902021885,-0.14791209514141082
1733359650319334100,4.553334228515625,0.012619827598333359,-0.16787059506475924,-0.18749416394531726
1733359650329300200,4.56330029296875,-0.03585106558203697,-0.16093816545307635,-0.17862462879121302
1733359650339266000,4.57326611328125,-0.04957096337676048,-0.1573509546160698,-0.11970832944214344
1733359650349231000,4.583231201171875,-0.06938800900280476,-0.1467494811028242,-0.04077975415587425
1733359650359197200,4.593197265625,-0.09940905325710774,-0.14151508758068085,0.020339023673534393
1733359650369162000,4.603161865234375,-0.09053776453733443,-0.15028934566676616,0.07661153051555156
1733359650379128000,4.613128173828125,-0.09778758953511714,-0.13799392771720886,0.11097440336644648
1733359650389094100,4.62309423828125,-0.10185586188733577,-0.12808978881835936,0.09440613040328025
1733359650399059000,4.633058837890625,-0.09779168118834496,-0.1175660567164421,0.06446165851652622
1733359650409025300,4.643025390625,-0.08517536072134971,-0.11472469581067561,0.042945992279052735
1733359650418991000,4.6529912109375,-0.08614508253633975,-0.105413846629858,0.00627718057334423
1733359650428956000,4.662955810546875,-0.09776654674708843,-0.11704290962517261,-0.02772036609649658
1733359650438922200,4.672922119140625,-0.08814064026772975,-0.13034838140010832,-0.04920446815192699
1733359650448887000,4.682886962890625,-0.05362170007228851,-0.15229250218272208,-0.06117664549648762
1733359650458853000,4.69285302734375,-0.029187516039609906,-0.16028525450229644,-0.10179740969836712
1733359650468819200,4.702819091796875,-0.02571779410243034,-0.16464344971179962,-0.11704933936595915
1733359650478784000,4.712783935546875,-0.019296821144223212,-0.16299977415800093,-0.09327683411240577
1733359650488750000,4.72275,-0.010005261185765266,-0.16339900260865686,-0.0875455969840288
1733359650498715100,4.732715087890625,0.01232522856593132,-0.13515724298655987,-0.04615326388776302
1733359650508681000,4.742680908203125,0.04236614656448364,-0.08164075685441494,-0.02290682833492756
1733359650518647300,4.752647216796875,0.03348609001636505,-0.04713584518432617,-0.009613631519675253
1733359650528612000,4.762612060546875,0.03032148850560188,-0.04126256923675537,-0.002651391291618347
1733359650538578000,4.772577880859375,0.02096270852982998,-0.040641806989908213,-0.007163315758109092
1733359650548544300,4.782544189453125,0.032114801663160324,-0.04170972848236561,0.03191255708932876
1733359650558509000,4.792509033203125,0.04584697441756725,0.0011585223853588103,0.08692249664962291
1733359650568475100,4.80247509765625,0.04809095395207405,0.0312269129127264,0.15881985812485216
1733359650578440200,4.812440185546875,0.002403554010391235,0.04243687371313572,0.17741700656712053
1733359650588406000,4.822406005859375,-0.06313245573937892,0.0741132839590311,0.16203297495245933
1733359650598372000,4.8323720703125,-0.1345721365749836,0.11060966170728206,0.1567319459348917
1733359650608337200,4.842337158203125,-0.1394604931384325,0.10133446836173533,0.15390227546691893
1733359650618303000,4.852302978515625,-0.10078677135109901,0.09903671281337738,0.12367840211689471
1733359650628269300,4.862269287109375,-0.07545125456452369,0.0849801304101944,0.10396715495288371
1733359650638234000,4.872234130859375,-0.05583586899042129,0.07966448834538459,0.09511340188980102
1733359650648200000,4.882199951171875,-0.03283727071881294,0.05230009607970714,0.053720484271645545
1733359650658165000,4.8921650390625,-0.015567571488022803,0.011593407160043716,0.018126023799180983
1733359650668131000,4.902131103515625,-0.03974281232357025,-0.07236731707453728,-0.006146832191944122
1733359650678097000,4.912096923828125,-0.053096799415349956,-0.12975976785719395,-0.02707154679894447
1733359650688062200,4.922062255859375,-0.038165772265195845,-0.19579963547587392,-0.04408639448583126
1733359650698028000,4.932028076171875,-0.062439797300100325,-0.2120364845275879,-0.024606617990136144
1733359650707993000,4.9419931640625,-0.08304419391155242,-0.21692893274426459,-0.013391981014609335
1733359650717959200,4.951959228515625,-0.06379939521551131,-0.22321721923351287,-0.021483517533540726
1733359650727925000,4.961925048828125,-0.05203647670745849,-0.21438626252412796,-0.05804653077721596
1733359650737890000,4.97189013671875,-0.026352584874629974,-0.18383622595965862,-0.05137362888455391
1733359650747856100,4.981856201171875,0.03914250834286213,-0.1306330435603857,-0.04728139113485813
1733359650757822000,4.991822021484375,0.04862929861247539,-0.09224807558655738,-0.03730243343412876
1733359650767787000,5.001787109375,0.03682020287513733,-0.04641162256300449,-0.022359131324291227
1733359650777753000,5.011753173828125,-0.006437924093008041,-0.03448211531639099,-0.03774140937328339
1733359650787718100,5.02171826171875,-0.07137479890584945,0.009138415223360062,-0.044104514664411544
1733359650797684200,5.031684326171875,-0.05688683934807777,0.021613865914940834,-0.05499649555683136
1733359650807650000,5.041650146484375,-0.03637830432653427,0.020689736807346343,-0.03792904089987278
1733359650817615000,5.051614990234375,-0.055768064451217646,0.03672083415389061,0.021982699227333067
1733359650827581200,5.061581298828125,-0.06740531075298786,0.04254442574083805,0.08455576751828194
1733359650837547000,5.071547119140625,-0.06029051031172275,0.04949672909677028,0.11713175695240496
1733359650847512000,5.081511962890625,-0.036188919234275814,0.029293899023532865,0.08920973080396652
1733359650857478100,5.09147802734375,-0.033459202009439463,0.004068272352218628,0.05100128844082355
1733359650867443200,5.101443115234375,-0.028785364979505536,-0.04144084841310978,0.007049333989620208
1733359650877409000,5.111408935546875,-0.021605098086595532,-0.08296586797833443,-0.024689035576581954
1733359650887375000,5.121375,0.011785714861750602,-0.10062310522198677,-0.031919571352005
1733359650897340200,5.131340087890625,0.06719312930703163,-0.0926215850740671,-0.00734334850013256
1733359650907306200,5.14130615234375,0.1036450833916664,-0.10615326682031154,0.02216565457880497
1733359650917271000,5.15127099609375,0.09172083684206009,-0.11316168427765369,0.07443301743268967
1733359650927237000,5.161237060546875,0.0840823047876358,-0.1048176343023777,0.10047639022767543
1733359650937203200,5.171203125,0.08303484156131744,-0.10261749390959739,0.06442191102802754
1733359650947168000,5.18116796875,0.08699380832016468,-0.11455459994077682,0.03684533731639385
1733359650957134000,5.191134033203125,0.0787187319278717,-0.08620470376908779,0.01319090548455715
1733359650967100200,5.20110009765625,0.044755672049522396,-0.04363397454321384,0.03632160570323467
1733359650977065000,5.21106494140625,0.038108489120006556,-0.04278758684694767,0.04104161996245384
1733359650987031000,5.221031005859375,0.05767126772403717,-0.03005143939256668,0.06449614530801773
1733359650996996000,5.23099609375,0.06129647248387336,-0.01719546495079994,0.10732231059968471
1733359651006962200,5.240962158203125,0.06519698705375195,0.015969138026237485,0.1370242059022188
1733359651016928000,5.250927978515625,0.03297171075344085,-0.0009948562562465666,0.10398059895634651
1733359651026893000,5.26089306640625,-0.020506196933984755,-0.011037526842951773,0.06440028371810913
1733359651036859100,5.270859130859375,-0.04645955335795879,-0.03763853352069855,0.025275311031937597
1733359651046825200,5.2808251953125,-0.04460018922686577,-0.05486497813165187,-0.03676759590506554
1733359651056790000,5.2907900390625,-0.03921031288206577,-0.0782563751131296,-0.09450491460263728
1733359651066756000,5.300756103515625,-0.06935176864564419,-0.11158522874116897,-0.14590309340655802
1733359651076721200,5.31072119140625,-0.11570435449779033,-0.13890811995267868,-0.14796645567715166
1733359651086687000,5.32068701171875,-0.12712415865659712,-0.156408705329895,-0.12588672581613064
1733359651096653000,5.330653076171875,-0.11786299383640289,-0.18082886083722113,-0.13877718704938888
1733359651106618000,5.3406181640625,-0.13135492809414862,-0.2006289553284645,-0.15712708273231982
1733359651116584000,5.350583984375,-0.14402794718444348,-0.21365034946501255,-0.1852308951884508
1733359651126549000,5.360549072265625,-0.10632336269021034,-0.2128285116881132,-0.21710662739872932
1733359651136515000,5.37051513671875,-0.0351788654088974,-0.206004803147912,-0.21012509794831274
1733359651146481200,5.380481201171875,0.00041442601978778834,-0.17227438298165798,-0.17241583727896212
1733359651156446000,5.390446044921875,0.028487843337655066,-0.1384896022796631,-0.10666121634244918
1733359651166412000,5.400412109375,0.04354045104086399,-0.12806348533332348,-0.03245207079350948
1733359651176378000,5.410378173828125,0.035520226192474365,-0.10258534520566463,0.018847908332943916
1733359651186343200,5.42034326171875,0.031086043137311933,-0.09653729721307754,0.03223579769432545
1733359651196309000,5.43030908203125,0.0005044423907995223,-0.061525605064630506,0.037703415450453755
1733359651206274000,5.440274169921875,-0.04734042784571647,-0.040756957802176474,0.05250760135054588
1733359651216240000,5.450240234375,-0.08730185135602951,-0.016853519645333288,0.047909752166271205
1733359651226206000,5.4602060546875,-0.17792144895792006,0.006757073044776916,0.05297931051552295
1733359651236171000,5.4701708984375,-0.2752817529916763,0.044559272694587704,0.1014624786555767
1733359651246137000,5.48013720703125,-0.3165519210129976,0.08819675436913967,0.16268939303457736
1733359651256103000,5.49010302734375,-0.21768881120085715,0.10989420691430568,0.1420131002306938
1733359651266068000,5.50006787109375,-0.09011515521109104,0.08282382915914058,0.1056108305066824
1733359651276034000,5.510033935546875,0.009026187020540238,0.019799509969353674,0.00897767170369625
1733359651285999000,5.5199990234375,0.04609072004556656,-0.0383639251857996,-0.04460135827064514
1733359651295965400,5.52996533203125,0.03333703693449497,-0.09451075982153415,-0.012420505633950233
1733359651305931300,5.53993115234375,0.02511924368739128,-0.14088029680848121,-0.005722469300031662
1733359651315896300,5.549896240234375,0.023279753300547597,-0.16567922250032424,-0.007763619738817214
1733359651325862400,5.5598623046875,0.0020154314756393433,-0.1685305202782154,-0.033089784175157545
1733359651335827500,5.569827392578125,0.03841477859020233,-0.15812778420746326,-0.03708148415982723
1733359651345793300,5.579793212890625,0.10683891099691391,-0.1301098964691162,-0.02080313405394554
1733359651355759400,5.58975927734375,0.1109346558779478,-0.08770984763503074,0.06722177087962627
1733359651365724400,5.599724365234375,0.06514905625879765,-0.07583353188037872,0.12460136218070983
1733359651375690200,5.609690185546875,-0.013028992921113968,-0.05675707548856735,0.1237093817770481
1733359651385656300,5.61965625,-0.07995207311511039,-0.04429682236611843,0.09092354898452758
1733359651395621400,5.629621337890625,-0.10467851809263229,-0.05616495481431484,0.06404781701862812
1733359651405587500,5.63958740234375,-0.08685936828553677,-0.04015606929957866,0.060412090864777564
1733359651415552300,5.64955224609375,-0.09285247122049331,-0.05301087469756603,0.06314765330851077
1733359651425518300,5.659518310546875,-0.13321370770335197,-0.081554832136631,0.05314531473219394
1733359651435484400,5.669484375,-0.13461772928237914,-0.07280044779479503,0.04356207835078239
1733359651445449500,5.679449462890625,-0.054037879657745355,-0.04786532850265503,0.0180903679639101
1733359651455415300,5.689415283203125,-0.040222704795002936,-0.042645548027753825,-0.018465046495199203
1733359651465381400,5.69938134765625,-0.01300619656741619,-0.03574702068567276,0.024357027143239972
1733359651475346400,5.709346435546875,0.03079261314868927,-0.02094166574180126,0.10234627575278281
1733359651485312300,5.719312255859375,0.014193360525369644,-0.019029110118746757,0.09537468317449092
1733359651495277300,5.72927734375,-0.03536474336981773,-0.04344517397284507,0.09032558309137821
1733359651505243400,5.739243408203125,-0.012638532298803328,-0.08142506827712058,0.07777706716358661
1733359651515209500,5.74920947265625,-0.034496728363633156,-0.1284808339625597,0.027304186511039732
1733359651525174300,5.75917431640625,-0.10538695862293243,-0.13366262051463126,-0.003100304102897644
1733359651535140400,5.769140380859375,-0.128401923507452,-0.11687281375527381,-0.004537058907747268
1733359651545105200,5.779105224609375,-0.11719020914137362,-0.11559914055764675,-0.033459202009439463
1733359651555071200,5.7890712890625,-0.07945289142131805,-0.1360959851413965,-0.04602817620337009
1733359651565037300,5.799037353515625,-0.0328606515944004,-0.12849720057547093,-0.02898351790010929
1733359651575002400,5.80900244140625,-0.03533785536289215,-0.10871113460958004,-0.007325812843441963
1733359651584968400,5.818968505859375,-0.006849427503347397,-0.09362930081188678,0.011745967373251915
1733359651594934300,5.828934326171875,-0.014634090030193328,-0.08333411676883697,0.053107905331254
1733359651604899300,5.8388994140625,-0.015610826107859611,-0.0717564916998148,0.08583060975968837
1733359651614865400,5.848865478515625,-0.00689502021074295,-0.05297580338418483,0.08602700911462306
1733359651624830200,5.858830322265625,-0.018232406783103942,-0.05988426759839058,0.07820376814305782
1733359651634796300,5.86879638671875,-0.03760404672920704,-0.05869476555287838,0.06546119094789028
1733359651644762400,5.878762451171875,-0.02287935580611229,-0.05817044941782951,0.013092121285200119
1733359651654727200,5.88872705078125,0.009077624946832657,-0.057341597378253936,-0.034010990673303605
1733359651664693200,5.898693359375,0.0348912806391716,-0.04035714482963085,-0.12362813323438167
1733359651674659300,5.908659423828125,0.060974400922656054,-0.016885083827376364,-0.1487152282178402
1733359651684624400,5.918624267578125,0.07953472448587418,0.009565116202831268,-0.11935410917699336
1733359651694590200,5.928590087890625,0.022806290569901466,0.021982699227333067,-0.09616320320367812
1733359651704555300,5.93855517578125,-0.04255903878808021,0.01792611731290817,-0.08459142335355281
1733359651714521300,5.948521240234375,-0.04773030394613743,0.0383072265625,-0.03728606682121754
1733359651724487400,5.9584873046875,-0.04576864848434925,0.0838204389810562,0.02088029094338417
1733359651734452200,5.9684521484375,-0.015056699356436729,0.13577975879907608,0.06429156264662743
1733359651744418300,5.978418212890625,0.02274550029337406,0.1656587642341852,0.0412263288795948
1733359651754384400,5.98838427734375,0.07999298964738845,0.15954349622428415,-0.019660393759608267
1733359651764349200,5.99834912109375,0.13321779935657976,0.14433832830786705,-0.1052227079719305
1733359651774315300,6.008315185546875,0.1566658949613571,0.11429214961230755,-0.17201251717507837
1733359651784280300,6.0182802734375,0.1887643300116062,0.10082125814259052,-0.19012100531756876
1733359651794246400,6.028246337890625,0.24544366408884524,0.10312135177850723,-0.1695025801807642
1733359651804212200,6.038212158203125,0.2576619251489639,0.13523089274466038,-0.12656594025194645
1733359651814177300,6.04817724609375,0.20595102713406085,0.15869827757179736,-0.06345218921303748
1733359651824143400,6.058143310546875,0.21772797416746614,0.1337169810503721,-0.04151800530254841
1733359651834109200,6.068109130859375,0.18461831624805927,0.11213526383936405,-0.03207505417466163
1733359651844074200,6.07807421875,0.10107435612082481,0.09529577271938323,-0.019531214421987533
1733359651854040300,6.088040283203125,0.008725158247351646,0.06562485707700252,0.022684710016846656
1733359651864005400,6.09800537109375,-0.0672422291457653,0.03023088761270046,0.10787468378543853
1733359651873971200,6.10797119140625,-0.12169570386707781,-0.023449849170446395,0.17942951543331145
1733359651883937300,6.117937255859375,-0.19084113628566263,-0.0604103372991085,0.21798983997404575
1733359651893902300,6.12790234375,-0.24915128643512724,-0.10891805535852908,0.23910920037031172
1733359651903868400,6.137868408203125,-0.25067104334831236,-0.19474398894309997,0.2653302678197622
1733359651913833500,6.14783349609375,-0.2061269682228565,-0.28046061693429947,0.2666565479874611
1733359651923799300,6.15779931640625,-0.1803080518335104,-0.3474976788967848,0.252518132519722
1733359651933765400,6.167765380859375,-0.15427344686686992,-0.4260340399950742,0.24902386066317556
1733359651943730400,6.17773046875,-0.16023732370734214,-0.4861304890394211,0.22718378477692602
1733359651953696300,6.1876962890625,-0.16916121939718723,-0.5137614232867956,0.15668635322749613
1733359651963662300,6.197662353515625,-0.2174649393171072,-0.5250660766333342,0.07635024923086166
1733359651973627400,6.20762744140625,-0.254172329467535,-0.493426491266489,0.030882044997811317
1733359651983593200,6.21759326171875,-0.2510299397885799,-0.4262316083937883,-0.0380675725877285
1733359651993558500,6.22755859375,-0.22945172970890998,-0.35326866351366043,-0.11229425379335879
1733359652003524400,6.2375244140625,-0.20836451801657677,-0.2811585360705852,-0.17855448616445063
1733359652013490400,6.247490478515625,-0.13141338028311728,-0.18602584495842456,-0.24959026237428186
1733359652023455500,6.25745556640625,-0.017516951990127563,-0.11250701976120471,-0.2821568994581699
1733359652033421300,6.26742138671875,0.024548750323057172,-0.017261515924334524,-0.27492402559518814
1733359652043387400,6.277387451171875,0.04508884952664375,0.03259703222215175,-0.29090485405921934
1733359652053352400,6.2873525390625,0.031576457002758976,0.06747954503297805,-0.3067792995393276
1733359652063318300,6.297318359375,0.01621346817612648,0.09254033653140067,-0.2826373764514923
1733359652073283300,6.307283447265625,0.0206786308914423,0.11298632771074771,-0.25590835947990415
1733359652083249400,6.31724951171875,0.03550502862334251,0.12022212418317794,-0.20498831958174704
1733359652093215200,6.32721533203125,0.10710896010994911,0.15155249747037886,-0.1840589287996292
1733359652103180300,6.33718017578125,0.1417699391245842,0.18903379460275171,-0.12654898911714554
1733359652113146400,6.347146484375,0.13823007456064224,0.2071913825839758,-0.04617313763201236
1733359652123112400,6.357112548828125,0.10381693282723427,0.19604747275710105,0.03204407451450825
1733359652133077500,6.367077392578125,0.08623626795113086,0.16057809996902941,0.10383972918093204
1733359652143043300,6.377043212890625,0.09672142160832882,0.11692892785668373,0.16232289780974388
1733359652153008000,6.387008056640625,0.09580606032907962,0.057066287568211554,0.20304127716720102
1733359652162974500,6.396974365234375,0.07486731719672679,-0.006714987468719482,0.23093057008981704
1733359652172940300,6.406940185546875,0.04381926798224449,-0.02347439908981323,0.2640244459182024
1733359652182905300,6.4169052734375,0.012148118433356284,-0.07973287740647793,0.3030897973716259
1733359652192871400,6.426871337890625,-0.014683774390816688,-0.11019815829694271,0.3324456557154655
1733359652202837200,6.436837158203125,-0.04457856191694736,-0.1419569861292839,0.33113691120445726
1733359652212802300,6.44680224609375,-0.05251753822267055,-0.14732172803282736,0.2986971153706312
1733359652222768400,6.456768310546875,-0.052044075492024416,-0.12905717254579066,0.25790450173318386
1733359652232733200,6.466733154296875,-0.07925766111016273,-0.09199322404265403,0.22278291946947573
1733359652242699300,6.47669921875,-0.09727145670652389,-0.08431962067484855,0.18802023364603518
1733359652252665300,6.486665283203125,-0.057789925667643544,-0.04750175588726997,0.15824994928240776
1733359652262630100,6.496630126953125,-0.02459901920557022,-0.03006663696169853,0.08836801928281783
1733359652272596500,6.506596435546875,-0.0712812754034996,-0.05035948340594768,0.020474048230051993
1733359652282562300,6.516562255859375,-0.08763678239881992,-0.07372925307750701,-0.03889057940840721
1733359652292526800,6.52652685546875,-0.1131739592373371,-0.07350012049674988,-0.09484685990810393
1733359652302493200,6.5364931640625,-0.1425941149890423,-0.05353343726694584,-0.14296587091088295
1733359652312458000,6.5464580078125,-0.13833821111023425,-0.05008475811779499,-0.15053016868531702
1733359652322423800,6.556423828125,-0.09263619812130927,-0.05279109446704387,-0.1378957280397415
1733359652332390100,6.56639013671875,-0.021777532044053076,-0.08421089960336685,-0.17780571362376213
1733359652342355000,6.57635498046875,0.028203765699267386,-0.11361527326405048,-0.19903613317906854
1733359652352321000,6.586321044921875,0.040488662254810334,-0.1343278064250946,-0.218231832036376
1733359652362286000,6.5962861328125,0.04659633148014545,-0.14521452662050724,-0.24443302574157713
1733359652372252000,6.606251953125,0.05530220050513744,-0.15397709426879883,-0.25063246490359303
1733359652382218000,6.616218017578125,0.017826164069771767,-0.14396014264523982,-0.21053309422731398
1733359652392183000,6.62618310546875,-0.031874563166499136,-0.1274567516118288,-0.14446516955792904
1733359652402148900,6.63614892578125,-0.06484510487616062,-0.12460545383393763,-0.07347089440226555
1733359652412115200,6.646115234375,-0.06697393359839916,-0.11587678845524788,0.0005348375290632248
1733359652422080000,6.656080078125,-0.06769289552271365,-0.1275613810300827,0.025059622454643247
1733359652432045800,6.6660458984375,-0.11001987912058829,-0.13276830202341078,0.04930500591695308
1733359652442011000,6.676010986328125,-0.1295136841416359,-0.12086042208671569,0.09262333863973617
1733359652451977000,6.68597705078125,-0.1458294436484575,-0.10511047976911067,0.08830956709384917
1733359652461942800,6.69594287109375,-0.1485702667891979,-0.059574470996856685,0.12001987960934639
1733359652471908000,6.705908203125,-0.13133271626234053,-0.002858312040567398,0.15883037951886653
1733359652481874000,6.7158740234375,-0.11618424696922301,0.06220891115367412,0.20514730953574178
1733359652491840000,6.725840087890625,-0.14472528179883956,0.11355039133429527,0.24759178203344342
1733359652501805000,6.73580517578125,-0.16548340766727923,0.18016192136108874,0.33216976138353344
1733359652511771000,6.74577099609375,-0.1269511401772499,0.22793314183950422,0.3740396488636732
1733359652521736000,6.75573583984375,-0.11070026260018348,0.22482523895204065,0.3343494435101747
1733359652531702000,6.765701904296875,-0.10609598367512225,0.1707698236376047,0.22966683376431463
1733359652541667800,6.775667724609375,-0.02836567826271057,0.08955927489399909,0.115997784486413
1733359652551633000,6.7856328125,0.06530512360334396,-0.002768295669555664,0.03127835083901882
1733359652561599000,6.795598876953125,0.15855799231827258,-0.095318569073081,-0.00900339066684246
1733359652571564800,6.805564697265625,0.23736089539825914,-0.17566577898561953,-0.021536709025502202
1733359652581530000,6.815530029296875,0.24114099845886228,-0.24651509271264074,-0.016581716966629027
1733359652591496000,6.825495849609375,0.17884031736850736,-0.2894990789145231,-0.026021745485067367
1733359652601461000,6.8354609375,0.09140753310918807,-0.3324509164124727,-0.08474515261054039
1733359652611427000,6.845427001953125,0.034379823985695834,-0.32961598524749275,-0.14568857387304304
1733359652621393000,6.855392822265625,-0.0009743979901075362,-0.3014507979929447,-0.2306482460170984
1733359652631358000,6.86535791015625,-0.016706220129132268,-0.25335692143142224,-0.29707857425808903
1733359652641324000,6.875323974609375,-0.01922667851746082,-0.17324352027475834,-0.2649965058207512
1733359652651289900,6.885289794921875,-0.04091653227806091,-0.07757482258975505,-0.17572598474025725
1733359652661255000,6.8952548828125,0.01066518639922142,-0.03177519444525242,-0.08748129957616328
1733359652671221000,6.905220947265625,0.11219371602833271,-0.009910568639636038,-0.06563537847101689
1733359652681186000,6.91518603515625,0.12531214079856873,-0.008901683858036994,-0.06428688647150993
1733359652691152100,6.925152099609375,0.059784898877143854,-0.004219663521647453,-0.09532207620441913
1733359652701118000,6.935117919921875,-0.014820552513003349,0.005319149196147919,-0.13036474801301956
1733359652711083000,6.9450830078125,-0.07432312731742859,0.01796586480140686,-0.10194470921456814
1733359652721049000,6.955049072265625,-0.11067805076837539,-0.0074853873193264,-0.04655249233841896
1733359652731014000,6.965013916015625,-0.08996727117300032,-0.02180558909475803,0.005367079991102218
1733359652740980000,6.97497998046875,-0.07196048983931541,-0.06812894885241985,0.05316869560778141
1733359652750946000,6.984946044921875,-0.058522331595420835,-0.11125965004861355,0.07896598468720913
1733359652760911000,6.9949111328125,-0.1220803192704916,-0.12290917131006716,0.11900573413074016
1733359652770877000,7.004876953125,-0.14010229817330835,-0.11381985592544078,0.15136486594378948
1733359652780843000,7.014843017578125,-0.1250870998710394,-0.10597674120962619,0.11797814464867114
1733359652790808000,7.02480810546875,-0.10346505064964294,-0.0768581987529993,0.1032400097221136
1733359652800774100,7.034774169921875,-0.0871188960045576,-0.06118307523727417,0.11533259857594966
1733359652810739000,7.044739013671875,-0.059521864026784894,-0.0739607237458229,0.11070610781908034
1733359652820705000,7.054705078125,-0.048232992771267885,-0.057617491710186,0.10273147567808627
1733359652830671000,7.064671142578125,-0.055979076853394504,-0.036462475478649135,0.07560147669017314
1733359652840636000,7.074635986328125,-0.0380891998976469,-0.03035422173142433,0.0370960972070694
1733359652850602000,7.08460205078125,-0.01559036784172058,-0.04531505949795246,-0.01111351468861103
1733359652860568000,7.094568115234375,0.01213525895178318,-0.03722176941335201,-0.05027005155682564
1733359652870532900,7.104532958984375,0.04716974745392799,-0.023888240587711333,-0.06988017643392086
1733359652880499000,7.1144990234375,0.0629243659466505,0.006164367848634719,-0.06697451812028885
1733359652890464000,7.124464111328125,0.07159399461448192,0.033767829567193985,-0.08751695541143417
1733359652900430000,7.13443017578125,0.10425240163505077,0.04740647881925106,-0.07762626051604747
1733359652910396200,7.144396240234375,0.10837854165434836,0.06710486650168895,-0.10168342792987822
1733359652920361000,7.15436083984375,0.09681728319823742,0.054986558684706685,-0.09617781625092028
1733359652930327000,7.1643271484375,0.04409516231417656,0.041655367946624756,-0.08730945014059543
1733359652940293000,7.174293212890625,0.043099137014150614,0.036977439263463016,-0.10094166965186595
1733359652950258000,7.1842578125,0.03545826687216758,0.009063011899590492,-0.07050035415887833
1733359652960224000,7.19422412109375,0.03866261587142944,-0.0015676877081394194,-0.021794483178853987
1733359652970189000,7.20418896484375,0.03205868756175041,-0.030108722537755966,0.02638940975368023
1733359652980155000,7.21415478515625,-0.01566226403415203,-0.07153612694740295,0.07862228581607342
1733359652990121000,7.224120849609375,-0.03876549172401428,-0.07953881613910198,0.12466332150101661
1733359653000086000,7.2340859375,-0.04077800059020519,-0.10392623842060565,0.1382891112715006
1733359653010051800,7.2440517578125,-0.03626607612371444,-0.10331249043643474,0.17326456306278704
1733359653020018200,7.25401806640625,-0.057523968207836146,-0.1095534306526184,0.18478899663984774
1733359653029983000,7.26398291015625,-0.09970949750840663,-0.10677753619849681,0.17904256194233895
1733359653039949000,7.273948974609375,-0.11040566356778145,-0.1048825162321329,0.16443243730962276
1733359653049913900,7.283913818359375,-0.10125205077528952,-0.11250468167364597,0.14734510890841485
1733359653059880000,7.2938798828125,-0.06883095964193343,-0.09309037162959576,0.09953706355094909
1733359653069846000,7.303845947265625,-0.09130582630038261,-0.09357786288559436,0.057904491958022115
1733359653079811000,7.31381103515625,-0.06143734225928783,-0.10009645099937915,0.05146890595257282
1733359653089777000,7.32377685546875,-0.040246670192480086,-0.09966916549801826,0.02839315079152584
1733359653099743000,7.333742919921875,-0.06120879420042038,-0.09723346278369425,0.021928338691592216
1733359653109708000,7.3437080078125,-0.07543313438594342,-0.106333299562335,-0.014307342293858527
1733359653119673900,7.353673828125,-0.13601122946739197,-0.11654781958460807,-0.034846272453665735
1733359653129639000,7.363638916015625,-0.13304302731156348,-0.11700082404911517,-0.06639174979627133
1733359653139605000,7.37360498046875,-0.11174246512949466,-0.10851531977653503,-0.08767477632164955
1733359653149570800,7.38357080078125,-0.08765431805551052,-0.08799334075152873,-0.12634265289008617
1733359653159535900,7.393535888671875,-0.032356793725490565,-0.10911211662590503,-0.13469897782504558
1733359653169502000,7.403501953125,0.024846856486797332,-0.07710369794666766,-0.12365911289453506
1733359653179467000,7.413467041015625,0.045485155367851256,-0.08134323521256447,-0.12779986596107482
1733359653189433000,7.42343310546875,0.06109948860704899,-0.046373044118285175,-0.11624445272386073
1733359653199399000,7.43339892578125,0.06188040985167026,-0.05513970341980457,-0.08365852641761302
1733359653209364000,7.443364013671875,0.05294833085536956,-0.05998305179774761,-0.02636661339998245
1733359653219330000,7.453330078125,0.022930209210515022,-0.09740881935060024,0.005512041419744491
1733359653229295900,7.4632958984375,-0.010755202770233153,-0.12242518718540668,0.009162965142726898
1733359653239261000,7.473260986328125,-0.02440729602575302,-0.1336515145987272,-0.028268647629022595
1733359653249227000,7.48322705078125,-0.04856324763894081,-0.1294908877879381,-0.013538111487030982
1733359653259192000,7.493192138671875,-0.05660451527535915,-0.10209610038399695,-0.006029927814006805
1733359653269158000,7.503157958984375,-0.04387596660554409,-0.06011807635426521,-0.00041442601978778834
1733359653279124000,7.5131240234375,-0.06379822617173195,-0.02157470294833183,0.028262217888236043
1733359653289089000,7.523089111328125,-0.06278174260556697,-0.03321428733766079,0.0549988336443901
1733359653299054300,7.533054443359375,-0.04118541234731674,-0.0052700493574142455,0.08824000898897648
1733359653309020400,7.5430205078125,-0.0683750325679779,0.028599487018585203,0.09993044678270817
1733359653318985500,7.5529853515625,-0.0622796383023262,0.04686521154940128,0.0842301888257265
1733359653328951600,7.56295166015625,-0.025929391026496884,0.05675649096667766,0.05950958906710147
1733359653338916600,7.57291650390625,0.02096563113927841,0.03111877636313438,0.05488894352912903
1733359653348882400,7.58288232421875,0.045347208201885224,-0.014013912305235863,0.08809621660411357
1733359653358848500,7.5928486328125,0.04755085572600364,-0.05790566100180149,0.12640402768850326
1733359653368813600,7.6028134765625,0.0029997663378715515,-0.07925415397882461,0.14322013793289662
1733359653378779400,7.612779296875,-0.026593407893180845,-0.11685001740157604,0.11914601938426495
1733359653388745500,7.622745361328125,-0.09365794238448143,-0.1347632752329111,0.041267829933762545
1733359653398710500,7.63271044921875,-0.12449205658733845,-0.1211345628529787,0.005084755918383598
1733359653408676400,7.64267626953125,-0.05360124180614948,-0.10527063876688479,-0.01779635345339775
1733359653418641700,7.6526416015625,0.02347790622115135,-0.0725754068672657,-0.01141629702746868
1733359653428607500,7.662607421875,0.0758475604057312,-0.0543278025150299,0.005937573355436325
1733359653438573600,7.672573486328125,0.1075146183013916,-0.04044774572253227,0.009367547804117202
1733359653448538600,7.68253857421875,0.067712769266963,-0.03907470380365848,-0.04257482087910175
1733359653458504400,7.69250439453125,0.022785832303762434,-0.04230594080984592,-0.09430325455069541
1733359653468470500,7.702470458984375,-0.03625906186103821,-0.03436930259168148,-0.09912906727194785
1733359653478435600,7.712435546875,-0.07515607101023197,-0.03239128051698208,-0.10272621498107909
1733359653488401400,7.7224013671875,-0.09617489364147186,-0.048586043992638585,-0.07378069100379943
1733359653498366700,7.73236669921875,-0.08320026125609874,-0.017005495336651803,-0.011601005944609642
1733359653508332500,7.74233251953125,-0.0626888036251068,-0.008563245683908462,0.04713818327188492
1733359653518298400,7.75229833984375,-0.05424830753803253,-0.02936462617218494,0.04959142164289951
1733359653528263700,7.762263671875,-0.03552256428003311,-0.042379006046056746,0.05105331088900566
1733359653538229500,7.7722294921875,-0.027844869258999823,-0.02556932554244995,0.015004676908254622
1733359653548195600,7.782195556640625,-0.023335282880067823,-0.033740357038378715,0.024531214666366576
1733359653558160600,7.79216064453125,-0.003109656453132629,-0.042370238217711444,0.05832417867481708
1733359653568126500,7.80212646484375,0.0037900399327278136,-0.04514262554049492,0.07438625568151473
1733359653578091300,7.81209130859375,-0.012552023059129714,-0.05484861151874065,0.05760404770672321
1733359653588057600,7.8220576171875,-0.047290158963203426,-0.04474105900228023,0.03650514557659626
1733359653598023400,7.8320234375,-0.05962473987936973,-0.06544482433497906,0.02516542091667652
1733359653607988500,7.841988525390625,-0.0478010310947895,-0.07611994760632515,0.015023381608724594
1733359653617954600,7.85195458984375,-0.05021978267431259,-0.10473170958459377,0.011540800189971924
1733359653627920400,7.86192041015625,-0.008779518783092499,-0.1128647471576929,0.030517887860536573
1733359653637885700,7.8718857421875,0.0024678514182567596,-0.09694470897018909,0.0348562093257904
1733359653647851500,7.8818515625,-0.008581950384378433,-0.0882563756018877,0.03800795135498047
1733359653657816300,7.89181640625,0.014205050963163376,-0.07802958061993122,0.0250268892288208
1733359653667782700,7.90178271484375,-0.01611059232354164,-0.057117725494503974,0.011857026532292366
1733359653677748500,7.91174853515625,-0.014725275444984436,-0.04723170677423477,-0.00912497121989727
1733359653687713300,7.92171337890625,-0.00803483789563179,-0.04759294130206108,-0.00509293922483921
1733359653697679600,7.9316796875,0.006516250026226043,-0.043378538477420805,-0.011761749464273451
1733359653707644400,7.94164453125,-0.012341010656952858,-0.038055882149934765,-0.013838555738329886
1733359653717610500,7.951610595703125,-0.03883329626321792,-0.019693711507320404,0.025732407149672506
1733359653727576600,7.96157666015625,-0.046079029607772826,-0.021726094117760657,0.015223872616887091
1733359653737541400,7.971541259765625,-0.05006897602677345,-0.039967268729209894,-0.01535772812962532
1733359653747507500,7.981507568359375,-0.025225042149424552,-0.06736147161126137,-0.04633095854222774
1733359653757473500,7.9914736328125,-0.00502455016374588,-0.06768295865058899,-0.05188859266936779
1733359653767438300,8.001438232421876,-0.02800444373488426,-0.061923079949617384,-0.02510579968392849
1733359653777404700,8.01140478515625,-0.014281038808822632,-0.0526461330384016,0.0413701212644577
1733359653787369500,8.021369384765626,-0.006906710648536682,-0.05382160655856132,0.08221417282819747
1733359653797335300,8.031335205078125,-0.03130231623649597,-0.05019815536439418,0.0999462288737297
1733359653807301600,8.041301513671876,-0.04042085771560669,-0.04560147522389889,0.11563362734913825
1733359653817266400,8.051266357421875,-0.028443419674038885,-0.01780512128174305,0.07627718399465083
1733359653827232500,8.061232421875,-0.04698445401489734,-0.011638999867439269,0.0348041868776083
1733359653837198600,8.071198486328125,-0.07139584169387816,-0.005593874484300613,0.03960778776705265
1733359653847163400,8.081163330078125,-0.10660744032859802,0.016912556356191634,0.06068447806537151
1733359653857129500,8.09112939453125,-0.09251403304636478,0.024948563295602796,0.07217091771960259
1733359653867094500,8.101094482421875,-0.04263327306807041,0.022012509843707083,0.07558452555537223
1733359653877060400,8.111060302734375,-0.04193184680044651,0.00032733225822448726,0.06555471445024014
1733359653887026400,8.1210263671875,-0.02770166139602661,-0.024416648375988004,0.05230301868915557
1733359653896991500,8.130991455078124,-0.01584755747318268,-0.0465332031160593,0.019933365482091903
1733359653906957300,8.140957275390624,0.0059486792713403696,-0.04268821812570095,0.004732873740792274
1733359653916923600,8.150923583984374,0.054047232007980346,-0.06343231546878814,-0.0007715688943862914
1733359653926888400,8.160888427734376,0.06854279035031795,-0.06582067191004752,0.04096446307301521
1733359653936854500,8.1708544921875,0.030896073523163793,-0.05706979469954967,0.024726444977521893
1733359653946819600,8.180819580078126,-0.04448503841459751,-0.0477922632664442,0.014632336464524269
1733359653956785400,8.190785400390626,-0.050915363723039626,-0.050129766303300856,-0.010657003092765807
1733359653966751500,8.20075146484375,-0.05537760382890701,-0.041782209196686744,-0.06911795988976956
1733359653976716500,8.210716552734375,-0.06761106245815754,-0.026767010894417763,-0.07063479419350624
1733359653986682400,8.220682373046875,-0.013375029879808426,-0.02472936758697033,-0.06286825184524059
1733359653996648400,8.2306484375,0.05763970354199409,-0.04278758684694767,-0.0407166257917881
1733359654006613500,8.240613525390625,0.07896481564342975,-0.05454232204854488,-0.05195464364290237
1733359654016579300,8.250579345703125,0.06617664574086665,-0.10003215359151363,-0.05610591810345649
1733359654026544600,8.260544677734375,0.023648586612939834,-0.13844868574738503,-0.04211772476136684
1733359654036510500,8.270510498046875,0.011351999619603157,-0.13336685243844984,-0.014731705185770988
1733359654046476500,8.2804765625,0.03226911544203758,-0.09583645546734333,0.0006003039807081222
1733359654056441600,8.290441650390624,0.004732289218902588,-0.07863046912252902,-0.006816109755635261
1733359654066407400,8.300407470703124,-0.007117138528823852,-0.05149637848138809,-0.01421089618206024
1733359654076372500,8.31037255859375,0.004231938481330871,-0.05230594129860401,-0.08231880224645137
1733359654086338600,8.320338623046876,0.013314239603281021,-0.0762006116271019,-0.16091653814315796
1733359654096304400,8.330304443359376,0.05907236669361591,-0.08920096297562122,-0.1880418609559536
1733359654106269700,8.340269775390626,0.05356441692709923,-0.07754092032015324,-0.09855389773249626
1733359654116235500,8.350235595703126,0.01768354072868824,-0.061631403526663776,-0.030890228304266926
1733359654126201300,8.360201416015625,-0.007048749467730522,-0.07417933493256569,0.00073415949344635
1733359654136166700,8.370166748046875,-0.0209095170378685,-0.08938158023953437,-0.04286941991150379
1733359654146132500,8.380132568359375,-0.01009001685976982,-0.13586042281985283,-0.10690262388288974
1733359654156098600,8.3900986328125,-0.003447510105371475,-0.17443302232027053,-0.11224223134517669
1733359654166063600,8.400063720703125,0.032765374526381494,-0.17404665335118769,-0.060303954315185544
1733359654176029400,8.410029541015625,0.04957330146431923,-0.17182839277982712,-0.010932897424697875
1733359654185994500,8.419994384765625,0.04149637799263,-0.1369587394505739,0.05851414828896522
1733359654195960600,8.429960693359375,-0.026014731222391126,-0.11052490603327751,0.1183154137790203
1733359654205926400,8.439926513671875,-0.08623626795113086,-0.06724865888655185,0.15206746125519274
1733359654215891700,8.4498916015625,-0.14214169504642485,-0.03715981009304523,0.14705226344168185
1733359654225857500,8.459857421875,-0.12777297795414924,-0.018816928672790525,0.1278390289276838
1733359654235822300,8.469822265625,-0.08731704892516136,-0.005488076022267341,0.06848901433646679
1733359654245788700,8.47978857421875,-0.05057575650513172,0.008425298517942428,0.021323943057656287
1733359654255754500,8.48975439453125,-0.04789046294391155,0.014314941078424452,-0.016087211447954178
1733359654265719300,8.49971923828125,-0.02688333075046539,0.0511211154282093,-0.03512450487315655
1733359654275685600,8.509685546875,-0.026110592812299726,0.07448737796843051,-0.028517069432139396
1733359654285651500,8.5196513671875,-0.04646656762063503,0.08573299460411071,-0.03212181592583656
1733359654295616500,8.529616455078125,-0.04653671024739742,0.08981529548168182,-0.03292144187092781
1733359654305582800,8.539582763671875,0.012736731976270675,0.06992284653186798,-0.04005085535943508
1733359654315547600,8.549547607421875,0.03970832553207874,0.04297521837353706,-0.06825462105870246
1733359654325513700,8.559513671875,0.06490823324024676,-0.003565583527088165,-0.06039864686131477
1733359654335479800,8.569479736328125,0.0585848754376173,-0.03720657184422016,-0.040861002698540684
1733359654345444600,8.579444580078125,0.04852350015044212,-0.05365209521055221,-0.04689852929711342
1733359654355410700,8.58941064453125,0.02704290522634983,-0.09592179566323757,-0.04714578205645084
1733359654365376800,8.599376708984375,-0.0030488661766052243,-0.08328267884254455,0.0004103343665599823
1733359654375341600,8.609341552734374,-0.031018823119997978,-0.09114858991205692,0.04305822048187256
1733359654385308000,8.619307861328124,-0.03475742512643337,-0.08212532550096512,0.06785071643292903
1733359654395272700,8.629272705078124,-0.05319441457092762,-0.05548398681282997,0.07817980274558067
1733359654405238500,8.639238525390626,-0.027369068440794942,-0.0675520257472992,0.10465981339216232
1733359654415204900,8.649204833984374,-0.01807341682910919,-0.07074409978687762,0.09939619377553463
1733359654425169700,8.659169677734376,-0.024414310288429258,-0.05111410116553306,0.11450199297070503
1733359654435135500,8.669135498046876,0.027625673550367352,-0.033226562297344206,0.08828443265259266
1733359654445101800,8.679101806640626,0.02756780588328838,-0.026350831308960914,0.04387245947420597
1733359654455066600,8.689066650390625,0.00032850130200386043,-0.03696165717244148,0.02856558474898338
1733359654465032700,8.69903271484375,-0.06265782396495342,-0.03550444410145283,0.018885902255773544
1733359654474997800,8.708997802734375,-0.046727264383435246,-0.058683659636974334,0.023814006307721135
1733359654484963600,8.718963623046875,-0.009869067585468292,-0.04236556204259395,0.011922492983937263
1733359654494929700,8.7289296875,-0.014054828837513923,-0.047844870236516,0.01775543692111969
1733359654504894700,8.738894775390625,-0.04098433681726456,-0.0459492657482624,0.006549567773938178
1733359654514860500,8.748860595703125,-0.0728372726738453,-0.07380348735749721,-0.030711364606022834
1733359654524827000,8.758826904296875,-0.10932897424697875,-0.08892916029691696,-0.0794160665422678
1733359654534791700,8.768791748046874,-0.0897246945887804,-0.0972621043562889,-0.09367781612873077
1733359654544757500,8.778757568359374,-0.03626607612371444,-0.09254267461895942,-0.08113163828849793
1733359654554722800,8.788722900390624,0.015784429109096526,-0.081359017303586,-0.0455137969404459
1733359654564688600,8.798688720703124,0.03358662778139114,-0.07373276020884513,0.006050386080145836
1733359654574654700,8.80865478515625,0.0008563245683908462,-0.06885726312696934,0.03270692233741283
1733359654584619800,8.818619873046876,-0.01768354072868824,-0.051202948492765424,-0.01907820995748043
1733359654594585600,8.828585693359376,-0.01872574325799942,-0.025269465813040733,-0.042695232388377184
1733359654604550700,8.838550537109375,-0.015239070186018944,0.010174772533774376,-0.07276888361275195
1733359654614516700,8.848516845703125,0.011998480829596519,0.018191490250825882,-0.04767652793228626
1733359654624482600,8.858482666015625,0.036761750686168666,0.011201192972064018,-0.010438976427912711
1733359654634448000,8.86844775390625,0.040599721413850785,-0.005969137537479401,0.00918634601831436
1733359654644413700,8.87841357421875,0.006762333741784096,-0.013632219511270522,-0.006238602128624916
1733359654654379500,8.888379638671875,-0.03707037824392319,-0.0612818594366312,-0.02532499539256096
1733359654664344800,8.8983447265625,-0.04778115735054016,-0.07740355767607689,-0.02632218973636627
1733359654674310700,8.908310546875,-0.06940788274705409,-0.06995616427958011,0.0019429507613182068
1733359654684275700,8.918275634765624,-0.04350713329315185,-0.07181143675744533,0.0335579862087965
1733359654694241800,8.92824169921875,-0.03753974932134151,-0.0815337893486023,0.06206921042203903
1733359654704207600,8.93820751953125,-0.022014263409376143,-0.08144318845570087,0.08995908786654472
1733359654714172700,8.948172607421874,0.027941899892687794,-0.07029284888803959,0.10168810410499572
1733359654724138800,8.958138671875,0.00829670370221138,-0.03317746245861053,0.0905395181030035
1733359654734104600,8.9681044921875,-0.005907762739062309,0.0099035543769598,0.06482932278513907
1733359654744070000,8.97806982421875,0.0203822782933712,0.008734510597586632,0.027377251747250555
1733359654754035700,8.98803564453125,0.021252046865224836,0.012491817304491996,0.01549976694881916
1733359654764000800,8.998000732421875,0.014788988330960273,0.00969137293100357,0.03053717708289623
1733359654773966800,9.007966796875,-0.0009077624946832656,-0.025453005686402318,0.04419570007920265
1733359654783932700,9.0179326171875,0.011447861209511757,-0.026302315992116927,0.04744271917641162
1733359654793897700,9.027897705078125,0.0010614917516708372,-0.03385316976308823,0.043992870983481404
1733359654803863800,9.03786376953125,-0.00841653068959713,-0.028934418061375616,0.04439560656547546
1733359654813829600,9.04782958984375,-0.052366731575131414,-0.044668578287959095,0.032868834900856014
1733359654823794700,9.057794677734375,-0.07488719094097614,-0.04362871384620666,0.0016050971090793608
1733359654833760800,9.0677607421875,-0.08854629845917224,-0.025362989315390584,-0.02819090621769428
1733359654843725600,9.0777255859375,-0.02522153501808643,-0.02737491365969181,-0.030800211933255193
1733359654853692000,9.08769189453125,-0.049770285341143604,-0.01910509796440601,-0.017370821517705918
1733359654863657700,9.09765771484375,-0.0713683691650629,-0.009548165068030356,0.003689502167701721
1733359654873622500,9.10762255859375,-0.10239128393828868,-0.03924304610788822,-0.017001403683423996
1733359654883588900,9.1175888671875,-0.10511924759745597,-0.050146717438101764,-0.07617606170773505
1733359654893554700,9.1275546875,-0.05324351440966129,-0.08520984751284122,-0.1417430511176586
1733359654903519700,9.137519775390626,-0.015211013135313986,-0.13970716137588024,-0.18332593834996222
1733359654913485800,9.14748583984375,0.05419219343662262,-0.17243571102321148,-0.15871113705337048
1733359654923450600,9.15745068359375,0.08974339928925038,-0.18672785574793815,-0.08602291746139526
1733359654933416700,9.167416748046875,0.08695639891922473,-0.18918518577218055,-0.02104980229139328
1733359654943382800,9.1773828125,0.05231996982395649,-0.1872352207481861,-0.0008346972584724426
1733359654953347600,9.18734765625,-0.010451835909485816,-0.13934125067293643,0.004413140267133712
1733359654963314000,9.19731396484375,-0.05728723684251308,-0.06882394537925719,0.03120820821225643
1733359654973279700,9.20727978515625,-0.06370294910371303,-0.003575520399212837,0.04830722705125808
1733359654983244500,9.21724462890625,-0.03854980314671993,0.04485620981454849,0.03669979136586189
1733359654993211000,9.2272109375,0.004483282893896103,0.07466039644777775,0.058653849020600314
1733359655003175700,9.23717578125,0.040703766310214995,0.08820727576315403,0.056740708875656125
1733359655013141800,9.247141845703124,0.027669512692093848,0.08406126199960708,0.007457330268621444
1733359655023107800,9.25710791015625,-0.014278700721263885,0.09259878872036933,0.00291617970764637
1733359655033072600,9.26707275390625,-0.031871056035161015,0.08280044828355312,0.02993862666785717
1733359655043038700,9.277038818359374,-0.043539866518974304,0.07789280249774455,0.05339782818853855
1733359655053003800,9.287003662109376,-0.007018938851356506,0.05030103121697902,0.08963584726154804
1733359655062969600,9.296969482421876,0.015508534777164459,0.01975216369628906,0.11989186931550502
1733359655072936000,9.30693603515625,-0.012536240968108176,-0.03215396462976932,0.12255904269814491
1733359655082900700,9.316900634765625,-0.02510053898692131,-0.08121464039683342,0.08907587529122829
1733359655092866600,9.326866455078125,-0.005959200665354728,-0.10609130750000476,0.03902034326791763
1733359655102833000,9.3368330078125,-0.019090484917163846,-0.11294541117846965,-0.017487141373753547
1733359655112797700,9.346797607421875,-0.032326398587226864,-0.10240940411686897,-0.034983050575852395
1733359655122763500,9.356763427734375,-0.016041034218668936,-0.0865133313268423,0.008835048362612724
1733359655132728800,9.366728759765625,0.0007645546317100524,-0.09522153843939304,0.0273491946965456
1733359655142694700,9.376694580078125,-0.004901800566911697,-0.08789514107406139,-0.011485855132341384
1733359655152660700,9.38666064453125,0.002424012276530266,-0.08115794177353382,-0.04063070107400417
1733359655162625800,9.396625732421874,0.0027051673054695126,-0.09784428815841674,-0.05758417396247387
1733359655172591600,9.406591552734374,-0.019559855994582175,-0.09712824884355067,-0.03591477846801281
1733359655182557700,9.4165576171875,-0.0075064301073551176,-0.12191957575082778,-0.0036269583255052564
1733359655192522800,9.426522705078124,-0.019290975925326345,-0.13514029185175894,-0.012046411624550819
1733359655202488600,9.436488525390626,-0.06262450621724128,-0.13279635907411574,-0.0262076234459877
1733359655212453600,9.44645361328125,-0.07940554514825343,-0.10211305151879786,-0.03476619295477867
1733359655222419700,9.456419677734376,-0.081114687153697,-0.06857669261991978,-0.04927753338813781
1733359655232385500,9.466385498046876,-0.052500002565979954,-0.07509294264614581,-0.053237669190764426
1733359655242350800,9.476350830078125,-0.051531449794769285,-0.046613282614946364,-0.07675473837852477
1733359655252316700,9.486316650390625,-0.046833062845468516,-0.03266366771757603,-0.06818973912894725
1733359655262282500,9.496282470703125,-0.022125322568416594,0.0033189152896404266,-0.05805646764934062
1733359655272247800,9.506247802734375,-0.00007715688943862914,0.027737901753187178,-0.033769583132863046
1733359655282213600,9.516213623046875,-0.00755377638041973,0.04405599934756756,-0.007007832935452461
1733359655292178400,9.526178466796875,-0.00828968943953514,0.07613689874112606,0.029071780705451963
1733359655302144500,9.53614453125,0.023927403554320333,0.08249298976957797,0.05164309347569942
1733359655312110300,9.5461103515625,0.016297639328241346,0.06742284640967845,0.033600071784853934
1733359655322075400,9.556075439453124,0.005310965889692306,0.030149639070034026,0.02741056949496269
1733359655332041500,9.56604150390625,0.036926585859060286,0.00941430955529213,0.010098200166225433
1733359655342007300,9.57600732421875,0.05029986217319965,-0.03172551008462906,-0.022875848674774168
1733359655351972400,9.585972412109374,0.04258008157610893,-0.07889584206044674,-0.02146539735496044
1733359655361938400,9.5959384765625,0.01729483367204666,-0.10942658940255641,-0.0034089316606521606
1733359655371903500,9.605903564453126,-0.007936053696274757,-0.112642628839612,-0.004181669598817825
1733359655381869600,9.61586962890625,0.0031306992411613463,-0.10767945347428322,0.009209726893901824
1733359655391835400,9.62583544921875,-0.002893383353948593,-0.0846791016370058,0.007364975810050964
1733359655401800400,9.635800537109375,-0.009935118559002875,-0.08049392490684985,0.02827858450114727
1733359655411766500,9.6457666015625,-0.014828151297569274,-0.043671383944153784,0.08142740636467934
1733359655421732400,9.655732421875,-0.0021796821266412735,-0.009870236629247665,0.11128712257742882
1733359655431697400,9.665697509765625,-0.0007055179208517074,-0.0007622165441513061,0.10773498305380344
1733359655441663500,9.67566357421875,-0.030016952601075172,0.0022960019826889035,0.10700783782303333
1733359655451628500,9.685628662109375,-0.04828559974133968,0.00027355624437332154,0.07829670712351798
1733359655461594400,9.695594482421875,-0.07177227379083632,0.0054226095706224435,0.04460369635820389
1733359655471560400,9.705560546875,-0.040160745474696155,-0.010754618248343468,0.01238660336434841
1733359655481525500,9.715525390625,-0.021838322320580483,-0.017767711880803106,-0.02262742687165737
1733359655491491600,9.72549169921875,-0.033110242441296574,-0.030503859335184097,-0.03021685908734798
1733359655501457400,9.73545751953125,-0.03025485301017761,-0.04993336694836616,-0.019097499179840088
1733359655511422500,9.74542236328125,-0.02068506063222885,-0.05521569126546383,-0.017014847686886787
1733359655521388500,9.755388427734376,-0.03621697628498077,-0.0651116468578577,-0.04431377350091934
1733359655531353600,9.765353515625,-0.028007366344332693,-0.05994505787491798,-0.04383972624838352
1733359655541319400,9.7753193359375,-0.03834931213855743,-0.06422375810742378,-0.05070961201786995
1733359655551285500,9.785285400390626,-0.04627952061593532,-0.04811024317443371,-0.06284253288209438
1733359655561250600,9.79525048828125,-0.01234744039773941,-0.04184650660455227,-0.052502925175428386
1733359655571216400,9.80521630859375,-0.016883330261707304,-0.05046002117097378,-0.027124153769016265
1733359655581182500,9.815182373046875,-0.0065332011610269546,-0.050828269961476324,-0.020431378132104872
1733359655591147500,9.8251474609375,0.015171850168704986,-0.07301146019697188,0.002853635865449905
1733359655601113600,9.835113525390625,0.03235504015982151,-0.08981880261301994,0.03177753253281116
1733359655611078400,9.845078369140625,0.027245734322071075,-0.10327800364494323,0.05556640439927578
1733359655621044500,9.85504443359375,-0.015815993291139602,-0.10940379304885864,0.04023088810145855
1733359655631010600,9.865010498046875,-0.03168926972746849,-0.07439911516308784,0.006261983004212379
1733359655640975400,9.874975341796874,-0.06145020174086094,-0.05796235962510109,-0.031160861939191816
1733359655650941400,9.88494140625,-0.061222238203883166,-0.030440730971097944,-0.03391220647394657
1733359655660907500,9.894907470703124,-0.050394554719328875,-0.0030611411362886426,-0.0012719196319580077
1733359655670872600,9.90487255859375,-0.020090601870417595,0.0015495675295591354,0.02585691031217575
1733359655680838400,9.91483837890625,-0.02793780823945999,0.026249124500155447,0.052532151269912716
1733359655690803500,9.924803466796876,-0.0369651643037796,0.02285539040863514,0.051095980986952776
1733359655700769500,9.93476953125,-0.05409983897805214,0.005158405676484108,-0.0054775546282529826
1733359655710735600,9.944735595703126,-0.06411328347027301,-0.02487082188427448,-0.07934417034983635
1733359655720700400,9.954700439453125,-0.05163315660357475,-0.06197159526646137,-0.10315116239488124
1733359655730666500,9.96466650390625,-0.002680617386102676,-0.07716273465752602,-0.05011223064661026
1733359655740632600,9.974632568359375,0.02687339387834072,-0.09625088148713111,0.040190556091070175
1733359655750597400,9.984597412109375,0.031311668586730956,-0.09641863926947117,0.13141045767366885
1733359655760563500,9.9945634765625,0.017826748591661452,-0.10492401728630066,0.13247779464423656
1733359655770528500,10.004528564453125,-0.002343348255753517,-0.11902034717798232,0.10073241081535815
1733359655780494300,10.014494384765625,-0.045347208201885224,-0.1081026473224163,0.037630350214242936
1733359655790460400,10.02446044921875,-0.07977905463576317,-0.08021452344357967,-0.004613046753406525
1733359655800425500,10.034425537109374,-0.04701543367505073,-0.035273557955026624,-0.0007394201904535293
1733359655810391600,10.0443916015625,0.031467735931277274,0.03301204276382923,0.014373977789282798
1733359655820356400,10.0543564453125,0.03440203581750393,0.046585225564241405,0.0021989713490009307
1733359655830322400,10.064322509765624,0.046943537482619285,0.051233928152918815,-0.016304653590917588
1733359655840288500,10.07428857421875,0.06842413240671158,0.07087620173394679,-0.035196985587477685
1733359655850253300,10.08425341796875,0.041429742497205733,0.06914134076535701,-0.07035597725212574
1733359655860219400,10.094219482421876,-0.0029565117180347443,0.05643851105868816,-0.07848024699687957
1733359655870185500,10.104185546875,-0.019421324306726453,0.036574119159579276,-0.07756079406440257
1733359655880150500,10.114150634765625,-0.011450199297070503,0.021777532044053076,-0.06161854404509067
1733359655890116400,10.124116455078125,0.025241408762335774,0.0007259761869907379,-0.024755671072006224
1733359655900081400,10.134081298828125,0.04808627777695656,-0.031876901254057885,0.010267711514234543
1733359655910047500,10.144047607421875,0.0509860908716917,-0.07263385905623436,0.01854629503786564
1733359655920013300,10.154013427734375,0.003992869028449059,-0.11337561928927897,0.018991700717806814
1733359655929978400,10.163978271484375,-0.029462241327762602,-0.1266723232358694,0.009600187516212463
1733359655939944400,10.1739443359375,-0.047612815046310424,-0.12616086658239364,-0.010966799694299697
1733359655949910500,10.18391064453125,-0.03907178119421005,-0.1194832885146141,0.0009977788656949996
1733359655959875300,10.193875244140624,-0.010184709405899047,-0.105462361946702,0.010724223110079764
1733359655969841400,10.20384130859375,-0.007768880435824394,-0.08370002747178078,0.010057868155837058
1733359655979806500,10.213806396484374,-0.03162438779771328,-0.062358548757433886,0.01076104798913002
1733359655989772500,10.2237724609375,-0.047179684326052664,-0.03993395098149776,0.022687632626295088
1733359655999738400,10.23373828125,-0.033709377378225325,-0.03559036881923675,0.003158171769976616
1733359656009703400,10.243703369140626,0.0008896423161029815,-0.041245033580064774,0.000384030881524086
1733359656019669500,10.25366943359375,-0.017918518528342246,-0.04779050970077514,-0.00928746830523014
1733359656029635300,10.26363525390625,-0.02100713219344616,-0.034866146197915074,-0.019149521628022192
1733359656039600400,10.273600341796875,-0.0349871422290802,-0.019020926812291145,-0.018785364490747452
1733359656049566500,10.28356640625,-0.037599370554089545,0.00826923117339611,-0.03193886057436466
1733359656059531500,10.293531494140625,-0.01250292322039604,0.03331716319024563,-0.01586567765176296
1733359656069497300,10.303497314453125,0.013565584015846252,0.029592005187273025,0.0013490765213966369
1733359656079463400,10.31346337890625,0.0011205284625291825,0.012724457016587257,0.01937397803366184
1733359656089428500,10.323428466796875,-0.044504327636957164,-0.016718495088815687,0.035658757880330086
1733359656099394600,10.33339453125,-0.09122399323582649,-0.0273100317299366,-0.010166589227318763
1733359656109360400,10.3433603515625,-0.05611702401936054,-0.02967792990505695,-0.04719020572006702
1733359656119325400,10.353325439453124,0.011045710149407386,-0.030531916385889053,-0.05461772537231445
1733359656129291500,10.36329150390625,0.03689502167701721,-0.04557341817319393,-0.046585225564241405
1733359656139257300,10.37325732421875,0.01863105071187019,-0.07259820322096347,-0.023020225581526756
1733359656149222400,10.383222412109374,0.025747604718804357,-0.09065876056849956,0.00526069700717926
1733359656159188500,10.3931884765625,0.0430301634311676,-0.08660159413218498,0.01713233658671379
1733359656169153500,10.403153564453126,0.0009638765960931778,-0.08652385272085666,0.03194938196837902
1733359656179119400,10.413119384765626,-0.03105915513038635,-0.08590601308345794,0.03842588450610637
1733359656189085400,10.42308544921875,-0.018120178580284117,-0.07133446689546108,0.04152618860900402
1733359656199050500,10.433050537109375,-0.029763270100951193,-0.03904372414350509,0.04289864600598812
1733359656209016600,10.4430166015625,-0.006225158125162124,-0.03360065630674362,0.03884264861345291
1733359656218981600,10.452981689453125,0.0023299042522907255,-0.04451718711853027,0.05932897180318832
1733359656228947500,10.462947509765625,0.01103109710216522,-0.02622106744945049,0.055928807970881456
1733359656238913500,10.47291357421875,0.007403554254770278,-0.03251344559192657,0.05002981306016445
1733359656248878600,10.482878662109375,-0.02121931363940239,-0.03443184643387794,0.002585340318083763
1733359656258844400,10.492844482421875,-0.02817044795155525,-0.03175707426667213,-0.030031565648317337
1733359656268810500,10.502810546875,-0.040648821252584455,-0.016166706424951553,-0.04529810836315155
1733359656278775600,10.512775634765624,-0.042460839110612866,-0.013819851037859916,-0.01151391218304634
1733359656288741400,10.522741455078124,-0.014205050963163376,-0.022138766571879385,0.024089316117763517
1733359656298706700,10.532706787109374,0.004544073170423508,-0.022265607821941376,0.04578618414103985
1733359656308673000,10.542673095703124,-0.039455812075734134,-0.0342418768197298,0.04703589194118976
1733359656318638800,10.552638916015624,-0.0746884534984827,-0.04464928906559944,0.022910335466265676
1733359656328603600,10.562603759765626,-0.06759118871390819,-0.02547171038687229,-0.018358663511276244
1733359656338570000,10.572570068359376,-0.030223873350024223,-0.06450257504880427,-0.062352119016647334
1733359656348535800,10.582535888671876,-0.02348959665894508,-0.07108019987344741,-0.06570552109777927
1733359656358500600,10.59250048828125,-0.02640928349792957,-0.07268178985118866,-0.059517772373557085
1733359656368467000,10.602467041015625,-0.048988195052742954,-0.1007218894213438,-0.04705868829488754
1733359656378431700,10.612431640625,-0.04285013068914413,-0.10585516065657138,-0.029698388171195984
1733359656388397800,10.622397705078125,-0.03418459367454052,-0.06774550249278545,0.011684008052945137
1733359656398364000,10.632364013671875,-0.004347673815488815,-0.03755260880291462,0.03391454456150531
1733359656408328700,10.64232861328125,-0.01241582945883274,-0.00009644611179828643,0.029980712243914603
1733359656418294800,10.652294677734375,0.011194763231277466,0.028086276799440382,0.03209668148458004
1733359656428260900,10.6622607421875,0.014103344154357909,0.04576455683112144,0.007695230677723884
1733359656438225700,10.6722255859375,0.02704991948902607,0.044992403414845464,-0.001717325311899185
1733359656448192000,10.68219189453125,0.0795025757819414,0.029841011512279508,0.008492518535256385
1733359656458156800,10.69215673828125,0.08059154006242751,-0.0031657705545425413,-0.006672901892662048
1733359656468122600,10.70212255859375,0.05000701670646667,-0.0439624758452177,0.00997018987238407
1733359656478089000,10.7120888671875,0.005032148948311805,-0.05599836607575416,-0.008594809865951538
1733359656488053800,10.7220537109375,-0.013862521135807037,-0.052208910664916036,-0.03715279583036899
1733359656498019800,10.732019775390626,-0.023774843341112135,-0.019274024790525434,-0.05818856959640979
1733359656507986000,10.74198583984375,-0.024709493842720982,-0.01700023463964462,-0.07325228321552277
1733359656517950700,10.75195068359375,-0.015129764592647551,-0.017609306448698042,-0.08288461943566798
1733359656527916800,10.761916748046875,0.02435059740245342,-0.013557985231280326,-0.0764618929117918
1733359656537881900,10.7718818359375,0.03836567875146866,-0.020392799687385558,-0.05778875662386417
1733359656547847700,10.78184765625,-0.014085223975777625,-0.02580897951722145,-0.009919920989871024
1733359656557813800,10.791813720703125,-0.05278466472625732,-0.0200379949003458,-0.015362404304742812
1733359656567778800,10.80177880859375,-0.0669113897562027,-0.011820786175131798,-0.04138414978981018
1733359656577744600,10.81174462890625,-0.05205459688603878,-0.01922200234234333,-0.03571487198174
1733359656587711000,10.8217109375,0.00203998139500618,-0.06431728160977364,-0.015411504143476485
1733359656597675800,10.83167578125,0.034275779089331625,-0.07649404161572455,0.036325697356462475
1733359656607641900,10.841641845703125,0.056876317954063414,-0.10245967299938201,0.135142045417428
1733359656617607000,10.85160693359375,0.0327343948662281,-0.09831833541095256,0.15262041896283626
1733359656627572700,10.86157275390625,-0.056012394601106644,-0.10144435847699641,0.1265460665076971
1733359656637538800,10.871538818359374,-0.08778057478368281,-0.08102408626079559,0.10198270313739775
1733359656647504000,10.88150390625,-0.09424363331794738,-0.07004091995358466,0.07238076107800007
1733359656657469700,10.8914697265625,-0.08424947804808616,-0.03977437650561332,0.08535130181014537
1733359656667435800,10.901435791015626,0.0014426000237464905,-0.004726444000005722,0.08722937064170837
1733359656677400800,10.91140087890625,0.07763210573494433,0.026034020444750783,0.08130114963650703
1733359656687366700,10.92136669921875,0.05524082570672035,0.0196808520257473,0.026955226942896843
1733359656697332000,10.93133203125,-0.006273673442006111,-0.0064484454870223995,-0.05555763657093048
1733359656707297800,10.9412978515625,-0.05113748204112053,-0.02399170096218586,-0.11006956348121165
1733359656717264000,10.951263916015625,-0.10172960515916347,-0.015361819782853125,-0.1357259827852249
1733359656727229000,10.96122900390625,-0.06223930629193782,-0.015440145716071128,-0.1486661283791065
1733359656737194800,10.97119482421875,-0.020824176841974257,0.007192541852593421,-0.11783902843892574
1733359656747160800,10.981160888671875,0.020645897665619847,-0.0042407063096761705,-0.08638999720811844
1733359656757126000,10.9911259765625,0.039375148054957385,-0.017930793488025665,-0.04308978466391563
1733359656767091700,11.001091796875,0.03356032429635525,-0.05556172822415829,-0.03641805181503296
1733359656777057000,11.01105712890625,0.0041547815918922424,-0.0823129570275545,-0.06289104819893837
1733359656787022800,11.02102294921875,-0.03766016083061695,-0.1018938558101654,-0.04895195469558239
1733359656796988700,11.03098876953125,-0.05455108987689018,-0.11835691483318805,-0.025395722541213035
1733359656806954000,11.0409541015625,-0.0633341157913208,-0.13495382936894892,-0.014901801055669784
1733359656816919800,11.050919921875,-0.03699088326692581,-0.12107260353267192,0.023850246664881704
1733359656826886000,11.060885986328126,-0.019123802664875983,-0.13502747912704943,0.02827858450114727
1733359656836851000,11.070850830078125,-0.014540566527843475,-0.11104746860265731,0.03166471980810165
1733359656846816800,11.080816650390625,-0.020195231288671494,-0.11194295613765716,0.024458149430155753
1733359656856782800,11.090782958984375,0.004130231672525406,-0.08285188620984554,0.04107026153504848
1733359656866748000,11.100747802734375,-0.02549041508734226,-0.0769412008613348,0.058330023893713945
1733359656876713700,11.110713623046875,-0.026427403676509857,-0.06842705501616,0.039940965244174
1733359656886679000,11.120678955078125,-0.029610709887742996,-0.042267362365126605,0.0269090497136116
1733359656896644900,11.130644775390625,-0.025189970836043355,-0.01626315253674984,0.023576690420508382
1733359656906610700,11.140610595703125,-0.040565234622359274,0.004115034103393554,0.01052139401435852
1733359656916576000,11.150575927734375,-0.035516719061136244,0.0158335289478302,0.013971826729178427
1733359656926541800,11.160541748046874,-0.01644084719121456,0.04027531176507473,0.006884498816728591
1733359656936506600,11.170506591796874,0.007300093880295753,0.06913666459023952,-0.011201192972064018
1733359656946473000,11.180472900390624,0.02339607315659523,0.08263970476388931,-0.005396306085586547
1733359656956438800,11.190438720703124,0.03876607624590397,0.09651391633749008,-0.03599018179178238
1733359656966403800,11.20040380859375,0.017085574835538863,0.08053834857046603,-0.026941198417544363
1733359656976370000,11.210369873046876,0.011992051088809966,0.05681435863375663,-0.019897125124931334
1733359656986335700,11.220335693359376,-0.012861819660663604,0.040649405774474144,-0.03385784593820572
1733359656996301000,11.230301025390625,-0.008829203143715858,0.024452304211258886,-0.013448679637908936
1733359657006267000,11.240266845703125,0.015949264281988142,-0.024938041901588437,-0.012592355069518089
1733359657016231700,11.250231689453125,0.006398176604509353,-0.053586628758907316,0.010824176353216171
1733359657026198000,11.260197998046875,-0.0033171617239713667,-0.08398936580717563,0.0022796353697776793
1733359657036163800,11.270163818359375,0.015977321332693098,-0.09689093295633792,-0.011860533663630485
1733359657046128600,11.280128662109375,0.033473230534791946,-0.10343933168649673,-0.03888590323328971
1733359657056095000,11.290094970703125,0.0017319383591413496,-0.10241524933576583,-0.052604047462344164
1733359657066060800,11.300060791015625,-0.019736381605267524,-0.08888941280841826,-0.018760230049490928
1733359657076025600,11.310025634765625,-0.02172375603020191,-0.07842530193924903,0.002289572241902351
1733359657085992000,11.319991943359375,-0.017675357422232627,-0.05995031857192516,0.046830140236020085
1733359657095957800,11.329957763671874,-0.04471767812669277,-0.03147591923773289,0.05143967985808849
1733359657105922800,11.3399228515625,-0.08298807981014251,-0.009848024797439575,0.054763855844736094
1733359657115889000,11.349888916015624,-0.07459376095235347,0.008569090902805328,0.06407061337232589
1733359657125853700,11.359853759765626,-0.04879471830725669,0.023095628905296324,0.03996317707598209
1733359657135820000,11.369820068359376,-0.037915596896409984,0.005865677163004875,0.027560207098722457
1733359657145785900,11.379785888671876,-0.030016368079185483,0.00036766426861286163,0.04102057717442512
1733359657155750700,11.389750732421875,-0.033137714970111844,-0.02684767491519451,0.05113280586600304
1733359657165717000,11.399717041015625,-0.018248773396015164,-0.039463410860300065,0.052481297865509986
1733359657175682800,11.409682861328125,-0.005698503902554512,-0.06245616391301155,0.04562894775271415
1733359657185647600,11.419647705078125,0.010214520022273063,-0.07920563866198062,0.021506898409128186
1733359657195614000,11.429614013671875,-0.03299275354146957,-0.07724398320019245,-0.024103929165005682
1733359657205578800,11.439578857421875,-0.04246668432950973,-0.08771569285392761,-0.06883972747027874
1733359657215544800,11.449544921875,-0.03483516653776168,-0.07097673949897289,-0.07940320706069469
1733359657225511000,11.459510986328125,-0.008921557602286339,-0.049991819137334824,-0.06544657790064812
1733359657235475700,11.469475830078125,0.0031850597769021985,-0.015036241090297699,-0.025610826596617696
1733359657245441800,11.47944189453125,0.017598785054683683,-0.004344166684150695,-0.0025239655196666716
1733359657255406800,11.48940673828125,0.019754501783847807,-0.004215571868419647,0.03358487421572208
1733359657265372700,11.49937255859375,0.03526946630179882,0.0018178630769252776,0.048529929891228674
1733359657275339000,11.509339111328124,0.030323826593160626,0.008935586127638817,0.019046645775437354
1733359657285303800,11.5193037109375,-0.009108604606986046,0.0038929157853126524,0.003376782956719398
1733359657295269600,11.52926953125,-0.006945289093255996,-0.010620178213715553,0.002768295669555664
1733359657305235700,11.539235595703126,0.023242343899607658,-0.0425596233099699,0.00390869787633419
1733359657315200800,11.54920068359375,0.00022737901508808136,-0.05802081181406975,0.010758125379681587
1733359657325166600,11.55916650390625,-0.018512977290153502,-0.09185586139857768,0.0011468319475650788
1733359657335133000,11.5691328125,-0.024238953721523283,-0.11718787105381488,-0.023346973317861557
1733359657345097700,11.57909765625,-0.031075521743297575,-0.10833411799073218,-0.025797873601317405
1733359657355063600,11.5890634765625,-0.04994564190804958,-0.07870236531496047,-0.016946458625793456
1733359657365028900,11.59902880859375,-0.07763269025683403,-0.007054594686627388,0.012290157252550124
1733359657374994700,11.60899462890625,-0.047513446325063706,0.036084289816021915,0.021673487147688863
1733359657384960800,11.618960693359375,-0.029627076500654218,0.04556465034484863,-0.0022808044135570523
1733359657394925800,11.62892578125,-0.03458966734409332,0.060357730329036706,-0.001142155772447586
1733359657404891600,11.6388916015625,-0.06858896757960319,0.03465980997085571,0.007696984243392944
1733359657414857700,11.648857666015624,-0.05279050994515419,0.018315408891439438,0.016034019955992698
1733359657424822800,11.65882275390625,-0.024884265887737272,-0.002203647524118423,0.030716040781140326
1733359657434788600,11.66878857421875,-0.013145897299051284,-0.0582101969063282,0.005569909086823463
1733359657444753700,11.678753662109376,-0.008581950384378433,-0.08811199869513511,0.01564706646502018
1733359657454719700,11.6887197265625,-0.003496609944105148,-0.12584288667440413,0.055364159825444216
1733359657464685600,11.698685546875,0.013971242207288742,-0.14337854336500166,0.07287000589966773
1733359657474651000,11.70865087890625,0.014726444488763809,-0.13316285429894922,0.07520458632707595
1733359657484616700,11.71861669921875,-0.00019289222359657285,-0.10827741936743258,0.05376256984770297
1733359657494582500,11.72858251953125,0.010522563058137892,-0.08597264857888222,0.03277121974527836
1733359657504547800,11.7385478515625,0.008075754427909851,-0.02992985883951187,0.03316051132380962
1733359657514513700,11.748513671875,-0.020562311035394666,0.0004313771545886993,0.026151509344577786
1733359657524478700,11.758478759765625,-0.03766834413707256,0.028886487266421318,0.01833352907001972
1733359657534444800,11.76844482421875,-0.029393267744779586,0.03941781815290451,-0.01664133819937706
1733359657544410600,11.77841064453125,-0.02576046420037746,0.046340895414352413,-0.05770516999363899
1733359657554375700,11.788375732421875,-0.01640636039972305,0.06004501111805439,-0.11189385629892348
1733359657564341800,11.798341796875,-0.000013444003462791442,0.07592413277328014,-0.14998597880601883
1733359657574306800,11.808306884765624,0.03491056986153126,0.06244681156277656,-0.11187924325168132
1733359657584273000,11.81827294921875,0.050287002691626545,0.06957914766073227,-0.06601707126498221
1733359657594238700,11.82823876953125,0.02357201424539089,0.04339548961222171,0.008651508489251137
1733359657604203800,11.838203857421876,0.007679448586702347,0.027491818037629127,0.06600538082718849
1733359657614169900,11.848169921875,-0.004115618625283241,-0.016899112352728844,0.07140344047844409
1733359657624135700,11.8581357421875,-0.043189153385162354,-0.06779577137529849,0.06532791995704174
1733359657634100700,11.868100830078125,-0.022351532539725303,-0.10491291137039661,0.02121229937672615
1733359657644066800,11.87806689453125,0.0011117606341838836,-0.1409416716068983,-0.018527590337395667
1733359657654032600,11.88803271484375,0.01198971300125122,-0.17257891888618468,-0.043164603465795516
1733359657663997700,11.897997802734375,0.02831774746775627,-0.19668869327008723,-0.023300796088576315
1733359657673963800,11.9079638671875,0.03530161500573158,-0.19713351442813873,0.0022486557096242903
1733359657683928800,11.9179287109375,0.01884673928916454,-0.16478607305288315,0.011933014377951622
1733359657693894700,11.927894775390625,-0.011935936987400054,-0.15213877292573452,-0.003958966758847236
1733359657703860700,11.93786083984375,-0.023048867154121397,-0.10995324362516402,-0.014388006314635276
1733359657713825800,11.94782568359375,-0.04910626847445965,-0.0775251382291317,-0.0030009353816509246
1733359657723792000,11.9577919921875,-0.0492518144249916,-0.020689736807346343,0.00969137293100357
1733359657733757700,11.9677578125,-0.03462356961369514,0.006582885521650314,0.014163549908995628
1733359657743722800,11.97772265625,-0.019068273085355757,0.0077519293010234825,0.004202127864956855
1733359657753688800,11.987688720703124,0.005940495964884758,0.01113046582341194,-0.01932838532626629
1733359657763653600,11.997653564453126,-0.005322656327486038,0.02175824282169342,-0.020181202763319014
1733359657773619700,12.00761962890625,-0.005808978539705276,0.050499184137582774,0.0013245266020298003
1733359657783585800,12.017585693359376,-0.0014168810606002807,0.07369418176412582,0.010976152044534683
1733359657793550800,12.02755078125,-0.03256839064955711,0.07878361385762692,-0.008479074531793593
1733359657803516700,12.0375166015625,-0.036702129453420634,0.07396481539905071,-0.02694996624588966
1733359657813482800,12.047482666015625,-0.023545710760354995,0.029109190106391906,-0.04168342499732971
