time,seconds_elapsed,z,y,x
1733703496122424600,0.017424560546875,0.07293196521997451,-0.004387768363859504,0.08370236555933952
1733703496132390400,0.027390380859375,0.08497896136641502,-0.0023378683630377053,0.08068623260855674
1733703496142357500,0.037357421875,0.04398293411135673,-0.014723649743478744,0.06121580846309661
1733703496152323600,0.047323486328125,0.014738719448447226,-0.01401835101833567,0.03640519233345985
1733703496162289700,0.05728955078125,0.017743746483325957,-0.020132541316002606,0.031094226443767546
1733703496172256500,0.067256591796875,-0.006475333493947982,-0.04024113550083711,0.01564998907446861
1733703496182222600,0.07722265625,-0.03847439982295036,-0.04586368809035048,0.02813420759439468
1733703496192189700,0.087189697265625,-0.030471710631251335,-0.04703567274548113,0.022578327032923697
1733703496202155500,0.097155517578125,-0.001651274338364601,-0.02566431034952402,0.007235211950540542
1733703496212121600,0.10712158203125,-0.0004126724541187286,-0.022905860220547764,0.013324176475405692
1733703496222088400,0.11708837890625,0.007807458880543708,0.000670592737942934,0.022785832303762434
1733703496232054500,0.127054443359375,-0.011246201157569885,0.0026438473059795797,0.031821956196427345
1733703496242021600,0.137021728515625,-0.07844634472727775,-0.01888411215748638,0.015196400088071823
1733703496251987700,0.14698779296875,-0.10749766716659069,-0.03304300415767356,-0.021320435926318167
1733703496261953500,0.15695361328125,-0.1068780739635229,-0.02854297105837613,-0.03666062839925289
1733703496271920600,0.166920654296875,-0.10208207185864449,-0.03995280181244015,-0.013542787662148476
1733703496281886500,0.176886474609375,-0.056086628881096834,-0.04319046855941414,0.01366845986843109
1733703496291853600,0.186853515625,-0.019980711755156515,-0.03616871669646352,0.044164135897159576
1733703496301819600,0.196819580078125,0.024295652344822883,-0.03370776994302869,0.050749359506368635
1733703496311786800,0.206786865234375,0.044484453892707825,-0.020064133988600224,0.05906710599660873
1733703496321752600,0.216752685546875,0.04065934264659881,-0.026579014041647312,0.047882864159345624
1733703496331718700,0.22671875,0.04895312373936176,-0.0385941537450999,0.06370061101615429
1733703496341685500,0.236685546875,0.025232640933990476,-0.0422842039020732,0.07254676529467105
1733703496351651600,0.246651611328125,0.010472878697514534,-0.0395564777049236,0.07663666495680808
1733703496361618400,0.256618408203125,0.019569208344817162,-0.01919487687340006,0.07357260121107101
1733703496371584800,0.266584716796875,0.04333236124813557,-0.0027858861251734194,0.08063713276982307
1733703496381550600,0.276550537109375,0.0501104770809412,0.02006857270170003,0.10430968478024005
1733703496391517700,0.286517578125,0.03838379893004894,0.009841247996781021,0.0661404053837061
1733703496401483500,0.2964833984375,0.011299392649531365,-0.0062864233257248995,0.02339081245958805
1733703496411450600,0.30645068359375,0.01104863275885582,-0.02251158193964511,-0.006672317370772361
1733703496421417000,0.3164169921875,0.029761516535282133,-0.04423084445782006,0.017315876460075378
1733703496431383000,0.326383056640625,0.04781447509825229,-0.05459072776753455,0.045889059993624685
1733703496441350000,0.336349853515625,0.04792962591052055,-0.06273141892412677,0.06218494575619697
1733703496451316200,0.346316162109375,0.040326749691367146,-0.05474944372689351,0.06004384207427501
1733703496461283000,0.356282958984375,0.050370589321851726,-0.04604567532744258,0.0681441464215517
1733703496471249200,0.366249267578125,0.06513268964588642,-0.04041883015530184,0.08353051612377166
1733703496481216300,0.37621630859375,0.09339081588089465,-0.032849965803604574,0.09361585680842399
1733703496491182000,0.38618212890625,0.1121504614084959,-0.018067516811285166,0.09327741863429546
1733703496501148000,0.39614794921875,0.1173831013649702,-0.0071906238901428875,0.09532090716063976
1733703496511115000,0.406114990234375,0.10147826074659824,0.02008941456032917,0.07009878762066364
1733703496521081000,0.4160810546875,0.09163198951482772,0.03875719881970435,0.06491700106859206
1733703496531048000,0.4260478515625,0.08397650632560252,0.05754603390917182,0.06499941865503787
1733703496541014300,0.43601416015625,0.05508826549351215,0.04751348285768181,0.05299450808465481
1733703496550980000,0.44597998046875,0.023797639694809913,0.05396200140994042,0.049616556084156035
1733703496560947200,0.455947265625,0.013780103549361229,0.04334529379494488,0.05210486576855183
1733703496570913000,0.4659130859375,0.0027320553123950956,0.010610296140518038,0.05457447075247764
1733703496580880100,0.475880126953125,-0.026589900761842727,0.010860891634412109,0.033657354930043216
1733703496590846000,0.485845947265625,-0.05540040018260479,-0.015768756615929306,0.0346428588360548
1733703496600813000,0.49581298828125,-0.0580447772115469,-0.04173800472877919,0.007851882544159888
1733703496610779100,0.505779052734375,-0.07388882755339145,-0.021502368364483118,-0.022211831808090207
1733703496620745200,0.5157451171875,-0.05157178180515766,-0.028039734243974088,-0.023300796088576315
1733703496630712000,0.525712158203125,-0.037974049085378644,0.005414334932621568,-0.012691723790764808
1733703496640678100,0.53567822265625,-0.008939093258976936,0.015462375814188271,0.023487843093276024
1733703496650645000,0.54564501953125,0.041865795826911925,-0.010940057817846537,0.061164370536804194
1733703496660611000,0.555611083984375,0.029360534518957135,0.015441205161996185,0.08123977483808993
1733703496670577200,0.5655771484375,0.012189034965634345,-0.005938157877326012,0.09031155456602573
1733703496680544300,0.575544189453125,0.012910334977507591,-0.016864570762310176,0.09184709357023238
1733703496690510000,0.585510009765625,0.021612112349271774,-0.0314301073346287,0.09843933144211768
1733703496700477200,0.595477294921875,-0.0054512511432170865,-0.05893482138644904,0.05591185683608055
1733703496710443000,0.605443115234375,-0.04454582869112492,-0.061330831411201506,0.051394671672582624
1733703496720409000,0.6154091796875,0.15331541548967362,-0.020127280618995425,0.12020751113593578
1733703496730376000,0.6253759765625,0.1375730719566345,-0.0818457413746044,0.069786652931571
1733703496740342000,0.635342041015625,-0.032010172244906425,-0.021997878530155866,0.10308628046512604
1733703496750308900,0.645308837890625,0.7617471730738877,-0.2153105560285039,0.2524830612063408
1733703496760275200,0.655275146484375,0.5480570761203766,-0.23121101273270322,0.1382177996009588
1733703496770241000,0.665240966796875,-0.15952712961137294,0.3755991167327389,0.35725510280132294
1733703496780208000,0.6752080078125,0.17092063028514384,-0.06900200535990297,0.26331074469089505
1733703496790174000,0.685174072265625,0.1224286943167448,-0.10478444441882893,0.08067688025832176
1733703496800141000,0.69514111328125,-0.08429097910225392,-0.02007721266588196,-0.007756020954251289
1733703496810107000,0.70510693359375,-0.17038462371230123,-0.04723110398603603,-0.143769588509202
1733703496820074000,0.715073974609375,-0.20648177300989626,-0.01517181363608688,-0.2516670686483383
1733703496830040000,0.7250400390625,-0.21616730072200296,-0.009618855684064329,-0.2673848622620106
1733703496840006100,0.735006103515625,-0.18264964652359483,-0.03737602839330211,-0.20290566808879373
1733703496849973000,0.744972900390625,-0.16259820761978624,-0.017163078784849493,-0.08917465949058533
1733703496859939000,0.75493896484375,-0.07703530888557433,0.00782879392951727,-0.005269464835524559
1733703496869906200,0.76490625,0.03175532070100307,0.0166969773767516,0.04701134202182293
1733703496879872000,0.7748720703125,0.060869771504402155,0.0333018012243323,0.07248655954003333
1733703496889838000,0.784838134765625,0.041858197042346,0.042252475323248655,0.0968225438952446
1733703496899805200,0.79480517578125,0.02389057867527008,0.03929788156766444,0.07600128966271877
1733703496909771000,0.80477099609375,0.0047141690403223035,0.04090937188491225,0.05173427889049053
1733703496919738000,0.814738037109375,-0.003916881182789802,0.041320126376580446,0.015584522622823714
1733703496929704200,0.8247041015625,0.010298106652498244,0.022560700044687836,0.008936170649528502
1733703496939670000,0.834669921875,0.0025648820519447325,0.011565715435519814,0.025441315248608588
1733703496949637000,0.84463720703125,0.006474748972058296,0.0060742418797686696,0.044154783546924585
1733703496959603000,0.85460302734375,0.030177111598849296,-0.027274722954537717,0.06424304732978343
1733703496969570000,0.864570068359375,0.027877017962932585,-0.02227751745544374,0.076731942024827
1733703496979536100,0.8745361328125,0.032280221357941626,-0.035380982118565586,0.0790671069741249
1733703496989503200,0.884503173828125,0.043941433057188985,-0.05194746498344466,0.06968786873221397
1733703496999469000,0.894468994140625,0.03667582596838474,-0.048583815502934155,0.09029284986555576
1733703497009435100,0.90443505859375,0.0654389791160822,-0.057042322170734405,0.09242810832858085
1733703497019402000,0.914402099609375,0.0897948372155428,-0.0599910889737308,0.09167056795954703
1733703497029368000,0.9243681640625,0.07483867562413216,-0.030182207899075,0.06894318784475326
1733703497039335000,0.9343349609375,0.03774959267973899,-0.01683381029786542,0.025866262662410735
1733703497049301200,0.94430126953125,0.040460020682215686,-0.042082251589186485,0.025244915893673895
1733703497059267000,0.95426708984375,0.02938040826320648,-0.0396148750949651,0.04549333867430687
1733703497069234200,0.964234130859375,0.043756724140048026,-0.04215396511852741,0.08354805178046226
1733703497079200000,0.974199951171875,0.07087620173394679,-0.04063366021607071,0.10982464880943298
1733703497089167000,0.9841669921875,0.07888239805698394,-0.04811689211092889,0.11229133118391037
1733703497099133000,0.9941328125,0.0647936669498682,-0.04436985106971115,0.09199965378344059
1733703497109099300,1.004099365234375,0.03507248242497444,-0.03024588425243273,0.0552647911041975
1733703497119066000,1.014066162109375,-0.014034955093264578,-0.02153013315424323,0.01150865148603916
1733703497129032200,1.0240322265625,-0.05958557691276073,-0.01604839554121718,-0.016868132692575453
1733703497138999000,1.0339990234375,-0.0708674339056015,-0.015436528986878693,-0.023659108006954192
1733703497148965000,1.043965087890625,-0.06728256115615368,-0.016708065026346593,-0.005354220509529113
1733703497158931000,1.053930908203125,-0.0391261417299509,-0.028465156581811604,0.009174071058630943
1733703497168898000,1.06389794921875,-0.0016325696378946303,-0.004933784874062985,0.038670214655995364
1733703497178864000,1.073864013671875,0.01110474686026573,0.02082823196258396,0.06730652655363083
1733703497188831000,1.0838310546875,0.011788637471199036,0.013421864696219563,0.06247896026670932
1733703497198797000,1.093797119140625,0.016729016482830046,0.012911303091887384,0.062383683198690414
1733703497208764200,1.10376416015625,-0.0025561142235994336,0.008296886365301907,0.023119009780883788
1733703497218730000,1.11372998046875,-0.0049812955439090725,-0.011628916864842177,0.022981062614917752
1733703497228696000,1.123696044921875,0.03226034761369228,-0.00844131807098165,0.02307575516104698
1733703497238663000,1.133662841796875,0.02745557768046856,0.0000690649145282805,0.03493628882467747
1733703497248629000,1.14362890625,0.024295067822933194,0.008708115781005471,0.04549859937131404
1733703497258596000,1.15359619140625,0.0524848049968481,0.007954009478073567,0.04344225136339664
1733703497268562200,1.163562255859375,0.043162849900126456,-0.006527995262946933,0.046640755143761634
1733703497278528000,1.173528076171875,0.02699146730005741,-0.0038904315672814846,0.029165304207801817
1733703497288495000,1.1834951171875,0.041056233009696005,-0.009632190089672803,0.04255553165674209
1733703497298461000,1.1934609375,0.06177928756475448,-0.023627525558602064,0.061031099545955654
1733703497308428000,1.203427978515625,0.06860942584574223,0.0004515614260919392,0.09416063120961189
1733703497318394000,1.21339404296875,0.08579729201197624,-0.010531312620174139,0.09739654439091681
1733703497328360200,1.223360107421875,0.08160159388780594,-0.02100382599150762,0.09589666122198104
1733703497338327300,1.233327392578125,0.07616027961671352,-0.046368167013768107,0.08336042025387287
1733703497348293000,1.243293212890625,0.05024900876879692,-0.030908567678555845,0.06372399189174174
1733703497358260200,1.25326025390625,0.03416004375517368,-0.02308404806535691,0.047373161071538925
1733703497368226000,1.26322607421875,0.025752865415811538,-0.030203305486030875,0.027495909690856933
1733703497378192100,1.273192138671875,-0.010317395874857901,-0.03162400420522317,0.03548573940098285
1733703497388159000,1.283158935546875,-0.017682371684908865,-0.02033624719455838,0.03896422916650772
1733703497398125000,1.293125,-0.005796119058132172,-0.02091748114861548,0.03988192853331566
1733703497408092000,1.303091796875,0.004580313527584075,-0.015326967665180564,0.06145838504731655
1733703497418058200,1.313058349609375,0.01631108333170414,-0.020552958685159682,0.07794424042403697
1733703497428024800,1.32302490234375,0.013615852898359298,-0.017830200924072413,0.06953063234388827
1733703497437991000,1.332990966796875,0.021474749705195424,-0.019922862354386596,0.05124035789370537
1733703497447956700,1.342956787109375,0.008968319353461264,-0.019458587577193973,0.05367196895480156
1733703497457923800,1.352923828125,-0.005933481702208519,-0.03560489053493365,0.015711363872885704
1733703497467889700,1.3628896484375,-0.022490064227581024,-0.04050674590077251,0.0027437457501888274
1733703497477856800,1.372856689453125,-0.03784662331342697,-0.02617474408969283,-0.0020499182671308517
1733703497487822800,1.38282275390625,-0.0029909985095262527,-0.02880266317417845,0.02596621590554714
1733703497497789000,1.392788818359375,0.01527706410884857,-0.029133027639705687,0.057142275413870805
1733703497507755800,1.402755859375,0.01705167256593704,-0.016381244224775583,0.09167992030978202
1733703497517721900,1.412721923828125,0.0013771335721015929,0.007000307216122746,0.0973451064646244
1733703497527688700,1.422688720703125,0.01756488278508186,0.0018129677060991524,0.050794952213764184
1733703497537654800,1.43265478515625,0.007701660418510436,-0.007703413984179497,0.0008685995280742645
1733703497547620900,1.442620849609375,-0.02875263175368309,-0.0007603168480098247,0.008429390171170234
1733703497557588000,1.452587890625,-0.03141922061443329,-0.0035568887639790773,0.011471826606988906
1733703497567553800,1.4625537109375,-0.008131868529319762,-0.005780209102947265,0.01915712041258812
1733703497577521000,1.47252099609375,0.011634908214211464,-0.012733042181842028,0.003994622594118118
1733703497587486700,1.48248681640625,0.02855389431118965,-0.021239059519488363,0.0017985738545656202
1733703497597452800,1.492452880859375,0.03547580252885818,-0.02137041254788637,0.009909984117746353
1733703497607419600,1.502419677734375,0.0877554403424263,0.006718512866366654,0.053122518378496165
1733703497617386000,1.512385986328125,0.1200409223973751,0.01945822225101292,0.0985433763384819
1733703497627352800,1.522352783203125,0.11911094807088374,0.021596403323486446,0.12445581623017787
1733703497637319000,1.53231884765625,0.11756254958510398,0.02653619781322777,0.12398995228409766
1733703497647286000,1.5422861328125,0.08628127613663673,0.021467918105609714,0.1227419980496168
1733703497657251800,1.552251953125,0.055554129439592356,0.01857446168642491,0.07618424501419067
1733703497667217700,1.5622177734375,0.03164543058574199,-0.0003666961542330682,0.05365209521055221
1733703497677184800,1.572184814453125,-0.0016968670457601547,-0.013317582337837666,0.03052724021077156
1733703497687150600,1.582150634765625,-0.04781564414203167,-0.029573976340238003,0.004794248539209366
1733703497697117700,1.59211767578125,-0.03939911345243454,-0.046424427245650435,0.00046001872718334194
1733703497707084000,1.602083984375,-0.02047112562060356,-0.0510637226851657,0.013609423157572745
1733703497717049900,1.6120498046875,0.022871172499656676,-0.053736485558375714,0.03139174808561802
1733703497727017000,1.622016845703125,0.053176294392347334,-0.04734356965087354,0.06007540625631809
1733703497736982800,1.631982666015625,0.043126609542965884,-0.02161452350206673,0.0816506937265396
1733703497746950000,1.641949951171875,0.043920974791049956,-0.02153258083965629,0.08224398344457148
1733703497756915700,1.651915771484375,0.017020108383893964,-0.03820774824339896,0.059711833640933035
1733703497766882000,1.661882080078125,0.021308160966634748,-0.04284086967045441,0.051555415192246434
1733703497776849000,1.671848876953125,0.010575754550099372,-0.03506082851979881,0.028121348112821576
1733703497786815000,1.68181494140625,0.017288403931260108,-0.013485687180049716,0.0038812253475189206
1733703497796781800,1.69178173828125,0.03437105615735054,-0.018326533073652534,0.03243161252737045
1733703497806748000,1.701747802734375,0.01853577364385128,-0.006998900710325688,0.04152735765278339
1733703497816714800,1.71171484375,0.006864040550589561,-0.0049224780287593604,0.053930912151932714
1733703497826680800,1.721680908203125,0.016503391033411027,-0.014243318880628793,0.05222293919026851
1733703497836647000,1.73164697265625,-0.01168517709672451,-0.005597381615638733,0.048643911659717556
1733703497846613800,1.74161376953125,-0.02748947995007038,-0.015130586576554923,0.03685059801340103
1733703497856579800,1.751579833984375,-0.027829087167978286,-0.025359792711306364,0.010507950010895729
1733703497866547000,1.761546875,-0.02289279980957508,-0.019366634977422654,-0.007330489018559455
1733703497876512800,1.7715126953125,-0.008554477855563163,-0.025995953456684946,0.007517536023259163
1733703497886478800,1.781478759765625,0.006377718338370323,-0.010707491170987486,0.020519640937447545
1733703497896445700,1.79144580078125,0.020899580165743826,0.0007043854096904396,0.05443944619596004
1733703497906411800,1.801411865234375,0.03394084804654121,-0.0007555310750380158,0.05377776741683483
1733703497916378600,1.811378662109375,0.03234276520013809,0.00558318869350478,0.05200432800352573
1733703497926345000,1.821344970703125,0.023136545437574384,-0.004230586774460971,0.04691723399758339
1733703497936310800,1.831310791015625,0.00767886406481266,-0.0045612069683149455,0.030480478459596633
1733703497946278000,1.84127783203125,0.018411855003237724,-0.0034603878532536328,0.037730303457379336
1733703497956243700,1.85124365234375,0.05362579172551631,-0.0054332405624911186,0.07583586996793747
1733703497966210800,1.8612109375,0.0668979457527399,-0.014175788336060941,0.09779226571023464
1733703497976176600,1.8711767578125,0.06963818437159061,-0.02641719280974939,0.08506897773742675
1733703497986143000,1.88114306640625,0.08430091597437858,-0.02326700341682881,0.08186521326005458
1733703497996109800,1.89110986328125,0.07680442273914813,-0.031230091250501572,0.06251403158009051
1733703498006076000,1.901075927734375,0.03862345290482044,-0.02396733370590955,0.05060381355583667
1733703498016042800,1.911042724609375,0.03503799563348293,-0.02038255228800699,0.05494038145542145
1733703498026008800,1.9210087890625,0.027122400203347205,-0.005833619790617376,0.05079553673565387
1733703498035976000,1.930975830078125,0.01874970865547657,-0.008443820555321871,0.03498948031663895
1733703498045941800,1.940941650390625,0.017800445106625557,-0.009983378147520124,0.04111877685189247
1733703498055907800,1.950907958984375,0.03542787173390388,-0.025269155285786837,0.036304070046544075
1733703498065874700,1.960874755859375,0.037027708145976064,-0.0024641250912100076,0.06367547657489776
1733703498075840800,1.9708408203125,0.04379471806287765,0.000836286427360028,0.0583756166011095
1733703498085807900,1.980807861328125,0.026550737795233724,0.0013657901941798627,0.05262158311903476
1733703498095774000,1.99077392578125,0.0021779285609722135,-0.0036201267259195445,0.019996493846178055
1733703498105739800,2.00073974609375,-0.012708090403676032,0.0024733678435906767,0.008034253373742103
1733703498115707000,2.010706787109375,-0.03417816393375397,-0.007592975879646837,0.007941314393281936
1733703498125672700,2.020672607421875,-0.028332360514998434,-0.010181494535505771,0.035571664118766784
1733703498135639800,2.030639892578125,0.0013058219015598296,-0.007280348000209778,0.044129064583778375
1733703498145606000,2.04060595703125,-0.0018090952485799788,0.007719342205673455,0.03096855423748493
1733703498155572000,2.050572021484375,0.000180032742023468,0.02386540770139545,0.026962825727462766
1733703498165538800,2.060538818359375,-0.005585106655955315,-0.0065520702582784,0.016600421667098998
1733703498175505000,2.0705048828125,-0.005675123026967048,-0.011581661923322826,0.012376666492223739
1733703498185471700,2.0804716796875,0.010175357055664061,-0.011881448587495833,0.02346446221768856
1733703498195437800,2.090437744140625,-0.0015203414350748062,-0.004926113024260849,0.03605038754642009
1733703498205404700,2.10040478515625,0.052631519991159434,-0.021188827169593423,0.0565630142211914
1733703498215371000,2.11037109375,0.06277472834289073,-0.024807510857097804,0.0827753138422966
1733703498225336800,2.1203369140625,0.06558101793527603,-0.019007975999172776,0.11184008028507232
1733703498235304000,2.130303955078125,0.058227148041129106,-0.013867087713070212,0.11156827760636806
1733703498245269800,2.140269775390625,0.052110126465559,-0.03501180174630135,0.059300914752483364
1733703498255236900,2.15023681640625,0.03922551045119762,-0.024330376598332076,0.03744914842844009
1733703498265202700,2.16020263671875,0.012384265276789664,-0.028835451198928056,0.035841128709912295
1733703498275168800,2.170168701171875,0.021610358783602714,-0.04241245165793225,0.04047463372945785
1733703498285136000,2.180135986328125,0.01730886219739914,-0.047656215796619654,0.05926642796099186
1733703498295102000,2.19010205078125,0.041214638441801066,-0.05184002255359664,0.06405015510618686
1733703498305068800,2.20006884765625,0.061573535859584805,-0.05615812321472913,0.05425123014748096
1733703498315035000,2.210034912109375,0.06534487109184264,-0.03261120687797665,0.03631985213756561
1733703498325000700,2.220000732421875,0.05653437264859676,-0.028754275721497833,0.04428805453777313
1733703498334967800,2.2299677734375,0.07103226907849311,-0.029216869998257605,0.0523848517537117
1733703498344933600,2.23993359375,0.053225394231081004,0.0008723075888119637,0.07778232786059379
1733703498354900700,2.249900634765625,0.04674129290878772,-0.009745678667817264,0.10530746364593505
1733703498364866800,2.25986669921875,0.04435644359886646,0.009507522530388087,0.08834405388534068
1733703498374834000,2.269833984375,0.03669219258129597,0.013647417080402374,0.06660977646112441
1733703498384799700,2.2797998046875,0.005229132825136184,0.014340148584917186,0.033842648369073865
1733703498394765800,2.289765869140625,-0.015533084696531295,0.013209025663137435,-0.0012274959683418274
1733703498404733000,2.29973291015625,-0.0486246224373579,0.024846710356324908,-0.015021043521165846
1733703498414698800,2.30969873046875,-0.0516875171393156,0.021352274102997032,-0.019969021317362785
1733703498424665900,2.319665771484375,-0.04219838878214359,0.018367102546058594,-0.004623568147420883
1733703498434632000,2.3296318359375,-0.015733575704693793,0.0005402443565428257,0.02727379137277603
1733703498444598000,2.339597900390625,0.011154431220889091,0.0033503150749020277,0.0365425549775362
1733703498454565000,2.349565185546875,0.02607961315214634,0.014544055392872542,0.049840427967906
1733703498464531000,2.359531005859375,0.025468203255534172,0.003554842937365174,0.041218730095028876
1733703498474498000,2.369498046875,0.011811433824896812,-0.006101714408583939,0.01963935097157955
1733703498484463900,2.3794638671875,-0.004335983377695083,-0.02326369721489027,0.009549918633699417
1733703498494430000,2.389429931640625,-0.010844634619355201,-0.027540808278508484,0.027105449068546294
1733703498504396800,2.399396728515625,0.01790273643732071,-0.025537268170062452,0.039704818400740624
1733703498514363100,2.409363037109375,0.04274725483655929,-0.019842782855499536,0.04138648787736893
1733703498524330000,2.419330078125,0.07742284689843654,-0.008671016907319426,0.054233694490790366
1733703498534296000,2.429296142578125,0.09383096086382865,-0.021939134080242364,0.08984744418561458
1733703498544263000,2.439262939453125,0.11109247678816318,-0.016269308282900602,0.12490122191011906
1733703498554229000,2.44922900390625,0.09644961892962456,-0.003171688838675618,0.14911270310282707
1733703498564194800,2.45919482421875,0.0876461347490549,-0.015416015921812503,0.1242453883498907
1733703498574162000,2.469161865234375,0.06399287196099758,-0.03428312214557081,0.07067629524767398
1733703498584128000,2.4791279296875,0.03397299675047397,-0.0559301048788242,0.03238543529808521
1733703498594095000,2.48909521484375,0.014313187512755393,-0.04719955807030201,0.025351298877596854
1733703498604061000,2.49906103515625,-0.017281974190473556,-0.040069651391450314,0.006131050100922584
1733703498614027000,2.509027099609375,-0.0014104513198137283,-0.039263540906645356,0.03413198670446872
1733703498623994000,2.518994140625,0.0073024319678544995,-0.04381996210198849,0.051047465670108795
1733703498633960000,2.5289599609375,0.029121465066075325,-0.016225323010701686,0.044269934359192846
1733703498643927000,2.538927001953125,0.000768061763048172,-0.007605561366584151,0.04345452632308006
1733703498653893000,2.54889306640625,-0.006222235515713691,-0.014650858501903712,0.047346857586503026
1733703498663859000,2.55885888671875,-0.015650573596358297,-0.0008626629776321351,0.029517186385393142
1733703498673826000,2.568825927734375,-0.02994330284297466,-0.006335760626476257,0.023997546181082723
1733703498683792000,2.5787919921875,-0.04176818067133426,-0.009693163029290736,0.01492810454070568
1733703498693759000,2.588759033203125,-0.01676642588376999,-0.02259169797115028,0.011924831071496009
1733703498703725000,2.59872509765625,-0.014232523491978644,-0.013957268480863422,0.02768938643634319
1733703498713692000,2.60869189453125,0.017653730112314223,-0.01655365991592407,0.02758183440864086
1733703498723658000,2.618657958984375,0.035009938582777976,-0.02666702111866325,0.04144961624145507
1733703498733624000,2.6286240234375,0.0363987625926733,-0.010811444735806435,0.05159516268074512
1733703498743591200,2.638591064453125,0.03865735517442226,-0.006603215923625975,0.03378185809254646
1733703498753557000,2.648556884765625,0.039354689788818356,-0.005610405493993312,0.057059857827425
1733703498763524000,2.658524169921875,0.053176878914237016,0.014951960340328514,0.06500643291771412
1733703498773490000,2.668489990234375,0.08700959041118621,0.005512187550216913,0.05258475823998451
1733703498783456000,2.6784560546875,0.06735270378291607,0.013826865300536156,0.07432546540498733
1733703498793422800,2.6884228515625,0.07401333071589469,0.019489055780693886,0.07388298233449458
1733703498803389200,2.69838916015625,0.05041618202924728,0.005582001383416355,0.05230886390805244
1733703498813356000,2.70835595703125,0.023685411491990088,0.012599058804940432,0.04045008381009101
1733703498823322000,2.718322021484375,0.0011246201157569884,0.001397683169785887,0.018521160596609115
1733703498833288000,2.728287841796875,0.0003951367974281311,0.005884436662402004,0.032306524842977524
1733703498843255000,2.738255126953125,0.012266191855072975,-0.006177519591152668,0.043272155493497846
1733703498853220900,2.748220947265625,0.04112812920212745,-0.01989654060304165,0.04605272612273693
1733703498863188000,2.75818798828125,0.03526245203912258,-0.007847078504879028,0.04460895705521106
1733703498873154000,2.768154052734375,0.046700376376509665,-0.004300473672896623,0.03941606458723545
1733703498883121000,2.778120849609375,0.04625497069656849,-0.0007554032108746468,0.048483752661943436
1733703498893087000,2.7880869140625,0.019082886132597923,-0.008467110099364072,0.04748831188380718
1733703498903053000,2.798052978515625,0.004590834921598434,-0.015637805446330456,0.06262567526102066
1733703498913020000,2.80802001953125,0.009940379256010054,-0.029507541774213313,0.042678281253576276
1733703498922986000,2.817986083984375,-0.0027852468043565747,-0.01872939651980996,0.02819792048037052
1733703498932952800,2.827952880859375,0.02022445738315582,-0.03127045979350805,0.03623217385411262
1733703498942919000,2.8379189453125,0.04239069648385048,-0.02959419714435935,0.04359481157660484
1733703498952885000,2.847885009765625,0.024091069683432578,-0.022787110945396125,0.056338557815551756
1733703498962852000,2.85785205078125,0.010226210460066795,-0.004129957677889615,0.04368424342572689
1733703498972818000,2.86781787109375,0.0017044658303260803,-0.006358282985538244,0.04911562082469463
1733703498982785000,2.877784912109375,-0.0034708909809589386,-0.0289565933605656,0.06962006419301033
1733703498992750800,2.887750732421875,0.015270049846172333,-0.010202902649715542,0.06578618511855602
1733703499002717000,2.897717041015625,0.00907177972793579,-0.007631755253765732,0.06097556996643543
1733703499012684000,2.90768408203125,-0.029910569617152213,-0.01581219389885664,0.017861819905042646
1733703499022650000,2.917650146484375,-0.027749007669091223,-0.0159759696258232,0.009821721312403678
1733703499032617200,2.9276171875,-0.024787819775938986,-0.02242605908066034,0.027538579788804054
1733703499042583000,2.9375830078125,-0.016838906598091126,-0.024148005768749863,0.03988952731788158
1733703499052548900,2.947548828125,-0.0022609306693077086,-0.024055815706960856,0.04487900616824626
1733703499062516000,2.957515869140625,0.03312310192286968,-0.02243402319140732,0.030161914029717445
1733703499072482000,2.96748193359375,0.04051788834929466,-0.03966333561288193,0.02384440144598484
1733703499082449000,2.977448974609375,0.04790215338170528,-0.032940110038779676,0.03450432714819908
1733703499092415000,2.9874150390625,0.0576741903334856,-0.029385614161286502,0.04602525359392166
1733703499102381800,2.9973818359375,0.07017652903199195,-0.014342961596511303,0.06371463954150676
1733703499112348200,3.00734814453125,0.0663578475266695,-0.0024707009624689814,0.08719605289399623
1733703499122314000,3.01731396484375,0.06667933456599712,0.015339900211989879,0.07529284913241863
1733703499132281000,3.027281005859375,0.0803922180980444,0.034649982696585355,0.07879471977353096
1733703499142247000,3.037246826171875,0.0749848060965538,0.035107900798227634,0.05932663371562957
1733703499152214000,3.047214111328125,0.04984101248979568,0.03996049192855134,0.061037529286742206
1733703499162179800,3.057179931640625,0.03090542587339878,0.029614217019081113,0.05087152458131313
1733703499172146200,3.067146240234375,0.0320721315652132,0.023626520911604165,0.028489596903324126
1733703499182113000,3.077113037109375,0.018112579795718193,0.010523056248482316,0.03448269983828067
1733703499192079000,3.0870791015625,0.016909049224853513,0.0021630232527852056,0.03326572526395321
1733703499202046000,3.0970458984375,-0.008564999249577522,-0.009194328395370394,0.023033669584989546
1733703499212012000,3.107011962890625,-0.025122166296839714,-0.03170055830646306,0.017824995025992392
1733703499221977900,3.116977783203125,-0.025362989315390584,-0.03479037754796445,0.010813070437312125
1733703499231945000,3.126945068359375,-0.011384148323535919,-0.02897009216295555,0.023157003703713416
1733703499241911000,3.1369111328125,-0.0054775546282529826,-0.025687910420820116,0.028066987577080725
1733703499251878100,3.146878173828125,0.01712006162703037,-0.04238068654648959,0.04948913031220436
1733703499261844000,3.156843994140625,0.04855564885437488,-0.03706544634047895,0.05989245090484619
1733703499271811000,3.16681103515625,0.07504033567607403,-0.02443546267431229,0.07838964610397815
1733703499281777000,3.17677685546875,0.06574351502060889,-0.004583711061067879,0.0710761082202196
1733703499291743000,3.186742919921875,0.04312719406485557,-0.019046463112346826,0.05000818575024604
1733703499301709800,3.196709716796875,0.042512861558794975,-0.02276831491338089,0.06106792442500591
1733703499311676000,3.206676025390625,0.03353109820187092,-0.015432528665196149,0.07152151390016079
1733703499321642800,3.216642822265625,0.03504910154938698,-0.006192223969940095,0.07561258260607719
1733703499331609000,3.226609130859375,0.03345744844377041,-0.01071993052745238,0.07469020706415176
1733703499341575000,3.236574951171875,0.016477672070264817,-0.013626209895592182,0.025914193457365033
1733703499351542000,3.2465419921875,0.0025999533653259274,0.001949088241159916,0.015118658676743507
1733703499361507800,3.2565078125,-0.008421206864714622,0.01019977911086753,0.00995499230325222
1733703499371475000,3.266474853515625,-0.005440729749202728,0.008821896620094775,0.01888999390900135
1733703499381440800,3.276440673828125,-0.01969721863865852,0.02810205889046192,0.014119710767269134
1733703499391407900,3.286407958984375,-0.02380114682614803,0.0016288798434659839,0.021276012262701986
1733703499401374200,3.296374267578125,-0.0053641573816537854,-0.0035817674769088623,0.020879706421494483
1733703499411340000,3.306340087890625,-0.019348843592405317,-0.006548380463849752,0.0375491016715765
1733703499421306600,3.316306640625,-0.009835749837756156,-0.003670066814869642,0.04074468284249305
1733703499431272700,3.326272705078125,0.004790156885981559,-0.02223734984183684,0.013348141872882842
1733703499441239600,3.336239501953125,0.0031359599381685253,-0.016391619488317518,0.03795885151624679
1733703499451205600,3.34620556640625,0.007443301743268967,-0.01973210728894919,0.047727381336688995
1733703499461171700,3.356171630859375,0.019445874226093292,-0.012625526686757801,0.03526420560479164
1733703499471138800,3.366138916015625,0.041076691275835034,-0.024431772879883646,0.038465631994605065
1733703499481104600,3.376104736328125,0.0506681109637022,-0.02306030186358839,0.06340951911509037
1733703499491071700,3.38607177734375,0.062083238947391504,-0.02026725534526631,0.08100947321355342
1733703499501037600,3.39603759765625,0.08145604793727397,-0.034008195928018535,0.07855155866742133
1733703499511003600,3.406003662109375,0.08004968827068805,-0.03709209688538685,0.09120645757913588
1733703499520970500,3.415970458984375,0.07325345225930213,-0.03300910188807175,0.08143091349601746
1733703499530936800,3.425936767578125,0.07197510288655758,-0.028569786000065503,0.06379997973740101
1733703499540903700,3.435903564453125,0.060088265737891194,-0.024598032824881374,0.07659165677130222
1733703499550869800,3.445869873046875,0.03804302266836166,-0.019578505896124986,0.07012567562758922
1733703499560835600,3.455835693359375,0.04738251342177391,-0.006564747076760977,0.07067395716011524
1733703499570802700,3.465802734375,0.06533025804460048,-0.0135058166526258,0.0745662884235382
1733703499580768500,3.4757685546875,0.06075052903890609,-0.014846271476149558,0.04225158027410507
1733703499590735600,3.485735595703125,0.03218085263669491,-0.005934395017661154,0.039899464190006256
1733703499600701700,3.49570166015625,0.01281798051893711,-0.00006897358298301697,0.039891865405440326
1733703499610668500,3.50566845703125,0.0024620061993598937,-0.004022040324006229,0.039517771396040915
1733703499620635000,3.515634765625,-0.013621113595366477,0.006284761091601103,0.04525485374331474
1733703499630600700,3.5256005859375,-0.022137013006210324,0.005909534571040422,0.03521627480983734
1733703499640567800,3.53556787109375,-0.01255786827802658,0.014789737249631434,0.023473814567923544
1733703499650533600,3.54553369140625,-0.03780044608414173,0.01082930918605998,-0.00018120178580284117
1733703499660500700,3.555500732421875,-0.04853928224146366,0.010751403377950192,-0.01237315936088562
1733703499670466600,3.565466552734375,-0.03876782981157303,0.013875161421671509,-0.01340834762752056
1733703499680433000,3.575432861328125,-0.030524317601323125,0.02143516661347821,0.0020195231288671492
1733703499690399700,3.585399658203125,-0.017868834167718887,0.0024527451806701716,0.015002923342585562
1733703499700365800,3.59536572265625,0.01280453651547432,0.002260839337762445,0.038408348849415776
1733703499710332700,3.605332763671875,0.030204584127664563,-0.00015358312651515005,0.06705810475051403
1733703499720298800,3.615298828125,0.034569793599843975,-0.008515132225863635,0.07521393867731094
1733703499730264600,3.6252646484375,0.03498538866341114,-0.018012882280908523,0.06940203752815723
1733703499740231700,3.635231689453125,0.052525137007236475,-0.020125399189163,0.05108370602726936
1733703499750197800,3.64519775390625,0.06581541121304035,-0.036534755263570695,0.049071781682968135
1733703499760164900,3.655164794921875,0.05664134015440941,-0.024148645089566705,0.07022738243639469
1733703499770130700,3.665130615234375,0.06905132439434528,-0.010364541218522936,0.07067045002877712
1733703499780097800,3.675097900390625,0.08319558508098125,-0.01991599422218278,0.07773498158752917
1733703499790063600,3.685063720703125,0.08793138143122195,-0.012357194606773555,0.10733400103747844
1733703499800029700,3.69502978515625,0.0767278503715992,-0.02496566056087613,0.11493921534419059
1733703499809996500,3.70499658203125,0.061035191199183464,0.004787398673314601,0.07416764449477195
1733703499819962600,3.714962646484375,0.04776829786896705,-0.01199234334975481,0.035821254965662956
1733703499829929500,3.724929443359375,-0.001980944684147835,-0.0290483998298645,0.016565350353717805
1733703499839895800,3.734895751953125,-0.03194061414003372,-0.023554898713808507,0.024227263283729553
1733703499849861600,3.744861572265625,-0.02926408840715885,-0.027174386118911206,0.0366775795340538
1733703499859828700,3.754828857421875,-0.02032908680140972,-0.03505081858243793,0.04506429960727691
1733703499869794600,3.764794677734375,0.01475683962702751,-0.030209114172309634,0.027745500537753105
1733703499879761700,3.77476171875,-0.005984919628500938,-0.03823089165696874,0.0037602293163537977
1733703499889727500,3.7847275390625,-0.004160042288899422,-0.039362434703856704,0.008673720321059227
1733703499899693800,3.79469384765625,-0.009715922850370406,-0.023783538104221222,0.0072808046579360955
1733703499909661000,3.804660888671875,0.002611643803119659,-0.023484573423955588,0.04020049296319485
1733703499919626800,3.814626708984375,0.016353168907761572,-0.017614311417378483,0.061542556199431414
1733703499929593900,3.82459375,0.03731646195948124,0.006631437371112406,0.07461538826227188
1733703499939559700,3.8345595703125,0.03201601746380329,0.009858217397890985,0.06448620843589306
1733703499949526800,3.84452685546875,0.026623803031444546,0.01138794771581888,0.051615620946884155
1733703499959492600,3.85449267578125,0.036571196550130844,0.024541608196217566,0.04986848501861095
1733703499969459000,3.864458984375,0.022335165926814077,0.007759966477006673,0.05541033705472946
1733703499979425800,3.87442578125,0.009932780471444129,-0.01343682480333373,0.05219371309578418
1733703499989392000,3.884391845703125,0.027180267870426177,-0.024402875578962265,0.051505730831623076
1733703499999358700,3.894358642578125,0.02391279050707817,-0.016876699591521174,0.04678396300673485
1733703500009324800,3.90432470703125,0.03548047870397567,0.007693203117419034,0.05606909322440624
1733703500019290600,3.91429052734375,0.042342765688896174,0.012027944386098534,0.06934066272974014
1733703500029257700,3.9242578125,0.05654372499883174,0.005316591912880539,0.05198211617171764
1733703500039223600,3.9342236328125,0.07001052481532097,0.010955346718523652,0.044993572458624835
1733703500049190700,3.944190673828125,0.04061550350487232,0.0081500069742091,0.031164953592419622
1733703500059156700,3.95415673828125,0.040102877807617184,0.00033441958613693713,0.03698036187291145
1733703500069122800,3.964122802734375,0.05189443788826465,-0.014564604990556835,0.03841945476531982
1733703500079089700,3.974089599609375,0.03522913429141045,-0.008206084543000907,0.0452566073089838
1733703500089055700,3.9840556640625,0.02235562419295311,-0.005237115202192217,0.02305997307002544
1733703500099022600,3.994022705078125,0.014168810606002807,-0.027584172496199606,0.01739244882762432
1733703500108988700,4.00398876953125,-0.0023036007672548294,-0.03233902060678229,0.041134558942914005
1733703500118954800,4.013954833984375,0.005700257468223571,-0.02815526864873245,0.07110241170525551
1733703500128921900,4.023921875,0.009036123892664909,-0.041182416672632095,0.0661269613802433
1733703500138887700,4.0338876953125,0.011463058778643608,-0.03018849150938913,0.04444821353554725
1733703500148854800,4.043854736328125,0.034653964751958845,-0.03981112831942737,0.03685878131985664
1733703500158820600,4.053820556640625,0.03555705107152462,-0.03625458661532029,0.033116672182083126
1733703500168787700,4.06378759765625,0.025779168900847433,-0.008471512279845774,0.035360651716589926
1733703500178753500,4.07375341796875,0.017781740406155586,-0.012505425704736261,0.06325812794566155
1733703500188719900,4.083719970703125,0.014570377144217491,-0.016825407795701176,0.07703764697313309
1733703500198686700,4.093686767578125,0.008479074531793593,-0.004993954096082598,0.08515490245521068
1733703500208652800,4.10365283203125,0.019395605343580244,0.00014717165203765033,0.05888882682025432
1733703500218619600,4.11361962890625,0.027218261793255805,-0.0012115312142297625,0.044805940932035444
1733703500228585700,4.123585693359375,0.013589549413323401,-0.00714068380119279,0.023625790259242056
1733703500238551600,4.133551513671875,0.013154665127396582,-0.021421284218598156,0.02946633298099041
1733703500248518700,4.1435185546875,-0.00490472317636013,-0.018331866835895924,0.02910977462828159
1733703500258484500,4.153484375,-0.0005213935256004333,-0.0028842136668041345,0.019922844088077544
1733703500268451600,4.16345166015625,0.022259178081154823,0.004136624880693852,0.03158990100622177
1733703500278417700,4.173417724609375,0.029113866281509398,0.009204283533804118,0.020056115078926084
1733703500288383700,4.1833837890625,0.015517302605509757,-0.0008553929866291582,0.03771393684446812
1733703500298350800,4.193350830078125,0.0035766894429922103,0.010501666400581597,0.039245384195446965
1733703500308316700,4.203316650390625,0.006672901892662048,0.007654789069481194,0.02914893759489059
1733703500318283800,4.21328369140625,0.009570961421728134,0.009087689683120697,0.05100596461594104
1733703500328249600,4.22324951171875,0.056363692256808276,0.006487864181958139,0.06021335342228412
1733703500338215700,4.233215576171875,0.058821606802940365,0.014150215503387152,0.0693511841237545
1733703500348182800,4.243182861328125,0.05049684605002403,0.010201861470099539,0.0729547615736723
1733703500358148900,4.25314892578125,0.0651940644443035,0.015830807267781345,0.04859188921153545
1733703500368115700,4.26311572265625,0.037186698099970814,0.011044376708846539,0.025308044257760048
1733703500378081800,4.273081787109375,0.014600187760591505,0.015705957045406102,0.01571545552611351
1733703500388048600,4.283048583984375,0.015690321084856986,-0.012214425135217605,0.018367431339621543
1733703500398014700,4.2930146484375,0.01188683714866638,-0.02716570962211117,0.0318587810754776
1733703500407980800,4.302980712890625,0.035759295645356175,-0.02137952743610367,0.06450549765825271
1733703500417947600,4.31294775390625,0.06157996560037136,-0.002575659174285829,0.07904723322987556
1733703500427913700,4.322913818359375,0.08028408154845237,-0.004378562144096941,0.09495499645769595
1733703500437880800,4.332880859375,0.07979659029245376,-0.0027950192796997726,0.08949497748613357
1733703500447846700,4.3428466796875,0.05225216528475284,-0.0009318009573966264,0.058330608415603634
1733703500457812700,4.352812744140625,0.05041384394168853,-0.024057368343230336,0.05417290421426296
1733703500467779600,4.362779541015625,0.021096564042568204,-0.010370587366819381,0.05147007499635219
1733703500477745700,4.37274560546875,-0.023334113836288452,-0.012597213907726109,0.040782676765322684
1733703500487712500,4.38271240234375,0.0075707275152206415,-0.014159476522076874,0.030745266875624656
1733703500497678800,4.392678955078125,0.02028115600645542,-0.019481000338401645,0.024321955829858778
1733703500507645700,4.402645751953125,0.04227379210591316,-0.03144936002437025,0.02952069351673126
1733703500517611800,4.41261181640625,0.03911795842349529,-0.028680644229706374,0.01652443382143974
1733703500527577600,4.42257763671875,0.011646598652005196,-0.009606946050561964,0.023335282880067823
1733703500537544700,4.432544677734375,0.010494506007432937,-0.022169563568942247,0.02636661339998245
1733703500547510500,4.442510498046875,0.009664484924077987,-0.024367311075236646,0.048238253468275066
1733703500557477600,4.4524775390625,0.025589199286699293,-0.0024043577279895543,0.0592296030819416
1733703500567443700,4.462443603515625,0.015942250019311904,-0.018215674844011664,0.06995441071391105
1733703500577409800,4.472409912109375,-0.006673486414551734,-0.0007256839260458946,0.042084991535544396
1733703500587376600,4.482376708984375,-0.03741583068072796,0.011545859957579523,0.021277765828371046
1733703500597342700,4.4923427734375,-0.061007718670368194,-0.006350574603118002,0.006579378390312194
1733703500607309800,4.502309814453125,-0.06238192963302135,0.003787208654824644,0.015577508360147475
1733703500617275600,4.512275634765625,-0.04305997404754162,-0.008051862095668912,0.03647124330699444
1733703500627241700,4.52224169921875,-0.022883447459340095,-0.018271642814949154,0.019933365482091903
1733703500637208600,4.53220849609375,-0.008928571864962577,-0.015119663323741405,-0.013405425018072127
1733703500647174700,4.542174560546875,-0.018976503148674963,-0.004947393274307251,-0.028703531914949416
1733703500657141800,4.552141845703125,-0.006357844594120979,-0.02641542097777128,-0.034330139625072476
1733703500667107800,4.56210791015625,0.045404491347074506,-0.02475470295762643,0.010909516549110413
1733703500677073700,4.57207373046875,0.09964929175376891,0.016707736232783644,0.07399462601542472
1733703500687040800,4.582040771484375,0.14201719188392162,0.04092835058001801,0.11311550704836845
1733703500697006600,4.592006591796875,0.1903542295515537,0.0517293469870463,0.14860650714635848
1733703500706973700,4.6019736328125,0.17450258042514324,0.06618946868982166,0.14773147787749766
1733703500716939800,4.611939697265625,0.15197686036229133,0.04714041176158935,0.13758534691631794
1733703500726907000,4.621906982421875,0.10504559783935546,0.022253917384147642,0.09413725033402442
1733703500736872700,4.631872802734375,0.04017243591248989,0.02031891246726736,0.07556582085490227
1733703500746838800,4.6418388671875,0.015504443123936652,-0.015886957901809363,0.049292730957269666
1733703500756805600,4.6518056640625,-0.00537877042889595,-0.058405883875209834,0.028076924449205398
1733703500766771700,4.661771728515625,-0.02930851207077503,-0.04673144736820831,0.011935936987400054
1733703500776738600,4.671738525390625,-0.00583235941529274,-0.059167059239745134,0.008237666991353034
1733703500786705000,4.681704833984375,0.01981879919171333,-0.0519723619626835,0.010823591831326484
1733703500796670700,4.691670654296875,0.028869536131620407,-0.03966302508562803,0.03520867602527141
1733703500806637800,4.701637939453125,0.044267596271634096,-0.03971912092072889,0.054880175700783726
1733703500816603600,4.711603759765625,0.04830839609503746,-0.028001904717925935,0.06138941146433353
1733703500826570800,4.72157080078125,0.044486207458376885,-0.009971377182472497,0.05893734213709831
1733703500836536600,4.73153662109375,0.01315174251794815,-0.0069234608539380125,0.05627776753902435
1733703500846502700,4.741502685546875,-0.03177344087958336,-0.021190617267880588,0.03170563634037971
1733703500856469500,4.751469482421875,-0.04287935678362846,-0.019408793618716298,-0.00903261676132679
1733703500866435800,4.761435791015625,-0.04118190521597862,-0.015717665749508888,0.007874678897857666
1733703500876402700,4.771402587890625,-0.031919571352005,-0.018880057036876677,0.05304945314228535
1733703500886368800,4.78136865234375,-0.002657236510515213,-0.007435191502049565,0.06652209817767143
1733703500896334600,4.79133447265625,0.013417699977755547,0.007311565122380852,0.041540217134356495
1733703500906301700,4.8013017578125,-0.01872866586744785,0.0017868286178447305,0.01094224977493286
1733703500916267500,4.811267578125,-0.008535188633203506,0.012294340237323193,-0.01346504625082016
1733703500926234600,4.821234619140625,0.010703764843940734,-0.0065457501153461635,-0.01721416965126991
1733703500936200700,4.83120068359375,0.00329261180460453,0.014184318702388553,0.020354221242666243
1733703500946167800,4.841167724609375,-0.006821954974532127,0.02310991315897554,0.05937748712003231
1733703500956133600,4.851133544921875,0.013715221619606017,0.013813677025400102,0.09985971963405608
1733703500966099700,4.861099609375,0.02138473333418369,0.011451788465958087,0.10138765985369681
1733703500976066600,4.871066650390625,0.01917231798171997,0.012661456516664475,0.0509860908716917
1733703500986032600,4.88103271484375,0.0009305588483810425,0.040172271515708416,0.030711364606022834
1733703500995999700,4.890999755859375,-0.0429518374979496,0.029747488009929657,-0.0009527706801891326
1733703501005965800,4.9009658203125,-0.060631871095299716,0.003881060950737446,-0.01883037267625332
1733703501015931600,4.910931640625,-0.03592997603714466,-0.019715923339128492,-0.0448252301543951
1733703501025898800,4.920898681640625,-0.008019055804610252,-0.009093553168326616,-0.026938860329985617
1733703501035864600,4.930864501953125,0.05362988337874412,-0.008507643039152026,0.035033903980255125
1733703501045831700,4.940831787109375,0.1675672282040119,0.00030186902340501547,0.09606558804810046
1733703501055797800,4.9507978515625,0.19871990683674812,0.017815368681121616,0.14525310506522654
1733703501065763600,4.960763671875,0.18387831153571604,0.029024416166078298,0.17509587014317513
1733703501075730700,4.970730712890625,0.1553583194941282,0.0172478527251631,0.16549159097373484
1733703501085696800,4.98069677734375,0.13409049053788186,-0.01666053609019145,0.1335609137058258
1733703501095663900,4.990663818359375,0.10438917975723742,-0.02900242352997884,0.08921732958853244
1733703501105629700,5.000629638671875,0.07466098096966743,-0.027752733996137976,0.07298281862437725
1733703501115595800,5.010595703125,0.04536006768345833,-0.03826970756370574,0.06221066471934318
1733703501125562600,5.020562744140625,0.03213058375418186,-0.048947241987846786,0.04377484431862831
1733703501135528700,5.03052880859375,0.005049684605002403,-0.04723835571072996,0.0166308168053627
1733703501145495600,5.04049560546875,-0.00608896452486515,-0.03663313760412857,0.018871873730421065
1733703501155462000,5.0504619140625,-0.004603694403171539,-0.019987068430706856,0.020638298881053924
1733703501165428700,5.0604287109375,0.005261281529068946,-0.008348105095885693,0.03671908058822155
1733703501175394800,5.070394775390625,-0.005602057790756225,-0.004491082607861608,0.048911622685194014
1733703501185360600,5.080360595703125,-0.025557635104656216,-0.00405033483672887,0.04760813887119293
1733703501195327700,5.09032763671875,-0.07506605463922024,-0.01619357616556808,0.015077157622575759
1733703501205293600,5.10029345703125,-0.08105038974583148,-0.014893014961015432,-0.007722703206539154
1733703501215260700,5.1102607421875,-0.09500234273076057,-0.014084621187578887,-0.027072715842723846
1733703501225226800,5.120226806640625,-0.08098141616284847,0.0007699431928806006,-0.016053309178352355
1733703501235192800,5.13019287109375,-0.05748714332878589,-0.009116660049278288,-0.00442892235815525
1733703501245159700,5.14015966796875,-0.029397943919897078,0.0006279774389229715,0.0036678748577833173
1733703501255125800,5.150125732421875,-0.017449731972813604,0.014924707007221876,-0.010457096606492996
1733703501265092600,5.160092529296875,0.0035708442240953444,0.008309161324985324,0.010014029014110564
1733703501275058700,5.17005859375,0.010880290454626082,0.005048077169805765,0.025014029747247694
1733703501285024800,5.180024658203125,-0.013079261803627014,0.02183276936262846,0.0929880802989006
1733703501294991600,5.18999169921875,0.020984335839748382,-0.0018883892961777747,0.11549509566128253
1733703501304957700,5.199957763671875,0.05754501099586486,-0.0200150158835575,0.10012801518142223
1733703501314924800,5.2099248046875,0.08476853348612785,-0.01646833798633888,0.09268003726303577
1733703501324890600,5.219890625,0.0827922649770975,0.011200718048028647,0.05825929674506187
1733703501334856700,5.229856689453125,0.03736088562309742,0.03107354898191988,0.02003974846601486
1733703501344823600,5.239823486328125,-0.016153846943378448,0.021025325437262654,-0.008603577694296836
1733703501354789600,5.24978955078125,-0.02703238383233547,-0.0049044309154152865,-0.042337504991889
1733703501364756500,5.259756591796875,-0.005749941828846931,-0.004047814086079597,-0.039918168890476224
1733703501374722800,5.269722900390625,0.05202478626966476,-0.007817834144085645,0.008140051835775375
1733703501384690000,5.27968994140625,0.10777473054230212,-0.00783602738790214,0.08662555952966212
1733703501394655700,5.28965576171875,0.17294950576424598,-0.01691058359481394,0.15065291828215122
1733703501404621600,5.29962158203125,0.21189503023028372,0.005886226760689169,0.17996376844048498
1733703501414588700,5.309588623046875,0.18922025708556175,0.018425682599190623,0.18903321008086205
1733703501424554800,5.3195546875,0.16309563574790953,-0.01325050845099613,0.1514507906615734
1733703501434521900,5.32952197265625,0.11277473078668117,-0.027782179286330935,0.11066636033058166
1733703501444488000,5.339488037109375,0.060631871095299716,-0.025558968545217064,0.044671500897407526
1733703501454454000,5.3494541015625,-0.010023965886235237,-0.035914413141831754,0.023837971705198288
1733703501464420900,5.3594208984375,-0.02574409758746624,-0.03398357294341549,0.02299158400893211
1733703501474387000,5.369386962890625,-0.01704874995648861,-0.03796356422398239,0.0037187282621860504
1733703501484353800,5.379353759765625,0.01372165136039257,-0.018305124959442764,0.017812720066308973
1733703501494319900,5.38931982421875,0.006219897428154945,-0.014404208530765026,0.015075988578796386
1733703501504285700,5.39928564453125,0.01433598386645317,0.015368834045529365,0.021731939336657524
1733703501514252800,5.409252685546875,-0.018060557347536085,0.0009984729854390023,0.0269657483369112
1733703501524219000,5.419218994140625,-0.050047933238744735,-0.007346819098852575,0.022338673058152198
1733703501534186000,5.42918603515625,-0.07387479902803898,-0.01619290031213313,0.0058306058496236796
1733703501544151800,5.43915185546875,-0.08365151215493678,-0.04144665709938854,0.008773089042305946
1733703501554119000,5.449118896484375,-0.06609072102308274,-0.03859413547879085,-0.017197218516469
1733703501564084700,5.459084716796875,-0.05857026239037513,-0.035005956527404486,-0.0029150106638669965
1733703501574050800,5.46905078125,-0.040975568988919256,-0.005019070271030068,-0.012565467062592506
1733703501584017700,5.479017578125,-0.026073183411359786,0.010478979644738137,-0.010902502286434173
1733703501593984000,5.48898388671875,-0.00409691392481327,0.012598127223178743,0.005692074161767959
1733703501603950800,5.498950927734375,0.0678700056552887,-0.013613551343418656,0.02541851889491081
1733703501613917000,5.5089169921875,0.04789864625036716,0.04563725892333313,0.09457505722939967
1733703501623882800,5.5188828125,0.0414355877161026,0.05184405940789729,0.13433014451265335
1733703501633849900,5.528849853515625,0.07585340562462806,0.015227343215607106,0.12314239554405211
1733703501643815700,5.538815673828125,0.06086684889495372,-0.00692209088075906,0.08378536766767501
1733703501653782800,5.54878271484375,0.03161386640369892,-0.0002986906856298446,0.0546808537364006
1733703501663748900,5.558748779296875,0.002390110006928444,-0.0015409275653772054,0.022715105155110358
1733703501673715000,5.56871484375,-0.014894202271103859,-0.02033376297652721,-0.029086978274583813
1733703501683681800,5.578681884765625,-0.0354968453168869,-0.03657216466451064,-0.06147475166022777
1733703501693648000,5.58864794921875,-0.002147533422708511,-0.030946890394948422,-0.06843290023505687
1733703501703614700,5.59861474609375,0.05803016416430473,-0.009551617400441317,-0.006440262180566788
1733703501713580800,5.608580810546875,0.1044300962895155,0.0046035482726991175,0.05670563756227493
1733703501723546600,5.618546630859375,0.1304284608989954,-0.006046623220480978,0.11814005721211433
1733703501733513700,5.628513671875,0.16503858650922773,0.010863448917679487,0.1845160249173641
1733703501743479800,5.638479736328125,0.18650515290796757,0.008655928936041892,0.2043050134927034
1733703501753447000,5.648447021484375,0.14006898042559623,0.00509226337140426,0.18921908804178236
1733703501763412700,5.658412841796875,0.0933452231734991,-0.015825528304465115,0.15773440097570418
1733703501773379800,5.6683798828125,0.08323182543814182,-0.03817852214891463,0.085594462916255
1733703501783346000,5.678345947265625,0.04584171372056007,-0.03137362790703773,0.043622868627309797
1733703501793311700,5.688311767578125,0.01042377885878086,-0.03220264434339479,0.01899929950237274
1733703501803278800,5.69827880859375,0.0037590602725744247,-0.03581608560020104,0.005732406172156333
1733703501813245000,5.708244873046875,0.020673954716324806,-0.04819370194049552,0.0036368951976299283
1733703501823212000,5.7182119140625,0.0013227730363607406,-0.03359957859450951,0.006665303108096122
1733703501833177900,5.728177734375,-0.012009586745500563,-0.024291213631723076,0.0021469489008188246
1733703501843144000,5.73814404296875,-0.0417447997957468,-0.023180969101190566,0.005678630158305168
1733703501853110800,5.74811083984375,-0.0573515342503786,-0.020337142243701964,0.014801847812533377
1733703501863076900,5.758076904296875,-0.07025427044332028,-0.022055399137362836,0.005058452433347702
1733703501873043700,5.768043701171875,-0.07447334944307804,-0.01613450292209163,0.013551555490493774
1733703501883009800,5.778009765625,-0.08541676826179027,-0.021125717071816322,0.019934534525871277
1733703501892975900,5.787975830078125,-0.05225450337231159,-0.0005455963850952685,0.02538227853775024
1733703501902943000,5.79794287109375,-0.034817630881071086,0.020488551679439842,0.017056933262944222
1733703501912908800,5.80790869140625,-0.022309446963667868,0.014224102723505347,0.019787819531559944
1733703501922876000,5.8178759765625,-0.013445757028460502,0.016734185848291963,0.01546528015732765
1733703501932841700,5.827841796875,-0.018092706051468847,-0.00879120922088623,0.005977905365824699
1733703501942808800,5.837808837890625,-0.0089057755112648,-0.00866752804229036,-0.002217091527581215
1733703501952774700,5.847774658203125,0.0067763622671365735,-0.014596388368308543,-0.0030260698229074476
1733703501962741000,5.857740966796875,0.03133855659365654,-0.004583491865359246,0.005104045140743255
1733703501972707800,5.867707763671875,0.0729325497418642,-0.019291286452580242,0.042130584242939945
1733703501982674000,5.877673828125,0.07213759997189044,0.014061970964353531,0.09121113375425338
1733703501992640800,5.887640869140625,0.07552490432262421,0.030108448543120173,0.14499649995565414
1733703502002606800,5.89760693359375,0.11145195775032042,0.014440302757453172,0.1604869145542383
1733703502012572700,5.90757275390625,0.13181728490889072,0.007491707462258636,0.13064005782306193
1733703502022539800,5.917539794921875,0.10062310522198677,0.0011941051553934813,0.09043079703152179
1733703502032505900,5.927505859375,0.04978489838838577,0.005546089819818735,0.04317863199114799
1733703502042473000,5.937472900390625,0.003274491626024246,-0.01656120390156284,-0.0029150106638669965
1733703502052438800,5.947438720703125,-0.011273673686385153,-0.0425302693513222,-0.026572949627041816
1733703502062404900,5.95740478515625,-0.011861702707409858,-0.05295139959529042,-0.04836626376211643
1733703502072371700,5.967371826171875,0.026593992415070534,-0.04307022144692019,-0.012303601256012917
1733703502082337800,5.977337890625,0.09114216017127036,-0.0229030654752627,0.054441784283518785
1733703502092305000,5.987304931640625,0.1649795497983694,-0.0036590339642018077,0.12914952700436114
1733703502102270700,5.997270751953125,0.18160042973160742,0.03641750382576137,0.19781039077639578
1733703502112237800,6.00723779296875,0.16332710641622541,0.04972175175799057,0.20984160483181474
1733703502122204000,6.017203857421875,0.10350713622570037,0.03495380621505901,0.1550064373165369
1733703502132169700,6.027169677734375,0.026008301481604573,0.023048300898540763,0.09216507347822189
1733703502142136800,6.03713671875,-0.03887596636116505,-0.014620280700549482,0.02012918031513691
1733703502152102700,6.0471025390625,-0.11642506998777388,-0.04831533729247749,-0.03608370529413223
1733703502162069800,6.05706982421875,-0.13102642679214477,-0.06653453753413632,-0.0583452214628458
1733703502172035800,6.067035888671875,-0.126210550943017,-0.0775109635733068,-0.08656769186258316
1733703502182002000,6.077001953125,-0.0892366188108921,-0.07731385183231905,-0.08160568554103374
1733703502191969000,6.086968994140625,-0.02588204475343227,-0.06430849551511927,-0.07143617370426654
1733703502201934800,6.096934814453125,0.012450900772213934,-0.040592469689156856,-0.0036789807736873625
1733703502211902000,6.10690185546875,0.03151215959489345,-0.0237408680062741,0.045704351076483726
1733703502221867800,6.11686767578125,0.05015782335400581,0.0007650112894363701,0.08953414045274258
1733703502231833900,6.126833740234375,0.07617372362017631,0.006495408167596906,0.13094108659625053
1733703502241800700,6.13680078125,0.07227613165974617,0.003118807873968035,0.12818974206149578
1733703502251767000,6.14676708984375,0.048344636452198025,0.015763422853685916,0.10701719017326831
1733703502261734000,6.15673388671875,0.022215923461318014,0.021026037823315708,0.07593290060162544
1733703502271700000,6.166699951171875,0.02097965966463089,0.008993490327335894,0.04077157084941864
1733703502281665800,6.176665771484375,0.005128010538220405,0.008481558749824761,0.0145002345174551
1733703502291633000,6.1866328125,-0.010143792873620987,-0.00903491831626743,0.003544540739059448
1733703502301598700,6.1965986328125,-0.008059387814998627,-0.010730324057303368,-0.01495733063519001
1733703502311565800,6.20656591796875,0.0022878186762332916,-0.017317885754071175,-0.00485328525006771
1733703502321531600,6.21653173828125,0.03688976098001003,-0.01198140183063224,0.017162147203087806
1733703502331498800,6.226498779296875,-0.011226911935210228,0.03991000385032967,0.06918693347275257
1733703502341464800,6.23646484375,0.007572481080889701,0.012216818021703511,0.09589783026576042
1733703502351431000,6.246430908203125,0.03239595669209957,-0.00853730752505362,0.08252513847351074
1733703502361397800,6.256397705078125,0.007237550038099288,-0.0009444047106429934,0.012836100697517394
1733703502371363800,6.26636376953125,-0.042866497302055356,0.007403207194898277,-0.01583820512294769
1733703502381330700,6.27633056640625,-0.05012918178141117,-0.00764558284971863,-0.0627063392817974
1733703502391296800,6.286296875,-0.03283610167503357,0.020311350215319542,-0.05732055459022522
1733703502401262800,6.296262939453125,-0.01149170035123825,0.011255206447932868,-0.02611351542174816
1733703502411230000,6.30622998046875,0.048181554844975466,-0.004835621729213744,0.031308161455392836
1733703502421195800,6.31619580078125,0.09113573043048381,0.01352669504387304,0.11213351027369499
1733703502431163400,6.326163330078125,0.11493161655962467,0.022284202924557028,0.16093582736551762
1733703502441129200,6.336129150390625,0.13109189324378967,-0.005772190193273127,0.1600169589549303
1733703502451095300,6.34609521484375,0.10469254661798477,-0.02471603318136185,0.13371522748470305
1733703502461062400,6.3560625,0.08437924190759659,-0.051100657162070275,0.09484218373298645
1733703502471028200,6.3660283203125,0.0365600906342268,-0.05331181213920936,0.05861351701021194
1733703502480995300,6.375995361328125,0.009955576825141907,-0.04805727087818086,0.01423836871087551
1733703502490961400,6.38596142578125,0.028089783930778503,-0.06015196035755798,-0.022243395990133284
1733703502500928500,6.395928466796875,0.0502455016374588,-0.034439445218443866,0.0002028290957212448
1733703502510894300,6.405894287109375,0.04306348117887974,-0.024710498489718884,0.04026595941483974
1733703502520860400,6.4158603515625,0.04600537984967232,-0.03032673093630001,0.0643055911719799
1733703502530827300,6.4258271484375,0.035139702442288395,-0.021841610256209967,0.06623100627660751
1733703502540793300,6.43579345703125,0.014956746113300322,-0.01203872150843963,0.07352700850367545
1733703502550760200,6.44576025390625,0.031790392014384265,-0.013470891469717024,0.07056523608863353
1733703502560726500,6.4557265625,0.017736147698760033,-0.036840314081404354,0.07378419813513755
1733703502570692400,6.4656923828125,-0.013945523244142532,-0.012683723147399724,0.03418926984965801
1733703502580659500,6.475659423828125,-0.03321720994710922,-0.019229802056308833,0.01938976012468338
1733703502590625300,6.485625244140625,-0.04975391872823238,-0.02012797473873943,0.022568974682688713
1733703502600592400,6.49559228515625,-0.061924833515286444,-0.0077927179691381744,0.028516484910249707
1733703502610558200,6.50555810546875,-0.05005027132630348,0.00041369536742568016,0.03118891898989677
1733703502620524300,6.515524169921875,-0.040409751799702645,-0.011675623817089944,0.01798983019888401
1733703502630491100,6.5254912109375,-0.034762685823440546,0.0011034494635649024,-0.011904957327246665
1733703502640457500,6.53545751953125,0.003173369339108467,-0.014660101254284382,-0.004070025917887687
1733703502650424300,6.54542431640625,0.01340834762752056,-0.02086032586758956,0.05272153636217117
1733703502660390400,6.555390380859375,0.04034253178238868,-0.018421645744889973,0.02097615253329277
1733703502670356200,6.565356201171875,-0.022405893075466154,-0.010436747938208282,-0.011544307321310043
1733703502680323300,6.5753232421875,-0.029133155503869055,0.0151689092929475,-0.039053661015629765
1733703502690289200,6.5852890625,-0.04127601324021816,0.06281283186357468,0.05930149927437305
1733703502700256300,6.59525634765625,0.054931613627076145,0.01951316730864346,0.15783201613128184
1733703502710222300,6.605222412109375,0.1556032341659069,-0.028791228464711455,0.1556593482673168
1733703502720189400,6.615189453125,0.15815116508305072,-0.013024572474323213,0.11629764421582221
1733703502730155300,6.6251552734375,0.12064122637808322,0.012592610797844827,0.07881693160533905
1733703502740121300,6.635121337890625,0.09419453347921371,0.004405651080422103,0.052421676632761954
1733703502750088200,6.645088134765625,0.07602934671342372,-0.0022709223403595386,-0.005738251391053199
1733703502760054300,6.65505419921875,0.027384266009926793,-0.022173454292770473,-0.008268062129616737
1733703502770021400,6.665021484375,0.03818447696566581,-0.030025702163111418,0.0010948094993829727
1733703502779987500,6.674987548828125,0.10360416685938835,-0.03544831173373386,0.030043840608000753
1733703502789953300,6.684953369140625,0.14929039775729178,-0.025498616660106926,0.04400514594316482
1733703502799920400,6.69492041015625,0.14354337853789328,-0.0074212725745514034,0.08855623533129692
1733703502809886200,6.70488623046875,0.1261059215247631,-0.0021148732621222733,0.14429741177558897
1733703502819853300,6.714853271484375,0.1257359191685915,0.006203329885844141,0.1787345189064741
1733703502829819400,6.7248193359375,0.10708499471247196,-0.02031701277112588,0.16555588838160037
1733703502839785200,6.73478515625,0.05219488213956356,-0.004634089541435241,0.11024550457000731
1733703502849752300,6.74475244140625,-0.03368599650263786,0.0010017791873775423,0.0853758517295122
1733703502859718400,6.754718505859375,-0.09377601580619811,-0.013715020690206437,0.033733342775702474
1733703502869685500,6.764685546875,-0.13339198687970638,-0.005123370895721018,-0.013899930536746978
1733703502879651300,6.7746513671875,-0.14211246895194052,-0.0031283976862207055,-0.05030687643587589
1733703502889618400,6.784618408203125,-0.1368061792373657,-0.02639010387342423,-0.05491700057983398
1733703502899584300,6.794584228515625,-0.08590016786456108,-0.03939127720585093,-0.03864215760529041
1733703502909550300,6.80455029296875,-0.0717687666594982,-0.03597049071062356,0.00888356367945671
1733703502919517200,6.81451708984375,-0.058302551364898675,-0.05818294357322156,0.01556464887857437
1733703502929483500,6.8244833984375,-0.05272153636217117,-0.08184641722803936,-0.013078677281737327
1733703502939450400,6.834450439453125,-0.0447077412545681,-0.0698706596869044,-0.04193126227855682
1733703502949416400,6.84441650390625,-0.040742929276824,-0.07053739823363721,-0.047612815046310424
1733703502959382300,6.85438232421875,-0.032245734566450114,-0.05406772680673748,-0.030963293540477752
1733703502969349400,6.864349365234375,-0.0055716626524925225,-0.02452584437150508,0.005039747732877731
1733703502979315200,6.874315185546875,0.009860299757122992,-0.010278214641939848,0.038057051193714136
1733703502989282300,6.8842822265625,0.05061842660307884,0.011431037938874214,0.0989706618398428
1733703502999248400,6.894248291015625,0.07697510313093661,0.025137181202881036,0.10801672260463237
1733703503009214500,6.90421435546875,0.09949380893111229,0.025326785490848124,0.10828677171766757
1733703503019181300,6.914181396484375,0.10437164410054683,0.03701061088070273,0.11606032832860946
1733703503029147400,6.9241474609375,0.12147826172411441,0.030290691508539018,0.16086510021686554
1733703503039114200,6.9341142578125,0.12172551448345184,0.029570195214264093,0.18123451902866364
1733703503049080300,6.944080322265625,0.2000152073442936,-0.010952789435256271,0.18652794926166533
1733703503059047200,6.954047119140625,0.2052086843341589,-0.04206435060631483,0.10986439629793167
1733703503069013200,6.96401318359375,0.15612755030095576,-0.09989064449528232,-0.01884206311404705
1733703503078979300,6.973979248046875,0.032251579785346984,-0.008987352847494185,-0.06458265454769134
1733703503088946400,6.983946533203125,-0.07633738974928855,0.05378951265355572,-0.002233458140492439
1733703503098912300,6.993912353515625,-0.03363689666390419,0.013546952380612492,0.08010521785020827
1733703503108879400,7.00387939453125,0.0310918883562088,-0.014786686776019633,0.051527358141541475
1733703503118845200,7.01384521484375,0.06248071383237838,0.008039952462166548,0.043970074629783626
1733703503128811300,7.023811279296875,0.09740765030682086,-0.00715290396194905,0.052090837243199344
1733703503138778000,7.033778076171875,0.10681085394620894,0.015106164521351455,0.05396715250909328
1733703503148744400,7.043744384765625,0.04614566510319709,0.020190920439735055,0.0040390462577342984
1733703503158711600,7.053711669921875,0.02022153477370739,0.024421836007758973,-0.019724106645584105
1733703503168677400,7.063677490234375,0.047266778087615965,0.005474138828460127,0.029523616126179694
1733703503178643200,7.073643310546875,0.07889934919178486,0.0170659020206891,0.08137596843838692
1733703503188610300,7.0836103515625,0.10938275026082991,0.005785305403172969,0.13961422239542007
1733703503198576000,7.093576171875,0.13789806612730027,-0.013832564388960598,0.1530190628916025
1733703503208543200,7.103543212890625,0.16244623192846774,-0.024874858738575128,0.16952946818768977
1733703503218509300,7.11350927734375,0.14532149412631987,-0.05449661974329501,0.17788403955698012
1733703503228476200,7.12347607421875,0.12019172904491424,-0.06017135917777195,0.1621335127174854
1733703503238442500,7.1334423828125,0.10402852975130081,-0.062996280405391,0.1328676707446575
1733703503248408300,7.143408203125,0.06757832923233509,-0.0675196943802759,0.09592238018512725
1733703503258375400,7.15337548828125,0.009326631271839142,-0.06343536594239994,0.037784079471230504
1733703503268341200,7.16334130859375,-0.05040507611334324,-0.0552097912476398,-0.025729484540224074
1733703503278308400,7.173308349609375,-0.09991875634491443,-0.039321773899905384,-0.05005144037008285
1733703503288274200,7.183274169921875,-0.14225100063979626,-0.039894331357162444,-0.06783318077623844
1733703503298240500,7.193240478515625,-0.15002338820695876,-0.01698408722244203,-0.06537351266443729
1733703503308207400,7.203207275390625,-0.12780395761430263,-0.011018456816300749,-0.07344809804856776
1733703503318173400,7.21317333984375,-0.12329904741048812,-0.011011259890533982,-0.059766194176673886
1733703503328140300,7.223140380859375,-0.11342413460612297,0.004017948670778424,-0.03871405379772186
1733703503338106400,7.2331064453125,-0.10772972235679626,0.013244827628880738,-0.023877134671807288
1733703503348072200,7.243072265625,-0.08912789773941039,0.008004881148785352,0.007173837152123451
1733703503358039300,7.253039306640625,-0.07216273441314697,-0.009418017616029829,0.028761984103918073
1733703503368005400,7.26300537109375,-0.014161211821436882,0.01256448068190366,0.03185936559736729
1733703503377972500,7.272972412109375,-0.0009697218149900435,0.02195153690408915,0.03623685002923011
1733703503387938300,7.282938232421875,0.004414309310913086,0.020740170086640863,0.030056115567684172
1733703503397905400,7.292905517578125,0.007760697129368782,0.009516637418605386,0.02188333050608635
1733703503407871200,7.302871337890625,-0.0016477672070264815,0.01162732769595459,0.0017149872243404387
1733703503417837300,7.31283740234375,-0.030303368327021598,0.02346959505053237,-0.0029845687687397003
1733703503427804200,7.32280419921875,-0.02932254059612751,0.020008677474316207,-0.00819382784962654
1733703503437770200,7.332770263671875,-0.01711363188624382,0.005315002743992954,0.013521744874119758
1733703503447737300,7.3427373046875,0.014763269367814063,0.0010890373457223177,0.060679801890254015
1733703503457703400,7.352703369140625,0.08857377098798751,-0.014033292859140782,0.10457330415248871
1733703503467669200,7.362669189453125,0.13600246163904667,-0.02866736462302506,0.11218436367809771
1733703503477636400,7.37263623046875,0.10732581773102283,-0.04413536646040156,0.11148293741047381
1733703503487602200,7.382602294921875,0.08487199386060237,-0.040267420719563955,0.07323240947127342
1733703503497569300,7.3925693359375,0.06861293297708033,-0.047310726827196774,0.0173018479347229
1733703503507535000,7.40253515625,0.05567980164587497,-0.03807460511671379,-0.023126024043560026
1733703503517502200,7.412502197265625,0.07349661336541176,-0.054365796437859534,0.013714052575826644
1733703503527468500,7.422468505859375,0.10521160205602645,-0.0141113813303411,0.10268997462391853
1733703503537434400,7.432434326171875,0.1361708039432764,0.02467692501368001,0.20927403407692907
1733703503547401500,7.4424013671875,0.2300818443059921,-0.013505944516789168,0.30322014575302597
1733703503557367300,7.4523671875,0.29228491024076936,-0.04698708436340093,0.2847895860493183
1733703503567334400,7.46233447265625,0.2514063718855381,-0.029791254086419937,0.1794885521441698
1733703503577300200,7.47230029296875,0.16034604477882383,-0.015971476113796235,0.09625789574980735
1733703503587266600,7.4822666015625,0.01782207241654396,-0.019074337499961257,0.007515197935700416
1733703503597233400,7.4922333984375,-0.09312544294297695,-0.05724476767396554,-0.0352133522003889
1733703503607199500,7.502199462890625,-0.16883447166085241,-0.0712492180311121,-0.06242869138419628
1733703503617166300,7.512166259765625,-0.15781038882136345,-0.061497840274870395,-0.07073065578341484
1733703503627132400,7.52213232421875,-0.05924421612918376,-0.04533626668276265,-0.0636170243859291
1733703503637099300,7.532099365234375,0.034469255834817886,-0.010219013534300029,-0.024327801048755645
1733703503647065300,7.5420654296875,0.06778115832805633,0.03567702418938279,0.05102876096963882
1733703503657031400,7.552031494140625,0.06827449480295181,0.06625203079832717,0.10438684166967868
1733703503666998300,7.561998291015625,0.08753039941489696,0.04139191297115758,0.17508067257404325
1733703503676964400,7.57196435546875,0.045863341030478476,0.031975192263070495,0.16065525685846804
1733703503686931500,7.581931396484375,0.009129647395014762,0.011242876689322293,0.09671382282376288
1733703503696897300,7.591897216796875,-0.002915595185756683,-0.017907412612438202,0.021797990310192108
1733703503706863400,7.60186328125,-0.02556932554244995,-0.054051762052625414,-0.03462240056991577
1733703503716830200,7.611830322265625,-0.05386486117839813,-0.0696188403503038,-0.10120178189277648
1733703503726796300,7.62179638671875,-0.08666296893060207,-0.08248988449703902,-0.09681026893556118
1733703503736763100,7.63176318359375,-0.11499357587993145,-0.06384491485767066,-0.12664777331650257
1733703503746729500,7.6417294921875,-0.07902794400751591,-0.025693189384136346,-0.1569797832161188
1733703503756696300,7.6516962890625,-0.03256839064955711,0.0006410743825137615,-0.10130816487669944
1733703503766662400,7.661662353515625,0.025171266135573387,0.04811807942101732,-0.0007423427999019623
1733703503776628200,7.671628173828125,0.043808162066340445,0.07274606899274513,0.1039981346130371
1733703503786595300,7.68159521484375,0.08292202883660793,0.06224728866899386,0.1810176614075899
1733703503796561200,7.69156103515625,0.12072773561775683,0.01668974391836673,0.1858311991691589
1733703503806528300,7.7015283203125,0.12615151423215865,0.01844714551232755,0.1793622954159975
1733703503816494300,7.711494384765625,0.10277531481981277,0.0004420994780026376,0.13548925141990184
1733703503826460400,7.72146044921875,0.0365817179441452,-0.050933246439602224,0.04759995556473732
1733703503836427300,7.73142724609375,-0.07240355743169784,-0.04972662886250764,-0.010799626433849335
1733703503846393300,7.741393310546875,-0.1550841787278652,-0.06772495289510115,-0.06887129165232181
1733703503856360400,7.7513603515625,-0.17563012315034865,-0.07504029914345592,-0.11450433105826377
1733703503866326300,7.761326171875,-0.15380232222378254,-0.03504230648241937,-0.10904781921803951
1733703503876293400,7.77129345703125,-0.07370119602680206,-0.00509536864394322,-0.03491056986153126
1733703503886259200,7.78125927734375,0.03491933768987655,0.0032094087668694555,0.04938333185017109
1733703503896225300,7.791225341796875,0.12935118705630302,0.02916915839901194,0.16632161205708978
1733703503906192400,7.8011923828125,0.1759510256677866,0.020957904490549115,0.24027239893078803
1733703503916158500,7.811158447265625,0.20578034674227236,0.01719135503126308,0.23348434622585773
1733703503926125300,7.821125244140625,0.19678630842566489,0.005412983225751668,0.20370704759955405
1733703503936091400,7.83109130859375,0.18169219966828823,-0.02885985498782247,0.14689093540012835
1733703503946057200,7.84105712890625,0.136227502566576,-0.04545096083730459,0.09746376440823078
1733703503956024300,7.8510244140625,0.04097147733569145,-0.030156982126273213,0.004482698372006416
1733703503965990400,7.860990478515625,-0.0033376199901103973,-0.07614188544349744,-0.03844400468468666
1733703503975957500,7.87095751953125,0.02312251691222191,-0.07939739837441592,-0.08468143972456454
1733703503985923300,7.88092333984375,0.030864509341120717,-0.06490878122951835,-0.06080079792141914
1733703503995890400,7.890890380859375,0.0706581750690937,-0.05126810441715642,0.010116320344805717
1733703504005856300,7.900856201171875,0.07338613872826098,-0.03251373785287141,0.09204641553461551
1733703504015822300,7.910822265625,0.0875327375024557,-0.004949566965084523,0.11244856757223605
1733703504025789200,7.9207890625,0.07069675351381302,0.00501726190643385,0.1042249291062355
1733703504035755500,7.930755615234375,0.04325403531491756,0.019751707038562744,0.10665361755788326
1733703504045722400,7.940722412109375,0.009750994163751601,0.0057587827224284405,0.08961714256107807
1733703504055688400,7.9506884765625,-0.0009486790269613265,0.01356874408731237,0.08245908749997616
1733703504065654300,7.960654296875,-0.01545709685087204,-0.006917542569804936,0.06864858881235122
1733703504075621400,7.970621337890625,-0.029070027139782902,-0.003986147026717663,0.022205402067303655
1733703504085587200,7.980587158203125,-0.06689560766518116,-0.022726795592904088,-0.03674947572648525
1733703504095554300,7.99055419921875,-0.1149649343073368,-0.02336306593613699,-0.11489829881191253
1733703504105520000,8.00052001953125,-0.1213917524844408,-0.02454509706124663,-0.16572656877338884
1733703504115487200,8.0104873046875,-0.08883388322889804,0.008142225526552646,-0.15733108087182043
1733703504125453300,8.020453369140625,-0.04410100753307342,0.0202698856937699,-0.0037339258313179016
1733703504135419400,8.03041943359375,-0.05617839881777763,0.07524731122395023,0.1485784500956535
1733703504145386200,8.04038623046875,0.012872341054677962,0.0222019862675108,0.20809972960054873
1733703504155352300,8.050352294921876,0.1526408772289753,-0.04372002712516114,0.1473071149855852
1733703504165319400,8.0603193359375,0.16615677688419817,0.006473214602097869,0.0957896937161684
1733703504175285200,8.07028515625,0.11361118161082268,0.016700247046072036,0.053228901362419125
1733703504185252400,8.08025244140625,0.014538812962174415,-0.029058099239971488,0.0032476036190986633
1733703504195218400,8.090218505859376,-0.13602350442707536,-0.05197037093499675,-0.07618950571119786
1733703504205184300,8.100184326171876,-0.24568974780440328,-0.06484590859375894,-0.11680150208473204
1733703504215151400,8.1101513671875,-0.20929215425550937,-0.1015583037128672,-0.1536994463711977
1733703504225117400,8.120117431640624,-0.09282909034490584,-0.0995506171522662,-0.14120178384780882
1733703504235084300,8.130084228515624,0.04667582645714283,-0.014827256248425692,-0.04540799847841263
1733703504245050400,8.14005029296875,0.18065818044543266,0.008744812795892357,0.1358306122034788
1733703504255016400,8.150016357421874,0.24213585471510884,0.03268925881655887,0.29028993703126904
1733703504264983300,8.1599833984375,0.26744097636342046,0.027947343252785504,0.36875615550279617
1733703504274949400,8.169949462890624,0.2649778011202812,0.019498919587582347,0.3514163136452436
1733703504284916500,8.17991650390625,0.2553741064727306,0.007932035108283162,0.28098376402556896
1733703504294882300,8.18988232421875,0.2341951248437166,-0.011650160582270473,0.1984288149356842
1733703504304849400,8.199849365234375,0.17712006944715974,-0.008986640461441129,0.1333785428762436
1733703504314815200,8.209815185546875,0.10782558394670486,-0.032921076544746755,0.09749065241515636
1733703504324781300,8.21978125,0.05497369920313358,-0.04737142577217891,0.052706923314929
1733703504334748200,8.229748046875,0.004962590843439102,-0.06449603571016341,-0.025115152034163472
1733703504344714500,8.239714599609375,0.012679448831081389,-0.07458968756543471,-0.10019114354550838
1733703504354681300,8.249681396484375,-0.0023316578179597854,-0.06382423739582299,-0.12442249848246574
1733703504364647400,8.2596474609375,-0.03628945699930191,-0.044714079663809386,-0.07604805141389369
1733703504374613200,8.26961328125,-0.03334054406583309,-0.03270823751166463,-0.025729484540224074
1733703504384580400,8.279580322265625,-0.03510346208512783,-0.04122481277594343,0.01949555858671665
1733703504394546200,8.289546142578125,-0.05528700293600559,-0.03148523505534977,0.06061550448238849
1733703504404513300,8.29951318359375,-0.08228080832362175,-0.010669460715539753,0.062249243164062495
1733703504414479400,8.309479248046875,-0.0905132146179676,-0.011319430790562182,0.04276771310269832
1733703504424446500,8.319446533203125,-0.10132570053339005,0.004969239779934287,0.0164957922488451
1733703504434412000,8.329412109375,-0.11115560515224933,0.0015131993082351982,-0.03539747659564018
1733703504444378000,8.339378173828125,-0.15364800844490528,-0.002786123587191105,-0.07830313686430454
1733703504454345000,8.349344970703125,-0.14920564208328724,-0.013647709341347217,-0.11158113708794117
1733703504464311000,8.35931103515625,-0.11118073959350586,0.0035998511228710413,-0.15515315231084822
1733703504474278000,8.36927783203125,-0.05806757356524467,0.0016676409512758254,-0.08230535824298858
1733703504484244200,8.379244140625,0.010485153657197951,0.019279577748477456,0.04843465282320976
1733703504494211000,8.389211181640626,0.04598492158353328,0.06821960454424843,0.1950344963222742
1733703504504177200,8.39917724609375,0.1769002892166376,0.00628474282529205,0.2635100666552782
1733703504514143000,8.40914306640625,0.27866964186429977,-0.03808808565279469,0.20398469549715517
1733703504524110000,8.419110107421876,0.22043840216994284,0.025174280076567083,0.1588748031824827
1733703504534076000,8.429075927734376,0.14456512280106543,0.042855135657824575,0.09821896668970584
1733703504544043000,8.43904296875,0.06694879915714264,-0.0015616963587701319,-0.0011655366480350495
1733703504554009000,8.449009033203126,-0.09864216053783893,0.010852361268084495,-0.062494157835841176
1733703504563975200,8.45897509765625,-0.1755804387897253,-0.014206713197287172,-0.12472118916809558
1733703504573942300,8.4689423828125,-0.1198100362509489,-0.05770401921616867,-0.1472071617424488
1733703504583908000,8.478908203125,-0.02862052980661392,-0.05244513057358562,-0.11606851163506507
1733703504593875200,8.488875244140624,0.03887947349250316,-0.03799938445603475,-0.023657938963174818
1733703504603841000,8.498841064453124,0.12138006204664706,-0.061775049781054255,0.08893383647203446
1733703504613808000,8.50880810546875,0.19563070864975451,-0.036478860357869416,0.20309972935616968
1733703504623774000,8.51877392578125,0.22924363991618155,-0.03105751116257161,0.30038053841292855
1733703504633740300,8.528740234375,0.24389585012495515,-0.024091982998885212,0.34991701499819755
1733703504643707100,8.53870703125,0.2657376795768738,-0.020924020487256348,0.3157189773201942
1733703504653673200,8.548673095703125,0.24096856450140475,-0.027580939359497278,0.24238486104011533
1733703504663640000,8.55864013671875,0.16837737554311752,-0.026579762960318474,0.1534644685715437
1733703504673606100,8.568606201171875,0.10837328095734118,-0.03251112577067688,0.07732114008963108
1733703504683573000,8.578572998046875,-0.007818564796447753,-0.014578907510545103,-0.005644143366813659
1733703504693539000,8.5885390625,-0.06577449468076228,-0.024174309253785758,-0.09544365675747395
1733703504703505200,8.598505126953125,-0.0818605370849371,-0.04911193103026598,-0.14605857622921467
1733703504713472000,8.608471923828125,-0.11111936479508876,-0.04173632422834635,-0.1291302377820015
1733703504723438000,8.61843798828125,-0.10713234098553658,-0.048257414826471355,-0.07157119826078415
1733703504733405200,8.6284052734375,-0.09806465291082858,-0.06308527386309579,-0.005340191984176635
1733703504743371000,8.63837109375,-0.09897592253684998,-0.05466329981340095,0.026321020692586898
1733703504753337000,8.648337158203125,-0.09542261396944522,-0.06331868076017126,0.019914076259732245
1733703504763304000,8.658303955078125,-0.08760054204165935,-0.04961038207169622,-0.02103285115659237
1733703504773270000,8.66827001953125,-0.11448737992346286,-0.02440245545385405,-0.045801381710171694
1733703504783236900,8.67823681640625,-0.12164601950645446,-0.027480511192325502,-0.06928747123777866
1733703504793203200,8.688203125,-0.10998539232909679,-0.011288962587062268,-0.08863397674262523
1733703504803170000,8.698170166015625,-0.042352118039131165,0.009998794912360607,-0.046910219734907145
1733703504813136100,8.70813623046875,0.005354220509529113,0.02345684516681358,0.04824526773095131
1733703504823102000,8.71810205078125,0.029734044006466863,0.06078452264005318,0.154471015265584
1733703504833069000,8.728069091796876,0.1323193892121315,0.02370552269825712,0.2212462114214897
1733703504843035000,8.738034912109375,0.20887480562627314,-0.022053627305384724,0.21017069065570831
1733703504853002000,8.748001953125,0.18393501015901564,0.004896941728703677,0.17247078233659266
1733703504862968000,8.757968017578126,0.15218962633013725,-0.018996340360306202,0.10022855294644832
1733703504872935200,8.76793505859375,0.04232523003220558,-0.012710702485870569,0.011107669469714164
1733703504882901200,8.7779013671875,-0.12131810272634029,-0.02242160210125148,-0.05602057790756225
1733703504892867000,8.7878671875,-0.17875556169450282,-0.04677293015606701,-0.11481003600656986
1733703504902834200,8.797834228515624,-0.13399579799175262,-0.05107680136244744,-0.14115794470608234
1733703504912800000,8.807800048828126,-0.049748073509335515,-0.042453861380554736,-0.11895780333578586
1733703504922767000,8.81776708984375,0.04190963496863842,0.014991707828827201,-0.01068564466536045
1733703504932733200,8.827733154296874,0.11771569432020186,0.03815994531260803,0.11108780061304568
1733703504942699300,8.83769921875,0.20567104114890097,0.04714890559529886,0.2295984447032213
1733703504952666000,8.847666015625,0.2380646597534418,0.03688152287462726,0.2825935373097658
1733703504962632200,8.857632080078124,0.2512052963554859,0.017344901625160128,0.29117431865036486
1733703504972599000,8.86759912109375,0.23382862961888312,-0.00290956730376929,0.2213555170148611
1733703504982565000,8.877565185546874,0.1956751323133707,-0.033253285907488314,0.14745149189233778
1733703504992532000,8.887531982421875,0.16573182947039602,-0.05947252672603354,0.10126724834442138
1733703505002498000,8.897498046875,0.09320435339808464,-0.05430027518728748,0.07297638888359069
1733703505012464000,8.907464111328125,0.03263736423254013,-0.055822479785885656,0.02821662518084049
1733703505022431200,8.91743115234375,-0.0015384616136550901,-0.07350810287380591,-0.022385434809327125
1733703505032397000,8.92739697265625,-0.011793313646316528,-0.06687825467158108,-0.05948503914773464
1733703505042364200,8.9373642578125,-0.027810382467508315,-0.03359009838011116,-0.04264087185263633
1733703505052330000,8.947330078125,-0.054985974162816996,-0.0324532215709798,-0.0006008885025978088
1733703505062297000,8.957297119140625,-0.06690612905919552,-0.022916856538597492,0.028518822997808453
1733703505072263000,8.967262939453125,-0.07860124302804469,-0.034553390454314645,0.02146422831118107
1733703505082229200,8.977229248046875,-0.06721358757317066,-0.0298855082411319,0.025683891832828522
1733703505092196000,8.987196044921875,-0.07879179716408252,-0.030457061051391062,-0.010135025045275688
1733703505102162200,8.997162109375,-0.12836977480351924,-0.023754933064244685,-0.04249941755533218
1733703505112129000,9.00712890625,-0.13226444415450095,-0.02826996280327439,-0.07309329326152801
1733703505122095000,9.01709521484375,-0.15823241362571716,-0.024854966728016733,-0.1116664772838354
1733703505132062000,9.02706201171875,-0.12689561059772966,0.014882986757345496,-0.10438041192889214
1733703505142028000,9.037028076171875,-0.06731938603520393,0.005850132534001022,-0.018535189121961594
1733703505151994000,9.046994140625,-0.053231823971867556,0.04328187316991389,0.09150339469909667
1733703505161961000,9.0569609375,-0.003969488152861595,0.01203676701337099,0.16678221530616283
1733703505171927000,9.066927001953125,0.08732698579728602,-0.04542186260698363,0.14601882874071598
1733703505181894100,9.07689404296875,0.0887397752046585,-0.029207006191369143,0.08330722876191139
1733703505191860000,9.08685986328125,0.04573825334608555,-0.016703973373118786,0.06634791065454483
1733703505201826000,9.096825927734375,0.0038829789131879806,-0.031034422547928986,0.008494272100925446
1733703505211793200,9.106793212890626,-0.07524141120612621,-0.012234700738266109,-0.021108839002251623
1733703505221759000,9.116759033203126,-0.12151567112505435,-0.019546485056355596,-0.04437164116799831
1733703505231726000,9.12672607421875,-0.06330956587195397,-0.060338989095948634,-0.0518009143859148
1733703505241692200,9.136692138671876,0.042938393494486804,-0.055364287689607584,-0.03604103519618511
1733703505251659300,9.1466591796875,0.13849077132344245,-0.01024555448135361,0.03513327270150184
1733703505261625000,9.156625,0.22395956203341483,0.006161481771804392,0.1271855334550142
1733703505271591200,9.166591064453126,0.26878420766592026,-0.011668207695614545,0.1880196491241455
1733703505281558000,9.17655810546875,0.2653524796515703,0.014138123206794261,0.238774853849411
1733703505291524000,9.186524169921874,0.26641338688135147,0.0030394955600611864,0.22797522741556167
1733703505301491000,9.196490966796874,0.2598106276154518,-0.017305775191169232,0.17754735494852064
1733703505311457300,9.206457275390624,0.23083646206557748,-0.014366470336262135,0.15560674129724503
1733703505321424100,9.216424072265625,0.19646482138633728,-0.026407164606079458,0.13936989224553106
1733703505331390200,9.22639013671875,0.13490823666155338,-0.02706551891695708,0.10141688594818114
1733703505341356000,9.23635595703125,0.0848486129850149,-0.030797124927025285,0.056660629376769064
1733703505351323100,9.2463232421875,0.0535217468291521,-0.04523446854241192,0.02832476173043251
1733703505361289000,9.2562890625,0.0189531222730875,-0.026512944801803676,0.0019195698857307434
1733703505371256000,9.266256103515625,-0.016290040543675423,-0.01274615739174187,-0.01204115092754364
1733703505381222000,9.276221923828125,-0.055933484145998955,-0.01809803981371224,0.002127075156569481
1733703505391189000,9.28618896484375,-0.07512158421874046,-0.011578063460439443,0.02240706211924553
1733703505401155000,9.296155029296875,-0.09398644368648529,-0.017676818726956842,0.029194530302286147
1733703505411121200,9.30612109375,-0.09290624723434447,-0.03971066361963749,0.027749007669091223
1733703505421088000,9.316087890625,-0.08300093929171562,-0.0294311520697549,0.006593406915664672
1733703505431053600,9.326053466796875,-0.11797405299544333,-0.03537891802564263,0.022222353202104566
1733703505441020400,9.3360205078125,-0.12574585604071617,-0.03705960112158209,-0.01326981593966484
1733703505450986500,9.345986572265625,-0.15465981583595276,-0.03978942794427275,-0.0467073906391859
1733703505460952600,9.35595263671875,-0.16455401786267757,-0.056178764143958684,-0.06431494352221488
1733703505470919700,9.365919677734375,-0.15304361281096934,-0.025842114601843057,-0.07161737549006938
1733703505480885500,9.375885498046875,-0.1237011984705925,-0.024805428497865795,-0.10015899484157562
1733703505490852600,9.3858525390625,-0.09999708227813243,-0.012111731945723294,-0.07085165181457996
1733703505500818400,9.395818359375,-0.04160802167356014,-0.013584690575115382,-0.02955167317688465
1733703505510785500,9.40578564453125,-0.028720483049750327,0.04626487103607505,0.07466098096966743
1733703505520751400,9.41575146484375,0.06239128198325634,0.028321510327421126,0.18723405170440674
1733703505530717700,9.4257177734375,0.14247662608921527,-0.03797189366091042,0.23657646702229976
1733703505540684500,9.4356845703125,0.14547639242708682,-0.029285971445403992,0.1724696132928133
1733703505550650600,9.445650634765625,0.10588029509782791,-0.041345096421055494,0.07711655742824078
1733703505560617700,9.45561767578125,0.09948270301520824,-0.05902012504972517,0.019948563051223753
1733703505570583600,9.46558349609375,0.02338087558746338,0.012103493840340524,-0.01792319470345974
1733703505580550700,9.475550537109376,-0.01087912141084671,0.008105565044283867,-0.03570025893449783
1733703505590516500,9.4855166015625,0.07079261510372162,-0.03664186889985576,-0.010457096606492996
1733703505600482600,9.495482666015626,0.173693602129817,-0.035125929645262656,0.030608488753437996
1733703505610449700,9.50544970703125,0.20763912635147572,-0.0083805460607633,0.11613982330560683
1733703505620415700,9.515415771484374,0.23397651365697383,-0.006358301251847297,0.18370061688125133
1733703505630382600,9.525382568359374,0.22502163830697536,-0.0002827259315177798,0.21558745500743387
1733703505640348700,9.5353486328125,0.17582710702717302,-0.006518935173656791,0.19660510663986205
1733703505650315500,9.5453154296875,0.1118283898472786,-0.03391279099583626,0.13039689671695232
1733703505660281600,9.555281494140624,0.04349953450858593,-0.038689229883719235,0.04344868110418319
1733703505670247700,9.56524755859375,-0.04503156638145447,-0.04745161486892029,0.006548398730158805
1733703505680214500,9.575214599609374,-0.06578033989965916,-0.03640363969719037,0.013159925824403762
1733703505690180600,9.5851806640625,-0.05583294638097286,-0.0017311346415430306,0.03631400691866875
1733703505700147700,9.595147705078125,-0.03907295023798942,-0.0015852964300662278,0.03879471781849861
1733703505710113500,9.605113525390625,-0.008359832066297531,-0.004791581658087671,0.03404781555235386
1733703505720079600,9.61507958984375,0.016061492484807968,0.004092383880168199,0.036328619965910906
1733703505730046500,9.62504638671875,-0.0034498481929302214,0.005451579936780035,0.02948679124712944
1733703505740012500,9.635012451171875,-0.04995090260505676,-0.004543853974714875,0.00033200843334198
1733703505749979400,9.6449794921875,-0.07281389179825783,-0.00676405077483505,-0.04417757990062236
1733703505759945700,9.65494580078125,-0.10308394237756728,-0.035222046963498,-0.061350833019614213
1733703505769912600,9.66491259765625,-0.09047463617324829,-0.03790507550239563,-0.06566986526250838
1733703505779878700,9.674878662109375,-0.07389584181606769,-0.018517361204326153,-0.03848082956373691
1733703505789844500,9.684844482421875,-0.03511690608859062,-0.0212875565700233,0.01903553985953331
1733703505799811600,9.6948115234375,-0.0007972878575325012,-0.03087338676732033,0.07088730764985084
1733703505809777400,9.70477734375,0.028768413844704625,-0.025746746202278882,0.10570727661848067
1733703505819744500,9.71474462890625,0.08375029635429382,-0.0469011231129989,0.04743453586995602
1733703505829710600,9.724710693359375,0.03993395098149776,-0.01502011193940416,0.029088147318363188
1733703505839677700,9.734677734375,0.006543138033151626,-0.02627628650171682,0.0029319617986679077
1733703505849643500,9.7446435546875,0.0005453589230775832,0.009164152452815323,0.07658639607429504
1733703505859609600,9.754609619140625,0.10263678313195705,-0.004656191775389016,0.21395371632575988
1733703505869576700,9.76457666015625,0.25534254229068754,-0.06259617517190054,0.3211678903758526
1733703505879542500,9.77454248046875,0.30364743125438687,-0.06103997697215527,0.26816812159419057
1733703505889509600,9.784509521484376,0.24076924253702162,-0.06306138153085485,0.14413842182159423
1733703505899475500,9.794475341796876,0.11951660626232623,-0.06888893690686672,0.026343817046284673
1733703505909442600,9.804442626953126,-0.009949147084355354,-0.035767734680138524,-0.08934475536048411
1733703505919408600,9.81440869140625,-0.08989420593678951,-0.03454608393069356,-0.13973814103603363
1733703505929374700,9.824374755859376,-0.09463526298403739,-0.04795030337236821,-0.1379430743128061
1733703505939341600,9.834341552734376,-0.07795943799316883,-0.02376286064237356,-0.09430617716014385
1733703505949307600,9.8443076171875,-0.02537584879696369,0.0039571035953238605,-0.0028109657675027848
1733703505959274500,9.8542744140625,0.05089548997879028,0.0219599759388715,0.07157528991401195
1733703505969240600,9.864240478515624,0.07373509829640389,0.03538037933036685,0.13903437668085097
1733703505979206700,9.87420654296875,0.07712474073469638,0.035138460333272815,0.1892430534392595
1733703505989173800,9.884173828125,0.08694120135009288,0.01408836578093469,0.1779535976618528
1733703505999139600,9.8941396484375,0.03959901993870735,-0.009707081956788897,0.1153875436335802
1733703506009106700,9.904106689453124,0.002357376781105995,-0.02284589192792773,0.043210780695080754
1733703506019072500,9.914072509765624,-0.05326455719769001,-0.06591916384845972,-0.023481997874379157
1733703506029039600,9.92403955078125,-0.11332125875353813,-0.06730915690213442,-0.05872983686625957
1733703506039005400,9.93400537109375,-0.09656243165433406,-0.04878032445572316,-0.07979892838001251
1733703506048971800,9.9439716796875,-0.062249243164062495,-0.035314803280867633,-0.05317512534856796
1733703506058938600,9.953938720703125,-0.019994740280508995,-0.024624117114208637,0.0023094459861516953
1733703506068904700,9.96390478515625,0.033600071784853934,-0.01839523266199976,0.051122284471988674
1733703506078871600,9.97387158203125,0.052912675020098686,0.014482114338874816,0.06287935776114463
1733703506088837600,9.983837646484375,0.05898936458528042,0.006061126669868826,0.07214286066889762
1733703506098804500,9.993804443359375,0.05179506916701793,0.015018668900988996,0.0551297665476799
1733703506108770600,10.0037705078125,0.04409983848929405,0.01344433225635439,0.05864625023603439
1733703506118736400,10.013736328125,0.03434767528176307,0.00476531470566988,0.058635144320130346
1733703506128703500,10.023703369140625,0.0278676656126976,-0.006512706362269818,0.07379238144159317
1733703506138669600,10.033669677734375,0.08956219750344753,-0.024355602371133864,0.07896072399020194
1733703506148636700,10.04363671875,0.09670622403919696,-0.04210654578022659,0.07422142050862311
1733703506158602500,10.0536025390625,0.07732172461152076,-0.048625462687574325,0.03226794639825821
1733703506168569600,10.063569580078125,0.07929448598921299,-0.05287058944404125,-0.013135375905036925
1733703506178535400,10.073535400390625,0.0711596948504448,-0.04323083710242063,0.016705051085352897
1733703506188501500,10.08350146484375,0.05754091934263706,-0.014452121059410274,0.08554302498996258
1733703506198468600,10.093468505859375,0.05149111778438091,-0.021281820948980748,0.16258067196309567
1733703506208434700,10.1034345703125,0.10352993257939815,-0.03236347919460386,0.21399112572669982
1733703506218401800,10.11340185546875,0.14559095871746539,-0.05070639714747667,0.20048867007493973
1733703506228367600,10.12336767578125,0.11403320641517639,-0.033583559041470284,0.1294254213362932
1733703506238334700,10.133334716796876,0.05451134238839149,-0.04410867938287556,0.047587680605053896
1733703506248300500,10.143300537109376,-0.013313655081391334,-0.05048994138520211,-0.017324644288420676
1733703506258266600,10.1532666015625,-0.1229600247144699,-0.03308255071677267,-0.059140171232819554
1733703506268233500,10.1632333984375,-0.1923293290168047,-0.03497651123721152,-0.10827917293310164
1733703506278199600,10.173199462890626,-0.16242051296532153,-0.06914017172157765,-0.14929273584485053
1733703506288166400,10.18316650390625,-0.10236147332191467,-0.057950997980870306,-0.15953998909294603
1733703506298132700,10.1931328125,-0.07983049256205559,-0.026328509879298505,-0.1027127709776163
1733703506308098600,10.2030986328125,-0.01956219408214092,-0.006686199765652418,-0.009011573973298072
1733703506318065700,10.213065673828124,0.030367665734887122,0.0014455226331949232,0.0712333446085453
1733703506328031500,10.223031494140624,0.06880348711311816,0.0045549233580008145,0.16079495759010315
1733703506337998600,10.23299853515625,0.10911153210401535,0.002703304141946137,0.18328443729579447
1733703506347964400,10.24296435546875,0.14202069901525974,0.02186053415238857,0.17679916692972183
1733703506357931500,10.252931640625,0.11188567299246788,0.017372830811701715,0.1344844582915306
1733703506367897600,10.262897705078124,0.05672200417518616,0.01260214581117034,0.08636603181064129
1733703506377863700,10.27286376953125,-0.015661094990372656,0.024967852517962453,0.02458206807076931
1733703506387830500,10.28283056640625,-0.062493573313951487,-0.0035900238486006853,-0.007311199796199798
1733703506397796600,10.292796630859375,-0.05650865368545055,-0.018300649713724852,-0.057930210921168325
1733703506407763500,10.302763427734375,-0.0684492668479681,-0.010629165237769484,-0.08998422230780125
1733703506417729500,10.3127294921875,-0.07063771680295466,-0.017292166790924966,-0.07124386600255966
1733703506427697200,10.322697265625,-0.04614215797185898,-0.0314868424905464,-0.033948446831107135
1733703506437663000,10.3326630859375,-0.016724340307712554,-0.04080547311902046,0.018611176967620848
1733703506447629000,10.342629150390625,0.00637304216325283,-0.048103886498883364,0.049997079834342
1733703506457596200,10.35259619140625,-0.007118307572603225,-0.0580677927609533,0.07419979319870472
1733703506467562000,10.36256201171875,0.007093173131346702,-0.04967665224093944,0.06627542994022369
1733703506477529000,10.372529052734375,0.03996142351031303,-0.05536145641170442,0.07130699436664581
1733703506487495200,10.3824951171875,0.098918054869771,-0.053779886308684945,0.09178396520614623
1733703506497462000,10.3924619140625,0.15638883158564568,-0.060330550061166284,0.11875731232762336
1733703506507428000,10.402427978515625,0.15531681843996048,-0.05486614717543125,0.13859540074169635
1733703506517394200,10.412394287109375,0.17570026577711104,-0.04460643630456179,0.1565788011997938
1733703506527361300,10.422361328125,0.16897417239248752,-0.048611361096985634,0.13331015381515024
1733703506537327000,10.4323271484375,0.1571627385675907,-0.040015162991546095,0.12663432931303978
1733703506547294200,10.442294189453126,0.1342927351117134,-0.03483881979957223,0.1331909113496542
1733703506557260000,10.452260009765626,0.1174526594698429,-0.025512225060351192,0.12443009726703166
1733703506567226000,10.46222607421875,0.07579787604510783,-0.011263006161898374,0.10892857675254344
1733703506577193000,10.47219287109375,0.058119596013426776,-0.004329809365235269,0.08428162675201892
1733703506587159000,10.482158935546876,0.021894436421990394,-0.009127491970546544,0.04447042536735534
1733703506597126000,10.4921259765625,-0.040398645883798594,0.003749452194012701,-0.0002139350116252899
1733703506607092200,10.50209228515625,-0.1319581546843052,0.009384645069390535,-0.060871525070071215
1733703506617059000,10.51205908203125,-0.16970540927648542,-0.0075577584357932204,-0.11808394311070441
1733703506627025200,10.522025146484374,-0.15698270582556723,-0.025262999539636073,-0.12722937259674072
1733703506636991000,10.531990966796876,-0.1313128425180912,-0.038522586346231395,-0.10639525888264179
1733703506646958000,10.5419580078125,-0.12153262225985527,-0.04310381318926811,-0.04926818103790283
1733703506656924000,10.551923828125,-0.08774842607975006,-0.04260243953838944,-0.011008885270357132
1733703506666891000,10.56189111328125,-0.03693710725307464,-0.02326970683056861,0.020688567763566968
1733703506676857000,10.571857177734374,0.007676525977253913,0.006373955478705466,0.056331543552875514
1733703506686824200,10.58182421875,0.036841245663166045,-0.0020455708855763076,0.07753916675448418
1733703506696790000,10.5917900390625,0.04206394874751568,0.0062589507969096295,0.08004033592045307
1733703506706756000,10.601756103515624,0.059174658024311065,0.003637589317373931,0.0712725075751543
1733703506716723000,10.611722900390625,0.08971534223854541,-0.005789433589018881,0.08572071964442729
1733703506726689000,10.62168896484375,0.10280220282673835,-0.023549948544055222,0.08262567623853682
1733703506736656100,10.63165625,0.11078034209907055,-0.047033517321012915,0.09237491683661937
1733703506746622200,10.641622314453125,0.12600012306272984,-0.034815694652311505,0.09132570004463195
1733703506756589000,10.651589111328125,0.11352759498059749,-0.02121175138745457,0.09124035984873771
1733703506766555100,10.66155517578125,0.11531798552870749,-0.027840558410063384,0.09767419228851795
1733703506776521000,10.67152099609375,0.1284761577874422,-0.03363050345573574,0.12646598700881004
1733703506786488000,10.681488037109375,0.11024842717945575,-0.028047552224248647,0.12236965760588646
1733703506796454100,10.6914541015625,0.07967910139262675,0.00418521326277405,0.10305646984875201
1733703506806421000,10.7014208984375,0.04776303717195987,0.007297974988445639,0.07660860790610313
1733703506816387000,10.711386962890625,0.0186830731600523,-0.0231818824166432,0.049024435409903526
1733703506826353200,10.721353271484375,-0.003271569016575813,-0.01984349524155259,0.005968553015589714
1733703506836320300,10.7313203125,-0.015362404304742812,-0.02821392176710069,-0.01338964292705059
1733703506846286000,10.7412861328125,-0.03137655051648617,-0.04031958929821849,0.0025379940450191494
1733703506856253200,10.751253173828125,-0.047640872097015376,-0.03972816274370998,-0.021669980016350746
1733703506866219000,10.761218994140625,-0.018995207849144935,-0.05983114917166531,-0.03405366077125072
1733703506876186000,10.77118603515625,-0.005824760630726814,-0.044773426901921626,-0.0007452654093503951
1733703506886152000,10.78115185546875,-0.01015840592086315,-0.04856668170504272,0.04234393473267555
1733703506896118300,10.7911181640625,0.007038228073716163,-0.039098705733753736,0.053775429329276085
1733703506906085000,10.801085205078126,0.009464578437805175,-0.016003953611291945,0.08731821796894072
1733703506916051200,10.81105126953125,-0.007093757653236389,0.0036123087456449866,0.07739186723828315
1733703506926018000,10.82101806640625,-0.0032189620465040204,0.0009168956492096185,0.051582887721061704
1733703506935984000,10.830984130859376,-0.01130173073709011,0.01578979940395802,0.02828326067626476
1733703506945951000,10.840950927734376,-0.010794365736842155,0.027136319130845365,0.02457154667675495
1733703506955917000,10.8509169921875,-0.015909516793489457,0.024840645941719412,0.03536941954493522
1733703506965883100,10.860883056640626,-0.010057868155837058,0.012850275353342294,0.01794365296959877
1733703506975850000,10.87085009765625,0.005724807387590408,-0.008581037068925797,0.03124912474453449
1733703506985816000,10.880816162109374,0.005958031621575355,-0.023640220643393692,0.0310831205278635
1733703506995783200,10.890783203125,0.025929975548386573,-0.047440015762671824,0.024044892454147336
1733703507005749000,10.9007490234375,0.01791793400645256,-0.02428761516883969,0.03201484842002392
1733703507015716000,10.910716064453124,0.020538345637917517,-0.03835124836731702,0.044271687924861906
1733703507025682000,10.920681884765624,0.05940262156128883,-0.03289148512408137,0.055015784779191015
1733703507035648000,10.93064794921875,0.05143967985808849,-0.04234872050564736,0.06865326498746871
1733703507045614800,10.94061474609375,0.08889350446164608,-0.03884560775551945,0.0960205798625946
1733703507055581200,10.950581298828125,0.1287497140318155,-0.03389394016489387,0.10789514205157756
1733703507065548300,10.96054833984375,0.12212065128087997,-0.013493651290796696,0.11680676278173922
1733703507075514000,10.97051416015625,0.10761106441318988,0.0014343801846727728,0.09278583572506904
1733703507085480000,10.98047998046875,0.09391279392838478,-0.002805595472641289,0.059708326509594914
1733703507095447000,10.990447021484375,0.05164367799758911,-0.031886034408584236,0.060604983088374136
1733703507105412900,11.000412841796875,0.004134907847642899,-0.04434694511815905,0.04942950907945633
1733703507115380000,11.0103798828125,-0.014933949759602546,-0.018204678525961936,0.042974633851647376
1733703507125346300,11.02034619140625,-0.028277415457367894,-0.030900092111155388,0.03712590782344341
1733703507135313200,11.030313232421875,-0.025669863307476042,-0.03406505894809961,0.009701309803128243
1733703507145279200,11.040279296875,-0.006120528706908226,-0.01773519785068929,0.003703530693054199
1733703507155245000,11.0502451171875,0.02357552137672901,-0.006537913868762553,-0.006014145722985267
1733703507165212200,11.060212158203125,0.015447744500637054,0.006906929844245314,0.02125146234333515
1733703507175178000,11.070177978515625,-0.007565466818213462,-0.010129216358996928,0.03605038754642009
1733703507185145000,11.08014501953125,0.0007400047123432159,-0.011194069111533462,0.04658054938912391
1733703507195111000,11.09011083984375,-0.0007657236754894256,-0.009967121132463216,0.051581134155392644
1733703507205078000,11.100078125,-0.0015004676908254623,-0.015749503926187753,0.047127661877870555
1733703507215044000,11.110044189453125,-0.012597615766525268,-0.020862280362658202,0.02622866623401642
1733703507225010200,11.12001025390625,-0.019730536386370658,-0.03299819690156728,0.024976620346307755
1733703507234977000,11.12997705078125,-0.008248188385367393,-0.025151757717505097,0.015453589719533919
1733703507244943000,11.139943115234376,0.015594459494948386,-0.020935857055522502,0.05240881715118885
1733703507254910000,11.149909912109376,0.02961830867230892,0.002913805087469518,0.05804068555831909
1733703507264876000,11.1598759765625,0.044020343512296674,0.0017262392707169056,0.05084639014005661
1733703507274842000,11.169842041015626,0.05780453871488571,0.0029641105026006697,0.052099605071544645
1733703507284809200,11.179809326171876,0.05778408044874668,-0.029275413518771526,0.05193243181109428
1733703507294775000,11.189775146484376,0.0375315660148859,-0.04772500671651214,0.0352267962038517
1733703507304742100,11.1997421875,0.03439911320805549,-0.033706673964485526,0.012495324435830115
1733703507314708000,11.2097080078125,0.016192425388097762,-0.03402100061066449,0.018121932145953177
1733703507324675000,11.219675048828124,0.015816577813029288,-0.04186382306553423,0.030475217762589452
1733703507334641000,11.229640869140624,0.03495440900325775,-0.015499730416201054,0.02792904041111469
1733703507344607200,11.239607177734374,0.0572036502122879,-0.01931994629148394,0.05044365455806255
1733703507354574000,11.249573974609374,0.08888882828652858,-0.0032946210986003277,0.07609656673073768
1733703507364540200,11.2595400390625,0.08383797463774681,-0.004079487865976989,0.0698345837265253
1733703507374507300,11.26950732421875,0.08792319812476634,-0.0007735964546911418,0.09040800067782402
1733703507384473000,11.27947314453125,0.057547933605313295,-0.013496994025353341,0.08582534906268119
1733703507394440200,11.289440185546875,0.03743921155631542,-0.010352503720857203,0.04965455000698566
1733703507404406000,11.299406005859375,0.02034428437054157,-0.02842002053214237,0.02848024455308914
1733703507414371800,11.309371826171875,-0.011199439406394958,-0.03386069548241794,0.005475801062583923
1733703507424339000,11.3193388671875,0.004761515313386917,-0.02725671237381175,0.02775777549743652
1733703507434304300,11.32930419921875,0.008076338949799537,-0.024614472503028808,0.047502924931049344
1733703507444271400,11.339271240234375,0.026229250755906104,-0.0014428374857641756,0.043588381835818285
1733703507454237200,11.3492373046875,0.014088731107115745,-0.001204608283098787,0.047696401676535605
1733703507464204300,11.359204345703125,0.00571077886223793,-0.002766797832213342,0.048048868376016615
1733703507474170000,11.369170166015625,-0.010704933887720107,-0.008187379842530935,0.033362171375751495
1733703507484136400,11.379136474609375,-0.0015834697991609571,-0.019862985393311827,0.043939679491519924
1733703507494103600,11.389103515625,0.014748656320571898,-0.017248364181816578,0.03972235405743122
1733703507504069400,11.3990693359375,0.011285948646068572,-0.013499916634801774,0.037220600369572636
1733703507514036500,11.409036376953125,0.006953472399711609,-0.022122820084076372,0.030711364606022834
1733703507524002300,11.419002197265625,0.0030038579910993575,-0.02686064399462193,0.024192191970348356
1733703507533968100,11.428968017578125,0.021518004325032234,-0.021739647719077763,0.024954993036389348
1733703507543935200,11.438935302734375,0.04327507810294628,-0.01897520624073222,0.04535656055212021
1733703507553901300,11.4489013671875,0.05656009161174297,-0.0057411740005016325,0.046211131554841994
1733703507563868200,11.4588681640625,0.05434066199660301,-0.0032071437445469198,0.042426352319121355
1733703507573834500,11.46883447265625,0.06742752258479595,-0.019049239591322837,0.04406242908835411
1733703507583801300,11.47880126953125,0.07405132463872433,-0.027996497890446333,0.060144964361190795
1733703507593767400,11.488767333984375,0.06552431931197643,-0.026971429159026592,0.06333996101021766
1733703507603733200,11.498733154296875,0.04509235665798187,-0.02276338300993666,0.058766077223420136
1733703507613700400,11.508700439453126,0.024319617742300032,-0.024230167626868932,0.04354337365031242
1733703507623666200,11.518666259765626,0.0018283844709396362,-0.02033913327138871,0.04377484431862831
1733703507633633300,11.52863330078125,0.009680267015099525,-0.02838019997840747,0.05324117632210254
1733703507643599400,11.538599365234376,0.023401333853602407,-0.008664313171897083,0.03983516678214073
1733703507653566500,11.54856640625,0.021689269238710403,0.00944368178024888,0.052119478815793985
1733703507663532300,11.5585322265625,0.023075170639157296,0.005390351268835365,0.039595512807369226
1733703507673498400,11.568498291015626,0.025576339805126188,-0.0025468166722916064,0.029179917255043982
1733703507683465200,11.57846533203125,0.011160276439785956,-0.00847472715023905,0.04501052359342575
1733703507693431300,11.588431396484374,-0.011114099210500716,-0.01676949462369084,0.037546763584017755
1733703507703398100,11.598398193359374,-0.006737783822417259,-0.0325696692911908,0.025481647258996962
1733703507713364500,11.608364501953124,-0.02094517287313938,-0.02490445015924051,0.0033580782562494275
1733703507723330300,11.618330322265624,0.0022667758882045745,-0.03684995869258419,-0.014777882415056228
1733703507733297400,11.62829736328125,0.00651332741677761,-0.05776740330858156,0.007669511714577674
1733703507743263200,11.63826318359375,0.010144377395510672,-0.04479397649960592,0.03023965544104576
1733703507753230300,11.648230224609375,0.0432347460925579,-0.03413452572142705,0.05222001658082008
1733703507763196200,11.658196044921874,0.07887713735997677,-0.021866854295320808,0.07165946106612682
1733703507773163300,11.668163330078125,0.0822521667510271,-0.0067025846448726945,0.08682488149404526
1733703507783129000,11.678129150390625,0.08546236096918583,0.0016130794861353933,0.08728957639634609
1733703507793095400,11.688095458984375,0.090818335044384,0.0025866737586446105,0.06911971345543862
1733703507803062500,11.6980625,0.05329378329217434,-0.0008441044076345861,0.05912906531691551
1733703507813028400,11.7080283203125,0.028127193331718443,-0.013202486324496566,0.059554012730717656
1733703507822995500,11.717995361328125,0.02219254258573055,-0.009161942229419946,0.05388765753209591
1733703507832961300,11.727961181640625,0.017893384087085722,-0.017331165360752493,0.052713353055715555
1733703507842928400,11.737928466796875,0.024314357045292855,-0.013815174862742424,0.04828384617567062
1733703507852894200,11.747894287109375,0.0288654444783926,-0.014578067260328679,0.051536710491776466
1733703507862860500,11.757860595703125,0.010959785431623459,-0.013088906414806842,0.02207096203267574
1733703507872827400,11.767827392578125,0.0071639002799987785,-0.026941563743725416,0.002295417460799217
1733703507882793500,11.77779345703125,-0.0037590602725744247,-0.020692695949412882,0.01215571721792221
1733703507892760300,11.78776025390625,0.007120061138272285,-0.009228906518407165,0.024745149677991865
1733703507902726400,11.797726318359375,0.019472762233018873,-0.02934793076571077,0.03665770578980446
1733703507912692200,11.807692138671875,0.048885903722047805,-0.02085572275770828,0.05630465554594993
1733703507922659300,11.817659423828125,0.06652443626523018,-0.02006694700019434,0.06864274359345436
1733703507932625400,11.82762548828125,0.05561550423800945,-0.00224797985618934,0.05553425569534302
1733703507942592300,11.83759228515625,0.0418757326990366,-0.014223353804834186,0.03429156118035316
1733703507952558300,11.847558349609375,0.01853869625329971,-0.018686488959845156,0.027214170140028
1733703507962525400,11.857525390625,-0.0070972647845745085,-0.02721884631514549,0.047153380841016765
1733703507972491300,11.8674912109375,-0.006374211207032203,-0.012576372049096972,0.058094461572170256
1733703507982457300,11.877457275390626,0.016380056914687156,-0.02705788359977305,0.04939093063473701
1733703507992424200,11.887424072265626,0.018065818044543266,-0.012370949137490242,0.044851533639431
1733703508002390300,11.897390380859376,0.024319617742300032,-0.0393644439978525,0.04335398855805397
1733703508012357000,11.907357177734376,0.023591887989640233,-0.02864727168306708,0.02692249371707439
1733703508022323500,11.917323486328126,0.018676058897376058,-0.010887797907646745,0.03977262293994426
1733703508032290300,11.927290283203124,0.02693184606730938,-0.012053827746026218,0.0324731135815382
1733703508042256400,11.93725634765625,0.021306991922855376,-0.0243562051593326,0.0345294615894556
1733703508052222200,11.94722216796875,0.02769990783035755,-0.009584058365318924,0.04269640143215656
1733703508062189300,11.957189208984374,0.035468203744292257,0.0034303397748619317,0.053875967094302174
1733703508072155100,11.967155029296874,0.023331775748729706,-0.01042310300534591,0.0406686949968338
1733703508082122200,11.977122314453124,0.018706454035639763,0.0027713461431674658,0.04105857109725475
1733703508092088300,11.98708837890625,0.01687865408658981,-0.0014459427583031355,0.040431963631510734
1733703508102054400,11.997054443359374,0.032089082700014114,-0.021479645076021552,0.03336450946331024
