time,seconds_elapsed,z,y,x
1733359623761754000,0.019754150390625,0.032034137642383574,-0.11416384705752133,-0.4185860620766878
1733359623771719000,0.029718994140625,0.12494389200806617,-0.2120622034907341,-0.41915743222385643
1733359623781685000,0.03968505859375,0.10408873550593853,-0.26411943072527644,-0.40700142274498935
1733359623791650000,0.049650146484375,0.07368132228255271,-0.22958178582936525,-0.3717398474887013
1733359623801616000,0.059615966796875,0.034306758749485015,-0.07994973502755165,-0.24047931967973707
1733359623811581000,0.069580810546875,0.18130641522109509,-0.00795855778902769,0.08047229759693145
1733359623821547000,0.079547119140625,0.2395411620467901,-0.14639789118617771,0.34536709660887716
1733359623831512000,0.089511962890625,0.0827227068722248,-0.3151531601309776,0.33125293879956
1733359623841478100,0.09947802734375,-0.02413724691271782,-0.6140320618093014,-0.05691051248461008
1733359623851443000,0.10944287109375,0.051580549633502955,-0.8662944660022854,-0.5784302948132157
1733359623861409000,0.119408935546875,0.11264788953661918,-1.0977969907611609,-1.1092457287535071
1733359623871374000,0.1293740234375,0.22050386862158775,-1.2807540957987307,-1.6747709492862224
1733359623881339100,0.139339111328125,0.26990765873789785,-1.1695610812455415,-2.1574939679697156
1733359623891305000,0.149304931640625,0.0072188453376293175,-1.3420838860303164,-2.843929587210715
1733359623901270000,0.15927001953125,-0.10008592960536479,-1.61790193785578,-3.5379216131806372
1733359623911236000,0.169236083984375,-0.00042260932624340057,-1.7983777474716305,-4.003176779712736
1733359623921201000,0.179200927734375,0.22322598706185817,-1.6829837740972637,-4.01042485114485
1733359623931167200,0.189167236328125,1.035486957320571,-1.1443281480506062,-3.2238112401008605
1733359623941132000,0.199132080078125,2.0060031375586984,-0.885820127466321,-1.7418191171646118
1733359623951097900,0.209097900390625,1.9586223777025937,-1.1519055975675583,-0.3662196227625012
1733359623961063000,0.21906298828125,1.4724609090030192,-1.3782745588302612,0.6035951312080026
1733359623971029000,0.229029052734375,0.848523539251089,-1.2994053125157952,0.8636363527089357
1733359623980994000,0.238994140625,0.2805512178272009,-1.0610498531222343,0.2589502113938331
1733359623990960000,0.248960205078125,-0.036519758623838425,-0.9271434869796037,-0.9309460941329598
1733359624000925200,0.25892529296875,-0.24495149665772914,-0.9522980942413211,-2.2637737837791443
1733359624010890000,0.268889892578125,-0.20184826799035072,-1.0183449761226773,-3.1357138544529675
1733359624020855800,0.278855712890625,-0.059013329982757566,-0.9831406840115785,-3.1342578104257584
1733359624030821000,0.288821044921875,0.5234148022949695,-0.8798492363631725,-2.253742219108343
1733359624040787000,0.298786865234375,1.2186053903996943,-0.7704854830637574,-0.8525123166263103
1733359624050752000,0.308751953125,1.5089485189229248,-0.7286249479338527,0.35570611979365346
1733359624060718000,0.318718017578125,1.1588672532737254,-0.5903253152683376,1.1631471225500105
1733359624070683000,0.328682861328125,0.1750882713586092,-0.30895138288140295,1.679406207871437
1733359624080649000,0.33864892578125,-0.8912468286901712,0.01767740324884653,1.8718477650910614
1733359624090614000,0.348614013671875,-1.142825050011277,0.07414134100973606,1.6399451350986956
1733359624100580000,0.358580078125,-0.9054419427812099,0.05119856457859277,1.2291349677205086
1733359624110545000,0.368544921875,-0.4514812004625797,0.0031365444600582122,0.9453034130483865
1733359624120511000,0.378510986328125,-0.07619827353954314,-0.05801818146556616,0.9974474417835474
1733359624130476000,0.38847607421875,0.2561456753671169,0.09034837944507598,1.5119295805603266
1733359624140441900,0.39844189453125,0.4664052133500576,0.5197422512620687,2.255541377484798
1733359624150407200,0.4084072265625,0.39249008231163024,1.1126520300656557,2.9227281063765287
1733359624160373000,0.418373046875,0.22679683128595352,1.5853507906019686,3.070663582393527
1733359624170337800,0.428337890625,0.1331780518680811,1.6229770491629838,2.503649292346835
1733359624180303000,0.43830322265625,0.1229161855727434,1.3030840010285376,1.360993753683567
1733359624190269000,0.44826904296875,0.07674129437506198,0.8402823651283979,0.4275695789992809
1733359624200234000,0.45823388671875,0.10272621498107909,0.45752340323626994,0.19070552720725537
1733359624210200000,0.468199951171875,0.16517419558763502,0.27950317007899284,0.38512452197968955
1733359624220165000,0.4781650390625,0.31632951043397184,0.30744740805923937,0.7843202394098043
1733359624230131000,0.488130859375,0.42181203838586806,0.44984979986846446,1.2022259180068968
1733359624240096000,0.498095947265625,0.3647977732658386,0.661463675069809,1.4669956293344497
1733359624250062000,0.50806201171875,0.16781448096334933,0.7970259917259216,1.4756751948744058
1733359624260027000,0.51802685546875,-0.039701895791292185,0.827294288739562,1.162040622612834
1733359624269993700,0.52799365234375,-0.11851122861206531,0.7643699227929115,0.5200286669880152
1733359624279959000,0.537958984375,-0.1424146667689085,0.659109805420041,-0.17747721232175825
1733359624289924900,0.5479248046875,-0.19949936677664518,0.5213783280313015,-0.6808715553730725
1733359624299890000,0.557889892578125,-0.1326104811131954,0.319870836302638,-0.9289730404943227
1733359624309856000,0.56785595703125,0.09302256709039211,0.07643091325163841,-0.8582242645323276
1733359624319820800,0.57782080078125,0.6171756205320358,-0.13197276773154734,-0.500858687093854
1733359624329787000,0.587786865234375,1.074743447431922,-0.13926058665215968,0.03177928609848022
1733359624339752000,0.597751953125,1.1609899445161223,0.031190088033676146,0.753967771244049
1733359624349717000,0.607717041015625,0.9476187042534351,0.2825876920908689,1.5428788455754519
1733359624359682800,0.617682861328125,0.5059411049246788,0.5327759203583001,2.1525831073135135
1733359624369647900,0.62764794921875,0.02468786653280258,0.6737579239755869,2.4546201807618138
1733359624379614000,0.637614013671875,-0.43034898058474064,0.6797533649981021,2.24117792108953
1733359624389578800,0.647578857421875,-0.5829480644986033,0.5543021079897881,1.2454630021870134
1733359624399544800,0.657544921875,-0.6206579096898436,0.28886896431744097,-0.14740940631628036
1733359624409510000,0.667510009765625,-0.6997668099790811,0.15878654037714005,-0.7508651290535926
1733359624419475700,0.677475830078125,-0.5163087696820498,0.08037935861647129,-0.6793710876822471
1733359624429441000,0.68744091796875,-0.19978899737298486,-0.0650724838912487,-0.495608511480689
1733359624439406800,0.69740673828125,0.20862989095449447,-0.15439502741992472,-0.40711481999158855
1733359624449372000,0.707371826171875,0.5508598585814237,-0.08216098133623599,-0.2490963413774967
1733359624459338000,0.717337890625,0.6351233651548623,0.04121288487613201,-0.053182724133133887
1733359624469302800,0.727302734375,0.557043515652418,0.16964929517507552,0.11824936280548572
1733359624479268900,0.737268798828125,0.3395633787661791,0.2379518470287323,0.2653489725202322
1733359624489234000,0.74723388671875,0.08552548933327198,0.23609832811653614,0.37594460570216176
1733359624499199000,0.757198974609375,-0.04961451025754213,0.17046762582063674,0.41367666272521014
1733359624509164800,0.767164794921875,-0.13809154287278652,0.082278470236063,0.45677989139258857
1733359624519130000,0.777130126953125,-0.20518004276156424,0.04883972649276256,0.5292126749187708
1733359624529096000,0.787095947265625,-0.26049773309677837,0.021397592815756795,0.6523264288902282
1733359624539060700,0.797060791015625,-0.36487317658960816,0.0026490532040596006,0.7652022819638252
1733359624549027000,0.807027099609375,-0.520278842356801,-0.020432547175884247,0.8035609464526176
1733359624558992000,0.816991943359375,-0.656795390997827,-0.07970189774632454,0.7936024470180273
1733359624568957700,0.826957763671875,-0.7818588177323341,-0.16308920600712298,0.6972785002946853
1733359624578923000,0.836923095703125,-0.852645295356214,-0.270185306635499,0.5332657497018576
1733359624588888800,0.846888916015625,-0.8899205485224724,-0.369642290687561,0.37484336646199223
1733359624598854000,0.85685400390625,-0.9020666211292148,-0.4559072002112865,0.24554361733198166
1733359624608820000,0.866820068359375,-0.8312357198417186,-0.5444751259803772,0.1207341653585434
1733359624618785000,0.876784912109375,-0.6845566736266017,-0.6064817925602197,0.03937164092361927
1733359624628750800,0.886750732421875,-0.5675967661097645,-0.5807768579393625,-0.015940496453642844
1733359624638716000,0.8967158203125,-0.24417846645861863,-0.5692103387862444,-0.06705225953161716
1733359624648681000,0.906680908203125,0.12523352260440587,-0.588491377839446,-0.18265315365493295
1733359624658646800,0.916646728515625,0.5474363138735294,-0.58954702437222,-0.3817091605782509
1733359624668612000,0.926612060546875,0.9946008201807737,-0.6221610077291727,-0.6724550246834754
1733359624678578000,0.936577880859375,1.3018591354086995,-0.6274409939587116,-0.9903612829148769
1733359624688542700,0.946542724609375,1.3883350573346018,-0.6354156260997057,-1.248772565126419
1733359624698509000,0.956509033203125,1.3081921378225088,-0.5951373917251825,-1.2337678882181644
1733359624708473900,0.966473876953125,1.12062607768476,-0.4798673369914293,-0.8962474134564399
1733359624718440000,0.97643994140625,0.7688920763924717,-0.3160767047166824,-0.5370324087589979
1733359624728405000,0.986405029296875,0.44775019724071025,-0.09545534719526767,-0.21674656191468236
1733359624738370800,0.996370849609375,0.16705986320376395,0.08358195405006408,-0.0016799159109592437
1733359624748335900,1.0063359375,-0.12825228590369223,0.1878635817795992,0.12984276996552943
1733359624758302000,1.016302001953125,-0.34025808303207156,0.2140127530366182,0.19902444274127482
1733359624768267000,1.02626708984375,-0.46901977976262565,0.15376257473528385,0.26812252888679505
1733359624778232800,1.03623291015625,-0.5956859655186534,0.0804267048895359,0.3157844437718391
1733359624788198000,1.046197998046875,-0.6348392875164747,0.023504794228076935,0.39329789156317707
1733359624798164000,1.0561640625,-0.599621843662858,-0.004365209472179413,0.4539215793520212
1733359624808128800,1.066128662109375,-0.5641974790602922,0.029516601863503453,0.5756932710647583
1733359624818093800,1.07609375,-0.45449324176013467,0.08953940114974974,0.7025315985172986
1733359624828060000,1.086059814453125,-0.28451398397833105,0.09763619836568832,0.6938485258460044
1733359624838025000,1.09602490234375,-0.12118483173549174,0.051391164541244504,0.4922071786046028
1733359624847991000,1.105990966796875,-0.03947451677620411,-0.04497603680193424,0.23770050261616704
1733359624857955800,1.115955810546875,-0.02053308494091034,-0.13212357437908648,-0.033517654198408124
1733359624867922000,1.125921875,-0.02108545812666416,-0.21195582050681114,-0.2509504448115826
1733359624877886700,1.13588671875,0.049210021109879015,-0.22671792083084583,-0.40564124030768867
1733359624887852800,1.145852783203125,0.13240151453763246,-0.21071371149122714,-0.5224252067357301
1733359624897817900,1.15581787109375,0.2302688913106918,-0.2020885064870119,-0.5183884985655546
1733359624907784000,1.165783935546875,0.2981967646330595,-0.14611527485251427,-0.4952735804378986
1733359624917749000,1.1757490234375,0.30349574782401323,-0.10119184502065182,-0.4424333861321211
1733359624927714800,1.18571484375,0.2735881008163094,-0.1159276418596506,-0.3956371481657028
1733359624937680100,1.19568017578125,0.16061697067469358,-0.1660346118092537,-0.371227514052391
1733359624947646000,1.20564599609375,0.06997662254571914,-0.204938050699234,-0.31574235819578167
1733359624957610800,1.21561083984375,-0.022484803530573843,-0.23914836333692072,-0.24841888050734995
1733359624967575800,1.225575927734375,-0.09012070816904307,-0.22538053474724293,-0.1235918928772211
1733359624977542000,1.2355419921875,-0.13747837941050528,-0.16403262433707713,0.034277532655000685
1733359624987507000,1.2455068359375,-0.1846551411271095,-0.08563304136097431,0.22587036409080027
1733359624997473000,1.25547314453125,-0.192367907461524,0.01575549527555704,0.4258563453406095
1733359625007437800,1.265437744140625,-0.21529110240936278,0.10402210001051425,0.5491781891047954
1733359625017404000,1.27540380859375,-0.2308621810287237,0.14696107802689073,0.6708534347057342
1733359625027368700,1.28536865234375,-0.18756138396263122,0.16538023955374956,0.7421656897693872
1733359625037335000,1.2953349609375,-0.12797697609364986,0.1908496118530631,0.7414595873266459
1733359625047299800,1.3052998046875,-0.08806231433451175,0.18266396730989218,0.7091162376046181
1733359625057266000,1.315265869140625,-0.021806758138537406,0.18555384353250265,0.6645376756876706
1733359625067231000,1.32523095703125,-0.019803017100691794,0.16941928581148386,0.6073772800952196
1733359625077196800,1.33519677734375,-0.06266834535896777,0.12042349197417497,0.5830892265349626
1733359625087161900,1.345161865234375,-0.04932049574702978,0.0700917733579874,0.5132195714950561
1733359625097128000,1.3551279296875,-0.05299480034559965,-0.006100070440769195,0.3596650865525007
1733359625107092700,1.3650927734375,-0.047724166466295716,-0.04512216727435588,0.24656828420460222
1733359625117059000,1.37505908203125,-0.06852905408591031,-0.07128244444727898,0.17342647562623023
1733359625127023900,1.38502392578125,-0.0724058955192566,-0.06693243254423141,0.1571241601228714
1733359625136989000,1.394989013671875,-0.07254092007577419,-0.02278992395699024,0.11886077270209788
1733359625146954800,1.404954833984375,-0.10897037006765603,0.004085223487019538,0.03442717025876045
1733359625156920000,1.414920166015625,-0.13410130419284105,0.03447305522710085,-0.05440846653580665
1733359625166886000,1.424885986328125,-0.12645400431007145,0.023320962093770502,-0.170299283516407
1733359625176850700,1.4348505859375,-0.09693915601223707,-0.012571312281489371,-0.2482119597584009
1733359625186817000,1.444817138671875,-0.04533142611086368,-0.06191314307749271,-0.3051934916526079
1733359625196781800,1.45478173828125,-0.03124386404752731,-0.11175386330634354,-0.3285422185361385
1733359625206747600,1.46474755859375,-0.00753594846278429,-0.13031009521633385,-0.3201169200181961
1733359625216713000,1.474712890625,-0.017998598027229307,-0.14820114121586084,-0.26885259672701356
1733359625226678800,1.4846787109375,-0.03266366771757603,-0.13445230958759785,-0.2226753674417734
1733359625236643800,1.494643798828125,-0.0625450112402439,-0.11308569643199443,-0.16851649175286293
1733359625246610000,1.50460986328125,-0.0950681014433503,-0.0797799314185977,-0.121025841781497
1733359625256575000,1.514574951171875,-0.1385992001339793,-0.08976064268499612,-0.08138181365728378
1733359625266540000,1.5245400390625,-0.14362901099473238,-0.10244301412552595,-0.03336450946331024
1733359625276505300,1.53450537109375,-0.13870821346640586,-0.12589374007880688,0.010161328530311584
1733359625286471200,1.54447119140625,-0.08382628419995307,-0.13451865282207726,0.05613572871983051
1733359625296436000,1.55443603515625,-0.051909050935506816,-0.13256196579635143,0.09715396780669688
1733359625306401300,1.5644013671875,-0.011739537632465363,-0.10051496867239475,0.13645195897221565
1733359625316367000,1.5743671875,0.04238485126495361,-0.06462327881902456,0.1733808829188347
1733359625326332200,1.584332275390625,0.09007949937582016,-0.03491670734137296,0.18243688055574894
1733359625336298200,1.59429833984375,0.10106120437830686,0.018627835841476915,0.19098375962674616
1733359625346263300,1.60426318359375,0.10542202993631362,0.0766118227764964,0.204585583999753
1733359625356229000,1.61422900390625,0.10251374127417802,0.12471738977581262,0.197660753172636
1733359625366194200,1.624194091796875,0.09976794969737529,0.14740794501155613,0.18031506609618664
1733359625376160300,1.63416015625,0.10260638799369334,0.14909896683841942,0.2074000568985939
1733359625386125000,1.644125,0.094007486474514,0.13395751180797816,0.23219722902476786
1733359625396091100,1.654091064453125,0.054226972489058965,0.12805296393930912,0.2686719794631004
1733359625406056200,1.66405615234375,0.009119126001000405,0.12237462604194879,0.28720073884427544
1733359625416022000,1.67402197265625,-0.004578559961915016,0.11775544180870055,0.26076807447075845
1733359625425987300,1.6839873046875,-0.02773994757980108,0.10032353775352239,0.23706863445341586
1733359625435953200,1.693953125,0.0030167174726724623,0.07297054366469383,0.19971125596165656
1733359625445918200,1.703918212890625,-0.0010369418323040009,0.000020458266139030454,0.17779519222974777
1733359625455884300,1.71388427734375,0.012577742022275924,-0.042023324476182455,0.17008359493911265
1733359625465849000,1.72384912109375,0.02681581847220659,-0.06066109718978405,0.1574468162059784
1733359625475814100,1.733814208984375,-0.0025999533653259274,-0.07444324656575918,0.1286374858289957
1733359625485780200,1.7437802734375,-0.03828589151352644,-0.0858753256842494,0.07605565019845963
1733359625495745300,1.753745361328125,-0.08587094177007674,-0.10267448479384184,0.010842881053686141
1733359625505711000,1.763711181640625,-0.10203998628258705,-0.15305179611742495,-0.04301613490581512
1733359625515676000,1.773676025390625,-0.12679331926703452,-0.1994172414511442,-0.085476974016428
1733359625525642200,1.783642333984375,-0.11448504183590412,-0.24578268678486345,-0.10871873339414596
1733359625535607000,1.79360693359375,-0.09826339035332202,-0.26569442495703693,-0.10827391223609446
1733359625545573000,1.803572998046875,-0.09885025033056735,-0.25742519378364087,-0.10804945583045482
1733359625555538200,1.8135380859375,-0.10389087484627961,-0.23770810140073298,-0.07875614132881165
1733359625565504000,1.82350390625,-0.12110241414904593,-0.19124007247537372,-0.07775543985366822
1733359625575469300,1.83346923828125,-0.1462532220184803,-0.15605916123986244,-0.070950436013937
1733359625585435100,1.84343505859375,-0.192304486836493,-0.17158201680332422,-0.04469137464165687
1733359625595400200,1.853400146484375,-0.18838789791464805,-0.16585604037195442,-0.0013175123393535614
1733359625605366300,1.8633662109375,-0.1923719991147518,-0.14747984120398758,0.019523615637421606
1733359625615331000,1.8733310546875,-0.21783114228099584,-0.1473664439573884,0.01637713430523872
1733359625625297200,1.883297119140625,-0.18238982654362915,-0.15768822374641894,0.018575521132349965
1733359625635262200,1.89326220703125,-0.17633125715702772,-0.20682401057630775,-0.002351531562209129
1733359625645227300,1.903227294921875,-0.15914485229551792,-0.28378391613811255,-0.038709962144494056
1733359625655193000,1.913193115234375,-0.1456914964824915,-0.32643618616759773,-0.07166179915368556
1733359625665158100,1.923158203125,-0.13014847491383552,-0.37522505925595756,-0.10055822329223156
1733359625675124200,1.933124267578125,-0.13597878850251435,-0.3912336525097489,-0.12365969741642474
1733359625685089000,1.943089111328125,-0.12022212418317794,-0.35384324853122234,-0.1167296058923006
1733359625695055400,1.953055419921875,-0.0838771376043558,-0.29569325737953184,-0.08916355357468128
1733359625705020200,1.963020263671875,-0.06836684926152228,-0.22530571594536303,-0.054831075862050056
1733359625714986000,1.972986083984375,-0.06387392175644636,-0.18004297115653753,-0.07045709953904152
1733359625724951000,1.982950927734375,-0.04173544744551182,-0.1487578983157873,-0.1030880340307951
1733359625734917000,1.992917236328125,-0.0316407544106245,-0.12843757934272287,-0.14680325711667536
1733359625744882200,2.002882080078125,-0.027743162450194356,-0.09537409865260124,-0.18040215985774993
1733359625754848300,2.01284814453125,-0.0072176762938499445,-0.06270692380368709,-0.21171850461959837
1733359625764813300,2.022813232421875,-0.023504794228076935,-0.05492167675495147,-0.2036924345523119
1733359625774779100,2.032779052734375,0.0026578210324048994,-0.039811785906553265,-0.17088380540609358
1733359625784744000,2.042743896484375,0.030274142232537268,-0.05241173976063728,-0.1307329968035221
1733359625794710300,2.052710205078125,0.04164250846505165,-0.051127545168995855,-0.06671908205449581
1733359625804675000,2.062675048828125,0.07664251017570495,-0.05222293919026851,0.05831657989025116
1733359625814641200,2.07264111328125,0.09479600650370121,-0.040239655929803844,0.22415771495401857
1733359625824606200,2.082606201171875,0.1182499473273754,-0.03008008096516132,0.3774930041879415
1733359625834571000,2.092571044921875,0.1358522395133972,0.010839958444237708,0.5322480970919132
1733359625844537000,2.102537109375,0.12658639851808548,0.07794482494592667,0.6579501139909029
1733359625854502100,2.112502197265625,0.11408522886335849,0.15132219584584236,0.7138391744732856
1733359625864468200,2.12246826171875,0.1096405244141817,0.20453589963912963,0.7242173606246709
1733359625874433000,2.13243310546875,0.07798515695631504,0.25093466272056103,0.6857675107210874
1733359625884399000,2.142399169921875,0.0869406168282032,0.2637812848120928,0.6124070909559727
1733359625894364200,2.1523642578125,0.023305180002748966,0.2449520811796188,0.5083423208475113
1733359625904330200,2.162330322265625,-0.009358779975771904,0.2239963869124651,0.37978783712685105
1733359625914295300,2.17229541015625,-0.026118483857810494,0.21619331194609404,0.24985329722464084
1733359625924261000,2.18226123046875,-0.03894230959564447,0.1849067778006196,0.10140227290093898
1733359625934226000,2.192225830078125,0.0004886602997779846,0.15692483815848826,-0.020561141991615295
1733359625944192300,2.202192138671875,0.02584112822115421,0.11011252584010361,-0.13601239851117133
1733359625954157000,2.212156982421875,0.027262393195927142,0.026144202820956707,-0.24833470935523508
1733359625964123100,2.222123046875,0.004563362392783165,-0.020177695631980894,-0.32877894990146156
1733359625974088200,2.232088134765625,-0.01775543692111969,-0.08784750254005193,-0.4194178367257118
1733359625984054000,2.242053955078125,-0.06113485218137502,-0.14678162980675696,-0.4761404254227876
1733359625994019000,2.25201904296875,-0.10506050314754246,-0.20918021831363437,-0.4823813656389713
1733359626003984100,2.261984130859375,-0.14315233339369296,-0.26164777991473676,-0.42867140276134014
1733359626013950200,2.2719501953125,-0.16464841814786194,-0.3175090756073594,-0.3599222761839628
1733359626023915000,2.2819150390625,-0.18285773631632327,-0.33568653733283277,-0.2801163335412741
1733359626033881000,2.291881103515625,-0.19832097064703702,-0.32242285887300964,-0.14962006810307502
1733359626043846100,2.30184619140625,-0.20029577785134314,-0.31193069095313547,-0.05098258374035358
1733359626053812000,2.31181201171875,-0.20085078138560056,-0.29319939473718404,0.03671323536932468
1733359626063777300,2.32177734375,-0.1909562870979309,-0.30443770484924315,0.15140519795417784
1733359626073743000,2.3317431640625,-0.16481471462547778,-0.3049152592331171,0.2343091066122055
1733359626083708200,2.341708251953125,-0.10510492681115866,-0.29145751950591803,0.27408114503026004
1733359626093674200,2.35167431640625,-0.08684709332585334,-0.27311493034660816,0.26050094796717166
1733359626103639000,2.36163916015625,-0.10977437992691993,-0.23438597124069926,0.21397300554811954
1733359626113605000,2.371605224609375,-0.13828238926976918,-0.22575053710341453,0.15175883369743823
1733359626123570200,2.381570068359375,-0.18116729901134968,-0.20624650294929742,0.11761574107706546
1733359626133536000,2.391535888671875,-0.12841478298902512,-0.22453414705097674,0.07850187430679798
1733359626143501000,2.4015009765625,-0.05386866057068109,-0.21381460011601447,0.03132978876531124
1733359626153467100,2.411467041015625,-0.018977379931509494,-0.18125673086047173,0.026268413722515104
1733359626163432200,2.42143212890625,0.02023497877717018,-0.11469196258485316,0.03972586118876934
1733359626173398300,2.431398193359375,0.0446355528011918,-0.06967617829442024,0.06174012459814548
1733359626183363000,2.441363037109375,0.027449440200626847,-0.026072598889470097,0.10821487552523612
1733359626193328000,2.451328125,0.014692249958217144,0.0018958967491984366,0.15601999827325344
1733359626203294000,2.4612939453125,0.032844869503378865,0.01777501840442419,0.17447335433065891
1733359626213259300,2.47125927734375,0.01511544380635023,0.03842442320138216,0.18870178616940975
1733359626223225000,2.48122509765625,-0.016262568014860153,0.012221768191456794,0.18135142340660093
1733359626233190100,2.491190185546875,-0.03613689678609371,0.004656885895133018,0.19615560930669307
1733359626243156200,2.50115625,-0.038025487011671064,-0.026979192340373992,0.20165420672297477
1733359626253121000,2.51112109375,-0.008711714243888854,-0.04049363069087267,0.22049451627135275
1733359626263087000,2.521087158203125,0.006314005452394485,-0.039300036992132664,0.22515724738538265
1733359626273052400,2.531052490234375,0.008880348809063434,-0.0369064198538661,0.23219898259043692
1733359626283018500,2.5410185546875,-0.0019192776247859,-0.03939648310393095,0.2463426587551832
1733359626292983600,2.550983642578125,-0.03328267639875412,-0.05814911436885595,0.23322189589738845
1733359626302949400,2.560949462890625,-0.056792146801948544,-0.05429711511582136,0.1989203978449106
1733359626312914700,2.570914794921875,-0.16128712502121925,-0.11767390100508927,0.16335750155448914
1733359626322880500,2.580880615234375,-0.1802250497251749,-0.1973068251684308,0.07199439210891723
1733359626332845600,2.590845458984375,-0.14829963315427303,-0.20121406174004078,0.00950491044819355
1733359626342811600,2.600811767578125,-0.12445143231600522,-0.2037871270984411,-0.06448971556723117
1733359626352776400,2.6107763671875,-0.08452829498946667,-0.19252572837173937,-0.15795125859677792
1733359626362742500,2.620742431640625,-0.05537731156796217,-0.1721577708646655,-0.23535247818529603
1733359626372707600,2.63070751953125,-0.028146774815022944,-0.17000731483250855,-0.25799919427931306
1733359626382673400,2.64067333984375,-0.02258475677371025,-0.17984803310632705,-0.281845349290967
1733359626392638500,2.650638427734375,-0.025184125617146492,-0.16495763022750615,-0.26151567796766756
1733359626402603500,2.660603515625,-0.0561842440366745,-0.1617263932213187,-0.26399112817049025
1733359626412569600,2.670569580078125,-0.06823620861917734,-0.14172054702490566,-0.26931553806364533
1733359626422534400,2.680534423828125,-0.06527180585563182,-0.14202069901525974,-0.25200083064734935
1733359626432500500,2.69050048828125,-0.04406447491496801,-0.14462299046814442,-0.25109599076211453
1733359626442465500,2.700465576171875,-0.04250438599139452,-0.1359858027651906,-0.2412801146686077
1733359626452431400,2.710431396484375,-0.059065936952829357,-0.12463409540653228,-0.2244534830302
1733359626462396700,2.720396728515625,-0.08292582822889089,-0.1384472244426608,-0.19248072018623352
1733359626472362500,2.730362548828125,-0.10704407818019389,-0.13205021688193083,-0.1316132867693901
1733359626482327600,2.74032763671875,-0.09478168571740388,-0.100732703076303,-0.022833763098716736
1733359626492293600,2.750293701171875,-0.05574906748980284,-0.05429360798448324,0.06823474731445311
1733359626502258400,2.760258544921875,-0.025372049404680727,-0.019894202515482903,0.19187281742095946
1733359626512224500,2.770224609375,-0.007541501420736312,0.027415537931025028,0.2917459810584783
1733359626522189600,2.780189453125,-0.04997194539308548,0.028203765699267386,0.39309389342367645
1733359626532155400,2.7901552734375,-0.11445581574141979,0.0051876317709684365,0.4157692510902881
1733359626542120400,2.800120361328125,-0.19066461067497728,-0.023761691598594186,0.3862719384491443
1733359626552086500,2.81008642578125,-0.23891543136388063,-0.049263212601840495,0.35749475677609444
1733359626562051600,2.820051513671875,-0.21795886031389236,-0.0343640418946743,0.3067424746602774
1733359626572017400,2.830017333984375,-0.1358925715237856,-0.014225216968357561,0.24033318920731542
1733359626581982700,2.839982666015625,-0.058714054775238035,0.018011749769747256,0.21352526178061962
1733359626591948500,2.849948486328125,0.03542962529957294,0.04617196858823299,0.15804185948967933
1733359626601913300,2.859913330078125,0.1363403152912855,0.07460223651975392,0.09961188235282897
1733359626611878400,2.86987841796875,0.1906552583247423,0.0852671306580305,0.030462358281016347
1733359626621844500,2.879844482421875,0.25204408526718614,0.0828144768089056,-0.010974398478865622
1733359626631809500,2.8898095703125,0.27809096519351006,0.08331891919970512,-0.03787818749547005
1733359626641775600,2.899775634765625,0.28612931022047994,0.07420622293949126,-0.04098375229537487
1733359626651740700,2.90974072265625,0.250287596988678,0.09271510857641696,0.017754267877340316
1733359626661706500,2.91970654296875,0.18576251784712075,0.06555763705968856,0.09686112233996391
1733359626671671600,2.929671630859375,0.09663783497810363,0.061222822725772855,0.18392273519933222
1733359626681637600,2.9396376953125,0.009368424586951732,0.06903086612820625,0.28278759857714175
1733359626691602400,2.9496025390625,-0.05682634133249521,0.05829495258033275,0.3462877185851335
1733359626701568500,2.959568603515625,-0.07711334255784749,0.01976151604652405,0.3831874164372682
1733359626711533600,2.969533447265625,-0.07911240742057561,-0.000678045392036438,0.3962123177051544
1733359626721499400,2.97949951171875,-0.07667758148908614,-0.049212651458382606,0.41634851228296754
1733359626731464700,2.989464599609375,-0.059928691262006756,-0.0782116591885686,0.40509062068760393
1733359626741430500,2.999430419921875,-0.07256956164836884,-0.09476853397488594,0.35733518230021
1733359626751395600,3.0093955078125,-0.12462620436102151,-0.12475421465486287,0.28495442122220993
1733359626761361700,3.019361572265625,-0.18328093016445635,-0.13241174367070196,0.1828214959591627
1733359626771326500,3.029326416015625,-0.18087182319611309,-0.1409863875314593,0.0718131903231144
1733359626781292500,3.03929248046875,-0.15103607238084077,-0.14620032278746364,0.010813070437312125
1733359626791257600,3.049257568359375,-0.11291589282304047,-0.14181845444142818,-0.04303483960628509
1733359626801223400,3.059223388671875,-0.07321048990041017,-0.1721098400697112,-0.09027297612130641
1733359626811188500,3.0691884765625,-0.0485942272990942,-0.21572335634678602,-0.09589607670009136
1733359626821153300,3.0791533203125,-0.03279547740370035,-0.263055308625102,-0.06514087295234203
1733359626831119600,3.08911962890625,-0.03968903630971908,-0.2949704960629344,-0.05407002836167812
1733359626841084400,3.09908447265625,-0.06205459737479686,-0.28264585201889275,-0.04414660024046898
1733359626851050500,3.109050537109375,-0.08928221151828765,-0.2820513932570815,-0.009466332003474236
1733359626861015600,3.119015625,-0.09426730645447969,-0.24851357305347918,0.019947394007444382
1733359626870981400,3.1289814453125,-0.11271627859771251,-0.20492957513183355,0.06413958695530891
1733359626880946400,3.138946533203125,-0.11575696146786212,-0.15922960796952246,0.130837626221776
1733359626890912500,3.14891259765625,-0.10965309163480996,-0.12336480612307786,0.22706220422387122
1733359626900877600,3.158877685546875,-0.07073591648042202,-0.07320201433300971,0.29755086794495583
1733359626910843600,3.16884375,-0.06480711095333098,-0.06899257994443178,0.34695407353937624
1733359626920808400,3.178808349609375,-0.09619301382005215,-0.056715866695344445,0.3523404427528381
1733359626930774500,3.1887744140625,-0.11224983012974261,-0.040246377931535245,0.28934827226698395
1733359626940739600,3.198739501953125,-0.16324936500489712,-0.03745119425505399,0.17877309735119343
1733359626950705400,3.208705322265625,-0.19298311675041913,-0.05440057549029589,0.006820785930752754
1733359626960670500,3.21867041015625,-0.17197043159902095,-0.022824118487536908,-0.13324001118838785
1733359626970636500,3.228636474609375,-0.11436112319529056,-0.006691898854076862,-0.2425344986438751
1733359626980601600,3.2386015625,-0.004960252755880356,0.008840601320564747,-0.3294219239801168
1733359626990567400,3.2485673828125,0.08233692242503166,0.017658406287431715,-0.4227560412377119
1733359627000532700,3.25853271484375,0.147962071762979,0.03270341520607471,-0.5001362180382013
1733359627010498600,3.26849853515625,0.22141192337721585,0.036166415141522884,-0.5533236183464527
1733359627020463400,3.27846337890625,0.257924667738378,0.013064064234495161,-0.542776505368948
1733359627030429700,3.2884296875,0.2696194894462824,0.014277239416539668,-0.501103017243743
1733359627040394500,3.29839453125,0.24074498487859963,0.017146072851121425,-0.41849195405244827
1733359627050359600,3.308359619140625,0.17532208011448383,-0.0022469021439552304,-0.37861587073802944
1733359627060325600,3.31832568359375,0.06166004509925842,-0.03908756328523159,-0.36218612946271894
1733359627070290700,3.328290771484375,-0.040328503257036206,-0.053044192445278165,-0.357961789765954
1733359627080256500,3.338256591796875,-0.12009820554256438,-0.044532676948606964,-0.3312637524545193
1733359627090221300,3.34822119140625,-0.1521171456158161,-0.03525339194983244,-0.278754982060194
1733359627100187600,3.358187744140625,-0.15103811820745466,-0.053290860682725906,-0.19074352113008497
1733359627110152400,3.36815234375,-0.11965513795018196,-0.1250900224804878,-0.09997603949010371
1733359627120118500,3.378118408203125,-0.05356850858032703,-0.18038345515727996,-0.027160394126176834
1733359627130083600,3.38808349609375,0.03436053476333618,-0.25248364572823045,0.06017769758701324
1733359627140049400,3.39804931640625,0.08757482307851314,-0.30991525947749615,0.134701900434494
1733359627150014500,3.408014404296875,0.10868132399320601,-0.33749680162519213,0.2108896525800228
1733359627159980500,3.41798046875,0.06889788739830255,-0.3185048086464405,0.27704934718608853
1733359627169945600,3.427945556640625,0.013611468984186649,-0.2685004222884774,0.29801614736914633
1733359627179911700,3.43791162109375,-0.06581015051603317,-0.18310148194432257,0.30864275532364843
1733359627189876500,3.44787646484375,-0.1272819795668125,-0.10242372490316629,0.3235299433320761
1733359627199842600,3.457842529296875,-0.14808978979587553,-0.03196282597184181,0.3457978892415762
1733359627209807400,3.467807373046875,-0.14274199902713297,0.02003887168318033,0.3248457021057606
1733359627219773400,3.4777734375,-0.12901654827445744,0.036403731028735634,0.2957943796664476
1733359627229738500,3.487738525390625,-0.13693681987971065,0.0563172227665782,0.2881190227329731
1733359627239704600,3.49770458984375,-0.1443807061448693,0.05320873535722494,0.28728841712772846
1733359627249669600,3.507669677734375,-0.17408026335984467,0.023485212744772433,0.2623942143678665
1733359627259635500,3.517635498046875,-0.2015031078144908,0.014903846882283687,0.22903788821101187
1733359627269600300,3.527600341796875,-0.18604075026661157,-0.00428337640762329,0.18010580725967884
1733359627279565300,3.5375654296875,-0.12921440893411634,-0.04574409856498241,0.11186872185766697
1733359627289531100,3.54753125,-0.08928805673718451,-0.078287354773283,0.06333703840076924
1733359627299496200,3.55749609375,-0.026888883708417414,-0.12973141854554415,0.018854922595620154
1733359627309462300,3.567462158203125,-0.005519640204310417,-0.16401888807266948,-0.01746960571706295
1733359627319427300,3.57742724609375,-0.015929098276793955,-0.18797960937470196,-0.06906126126646996
1733359627329393200,3.58739306640625,-0.06683627869337797,-0.18670067548006772,-0.13367314190864563
1733359627339358200,3.597358154296875,-0.1299301559880376,-0.1736228749811649,-0.23835224452316758
1733359627349324300,3.60732421875,-0.1546656610548496,-0.15880495281666515,-0.3339385246217251
1733359627359289000,3.6172890625,-0.14830197124183178,-0.12827099060416222,-0.36419805380702014
1733359627369255400,3.62725537109375,-0.08435556877106427,-0.08103343861103057,-0.30654899791479107
1733359627379220200,3.63722021484375,0.005402151304483413,-0.05812602575421333,-0.23164017966389655
1733359627389186300,3.647186279296875,0.07705284454226494,-0.04915916770547628,-0.1288473291873932
1733359627399151400,3.6571513671875,0.12438392003774643,-0.028463585679233072,-0.050476972305774685
1733359627409117200,3.6671171875,0.10390607241541147,-0.01365326229929924,0.027775895676016807
1733359627419082200,3.677082275390625,0.05102466931641102,-0.029992694942653178,0.06030278527140617
1733359627429048300,3.68704833984375,0.0007972878575325012,-0.03997632881850004,0.10526479354798793
1733359627439013000,3.69701318359375,-0.07843553107231854,-0.06134615684449672,0.17297580924928188
1733359627448979500,3.7069794921875,-0.09798165080249309,-0.09962941800951958,0.21775135504305362
1733359627458944300,3.7169443359375,-0.09143120624572038,-0.12222732652574776,0.25093700080811976
1733359627468910300,3.726910400390625,-0.06262070682495832,-0.12376724944412708,0.26403555183410643
1733359627478875100,3.736875244140625,-0.05706248817592859,-0.1298784258008003,0.2608370480537414
1733359627488841200,3.74684130859375,-0.030569910308718678,-0.06655395462065934,0.23088263929486275
1733359627498806300,3.75680615234375,-0.04678337848484516,-0.0708674339056015,0.20405250003635883
1733359627508772400,3.7667724609375,-0.04122574435770512,-0.04621259285956621,0.17033143222033975
1733359627518737400,3.7767373046875,-0.017422259443998337,-0.03382861984372139,0.11694412542581557
1733359627528702200,3.7867021484375,0.021321020448207852,-0.023496903182566163,0.05723755248188972
1733359627538668000,3.79666796875,0.031686347118020056,-0.0033642157360911367,-0.018867197555303573
1733359627548633300,3.80663330078125,0.016636369763314722,-0.013586919064819812,-0.08821312098205089
1733359627558599200,3.81659912109375,-0.006049509297311306,-0.02680588160008192,-0.10477730229198932
1733359627568564200,3.826564208984375,-0.019786942748725413,-0.05969254441857338,-0.0850491039931774
1733359627578530300,3.8365302734375,-0.06884440364539623,-0.09258271436840296,-0.05739595791399479
1733359627588495400,3.846495361328125,-0.09815057762861251,-0.15854513283669946,-0.05877776766121387
1733359627598461200,3.856461181640625,-0.1196425707295537,-0.21700287476330996,-0.0701046328395605
1733359627608426200,3.86642626953125,-0.1203393208220601,-0.25885376528203485,-0.08346914132535457
1733359627618392300,3.876392333984375,-0.10392068546265364,-0.2866545031383633,-0.037160979136824604
1733359627628357000,3.886357177734375,-0.052151335258781906,-0.29209377158284183,0.028821605336666105
1733359627638323200,3.8963232421875,0.024954116253554818,-0.2587573191702366,0.11206629025638103
1733359627648288300,3.906288330078125,0.1065425583988428,-0.2021209474518895,0.20634791749715803
1733359627658254000,3.916254150390625,0.13808628217577934,-0.13853957890123128,0.27812428294122216
1733359627668219400,3.926219482421875,0.07952098822146654,-0.10196019904464483,0.3502390865594148
1733359627678185200,3.936185302734375,-0.001570318056643009,-0.03923310923576355,0.40039164921641346
1733359627688150300,3.946150390625,-0.07808861733078956,0.0016235095486044882,0.38666824429035185
1733359627698116400,3.956116455078125,-0.14871172108650207,0.04115326364338398,0.34979835705459117
1733359627708081200,3.9660810546875,-0.16140461392104624,0.05833996076583862,0.2889993126988411
1733359627718047500,3.976047607421875,-0.1830219869673252,0.07445435248166322,0.19955051244199276
1733359627728012300,3.98601220703125,-0.17425649670958518,0.05891045413017273,0.10283376700878143
1733359627737978000,3.99597802734375,-0.16212912880331276,0.05388327361792326,0.023396657678484915
1733359627747943200,4.005943115234375,-0.10712766481041908,0.04126081567108631,-0.04739420385956764
1733359627757909200,4.0159091796875,-0.031683716769516465,0.039915538541972634,-0.07957447197437285
1733359627767874300,4.025874267578125,-0.0019616554617881772,0.058814592540264124,-0.10977964062392712
1733359627777840400,4.03584033203125,-0.00047813890576362607,0.0929988939538598,-0.10415595552325248
1733359627787805400,4.045805419921875,-0.010567863504588604,0.08019377291649579,-0.10506430253982543
1733359627797770200,4.055770263671875,-0.020104338134825227,0.05864946510642766,-0.1284030925512314
1733359627807736000,4.065736083984375,-0.009056874419748782,0.05971826338171959,-0.14375146833062172
1733359627817701400,4.075701416015625,0.008285597786307334,0.050607612948119635,-0.16146715776324272
1733359627827667200,4.085667236328125,0.04655190781652927,0.03475537929981947,-0.13365443720817566
1733359627837632300,4.09563232421875,0.05154723188579082,0.03796849612742662,-0.1010351931542158
1733359627847598300,4.105598388671875,0.07810732203125953,0.034765608432888985,-0.08974807546436786
1733359627857563100,4.115563232421875,0.10405366419255734,0.022226737116277217,-0.10524959597885608
1733359627867529200,4.125529296875,0.14125731342732906,-0.0018874211817979812,-0.13680208758413792
1733359627877494300,4.135494384765625,0.15537994680404663,-0.0531929532662034,-0.16276713444590568
1733359627887460400,4.14546044921875,0.13414368202984334,-0.09275573284775018,-0.1522656141757965
1733359627897425200,4.155425048828125,0.10414952578246593,-0.1528387378886342,-0.13900865771770476
1733359627907391200,4.16539111328125,0.05591214909702539,-0.1987333508402109,-0.1070306341767311
1733359627917356300,4.175356201171875,0.018314532108604908,-0.2275514490455389,-0.03569266014993191
1733359627927322000,4.185322021484375,-0.03792904089987278,-0.22655863861590622,0.027560207098722457
1733359627937287400,4.195287353515625,-0.09523469018191098,-0.20462328566163776,0.10080196892023086
1733359627947253200,4.205253173828125,-0.1311298871666193,-0.19941548788547514,0.15762217277288437
1733359627957218000,4.215218017578125,-0.11609598416388034,-0.20952479396760462,0.20615151814222335
1733359627967184400,4.225184326171875,-0.1170130990087986,-0.21554244682192802,0.2416863573819399
1733359627977149200,4.235149169921875,-0.11925327915102242,-0.22433161021620035,0.28194939418733117
1733359627987115300,4.245115234375,-0.1360305186897516,-0.2444496846154332,0.29849487079679965
1733359627997080300,4.255080322265625,-0.20036621273905036,-0.23801906704604625,0.3230307616382837
1733359628007046100,4.265046142578125,-0.24213731601983307,-0.21436551199704407,0.28351357476413247
1733359628017011200,4.27501123046875,-0.2639279998064041,-0.18443886802792547,0.2005243259102106
1733359628026977300,4.284977294921875,-0.27369009988605975,-0.1762123069524765,0.09028525108098984
1733359628036942300,4.2949423828125,-0.27487609480023384,-0.16914602182805538,-0.01520867504775524
1733359628046908400,4.304908447265625,-0.24380057305693625,-0.1894245474860072,-0.09500994151532649
1733359628056873200,4.314873291015625,-0.19436960267275571,-0.2104968538701534,-0.15552432371079922
1733359628066839300,4.32483935546875,-0.15277707082927225,-0.21590046647936104,-0.22747896833121775
1733359628076804000,4.33480419921875,-0.10921791508793831,-0.21501550033837555,-0.23968436990976333
1733359628086770200,4.344770263671875,-0.10438508810400962,-0.16625789917111397,-0.21845921105146407
1733359628096735200,4.3547353515625,-0.08119330534785986,-0.09633914429247378,-0.16576631626188754
1733359628106701300,4.364701416015625,-0.036625557085871695,-0.011546060886979102,-0.104660397914052
1733359628116666400,4.374666259765625,-0.0037882863670587537,0.06249941853284836,-0.06042904199957847
1733359628126631200,4.384631103515625,0.011694529446959494,0.09183481861054897,-0.03244739461839199
1733359628136597200,4.39459716796875,0.06402063675075768,0.10008037664741277,0.0106049806445837
1733359628146562300,4.404562255859375,0.11952478956878185,0.0975645944342017,0.027615152156352994
1733359628156528000,4.414528076171875,0.1511070917904377,0.08320143029987812,0.01699848107397556
1733359628166493200,4.4244931640625,0.17808073117285966,0.03683569270521402,0.019592004698514937
1733359628176459300,4.434459228515625,0.18466273991167545,0.027377251747250555,0.06397299821674823
1733359628186424300,4.44442431640625,0.15336773019880057,-0.03225567143857479,0.07617372362017631
1733359628196390100,4.45439013671875,0.10979191558361052,-0.07224485973864793,0.09567571194767951
1733359628206355500,4.46435546875,0.06818506295382976,-0.10625146649777889,0.11569617119133471
1733359628216321300,4.4743212890625,-0.058008829115331166,-0.153238258600235,0.10182371318340301
1733359628226286000,4.4842861328125,-0.1582300755381584,-0.14626695828288794,0.0845224497705698
1733359628236252400,4.49425244140625,-0.20220891799628735,-0.14295242690742016,0.045213352689146995
1733359628246217200,4.50421728515625,-0.21628420509994029,-0.13379150759130715,0.008574936121702193
1733359628256183000,4.51418310546875,-0.21698943075984714,-0.10249795918315649,-0.009343582406640053
1733359628266148400,4.5241484375,-0.18595891720205546,-0.08251461707949638,0.013144728255271911
1733359628276115000,4.534114990234375,-0.12800503314435482,-0.05937807164192199,0.07814239334464072
1733359628286080000,4.544080078125,-0.08925941516458988,-0.04691489591002464,0.13981588244736193
1733359628296046000,4.554046142578125,-0.06881985372602939,-0.02111030030697584,0.1336778180837631
1733359628306011000,4.564010986328125,-0.07817132717818022,-0.03365209423303604,0.06591477993428707
1733359628315977200,4.573977294921875,-0.06305559111088514,-0.07053308738470077,-0.004483282893896103
1733359628325942000,4.58394189453125,-0.05273001192957163,-0.10453735605627298,-0.018785949012637138
1733359628335907800,4.593907958984375,-0.04073445370942354,-0.12167203073054551,0.0030786767929792402
1733359628345873200,4.603873046875,-0.03435878119766712,-0.12499182280302047,0.070353639164567
1733359628355839000,4.6138388671875,-0.052989247387647626,-0.11202245111465453,0.12252981660366058
1733359628365804000,4.623803955078125,-0.10661328554749488,-0.1008852632895112,0.12590250790715216
1733359628375770000,4.63377001953125,-0.13682313037216662,-0.07862228581607342,0.08110708836913108
1733359628385735000,4.64373486328125,-0.1628828697800636,-0.0688785981759429,-0.025212767189741133
1733359628395701000,4.653700927734375,-0.17349077303409574,-0.04473784413188696,-0.09633271455168724
1733359628405666000,4.663666015625,-0.12559008095711469,-0.036947044125199315,-0.13164485095143316
1733359628415632100,4.673632080078125,-0.05404606296420097,-0.032495033152401445,-0.14661270298063755
1733359628425597000,4.683596923828125,0.06544453207403421,-0.02775660645365715,-0.1320750590622425
1733359628435563000,4.69356298828125,0.19434505275338887,-0.040428748761117454,-0.11240706651806831
1733359628445528000,4.703528076171875,0.2658130829006433,-0.06276128433942794,-0.0689671532422304
1733359628455494000,4.713493896484375,0.2952501897871494,-0.09154343444854021,-0.041588147929310794
1733359628465459200,4.723459228515625,0.2795224593013525,-0.1312035369247198,-0.0037912089765071866
1733359628475425000,4.733425048828125,0.1877402476608753,-0.12021978609561919,0.03841711667776108
1733359628485389800,4.743389892578125,0.07388941207528114,-0.09968962376415728,0.07919628631174563
1733359628495355100,4.753355224609375,-0.015342530560493468,-0.08654401872605084,0.12397007853984832
1733359628505321000,4.763321044921875,-0.04046937303245068,-0.05658376474827528,0.21245967837572097
1733359628515286000,4.7732861328125,-0.014438859719038008,-0.01987111390084028,0.27362872508764263
1733359628525252000,4.783252197265625,0.051287704166769976,0.001340308693051338,0.34943244635164733
1733359628535217200,4.793217041015625,0.07894260381162166,0.03237169903367758,0.386996161070466
1733359628545183000,4.803182861328125,0.07954904527217149,0.05655483091473579,0.3841740893870592
1733359628555148000,4.81314794921875,0.05689940656870603,0.065457976077497,0.3414519689917564
1733359628565114000,4.823114013671875,0.03143003426939249,0.06739332805424929,0.2523644032627344
1733359628575079000,4.833078857421875,-0.03291384308636188,0.04973696759343147,0.19017770394086836
1733359628585045000,4.843044921875,-0.06324789881259203,0.042077100490033624,0.15455167928636074
1733359628595010000,4.853010009765625,-0.07920797674953937,-0.004097206185758114,0.12536708585619927
1733359628604975900,4.862975830078125,-0.08996288725882769,-0.053201721094548696,0.12518179241716862
1733359628614941200,4.872941162109375,-0.09636632456034422,-0.07083323937505483,0.1311819096148014
1733359628624907000,4.882906982421875,-0.1193482639580965,-0.07015373267829418,0.12229483880400657
1733359628634872000,4.8928720703125,-0.17461948480308054,-0.061546940113604065,0.055361237215995784
1733359628644838100,4.902838134765625,-0.23694033189862965,-0.04268237290680408,-0.007029460245370865
1733359628654803000,4.912802978515625,-0.2842021415501833,-0.04685059850215911,-0.07333177819252014
1733359628664769000,4.92276904296875,-0.2663017432004213,-0.0775265995338559,-0.12528992896676064
1733359628674734000,4.932734130859375,-0.19535890597105024,-0.11140022756308317,-0.16534429145753382
1733359628684700000,4.942699951171875,-0.12434358802735805,-0.15079758744984864,-0.17699965793788433
1733359628694665000,4.9526650390625,-0.04734978019595146,-0.1780526741221547,-0.17415654346644877
1733359628704631000,4.962631103515625,-0.0034480946272611615,-0.20169921490848064,-0.17290274401307104
1733359628714596000,4.97259619140625,0.011239186894893645,-0.22495091115832327,-0.1363362236380577
1733359628724562000,4.98256201171875,-0.02591886963248253,-0.24247633871585128,-0.14771101961135863
1733359628734527200,4.99252734375,-0.08389058160781859,-0.20237462995201347,-0.11702829657793044
1733359628744493000,5.0024931640625,-0.10301613783836364,-0.19045447505563495,-0.10809621758162975
1733359628754457900,5.012457763671875,-0.07257686817198991,-0.147350369605422,-0.0866617998868227
1733359628764424200,5.022424072265625,-0.03294306918084621,-0.104205347622931,-0.032059272083640095
1733359628774389000,5.032388916015625,0.030034780518710613,-0.05067220261693001,0.015199322697520255
1733359628784354800,5.042354736328125,0.07902969757318497,-0.027465514552593228,0.04586275650858879
1733359628794320100,5.052320068359375,-0.00890928264260292,-0.0403352252587676,0.10779694237411022
1733359628804286000,5.062285888671875,-0.036332419358193875,-0.055450669065117836,0.1633662693828344
1733359628814251000,5.0722509765625,-0.035998949620127674,-0.06310585999339818,0.17962942191958425
1733359628824217000,5.082217041015625,-0.06373743589520454,-0.0940688612729311,0.15594634851515293
1733359628834182100,5.09218212890625,-0.07422931155413388,-0.13246172029227019,0.12686112380623818
1733359628844148000,5.10214794921875,-0.05203881479501724,-0.1680646563321352,0.12054068861305713
1733359628854113000,5.112113037109375,-0.04630874671041965,-0.18473580514788626,0.12508067013025284
1733359628864079000,5.1220791015625,-0.03730418699979782,-0.18661241267472503,0.13396364928781984
1733359628874044000,5.1320439453125,-0.037893969586491584,-0.15228490339815615,0.09498656063973904
1733359628884010000,5.142010009765625,-0.030797581584751606,-0.0950774537935853,0.016063830572366714
1733359628893975000,5.15197509765625,-0.037352702316641805,-0.023435528384149074,-0.014444120416045187
1733359628903940900,5.16194091796875,-0.03609247312247753,0.0386819050937891,0.029179917255043982
1733359628913906200,5.17190625,-0.035008769538998605,0.07208090134859085,0.07371814716160296
1733359628923872000,5.1818720703125,-0.030678046858310697,0.08176350645124912,0.089145433396101
1733359628933837000,5.191837158203125,-0.03226999222487211,0.09831190567016601,0.06519932514131069
1733359628943803100,5.20180322265625,-0.04214315146356821,0.07919190239757298,0.04894610947668552
1733359628953768000,5.211767822265625,-0.0321267843618989,0.016127251197397708,0.03442658573687076
1733359628963734000,5.221734130859375,-0.036734570418298244,-0.03934796778708696,0.01945113492310047
1733359628973699000,5.231698974609375,-0.00497661936879158,-0.11234306137114762,0.0011363105535507202
1733359628983665000,5.241664794921875,0.03509118712544441,-0.13037877653837204,-0.0007815057665109634
1733359628993630000,5.2516298828125,0.025742051760852334,-0.17853285885453224,-0.044587914267182345
1733359629003596000,5.261595947265625,0.01595335593521595,-0.18039660689979792,-0.060956280744075775
1733359629013561000,5.27156103515625,-0.022128829699754715,-0.15322598364055157,-0.060868017938733095
1733359629023527000,5.28152685546875,-0.049804772132635115,-0.12959697851091623,-0.08825988273322581
1733359629033492000,5.291491943359375,-0.07554010189175606,-0.08021364666074514,-0.1029138465076685
1733359629043458000,5.3014580078125,-0.07504501185119151,-0.047747255080938335,-0.08578910870552063
1733359629053422800,5.3114228515625,-0.04576017291694879,-0.03126227648705244,-0.06603986761868
1733359629063389200,5.32138916015625,-0.03669482292979955,-0.009682605102658271,-0.045887890949845314
1733359629073354000,5.33135400390625,-0.029295652589201925,0.02138385655134916,-0.009364625194668769
1733359629083319800,5.34131982421875,-0.04117372190952301,0.040457390333712095,0.023196751192212102
1733359629093285000,5.35128515625,-0.06568593961447478,0.02330225739330053,0.04992401459813118
1733359629103250000,5.36125,-0.08694324717670679,-0.024174071791768073,0.03369008815586567
1733359629113216000,5.371216064453125,-0.12298574367761611,-0.10238485419750214,0.03467676110565662
1733359629123181000,5.38118115234375,-0.13284107499867676,-0.1831818537041545,0.04660860643982887
1733359629133147000,5.39114697265625,-0.11089373934566973,-0.22563450950831174,0.07384089675843715
1733359629143112000,5.40111181640625,-0.07716156561374664,-0.2736623350962996,0.11203764868378639
1733359629153078000,5.411078125,-0.04033873239010572,-0.2898392706543207,0.11483400140404701
1733359629163043000,5.42104296875,-0.060980830663442606,-0.278702667351067,0.11616437322497367
1733359629173009000,5.4310087890625,-0.07973375418931246,-0.22224662063568829,0.12175590962171554
1733359629182974200,5.44097412109375,-0.10012801518142223,-0.1618336529880762,0.10369710583984851
1733359629192940000,5.45093994140625,-0.10740063653290272,-0.1106666525915265,0.08584463828504085
1733359629202904800,5.46090478515625,-0.05218991370350122,-0.088940266212821,0.06968611516654491
1733359629212871200,5.47087109375,0.010430500860512256,-0.0599573328346014,0.08248656002879143
1733359629222836000,5.4808359375,0.07625234181433915,-0.054395022532343865,0.09071195206046104
1733359629232801800,5.4908017578125,0.11023235282748937,-0.06347644687145948,0.09034194970428944
1733359629242767000,5.50076708984375,0.09980565135926008,-0.07339929047077894,0.08162848189473151
1733359629252733000,5.51073291015625,0.04500058672130108,-0.06936755073666573,0.02349485735595226
1733359629262698000,5.520697998046875,0.00447772993594408,-0.054898003618419164,-0.006669979283213615
1733359629272663600,5.53066357421875,-0.03541793486177921,-0.036753567379713054,-0.014790741896629333
1733359629282628600,5.540628662109375,-0.04687222581207752,-0.012327274392545223,0.012029460489749908
1733359629292594400,5.550594482421875,-0.047557869988679884,0.03201660198569298,0.02466214756965637
1733359629302559500,5.5605595703125,-0.05140636211037636,0.07136749238222836,0.04759878652095794
1733359629312525600,5.570525634765625,-0.07189063947349786,0.0855006471529603,0.07472644742131233
1733359629322490400,5.580490478515625,-0.05924158578068017,0.09546908345967531,0.0974187562227249
1733359629332456700,5.590456787109375,-0.029533260737359523,0.10906009417772293,0.10906944652795791
1733359629342421500,5.60042138671875,-0.008323883970081805,0.07570756741315127,0.08872165502607822
1733359629352387300,5.61038720703125,-0.0036579379856586454,0.05973462999463081,0.054283378851413724
1733359629362352600,5.6203525390625,-0.027527473872900006,0.009396481637656688,0.03082651541829109
1733359629372318500,5.630318359375,-0.04995207164883613,-0.023252280771732328,-0.03352349941730499
1733359629382283500,5.640283447265625,-0.07374357386380434,-0.0624213848605752,-0.10516016412973403
1733359629392249600,5.65024951171875,-0.08419482525140047,-0.11649082870036363,-0.1761865879893303
1733359629402214400,5.66021435546875,-0.08648439749330282,-0.1427630418151617,-0.22441958076059818
1733359629412180500,5.670180419921875,-0.06662438950836658,-0.18079729665517805,-0.22740239596366882
1733359629422145500,5.6801455078125,-0.03294745309501886,-0.2100789207190275,-0.19355448689758775
1733359629432111600,5.690111572265625,0.006801204447448253,-0.22318886992186307,-0.12560673983097076
1733359629442076400,5.700076416015625,0.0037549686193466183,-0.21567542555183172,-0.06794657802283763
1733359629452042500,5.71004248046875,-0.025234394499659536,-0.18962445397228,0.009375731110572815
1733359629462007600,5.720007568359375,-0.07695435260385275,-0.1842073973596096,0.07455284442007541
1733359629471973400,5.729973388671875,-0.13380582837760446,-0.18433219278305768,0.1309825876504183
1733359629481938700,5.739938720703125,-0.19890899966806172,-0.1714955075636506,0.16047697768211364
1733359629491904500,5.749904541015625,-0.23279665622264145,-0.1602843777194619,0.1775491085141897
1733359629501869600,5.75986962890625,-0.20997341451793908,-0.13847849636375903,0.21343758349716663
1733359629511835600,5.769835693359375,-0.16480594679713248,-0.09382365434020758,0.2437988194912672
1733359629521800400,5.779800537109375,-0.11638649154305457,-0.040294600987434384,0.2548351772904396
1733359629531766500,5.7897666015625,-0.06920914530456065,0.004793371756374835,0.23266893818974493
1733359629541731600,5.799731689453125,-0.03208060713261366,0.024828736308217046,0.17678513840436935
1733359629551697400,5.809697509765625,-0.01695668775886297,0.036811435046792025,0.06905600056946277
1733359629561662500,5.819662353515625,-0.01420008252710104,0.04093552923947572,0.003466799327731132
1733359629571628500,5.829628662109375,-0.012476619735360146,0.04798018705397844,-0.023431144469976423
1733359629581593600,5.839593505859375,0.0049628831043839455,0.03972381536215543,-0.020860417199134826
1733359629591559400,5.849559326171875,0.035956279522180556,0.014225216968357561,-0.04851297875642776
1733359629601524500,5.8595244140625,0.030002339553833007,-0.03398147231787443,-0.09105974258482456
1733359629611490600,5.869490478515625,0.02729980259686708,-0.09966361254006624,-0.12512860092520714
1733359629621455400,5.879455322265625,0.031041911734640597,-0.1696411118686199,-0.12969020975232123
1733359629631421400,5.88942138671875,0.05510200175791979,-0.21510931610167025,-0.10926292327344417
1733359629641386500,5.899386474609375,0.0918228359118104,-0.2522968909844756,-0.06308218685686588
1733359629651352300,5.909352294921875,0.0895721343755722,-0.25680267797112466,0.018047113344073294
1733359629661317600,5.919317626953125,0.08469020755290985,-0.22817834877222776,0.0875894361257553
1733359629671283500,5.929283447265625,0.024597850161790846,-0.16680238131135702,0.1488975990474224
1733359629681248500,5.93924853515625,-0.04903437228202819,-0.07569178532212972,0.20375848552584647
1733359629691214600,5.949214599609375,-0.13622984065413474,-0.014857377392053603,0.23106559464633464
1733359629701179400,5.959179443359375,-0.18495441633462906,0.046857028242945666,0.21479133619368074
1733359629711145500,5.9691455078125,-0.14594605576545,0.0804334268912673,0.17494973967075347
1733359629721110500,5.979110595703125,-0.0984603742301464,0.08638385972827672,0.1432552092462778
1733359629731076400,5.989076416015625,0.00170534261316061,0.0799608409434557,0.11040566356778145
1733359629741041400,5.99904150390625,0.03696399526000023,0.06688187140077352,0.10247311700284481
1733359629751007500,6.009007568359375,0.027391572533547875,0.06826075853854417,0.08426467561721801
1733359629760972500,6.01897265625,-0.001947334675490856,0.06649433338791132,0.05613689776360988
1733359629770938400,6.0289384765625,-0.05003185888677835,0.029230186137557027,0.046866380593180657
1733359629780903700,6.038903564453125,-0.08737959276735782,-0.013291735510528088,0.04348550598323345
1733359629790869500,6.048869384765625,-0.09887772285938262,-0.06732113960087299,0.05396890607476234
1733359629800834300,6.058834228515625,-0.1178401974827051,-0.09650836337953805,0.06123217507600784
1733359629810800600,6.068800537109375,-0.07332417940795422,-0.11795242568552493,0.06504618040621281
1733359629820765400,6.078765380859375,-0.05804156234115362,-0.14709610258340836,0.07258183660805224
1733359629830731500,6.0887314453125,-0.032332243806123734,-0.14561112472265958,0.06292611951231956
1733359629840696600,6.098696533203125,-0.015319149684906004,-0.15652911683917045,0.013053542840480804
1733359629850662400,6.108662353515625,0.0042108956933021545,-0.14925766453146933,-0.009902385333180427
1733359629860627500,6.11862744140625,0.011978607085347174,-0.14385551322698592,-0.019217326167225837
1733359629870593500,6.128593505859375,0.04570931951254606,-0.15526654955744743,-0.017467267629504204
1733359629880558600,6.13855859375,0.04938040924072265,-0.14624270062446593,0.007824994537234306
1733359629890524700,6.148524658203125,0.038865444967150685,-0.11424363429546355,-0.002526303607225418
1733359629900489500,6.158489501953125,0.013418576760590075,-0.08833324023038149,-0.0003314239114522934
1733359629910455600,6.16845556640625,0.0058168695852160454,-0.08251461707949638,-0.011131634867191313
1733359629920420400,6.17842041015625,-0.03725421037822962,-0.07417348971366881,-0.0028688334345817563
1733359629930386400,6.188386474609375,-0.05494184276014566,-0.05654606308639049,-0.007016016241908073
1733359629940351500,6.1983515625,-0.05215513465106487,-0.03742927468419075,-0.018406009784340857
1733359629950317600,6.208317626953125,-0.054092824715375895,0.001308159989118576,-0.023930326163768768
1733359629960282600,6.21828271484375,-0.03992226054370403,0.006161445239186287,-0.026271920853853225
1733359629970248400,6.22824853515625,-0.02533142513334751,0.02100274827927351,-0.02228665060997009
1733359629980213500,6.238213623046875,-0.02361205399483442,0.0019619477227330205,-0.019092823004722596
1733359629990179600,6.2481796875,-0.03638648763298988,-0.026087504197657107,-0.014292729246616363
1733359630000144400,6.258144287109375,-0.03259557091742754,-0.07302110480815172,-0.039868484529852866
1733359630010110700,6.26811083984375,-0.03494213404357433,-0.11214666201621293,-0.07260814009308815
1733359630020075500,6.278075439453125,-0.04381371502429247,-0.14054858063608408,-0.09699731594026088
1733359630030041300,6.288041259765625,-0.05767652842104434,-0.14882336476743221,-0.08999649726748465
1733359630040006400,6.29800634765625,-0.08797843544334173,-0.1615285325616598,-0.06631634647250174
1733359630049972500,6.307972412109375,-0.09633183776885271,-0.14872048891484738,-0.0398579631358385
1733359630059937500,6.3179375,-0.09726122757345437,-0.13849369393289088,0.0017559037566184997
1733359630069903600,6.327903564453125,-0.07185001520216465,-0.1070306341767311,0.028714053308963775
1733359630079868700,6.33786865234375,-0.0728325964987278,-0.05820785881876945,0.03640168520212173
1733359630089834500,6.34783447265625,-0.047615445394814014,-0.02307107898592949,0.05466039547026157
1733359630099799300,6.35779931640625,-0.06371317823678255,0.018866028511524198,0.06800853734314441
1733359630109765600,6.367765625,-0.04957593181282281,0.022999767315387724,0.12268471490442752
1733359630119730400,6.37773046875,-0.03744505677521229,0.02613572725355625,0.16990999193787573
1733359630129696500,6.387696533203125,-0.043864860689640045,0.013797931466996668,0.1722118391394615
1733359630139661600,6.39766162109375,-0.04627309087514877,-0.0012017770051956176,0.18833470642268657
1733359630149627400,6.40762744140625,-0.04077390893697738,-0.03060731970965862,0.1726782876074314
1733359630159592700,6.4175927734375,-0.05021832136958837,-0.037434243120253084,0.14983341859281063
1733359630169558500,6.42755859375,-0.06321487332582473,-0.058282093098759646,0.1072094978749752
1733359630179523600,6.437523681640625,-0.06873539031296969,-0.09151040896177291,0.052795770642161365
1733359630189489700,6.44748974609375,-0.0642617520302534,-0.10964695415496825,0.027412323060631752
1733359630199454500,6.457454345703125,-0.02925327475219965,-0.12692512895315886,0.009079378512501715
1733359630209420500,6.467420654296875,0.03957797715067863,-0.15267331819385288,0.005793780970573425
1733359630219385600,6.477385498046875,0.05719663594961166,-0.16078560523986815,0.014969605594873427
1733359630229351400,6.487351318359375,0.07177694996595382,-0.156031980971992,0.03161795805692673
1733359630239316500,6.49731640625,0.03794190038144588,-0.1572390186741948,0.037515199401974675
1733359630249282600,6.507282470703125,0.006703589291870594,-0.14296002569198607,0.01476210032403469
1733359630259247600,6.51724755859375,-0.06841916397064923,-0.14030629631280897,-0.02987491378188133
1733359630269213400,6.52721337890625,-0.12967092052996157,-0.11381313392370938,-0.05385433978438377
1733359630279178000,6.537177978515625,-0.16326105544269084,-0.11398819822967052,-0.033548049336671826
1733359630289144000,6.54714404296875,-0.1443076409086585,-0.0799818837314844,0.006429740786552429
1733359630299108900,6.55710888671875,-0.1534758667483926,-0.06769494134932756,0.041597500279545785
1733359630309075200,6.5670751953125,-0.13812223027199505,-0.06710165163129568,0.068906362965703
1733359630319040000,6.5770400390625,-0.10218874710351228,-0.0541948237851262,0.062279053780436515
1733359630329006000,6.587006103515625,-0.040248423758149146,-0.055284080326557156,0.026872809356451033
1733359630338971000,6.596970947265625,0.004699848254024982,-0.08478343879431485,0.024020927056670187
1733359630348937000,6.60693701171875,0.04679945283681154,-0.1315107031777501,0.04360065679550171
1733359630358902000,6.616902099609375,0.05783785646259784,-0.1505906667008996,0.038942601856589314
1733359630368868000,6.6268681640625,0.053010582436621184,-0.13634937538057565,0.07610358099341392
1733359630378834000,6.636833984375,0.027154256646335122,-0.11072539704144001,0.08674889364838599
1733359630388799000,6.646799072265625,-0.011944997076690196,-0.05359364302158355,0.13255085988044737
1733359630398765000,6.65676513671875,-0.041675533951818944,-0.010830313833057879,0.14294775073230265
1733359630408730000,6.666730224609375,-0.05723726022094488,0.04131868333816528,0.160047354093194
1733359630418696000,6.676696044921875,-0.061004503799974914,0.05837240173071623,0.13392097918987272
1733359630428661000,6.686660888671875,-0.03996873003393411,0.05354629674851894,0.1139583876132965
1733359630438627000,6.696626953125,-0.023603286166489122,0.02123889512270689,0.07615384987592697
1733359630448592000,6.706591796875,-0.04413520206362009,-0.004445288971066475,0.04098082968592644
1733359630458558200,6.71655810546875,-0.03871522284150123,-0.014511924955248832,0.025123335340619085
1733359630468523000,6.72652294921875,-0.06198679283559322,-0.0337038244202733,0.014949147328734397
1733359630478488800,6.73648876953125,-0.05054623814970255,-0.06306435893923044,0.015223872616887091
1733359630488454100,6.7464541015625,-0.03087707656174898,-0.08576689687371253,0.005108136793971062
1733359630498420000,6.756419921875,-0.02626695241779089,-0.10450871448367834,0.011249123767018317
1733359630508385000,6.766385009765625,-0.0241249719530344,-0.0931602219954133,-0.007722703206539154
1733359630518351000,6.77635107421875,-0.05092909998744726,-0.09635112699121236,-0.013922726890444754
1733359630528316000,6.78631591796875,-0.06783376529812812,-0.10845803663134575,-0.022219430592656134
1733359630538282000,6.796281982421875,-0.06349865870326757,-0.11648732156902551,-0.045754035437107085
1733359630548247000,6.8062470703125,-0.04935176766812801,-0.11832476612925528,-0.022848376145958898
1733359630558213000,6.816213134765625,-0.039683775612711907,-0.14385375966131686,-0.010216858109831809
1733359630568178000,6.826177978515625,-0.032200141859054565,-0.1469303906276822,-0.01691664800941944
1733359630578144000,6.83614404296875,-0.016865794605016707,-0.1459095231473446,-0.0006184241592884064
1733359630588109000,6.846109130859375,-0.02644844646453857,-0.13532675433456898,-0.013498948520421982
1733359630598075000,6.856074951171875,-0.053015843133628365,-0.14052607654333113,-0.010740589722990988
1733359630608040200,6.866040283203125,-0.03391863621473312,-0.1320394032269716,0.010560556980967521
1733359630618006000,6.876006103515625,-0.015148761554062366,-0.1351657185539603,0.010042086064815521
1733359630627970800,6.885970703125,0.014629413855075836,-0.10027502243667841,0.04039923040568828
1733359630637937200,6.895937255859375,0.0035977322310209274,-0.04047404920756817,0.048827451533079144
1733359630647902000,6.90590185546875,-0.007900690121948719,0.01691664800941944,0.050609074252843854
1733359630657868000,6.915867919921875,-0.02802548652291298,0.05855798743069172,0.050992520612478255
1733359630667833000,6.9258330078125,-0.017553776869177817,0.10569763200730085,0.03207096252143383
1733359630677799000,6.935798828125,-0.021948796957731245,0.11923457445055245,0.05624795692265033
1733359630687764000,6.945763916015625,-0.025913024413585662,0.10439356367141008,0.01636252125799656
1733359630697730000,6.95572998046875,-0.04816109657883644,0.04605886360257864,0.019399112474918365
1733359630707695000,6.965695068359375,-0.07111030275076627,-0.0007297755792737006,0.03511515252292156
1733359630717661000,6.975660888671875,-0.0700526103913784,-0.023654139570891856,0.06113163731098175
1733359630727626000,6.9856259765625,-0.04041413571387529,-0.05047141934782266,0.09880641118884086
1733359630737592000,6.995592041015625,-0.006651859104633331,-0.06605857231914997,0.10343991620838641
1733359630747556900,7.005556884765625,-0.0066524436265230176,-0.09999737453907728,0.0883083980500698
1733359630757523000,7.01552294921875,-0.025191432140767574,-0.1574713661253452,0.07476093421280383
1733359630767488000,7.025488037109375,-0.03640519233345985,-0.19384645558148622,0.06912672771811484
1733359630777453800,7.035453857421875,-0.05049480022341012,-0.2427949031457305,0.08255261100232601
1733359630787419100,7.045419189453125,-0.047366439069807524,-0.2736255102172494,0.07713760021626949
1733359630797385000,7.055385009765625,-0.01857289078384638,-0.2720566534653306,0.045209261035919185
1733359630807350000,7.06535009765625,-0.024369594363868236,-0.2567003866404295,-0.0024690204620361326
1733359630817316000,7.075316162109375,-0.04152823443561792,-0.2033954974323511,-0.0058270987182855605
1733359630827281000,7.085281005859375,-0.056280105626583095,-0.15547463935017586,0.014696049350500106
1733359630837247000,7.0952470703125,-0.05726794762015342,-0.09973433968871831,0.03676350425183773
1733359630847212000,7.1052119140625,-0.06125497142970562,-0.039357904659211636,0.023399580287933347
1733359630857177900,7.115177734375,-0.0839081172645092,0.006176058286428451,0.016747721183300018
1733359630867143000,7.125142822265625,-0.09354337609410285,0.02586304779201746,0.011578209590911865
1733359630877109000,7.13510888671875,-0.0888902895912528,0.04752250641435384,0.002969371199607849
1733359630887074000,7.145073974609375,-0.09167933578789234,0.04781242927163839,0.02405482932627201
1733359630897040100,7.1550400390625,-0.08501987789869309,0.03296235840320587,0.05810322940051555
1733359630907005200,7.165005126953125,-0.05787935751676559,0.028643910682201384,0.06514554912745953
1733359630916971000,7.174970947265625,-0.04792611877918243,-0.008233575338125229,0.04908522568643093
1733359630926935800,7.184935791015625,-0.06185936706364154,-0.056824295505881306,0.022943068692088127
1733359630936902100,7.194902099609375,-0.048156128142774104,-0.08868833727836609,0.00364858563542366
1733359630946867000,7.204866943359375,-0.02485825466364622,-0.09206482797414065,-0.007520458632707595
1733359630956833000,7.2148330078125,-0.010754618248343468,-0.09437047456800937,-0.007646130838990211
1733359630966798000,7.224798095703125,0.03268003433048725,-0.11227350326627493,-0.031895021432638164
1733359630976764000,7.234763916015625,0.04857493807673454,-0.10550298621803522,-0.0480845242112875
1733359630986729000,7.24472900390625,0.060226212903857226,-0.10623568440675735,-0.05705050547719001
1733359630996695000,7.254695068359375,0.05211071098744869,-0.08922375932931899,-0.0045113399446010585
1733359631006660000,7.26466015625,0.015064298141002654,-0.06891893018633127,0.04779810848534107
1733359631016626200,7.274626220703125,0.011660919438302516,-0.04792582651823759,0.09352057974040508
1733359631026591000,7.284591064453125,0.005593874484300613,-0.024692834968864916,0.12831833687722682
1733359631036557000,7.29455712890625,-0.0007329904496669769,-0.04074526736438274,0.12947101404368877
1733359631046521900,7.30452197265625,-0.021524141804873942,-0.05297025042623281,0.1488981835693121
1733359631056488000,7.314488037109375,-0.02167904010564089,-0.035624855610728264,0.160116327676177
1733359631066453000,7.324452880859375,-0.054013037477433676,-0.04770779985338449,0.18358605059087274
1733359631076419000,7.334419189453125,-0.10835282269120215,-0.018287644101679323,0.19756489158272741
1733359631086384000,7.344384033203125,-0.11523322985470294,0.0008884732723236083,0.21512626723647116
1733359631096350000,7.354349853515625,-0.09568681786358356,0.015500935992598533,0.21445582062900065
1733359631106315000,7.36431494140625,-0.06487433097064495,0.015108137282729148,0.22043781764805315
1733359631116281000,7.374281005859375,-0.02682546308338642,0.012346855875849723,0.20613222891986369
1733359631126246000,7.384245849609375,-0.006916062998771667,-0.0005631868407130241,0.17281857286095617
1733359631136212200,7.394212158203125,-0.0018307225584983824,-0.01810264292359352,0.16287293290793894
1733359631146177000,7.404177001953125,-0.03199906632900238,-0.049881929022073744,0.12946809143424035
1733359631156142800,7.414142822265625,-0.05404518618136644,-0.08074906871169805,0.0976280150592327
1733359631166109200,7.424109130859375,-0.09376023371517658,-0.12258709974884986,0.03401157519519329
1733359631176074000,7.434073974609375,-0.12777999221682548,-0.15348697266429662,-0.03772445823848247
1733359631186039800,7.444039794921875,-0.10393179137855768,-0.19564123004376888,-0.12911854734420775
1733359631196005000,7.454005126953125,-0.06474193676263093,-0.18873276582956314,-0.2150602162629366
1733359631205971000,7.463970947265625,-0.02311228777915239,-0.17262100446224213,-0.29585692350864407
1733359631215936000,7.47393603515625,0.061760290603339665,-0.1472518776670098,-0.33741642986536025
1733359631225902000,7.483902099609375,0.1126791614577174,-0.11298661997169256,-0.28965339269340035
1733359631235867100,7.4938671875,0.12361410470902919,-0.08886544741094111,-0.2033954974323511
1733359631245833000,7.5038330078125,0.10676643028259276,-0.05329582911878824,-0.1529313846081495
1733359631255798000,7.513798095703125,0.05021569102108478,-0.003097673754394054,-0.09989069929420948
1733359631265764000,7.52376416015625,-0.016316051767766473,0.0336079628303647,-0.050073067680001256
1733359631275729700,7.533729736328125,-0.09588204817473887,0.03354074281305074,-0.024251228681206702
1733359631285695700,7.54369580078125,-0.11502221745252608,0.017693477600812912,0.024358196187019347
1733359631295660800,7.553660888671875,-0.11183949576318264,-0.024801848301291465,0.05356090979576111
1733359631305627000,7.563626953125,-0.12142565475404261,-0.06485796435773372,0.06801262899637221
1733359631315592000,7.573592041015625,-0.11546733087152242,-0.12294862653762101,0.07221826399266719
1733359631325557800,7.583557861328125,-0.08886603193283081,-0.14529431385844946,0.026776363244652747
1733359631335522600,7.5935224609375,-0.06879296571910382,-0.17078034503161907,-0.003809329155087471
1733359631345489000,7.603489013671875,-0.06795768393874169,-0.18428660007566214,-0.022158055794239042
1733359631355453700,7.61345361328125,-0.051530865272879596,-0.17905103750973939,-0.017379589346051216
1733359631365419800,7.623419677734375,-0.030199323430657385,-0.17299392942786215,-0.004247136050462723
1733359631375384800,7.633384765625,-0.054520694738626474,-0.15698884330540894,-0.005132102191448211
1733359631385350700,7.6433505859375,-0.0576917259901762,-0.1329404437199235,0.047105450046062466
1733359631395315700,7.653315673828125,-0.03167699476778507,-0.10144435847699641,0.08733400005996227
1733359631405281800,7.66328173828125,-0.01665653576850891,-0.09196925864517688,0.1432072784513235
1733359631415246800,7.673246826171875,-0.01269727674871683,-0.055416474534571165,0.15646715751886367
1733359631425213000,7.683212890625,-0.03356500047147274,-0.05955751986205578,0.15716390761137009
1733359631435177700,7.693177734375,-0.020770400828123092,-0.03705839554518461,0.12717442753911018
1733359631445143800,7.703143798828125,-0.01863105071187019,-0.052799570034444326,0.08859013760089873
1733359631455108900,7.71310888671875,-0.02558276954591274,-0.04848638301044702,0.07575988212227822
1733359631465074700,7.72307470703125,-0.013378537011146545,-0.02362871286869049,0.07831482730209827
1733359631475039700,7.733039794921875,-0.023078385509550572,-0.0042415830925107,0.062225277766585346
1733359631485005800,7.743005859375,-0.03858078280687332,0.02096212400794029,0.04972995333075523
1733359631494971000,7.752970947265625,0.002730301746726036,0.03591653203368187,0.029274025279283522
1733359631504936700,7.762936767578125,0.023901100069284437,0.03768500301092863,0.02770166139602661
1733359631514901800,7.77290185546875,0.03434767528176307,0.030261575011909007,0.04933072488009929
1733359631524867800,7.782867919921875,0.04541910439431667,0.0328323022827506,0.06130231770277023
1733359631534832600,7.79283251953125,0.03202157042175531,0.023101766385138032,0.05630524006783962
1733359631544799000,7.802799072265625,-0.011629647517204285,0.001625263114273548,0.04783551788628101
1733359631554763800,7.812763671875,-0.06583820756673812,0.001978314335644245,0.03791793498396873
1733359631564729600,7.8227294921875,-0.10558920319676399,-0.030569325786828992,0.03699497492015361
1733359631574695000,7.83269482421875,-0.09037819006145,-0.04984802675247192,0.03951309522092342
1733359631584660700,7.84266064453125,-0.06559124706834554,-0.08000000391006469,0.030356559818983078
1733359631594625800,7.852625732421875,-0.042694355605542654,-0.11886983279138803,0.007307692664861679
1733359631604591900,7.862591796875,-0.029127894806861877,-0.12374912926554679,0.007198387071490287
1733359631614556700,7.872556640625,-0.006819032365083694,-0.1254071256056428,0.01585048008263111
1733359631624522800,7.882522705078125,-0.02012391961812973,-0.12495529018491505,0.031150925067067143
1733359631634487800,7.89248779296875,-0.04182137216329574,-0.10508943698108196,0.038359249010682106
1733359631644454000,7.902453857421875,-0.03917816417813301,-0.08628945944309234,0.029144845941662785
1733359631654418700,7.912418701171875,-0.03610533260405063,-0.08342822479307652,0.011731938847899435
1733359631664384800,7.922384765625,-0.05438333209455013,-0.07932575791031121,0.007511690804362297
1733359631674349800,7.932349853515625,-0.06895809315294027,-0.07245850248932838,0.03443184643387794
1733359631684315600,7.942315673828125,-0.08602847041934727,-0.09316811304092407,0.03328559900820255
1733359631694281700,7.95228173828125,-0.05588847596049309,-0.10324234780967236,0.03642097442448139
1733359631704246800,7.962246826171875,-0.03518675645440816,-0.10941489896476268,0.030322657549381255
1733359631714212600,7.972212646484375,-0.005995441022515297,-0.11421586950570345,0.01296001933813095
1733359631724178000,7.982177978515625,0.02678366976827383,-0.12111790397912263,0.004338321465253829
1733359631734143700,7.992143798828125,0.005965045884251594,-0.13754296907931565,0.01713584371805191
1733359631744108800,8.00210888671875,-0.03432195631861686,-0.13194120354950428,-0.00729717127084732
1733359631754075000,8.012074951171876,-0.07112637710273266,-0.1480240310832858,-0.030906010395288466
1733359631764039700,8.022039794921875,-0.08973463146090507,-0.12818828075677155,-0.06161795952320098
1733359631774005800,8.032005859375,-0.1118412493288517,-0.11097031171321868,-0.0914198080688715
1733359631783970800,8.041970703125,-0.08758008377552032,-0.0602361497759819,-0.07073767004609108
1733359631793936600,8.0519365234375,-0.05410889906734228,-0.005652326673269271,-0.04087210861444473
1733359631803901700,8.061901611328125,-0.03645136956274509,-0.007230535775423049,-0.023159341791272162
1733359631813867800,8.07186767578125,-0.03121463795304298,0.0104983053997159,-0.021903204250335692
1733359631823832800,8.081832763671875,-0.028142975422739983,-0.00004793079495429992,-0.019484452670812606
1733359631833798700,8.091798583984374,-0.03566460309922695,0.016032558651268482,-0.028362755653262135
1733359631843763700,8.101763671875,-0.038379999537765976,0.005307166497409343,-0.011553075149655341
1733359631853729800,8.111729736328124,-0.021800328397750854,0.006489946541190147,0.003090367230772972
1733359631863694600,8.121694580078126,0.011289455777406691,0.006928922480344772,0.037215339672565455
1733359631873661000,8.131660888671876,0.007151917581260204,-0.027364100004732606,0.048346390017867086
1733359631883625700,8.141625732421875,0.012025076575577259,-0.06830109054893255,0.02474924133121967
1733359631893591800,8.151591796875,-0.002933715364336967,-0.07789397154152393,0.024009236618876457
1733359631903556900,8.161556884765625,-0.022606091822683808,-0.08051613673865794,0.0639876112639904
1733359631913522700,8.171522705078125,-0.03998509664684534,-0.10019903459101914,0.12121347330808639
1733359631923487700,8.18148779296875,-0.049445583431422704,-0.11244798305034637,0.16558686804175377
1733359631933453800,8.191453857421875,-0.03796732708364725,-0.14401742579042912,0.16131693563759325
1733359631943418600,8.201418701171875,-0.06403641884177923,-0.15182868406325578,0.12120119834840297
1733359631953385000,8.211385009765625,-0.07983955265134572,-0.14063070596158503,0.09667933603227138
1733359631963349800,8.221349853515624,-0.07018325103372335,-0.0907987535610795,0.06518821922540664
1733359631973315800,8.23131591796875,-0.10357260267734526,-0.05800795233249664,0.045966216883063314
1733359631983280600,8.24128076171875,-0.06510112546384335,-0.044511634160578246,0.015227964270114898
1733359631993246700,8.251246826171876,-0.011396423283219336,-0.030461773759126662,0.008231237250566481
1733359632003211800,8.261211669921876,0.026952888855338097,-0.02680675838291645,0.017632687324285506
1733359632013177900,8.271177734375,0.03238075912296772,0.004378068953752518,0.03927987098693848
1733359632023143000,8.281142822265625,0.00519318472892046,0.01471416952908039,0.05591711753308773
1733359632033108700,8.291108642578125,-0.014852993477880954,-0.0040241409495472905,0.05116437004804611
1733359632043073500,8.301073486328125,-0.03252718185633421,-0.033115795399248596,0.05424830753803253
1733359632053039900,8.311039794921875,-0.04327624714672565,-0.05631225433051586,0.06167173553705215
1733359632063004700,8.321004638671875,-0.02694996624588966,-0.0820996065378189,0.05546645115613937
1733359632072970800,8.330970703125,-0.009853577755391597,-0.07707476411312818,0.07408873403966426
1733359632082935800,8.340935791015625,-0.016104747104644775,-0.07439063959568738,0.04239654170274734
1733359632092901600,8.350901611328124,0.0034919337689876553,-0.07137976734191179,0.011781623208522796
1733359632102866700,8.36086669921875,-0.002478372812271118,-0.0677627458885312,0.00774549956023693
1733359632112832800,8.370832763671874,-0.007965279790759085,-0.07861965546756983,-0.013052373796701431
1733359632122797800,8.3807978515625,-0.020996026277542112,-0.05701017346680164,-0.02162789444029331
1733359632132764000,8.390763916015626,-0.014674422040581702,-0.029409342096745967,-0.0117640875518322
1733359632142728700,8.400728759765625,-0.03315583514869213,-0.005975567278265953,-0.02012391961812973
1733359632152694800,8.41069482421875,-0.05264554851651192,0.007165653845667839,-0.03214928845465183
1733359632162659600,8.42065966796875,-0.07244447396397591,-0.016716741523146627,-0.04760521626174449
1733359632172625700,8.430625732421875,-0.08038578835725783,-0.09370353509187698,-0.08807283572852612
1733359632182591700,8.440591796875,-0.07199760697931051,-0.14129559961110352,-0.09597907880842685
1733359632192556800,8.450556884765625,-0.06945727484673261,-0.1873284519895911,-0.10047989735901355
1733359632202523000,8.46052294921875,-0.06949380746483802,-0.17566460994184016,-0.07721358806192874
1733359632212487700,8.47048779296875,-0.07888064449131488,-0.12939210358858108,-0.05210428124666214
1733359632222453800,8.480453857421875,-0.09595072949677705,-0.11541150903105735,0.00022036475241184232
1733359632232418800,8.490418701171874,-0.09922405207902192,-0.09569178629964589,0.04026479037106037
1733359632242384600,8.500384521484374,-0.1022901616513729,-0.09370616544038057,0.0847965905368328
1733359632252350000,8.510349853515624,-0.06441372772157192,-0.09168751909434796,0.11325345421433448
1733359632262315800,8.520315673828126,-0.045754035437107085,-0.07617781527340411,0.13575930053293706
1733359632272279800,8.53027978515625,-0.030339316423237322,-0.04944090725630521,0.1442231774955988
1733359632282246000,8.540245849609375,-0.019651333670318124,-0.019874036510288715,0.14517828626334667
1733359632292211000,8.5502109375,0.012071838326752186,0.019054829081892967,0.1356090784072876
1733359632302176800,8.5601767578125,0.01677986988723278,0.023278876517713067,0.1307020171433687
1733359632312141600,8.5701416015625,0.031143618543446064,0.01722995174229145,0.11216624349951744
1733359632322108000,8.58010791015625,0.03051028907597065,-0.00469429529607296,0.0939069487094879
1733359632332072700,8.59007275390625,0.002375496959686279,-0.022311200529336928,0.05106324776113033
1733359632342038800,8.600038818359375,-0.019321955585479736,-0.016661504204571246,-0.002596446233987808
1733359632352003800,8.61000390625,-0.019032617250084875,-0.03540712120682001,-0.038087446331977845
1733359632361969700,8.6199697265625,-0.029354397039115427,-0.04351736242622137,-0.05448094725012779
1733359632371934700,8.629934814453126,-0.010292553694546222,-0.05926496665626764,-0.043594227054715155
1733359632381900800,8.63990087890625,-0.009725567461550235,-0.059281333269178865,-0.021609774261713028
1733359632391865900,8.649865966796876,-0.018828911371529103,-0.05743921253383159,-0.025816578301787376
1733359632401832000,8.65983203125,-0.016356676039099693,-0.06266074657440185,0.002257423537969589
1733359632411796700,8.669796630859375,-0.0410892584964633,-0.06918225729763508,0.010656418570876122
1733359632421762800,8.6797626953125,-0.028328853383660316,-0.06916209129244089,0.037598201510310174
1733359632431727600,8.6897275390625,-0.06557429593354464,-0.06822685626894236,0.06069733754694461
1733359632441693700,8.699693603515625,-0.06920651495605706,-0.0737649089127779,0.06656359923183917
1733359632451658800,8.70965869140625,-0.0628062925249338,-0.07754998040944337,0.05994681144058704
1733359632461624800,8.719624755859375,-0.034841304017603394,-0.07035626951307059,0.05489303518235683
1733359632471590000,8.72958984375,-0.029796295587718485,-0.06793722567260264,0.041240941926836965
1733359632481555700,8.7395556640625,-0.032600539353489874,-0.05867781441807746,0.052037645751237864
1733359632491520800,8.749520751953124,-0.04856646250933409,-0.05631956085413694,0.06329203021526336
1733359632501486800,8.75948681640625,-0.057091129748523234,-0.052451194988191126,0.07406886029541492
1733359632511451600,8.76945166015625,-0.038569969151914116,-0.04529547801464796,0.07278115857243538
1733359632521418000,8.77941796875,-0.053793549507856364,-0.033708208334445953,0.08905015632808208
1733359632531382800,8.7893828125,-0.03420680550634861,-0.014523030871152877,0.09638356795608997
1733359632541348600,8.7993486328125,-0.008968903875350952,-0.03533493275344372,0.09668693481683731
1733359632551314000,8.80931396484375,0.0025949849292635917,-0.02908902410119772,0.07974339880049228
1733359632561279700,8.81927978515625,-0.018877426688373087,-0.019535013814270495,0.03793371707499027
1733359632571245600,8.82924560546875,-0.03159983787834644,-0.025118074643611907,-0.00911971052289009
1733359632581211000,8.8392109375,-0.05897153666764497,-0.02515197691321373,-0.040326749691367146
1733359632591176700,8.8491767578125,-0.08406535365283489,-0.03940203606188297,-0.07425882990956306
1733359632601141800,8.859141845703125,-0.07320610598623752,-0.06156096863895654,-0.07690496050417422
1733359632611107800,8.86910791015625,-0.05732639980912208,-0.08347294071763753,-0.09218260913491248
1733359632621073000,8.879072998046874,-0.02435848844796419,-0.13269465226531027,-0.07438333307206631
1733359632631038700,8.889038818359374,-0.0029749241575598713,-0.15296411783397196,-0.06897066037356853
1733359632641003800,8.899003662109376,0.00215805481672287,-0.15280015944391487,-0.046561260166764255
1733359632650969900,8.908969970703126,-0.0012485387563705443,-0.10956073717623949,-0.01972644473314285
1733359632660934700,8.9189345703125,-0.011486439654231071,-0.08171762148290872,0.0164957922488451
1733359632670900700,8.928900634765625,-0.021003040540218353,-0.05792348891943693,0.0459539419233799
1733359632680865800,8.93886572265625,-0.03272796512544155,-0.049691374886035915,0.06547112782001495
1733359632690831600,8.94883154296875,-0.04119827182888985,-0.04913666361272335,0.07498246800899505
1733359632700797000,8.958796875,-0.05897767414748668,-0.04643091178536415,0.10284253483712673
1733359632710762800,8.9687626953125,-0.06769143421798944,-0.049840427967906,0.10428455033898353
1733359632720727800,8.978727783203125,-0.10053805728703737,-0.06607786154150963,0.0989227310448885
1733359632730694000,8.98869384765625,-0.10394435859918594,-0.05014525613337755,0.07089549095630646
1733359632740658700,8.99865869140625,-0.07514379605054855,-0.021524726326763628,0.05577274062633514
1733359632750624800,9.008624755859374,-0.027019816611707208,-0.0008969488397240638,0.045347208201885224
1733359632760589800,9.01858984375,-0.0011757657811045645,0.02277034247368574,0.03418225558698177
1733359632770555600,9.0285556640625,-0.0062903323158621785,0.05172931045442819,0.06244681156277656
1733359632780520700,9.038520751953126,-0.031134850715100762,0.05415419951379299,0.07348901458084584
1733359632790486800,9.04848681640625,-0.07491875512301921,0.028873627784848213,0.03737082249522209
1733359632800451800,9.058451904296875,-0.09001286388039588,0.01587619904577732,0.009200959065556525
1733359632810417700,9.068417724609375,-0.09077800303399562,-0.035407705728709694,-0.01627659654021263
1733359632820382700,9.0783828125,-0.05647825854718685,-0.08738193085491656,-0.03707037824392319
1733359632830348800,9.088348876953125,0.004107435318827629,-0.14398819969594479,-0.035728315985202784
1733359632840313600,9.098313720703125,0.04663520218580961,-0.1752361553966999,0.004423077139258384
1733359632850280000,9.108280029296875,0.06274696355313063,-0.15032090984880922,0.021249124255776405
1733359632860244700,9.11824462890625,0.04219225130230188,-0.14764146150648594,0.025993103912472722
1733359632870210600,9.12821044921875,-0.004164718464016914,-0.1200733633622527,0.041865795826911925
1733359632880175900,9.13817578125,-0.03413432479202747,-0.09775719439685344,0.07189911504089831
1733359632890141700,9.1481416015625,-0.059554012730717656,-0.04868307462632656,0.08228665354251861
1733359632900106800,9.158106689453126,-0.045832945892214774,0.00267652573287487,0.0885047974050045
1733359632910072800,9.16807275390625,-0.01923544634580612,0.0049789574563503265,0.07079670675694942
1733359632920037600,9.17803759765625,-0.015316227075457572,0.0027159809604287146,0.04279693919718265
1733359632930004000,9.18800390625,0.000045592707395553586,-0.004869651862978935,0.018277999490499495
1733359632939968800,9.19796875,-0.005878244383633136,0.0006926584392786026,-0.017459668844938277
1733359632949934800,9.207934814453125,-0.02254676285088062,-0.013183306699991225,-0.01956102503836155
1733359632959901000,9.21790087890625,-0.040725393620133395,-0.01652881773561239,-0.02825578814744949
1733359632969865700,9.22786572265625,-0.05392302110642194,-0.041860535129904744,-0.02196224096119404
1733359632979831800,9.237831787109375,-0.03156827369630336,-0.066377429009974,-0.02560556589961052
1733359632989796900,9.247796875,-0.035948388476669785,-0.07344955935329199,-0.008170446974039076
1733359632999762700,9.2577626953125,-0.01996229931563139,-0.07498802096694708,0.030800796455144882
1733359633009727700,9.267727783203124,-0.010440729993581772,-0.07675736872702836,0.053393736535310744
1733359633019693800,9.27769384765625,-0.014715338572859763,-0.08692629604190588,0.04858195233941078
1733359633029659000,9.287658935546874,-0.04017243591248989,-0.0746472447052598,0.020538345637917517
1733359633039624700,9.297624755859376,-0.06629939533770084,-0.05734422772675752,-0.004964928930997848
1733359633049589800,9.30758984375,-0.08197071946114301,-0.03666618135720491,-0.03479717261493206
1733359633059555800,9.317555908203126,-0.06834376064687966,-0.047888417117297646,-0.026277181550860403
1733359633069520600,9.327520751953125,0.003118424281477928,-0.048669338361918925,-0.004407879570126534
1733359633079486700,9.33748681640625,0.0246913736641407,-0.061412792339920995,0.010897826111316681
1733359633089451800,9.34745166015625,0.01746872893422842,-0.044727614998817444,0.006522679767012596
1733359633099417600,9.35741748046875,0.009064180943369865,-0.06217997732013464,0.0022620997130870816
1733359633109383000,9.3673828125,-0.0035340193450450895,-0.07439122411757706,-0.03259469413459301
1733359633119348700,9.3773486328125,-0.028200258567929265,-0.08668196589201688,-0.044802433800697324
1733359633129313800,9.387313720703125,-0.015502397297322749,-0.08964899900406599,-0.04141454492807388
1733359633139280000,9.39727978515625,0.005691489639878273,-0.08059680075943469,-0.006268997266888618
1733359633149244700,9.40724462890625,-0.014006898042559623,-0.09569996960610151,-0.003347556862235069
1733359633159210800,9.417210693359374,-0.0348041868776083,-0.06448708521872759,-0.011630816560983658
1733359633169175800,9.42717578125,-0.05256429997384548,-0.05467588530033826,-0.042028292912244795
1733359633179141600,9.4371416015625,-0.09032236822098492,-0.05969546702802181,-0.04069207587242126
1733359633189106700,9.447106689453125,-0.11046645384430885,-0.047102819697558876,-0.016030512824654577
1733359633199072800,9.45707275390625,-0.06374269659221173,-0.023563830938935278,0.033009704676270485
1733359633209037800,9.467037841796875,-0.034327217015624044,0.014524492175877094,0.06668401074111462
1733359633219003600,9.477003662109375,0.008742693904042243,0.06068886197954416,0.10398352156579493
1733359633228969000,9.486968994140625,0.02646948925256729,0.08132979120910168,0.1335650053590536
1733359633238934800,9.496934814453125,0.012727379626035689,0.06936112099587917,0.1494949804186821
1733359633248899600,9.506899658203125,0.008866320283710956,0.04452770851254463,0.1381575938463211
1733359633258866000,9.516865966796875,-0.015149638336896896,0.010530454103648662,0.10223638563752174
1733359633268830700,9.526830810546874,-0.03822685480266809,-0.029267303277552125,0.07893149789571761
1733359633278796800,9.536796875,-0.04059095358550548,-0.07205664369016886,0.04390519270002842
1733359633288763100,9.54676318359375,-0.05391425327807665,-0.12162848384976387,0.017502338942885397
1733359633298728000,9.55672802734375,-0.0502191981524229,-0.14733517203629015,0.00618307254910469
1733359633308694000,9.566694091796874,-0.04670183768123388,-0.17136165205091236,-0.007774141132831573
1733359633318659000,9.5766591796875,-0.05305325253456831,-0.17956161738038062,-0.005847556984424591
1733359633328625000,9.586625,-0.04832359366416931,-0.17876403726190326,0.005196399599313736
1733359633338590000,9.59658984375,-0.0431914914727211,-0.1732622249752283,-0.0032668928414583205
1733359633348556000,9.60655615234375,-0.052583589196205135,-0.14489187053740024,-0.013123685467243193
1733359633358521000,9.61652099609375,-0.038221594105660915,-0.1258452247619629,-0.006443769311904907
1733359633368487200,9.626487060546875,-0.021758827343583104,-0.1168599542737007,0.018825696501135827
1733359633378452000,9.636451904296875,0.011741291198134421,-0.07647036847919225,0.05489303518235683
1733359633388418000,9.64641796875,0.020630407835543155,-0.04871639237403869,0.06575052928328513
1733359633398382800,9.6563828125,-0.02179477543979883,0.0033157004192471504,0.06515080982446671
1733359633408349000,9.666348876953125,-0.035325288142263885,0.03483750462532043,0.048394320812821384
1733359633418314000,9.67631396484375,-0.0461214074447751,0.0342073900282383,0.03837853823304176
1733359633428280000,9.686280029296874,-0.049563364592194556,0.011136311042308807,0.024408465069532394
1733359633438245000,9.6962451171875,-0.04296732732802629,-0.01864420245438814,0.04133504995107651
1733359633448211000,9.7062109375,-0.039432723461091515,-0.03483341297209263,0.03235620920360088
1733359633458176000,9.716176025390626,-0.022910043205320835,-0.03445230470001697,0.021443770045042037
1733359633468142000,9.72614208984375,-0.0341506914049387,-0.020112813702225684,0.015545359656214713
1733359633478107000,9.73610693359375,-0.02217033075392246,0.0023719898283481597,-0.0026367782443761823
1733359633488073200,9.7460732421875,-0.04917261170893907,0.0051978609040379525,-0.01850654754936695
1733359633498038000,9.7560380859375,-0.034199498982727526,-0.01459434254169464,-0.016761749708652494
1733359633508003800,9.76600390625,-0.022464637525379656,-0.02079056683331728,-0.02204582759141922
1733359633517969200,9.77596923828125,-0.053234162059426306,-0.03323942177891731,0.0040332010388374325
1733359633527935000,9.78593505859375,-0.08813654861450194,-0.03747866678386926,0.010734159982204436
1733359633537900000,9.795900146484374,-0.11236907259523868,-0.04535509924739599,-0.008702361893653868
1733359633547866000,9.8058662109375,-0.10461889685988425,-0.07145984684079885,-0.03686170392930507
1733359633557831200,9.8158310546875,-0.07235796472430228,-0.09851210441738366,-0.011030512580275535
1733359633567797000,9.825796875,-0.026937106764316557,-0.13379559924453496,0.025686814442276953
1733359633577762000,9.835761962890626,-0.0016197101563215255,-0.12793226016908885,0.08451718907356262
1733359633587728100,9.84572802734375,0.028584581710398196,-0.12274053674489259,0.09781856919527053
1733359633597693000,9.85569287109375,0.02885229273587465,-0.10133476062268018,0.09517419216632843
1733359633607659000,9.865658935546875,-0.024262334597110746,-0.06563041003495454,0.08855214367806911
1733359633617624000,9.8756240234375,-0.08078618585169314,-0.03370733155161142,0.11430793170332908
1733359633627590000,9.88558984375,-0.08100655060410498,0.018543080167472362,0.10524141267240048
1733359633637555200,9.89555517578125,-0.05510726245492696,0.04449526754766702,0.09340601345002651
1733359633647521000,9.90552099609375,-0.001423310801386833,0.0386664152637124,0.06453706184029578
1733359633657486800,9.91548681640625,0.04049041582047939,0.027925533279776572,0.017989245676994323
1733359633667452200,9.9254521484375,0.0611596943616867,0.0060232058122754095,-0.04398761028647422
1733359633677418000,9.93541796875,0.08721768020391464,0.006365151117742061,-0.09579027823805808
1733359633687383000,9.945383056640624,0.08306611348241567,-0.033553017772734166,-0.14386720366477965
1733359633697349000,9.95534912109375,0.03583499123007059,-0.06172463476806879,-0.18170564367175102
1733359633707314000,9.96531396484375,-0.016880699913203717,-0.07346621822714805,-0.13639642939269542
1733359633717280000,9.975280029296876,-0.038217502452433105,-0.08323007187247276,-0.10330255356431006
1733359633727245000,9.9852451171875,-0.023726912546157837,-0.06465367395728826,-0.03144961575269699
1733359633737211000,9.9952109375,-0.039270518636703486,-0.07562690339237452,-0.002594108146429062
1733359633747176000,10.005176025390625,-0.039567455756664274,-0.09011457068920135,0.021523849543929097
1733359633757142000,10.01514208984375,-0.040914194190502164,-0.10146861613541841,0.06024316403865814
1733359633767107000,10.025107177734375,-0.021345278106629846,-0.09940759195238351,0.07399228792786598
1733359633777073000,10.035072998046875,-0.002093465147912502,-0.11874211475849152,0.054931613627076145
1733359633787038200,10.0450380859375,0.028371523481607437,-0.10984802968502044,0.027953590330481528
1733359633797004000,10.055004150390625,0.004540858300030232,-0.09422463635653257,0.01873568013012409
1733359633806968800,10.06496875,0.011235387502610683,-0.09819880068451166,0.03180675862729549
1733359633816935200,10.07493505859375,0.03130260849744081,-0.0917898104250431,0.05475274992883205
1733359633826900000,10.08489990234375,0.008584872993826865,-0.0729176444336772,0.08768003701865673
1733359633836865800,10.09486572265625,-0.035195524282753465,-0.04978840551972389,0.09791793791651725
1733359633846831000,10.1048310546875,-0.08697510361969471,-0.031767595660686494,0.11060498553216457
1733359633856797000,10.114796875,-0.12660218060910702,-0.01270166066288948,0.10875789636075496
1733359633866762000,10.124761962890625,-0.154021517932415,0.00915156696587801,0.10827391223609446
1733359633876728000,10.13472802734375,-0.14585603939443825,0.0050488078221678735,0.07309037065207957
1733359633886693000,10.144693115234375,-0.09421148461401462,0.022861235627532003,0.07470423558950423
1733359633896659000,10.154658935546875,-0.06933569429367781,0.018348142117261886,0.048316579401493066
1733359633906624000,10.1646240234375,-0.0802040020495653,0.03969868092089891,0.049311435657739634
1733359633916590000,10.174590087890625,-0.087996555621922,0.0519710102558136,0.052010173222422594
1733359633926555000,10.184554931640625,-0.06662292820364236,0.0502934324324131,0.07130874793231487
1733359633936521000,10.19452099609375,-0.05772475147694349,0.04177577945590019,0.033553894555568696
1733359633946486000,10.204486083984374,-0.022588848426938056,0.01779372310489416,-0.0019411971956491468
1733359633956452000,10.2144521484375,-0.0059556935340166085,-0.011525018098950386,0.0032329905718564986
1733359633966418000,10.22441796875,0.018842647635936734,-0.027791093245148658,0.01744388675391674
1733359633976383000,10.234383056640626,0.020948095482587813,-0.07814063977897166,-0.03752922792732715
1733359633986349000,10.24434912109375,0.030721886000037193,-0.1127642093926668,-0.053363925918936725
1733359633996314000,10.254314208984376,0.047203941984474654,-0.12604483898729085,-0.03817278652787209
1733359634006280000,10.264280029296875,0.06630056438148021,-0.1486290112391114,-0.04293547088503837
1733359634016245200,10.274245361328125,0.070706105864048,-0.15137012664079666,-0.030676877814531326
1733359634026211000,10.284211181640625,0.036790684519708156,-0.12140578100979327,-0.031160861939191816
1733359634036176000,10.29417578125,-0.016057400831580162,-0.09152122261673211,-0.008672551277279854
1733359634046142200,10.30414208984375,-0.022660160097479818,-0.07842822454869747,-0.01271861179769039
1733359634056107000,10.31410693359375,-0.018809622149169442,-0.0586740150257945,-0.009938041168451308
1733359634066072800,10.32407275390625,-0.014839549474418163,-0.05456687196791172,0.002441547933220863
1733359634076038100,10.3340380859375,-0.027625089028477667,-0.05800795233249664,0.0010129764348268508
1733359634086004000,10.34400390625,-0.013804068946838378,-0.08745178122073412,0.020877368333935737
1733359634095969000,10.353968994140626,-0.023949907647073266,-0.07012304527908564,0.056853521600365636
1733359634105935000,10.36393505859375,-0.016181903994083403,-0.05170446827411651,0.09652034607827663
1733359634115900200,10.373900146484376,-0.006237433084845543,-0.037921149854362006,0.12938333576023578
1733359634125866000,10.383865966796876,-0.009430968429148196,-0.020324995148181913,0.14016250392794607
1733359634135831000,10.3938310546875,-0.032526889595389366,-0.028614392326772212,0.09969254637360572
1733359634145797000,10.403797119140625,-0.05307867923676967,-0.028577275186777114,0.04196048837304115
1733359634155762000,10.413761962890625,-0.08565992936789989,-0.03912877207845449,0.03213525992929935
1733359634165728000,10.42372802734375,-0.058249944394826884,-0.04876198508143425,0.02764846990406513
1733359634175693000,10.433693115234375,-0.04612053066194057,-0.0534022121027112,0.013031331008672714
1733359634185659000,10.443658935546875,-0.044649873587489126,-0.05556494309455156,-0.01794189940392971
1733359634195624200,10.453624267578125,-0.043319794027507304,-0.0676844199553132,-0.04324760557413101
1733359634205590000,10.463590087890625,-0.02908054853379726,-0.06954962930530309,-0.0591816722869873
1733359634215555000,10.47355517578125,-0.02590308754146099,-0.03103402068912983,-0.0598351677596569
1733359634225521200,10.483521240234374,-0.041619712111353874,-0.017339841857552527,-0.05607318487763405
1733359634235486000,10.49348583984375,-0.05624795692265033,-0.013273323071002959,-0.06568506283164025
1733359634245452000,10.5034521484375,-0.06421119088679551,-0.0037809798434376716,-0.06820610574185848
1733359634255417000,10.5134169921875,-0.03750000183284283,-0.009466624264419079,-0.042611645758152
1733359634265383000,10.5233828125,-0.0206806767180562,-0.01727525218874216,-0.02743979558944702
1733359634275349200,10.533349365234375,-0.029484745420515535,-0.007430442261695862,0.03151391316056251
1733359634285314000,10.54331396484375,-0.05556202048510313,0.01047521678507328,0.052855391874909396
1733359634295279900,10.55327978515625,-0.06514847173690795,-0.00490647674202919,0.04391279148459434
1733359634305245200,10.5632451171875,-0.07992810771763324,-0.028757015667855736,0.031227497434616086
1733359634315211000,10.5732109375,-0.0521168484672904,-0.0768365714430809,0.05509177262485027
1733359634325176000,10.583176025390625,-0.005015197813510895,-0.11406184798777103,0.09272446092665194
1733359634335142100,10.59314208984375,0.03596358604580164,-0.11229805318564176,0.11062369023263453
1733359634345107200,10.603107177734374,0.048024026195704936,-0.10772563070356846,0.1376432145833969
1733359634355073000,10.613072998046874,0.01779635345339775,-0.10124386746883392,0.15098200410604476
1733359634365038000,10.6230380859375,-0.025825346130132674,-0.10700199260413647,0.14234686222970486
1733359634375004200,10.633004150390626,-0.044915246525406835,-0.10886574064940213,0.13323124336004255
1733359634384969000,10.642968994140626,-0.04493336670398712,-0.0843590759024024,0.09532675237953663
1733359634394935000,10.65293505859375,-0.008728080856800078,-0.05310702854841947,0.06791384479701519
1733359634404900000,10.662900146484375,0.04879530282914638,-0.01905687490850687,0.037924364724755286
1733359634414866000,10.672865966796875,0.07728694555908441,-0.04427373375147581,-0.004603109881281852
1733359634424831200,10.682831298828125,0.029912323182821273,-0.036431203557550904,-0.004744564178586006
1733359634434797000,10.692797119140625,0.01243453415930271,-0.012229951497912407,0.0034311434924602507
1733359634444762000,10.70276220703125,-0.04840834933817386,-0.018463292929530143,-0.029506664991378783
1733359634454728200,10.712728271484375,-0.09535042551606893,0.007750175735354423,-0.040760464933514595
1733359634464693000,10.72269287109375,-0.06866378638148307,0.04494914879500866,-0.037785833036899565
1733359634474659000,10.7326591796875,-0.05316694204211235,0.08279372628182172,-0.026986791124939916
1733359634484624100,10.7426240234375,-0.03572948502898216,0.08838701624423265,0.0070960957407951355
1733359634494590000,10.75258984375,-0.001457213070988655,0.05674655409455299,0.036168460968136786
1733359634504555000,10.762554931640626,0.007157470539212226,0.022173253363370893,0.036949966734647746
1733359634514521000,10.77252099609375,0.030047347739338873,-0.021895313204824924,0.04717676171660423
1733359634524486100,10.782486083984375,0.01012275008559227,-0.05043196412026882,0.06486556314229965
1733359634534452000,10.792451904296875,-0.021364275068044662,-0.08746551748514175,0.048269817650318146
1733359634544417000,10.8024169921875,-0.057231707262992856,-0.09183627991527318,-0.014108020329475402
1733359634554383000,10.812383056640625,-0.09254910435974598,-0.0931730814769864,-0.021242109993100167
1733359634564348000,10.822347900390625,-0.10704524722397327,-0.12477233483344316,-0.04059679880440235
1733359634574314200,10.832314208984375,-0.06421294445246457,-0.14587971253097057,-0.048697687673568725
1733359634584280000,10.842280029296875,-0.0326493469312787,-0.14515782799720764,-0.019748656564950944
1733359634594244900,10.852244873046875,-0.012122983992099762,-0.1131745437592268,0.046509822240471836
1733359634604211200,10.862211181640625,0.017227613654732705,-0.10383856013715266,0.05602934573590755
1733359634614176000,10.872176025390624,0.005032733470201492,-0.08451923490017652,0.023660277050733564
1733359634624142000,10.88214208984375,-0.022146949878334998,-0.06132365275174379,-0.01039981346130371
1733359634634107100,10.892107177734376,-0.057437751229107374,-0.05146978273540735,-0.04527531200945377
1733359634644073000,10.902072998046876,-0.06738251439929008,-0.029809739591181276,-0.07785130144357681
1733359634654038000,10.9120380859375,-0.06919862391054629,-0.005801379755139351,-0.06547638851702213
1733359634664004000,10.922004150390626,0.008584872993826865,-0.001249123278260231,-0.06895078662931918
1733359634673969200,10.93196923828125,0.040186172176897524,0.02162789444029331,-0.015467033722996711
1733359634683935200,10.941935302734375,0.032009295462071895,-0.011844459311664104,0.03566460309922695
1733359634693900000,10.951900146484375,0.030746435919404028,-0.012680910135805606,0.07467267140746116
1733359634703866000,10.9618662109375,-0.03874211084842682,-0.03551145836412906,0.09531681550741194
1733359634713831000,10.971830810546875,-0.08030161720514296,-0.05697101050019264,0.06435761362016201
1733359634723797000,10.981796875,-0.09177344381213187,-0.05227174676805734,0.04233107525110245
1733359634733762000,10.991761962890624,-0.054364335133135315,-0.0524260605469346,0.05686930369138717
1733359634743728000,11.00172802734375,-0.016475626243650912,-0.027148995949327945,0.07607727750837802
1733359634753693200,11.011693115234374,0.0020554712250828743,-0.019505787719786165,0.052496495434641834
1733359634763659000,11.021658935546874,0.0025818331867456436,-0.03080956428349018,0.030931729358434676
1733359634773624000,11.0316240234375,-0.0005348375290632248,-0.04411532831937075,-0.010326748225092887
1733359634783590100,11.041590087890626,-0.002026537391543388,-0.06010434008985757,-0.052256256937980645
1733359634793555000,11.051554931640625,-0.00002659574598073959,-0.04338467595726252,-0.043325931507349015
1733359634803521300,11.061521240234375,0.012438333551585674,-0.055957157282531256,-0.022968787655234336
1733359634813486000,11.071486083984375,0.025640052691102026,-0.05532996529489755,0.062145198267698286
1733359634823452000,11.081451904296875,0.0271183085501194,-0.04561433470547199,0.12994739938378333
1733359634833417000,11.0914169921875,0.04420739051699638,-0.042298926547169685,0.18081833944320677
1733359634843383000,11.101383056640625,0.038458909992873665,-0.022256839993596074,0.20235972464382648
1733359634853348900,11.111348876953125,-0.008276829957962036,-0.03356090881824493,0.20919220101237296
1733359634863314200,11.121314208984375,-0.03369417980909347,-0.027986031295359134,0.20962883886396882
1733359634873280000,11.131280029296875,-0.08903262067139148,-0.015858663389086723,0.17831717027723787
1733359634883245000,11.1412451171875,-0.10956833596080541,-0.025887013189494608,0.13149755143523215
1733359634893211100,11.151211181640624,-0.09023995063453913,-0.02935731964856386,0.07211772622764111
1733359634903176200,11.16117626953125,-0.04952303258180618,-0.0313207286760211,-0.008934417083859444
1733359634913142000,11.17114208984375,-0.0020958032354712487,-0.03528027995675802,-0.0776595782637596
1733359634923107000,11.181107177734376,0.02261485965102911,-0.06641600745469331,-0.13339900114238262
1733359634933073200,11.1910732421875,0.04778524900376797,-0.08550123167484998,-0.1658510719358921
1733359634943038000,11.201037841796875,0.06461071159839629,-0.08888853602558373,-0.20530045427083968
1733359634953004000,11.211004150390625,0.054795712287724015,-0.08986761019080877,-0.2163753905147314
1733359634962969000,11.220968994140625,0.054798927158117294,-0.08851648784279822,-0.2114303353279829
1733359634972935000,11.230934814453125,0.05942307982742786,-0.06183101775199174,-0.22645897763371467
1733359634982900200,11.240900146484375,0.008673720321059227,-0.05859042839556932,-0.21508301261663434
1733359634992866000,11.250865966796875,-0.024165303963422775,-0.07148001284599304,-0.17430442750453948
1733359635002831000,11.2608310546875,-0.046424482044577595,-0.10245412004143,-0.13374562262296677
1733359635012797200,11.270797119140624,-0.0713940881282091,-0.09521510869860648,-0.06463467699587344
1733359635022762000,11.280761962890624,-0.07216068858653306,-0.07054302425682545,-0.02540975106656551
1733359635032728000,11.29072802734375,-0.1035316861450672,-0.03366729180216789,0.0012748422414064406
1733359635042693000,11.300693115234376,-0.1547594768181443,-0.015355682303011417,0.02903787843585014
1733359635052659000,11.310658935546876,-0.17939561316370964,-0.007144903318583965,0.05837210946977138
1733359635062624000,11.3206240234375,-0.15541384907364844,-0.022778818041086196,0.08931260665655136
1733359635072590000,11.330590087890625,-0.08556699038743973,-0.018301672627031803,0.1358136610686779
1733359635082555100,11.34055517578125,-0.019345920982956885,0.023451602736115455,0.17022680280208585
1733359635092521000,11.35052099609375,0.026959026335179805,0.03691811029165983,0.18624445614516735
1733359635102486000,11.360486083984375,0.03686667236536741,0.02893909423649311,0.19280279174745082
1733359635112452000,11.3704521484375,0.010145254178345203,0.01019815340936184,0.2006330469816923
1733359635122417000,11.3804169921875,-0.03782265791594982,0.0002986906856298446,0.1891045217514038
1733359635132383200,11.39038330078125,-0.04478431362211704,-0.008038929548859595,0.1669528956979513
1733359635142349000,11.40034912109375,-0.040572541145980356,-0.02647650351524353,0.13131634964942931
1733359635152313900,11.41031396484375,-0.05465338120758533,-0.05959229891449213,0.09459843810498714
1733359635162280200,11.4202802734375,-0.03134673990011215,-0.06919628582298755,0.048455695611238477
1733359635172245000,11.430244873046876,0.005512041419744491,-0.08899199640005827,-0.014556348618865012
1733359635182211000,11.440211181640626,0.01752455077469349,-0.11792846028804778,-0.05518295803964138
1733359635192176000,11.450176025390626,0.027189912481606005,-0.11128741483837365,-0.09244973563849926
1733359635202142000,11.460141845703125,0.03968786726593971,-0.12525894930660725,-0.09223287801742554
1733359635212107000,11.47010693359375,0.04350450294464826,-0.1294157767251134,-0.08266717729270458
1733359635222073000,11.480072998046875,0.046376551249623296,-0.13269436000436544,-0.04532558089196682
1733359635232038100,11.4900380859375,0.02701280234903097,-0.10590805988758802,0.0017190788775682448
1733359635242004200,11.500004150390625,0.037601124119758605,-0.06741144823282956,0.06140227094590663
1733359635251969000,11.509968994140625,0.005265373182296753,-0.06382452965676784,0.10891104109585284
1733359635261935000,11.51993505859375,-0.003736556179821491,-0.03645575347691774,0.12986731988489628
1733359635271900000,11.52989990234375,-0.042372868566215034,-0.02757832727730274,0.13375906662642956
1733359635281871000,11.53987109375,-0.09893880539685487,-0.014150982688367366,0.125056120210886
1733359635291836000,11.5498359375,-0.1441653098285198,-0.0055555883005261415,0.11392448534369468
1733359635301802000,11.559802001953125,-0.1342556179717183,0.022100772649049756,0.07090484330654144
1733359635311767000,11.56976708984375,-0.08730915787965059,0.00822568429261446,0.06889116539657116
1733359635321733000,11.579733154296875,-0.03444675174206495,0.005823591586947441,0.05858955161273479
1733359635331698000,11.589697998046875,0.00992401264309883,-0.03529810787439346,0.06109598147571087
1733359635341664000,11.5996640625,0.03277881852984428,-0.0718894704297185,0.024214403802156448
1733359635351629000,11.609629150390624,0.025691490617394445,-0.07079407640844583,-0.031926585614681244
1733359635361595000,11.619594970703124,0.0014238953232765196,-0.08621434838026762,-0.08831833492219447
1733359635371560200,11.629560302734374,-0.04168517856299877,-0.05831745667308569,-0.13207622810602188
1733359635381526000,11.639526123046876,-0.05764817910939455,-0.025399521933495997,-0.15766016669571398
1733359635391490800,11.64949072265625,-0.052769174896180625,-0.018677520202100277,-0.10907120009362697
1733359635401457200,11.65945703125,-0.02293430086374283,-0.026336802783608435,-0.05918751750588417
1733359635411422000,11.669421875,0.007475742708146571,-0.03811988729685545,-0.0015513210952281952
1733359635421388000,11.679387939453125,0.006787175922095775,-0.040733869187533855,0.044377486386895176
1733359635431354000,11.68935400390625,-0.016759119360148907,-0.03296265066415071,0.05964695171117782
1733359635441319000,11.69931884765625,-0.04226180940717458,-0.03546674243956804,0.008477320966124535
1733359635451285200,11.70928515625,-0.058626376491785044,-0.011402560763061046,-0.034599604216217994
1733359635461250000,11.71925,-0.06385550931692123,-0.012599077071249484,-0.04760229365229606
1733359635471215900,11.7292158203125,-0.07011983040869235,-0.03291647343486547,-0.04111234711110592
1733359635481181000,11.739180908203124,-0.06070259824395179,-0.05276274515539407,-0.002127075156569481
1733359635491147000,11.74914697265625,-0.041892683833837506,-0.0490364181086421,0.048071080207824704
1733359635501112000,11.759112060546874,-0.03574877425134182,-0.022308570180833338,0.07248129884302616
1733359635511078100,11.769078125,-0.008726911813020705,0.004352349990606308,0.12529869679510594
1733359635521043000,11.77904296875,0.0017307693153619766,-0.0034986557707190513,0.1604477515876293
1733359635531009000,11.789009033203126,0.024304127912223337,-0.03916764278411865,0.11616612679064273
1733359635540973800,11.798973876953125,0.012081482937932014,-0.06363572908639907,0.07759352729022502
1733359635550940200,11.808940185546875,0.01612929702401161,-0.07673486463427544,0.050182373273372646
1733359635560905000,11.818905029296875,-0.02149637701511383,-0.08500760293900966,0.03328092283308506
1733359635570871000,11.82887109375,-0.05035334592610597,-0.10826368310302495,0.02708031462728977
1733359635580836000,11.838836181640625,-0.03245879279524088,-0.11067308233231306,0.04791851999461651
1733359635590802000,11.848802001953125,-0.02336333993077278,-0.0902709302946925,0.055951604324579234
1733359635600767000,11.85876708984375,-0.011202362015843391,-0.06901011560112237,0.03852233061790466
1733359635610733000,11.868733154296875,-0.017411445789039134,-0.03329495135843753,0.012090835288166998
1733359635620697900,11.87869775390625,-0.03707271633148193,-0.009915829336643218,0.028249942928552627
1733359635630664200,11.888664306640624,-0.03655629124194383,0.0010559387937188148,-0.00767184980213642
1733359635640629000,11.89862890625,-0.01723608922213316,0.007426350608468055,-0.025498013871908188
1733359635650595000,11.908594970703126,-0.007733224600553512,-0.005857786117494106,-0.042055765441060065
1733359635660560100,11.91856005859375,0.011120821212232112,-0.03135024703145027,-0.03488426637649536
1733359635670526000,11.92852587890625,0.010316226831078528,-0.023117548476159572,-0.009150105661153794
1733359635680491000,11.938490966796875,0.021897359031438825,-0.026831892824172972,0.0036719665110111236
1733359635690457000,11.94845703125,-0.019066519519686697,-0.05711246479749679,0.019677344894409178
1733359635700422100,11.958422119140625,-0.03758884916007518,-0.06301847397089004,0.017191373297572136
1733359635710388000,11.968387939453125,-0.011145371131598948,-0.05762888988703489,-0.005207505515217781
1733359635720354000,11.97835400390625,-0.034494390276074406,-0.049451720911264416,0.03402560372054576
1733359635730319000,11.988319091796875,-0.024171733704209327,-0.026588731718063353,0.04025777610838413
1733359635740285000,11.998284912109375,-0.02715922508239746,-0.012499708350002765,-0.0012409399718046187
1733359635750250000,12.00825,-0.0678910484433174,-0.003398702527582645,0.01588672043979168
1733359635760216000,12.018216064453124,-0.10052315197885035,-0.003933832317590713,0.0342681803047657
1733359635770180900,12.028180908203124,-0.08716039705872536,-0.016836276249587535,0.01873451108634472
1733359635780147200,12.038147216796874,-0.08177344332337379,-0.031656244240701195,-0.016496961292624474
1733359635790112000,12.048112060546876,-0.045024259857833385,-0.018860475553572176,-0.03358487421572208
