time,seconds_elapsed,z,y,x
1733699218042104300,0.027104248046875,0.06632102264761924,0.017784224624186752,0.21536299860179423
1733699218052060400,0.037060302734375,0.11639350580573081,-0.015394406878203152,0.18668167851865292
1733699218062015200,0.04701513671875,0.11765256595611571,-0.04034910765364766,0.16597440605461597
1733699218071971000,0.05697119140625,0.13114508473575115,-0.023651216961443424,0.13211772916018963
1733699218081926400,0.066926513671875,0.15341624551564453,-0.01678527671471238,0.07093640748858451
1733699218091882200,0.07688232421875,0.12023176879435776,-0.02216565457880497,0.008224222987890243
1733699218101837600,0.086837646484375,0.09385317269563674,-0.031926001092791555,-0.03072890026271343
1733699218111793400,0.09679345703125,0.06939414648264645,-0.03281578953936696,-0.04325871149003505
1733699218121748500,0.10674853515625,0.06824439192563295,0.0009312895007431507,-0.0540448939204216
1733699218131704600,0.11670458984375,0.054960255199670786,0.003429828318208456,-0.0731634358882904
1733699218141659400,0.126659423828125,0.01880582275688648,0.01682443968132138,-0.09352525591552258
1733699218151615700,0.13661572265625,-0.0017445055797696112,0.022248072165250776,-0.10027005400061607
1733699218161570600,0.146570556640625,0.008655015620589256,0.022407500510662794,-0.08317220420539378
1733699218171526400,0.1565263671875,0.011046294671297073,0.032241789043694735,-0.04557750982642173
1733699218181481500,0.1664814453125,-0.0433656789958477,0.02972381487339735,-0.04819207623898983
1733699218191437600,0.1764375,-0.03845744868814945,0.025321342130750418,-0.03166588885188103
1733699218201392400,0.186392333984375,-0.02430062078088522,-0.005628945797681808,-0.013584873238205909
1733699218211348500,0.196348388671875,0.00409954427331686,-0.032519290810823435,0.004287468060851097
1733699218221303600,0.206303466796875,0.03826689455211162,-0.02599719556570053,0.009428922602534294
1733699218231259600,0.216259765625,0.05151712900847196,0.0008547171331942081,-0.014244798451662063
1733699218241214500,0.22621435546875,0.03296381970793009,0.012183043616265057,-0.015549451309442519
1733699218251170600,0.236170654296875,0.026426526893675327,0.015826076293736696,0.006197685596346855
1733699218261125600,0.246125732421875,0.02148410205543041,0.01097688269689679,0.01956219408214092
1733699218271081500,0.25608154296875,-0.0024190438404679297,0.028074440231174228,0.02501461426913738
1733699218281036500,0.26603662109375,-0.046566520863771436,0.028421500103175637,0.011187748968601226
1733699218290992400,0.275992431640625,-0.10177052169144153,0.04414849993661046,-0.01786649608016014
1733699218300947500,0.285947509765625,-0.10562924294620751,0.027440380111336708,-0.028787118545174597
1733699218310903600,0.295903564453125,-0.06679974607527256,0.008305471530556678,-0.003868365865945816
1733699218320858400,0.3058583984375,0.019597849917411803,0.006956395009160041,0.04249824851155281
1733699218330814700,0.315814697265625,0.08650865515172482,0.0208582252420485,0.08753624463379382
1733699218340769500,0.32576953125,0.1176665944814682,0.049159459966421126,0.09610942718982696
1733699218350725400,0.335725341796875,0.136344991466403,0.04805705168247223,0.06701075847744942
1733699218360680700,0.3456806640625,0.13735329172611235,0.016370850694924593,0.033255788391828536
1733699218370636500,0.355636474609375,0.1338140116840601,0.006938274830579757,-0.02550385909080505
1733699218380591600,0.365591552734375,0.12917115431427956,-0.008368892155587672,-0.06882160729169845
1733699218390547500,0.37554736328125,0.11599252378940582,-0.024228578457981348,-0.08229366780519486
1733699218400502500,0.38550244140625,0.11991817280054091,-0.028059973314404487,-0.08157353683710097
1733699218410458600,0.395458740234375,0.09248539147377013,-0.00965235609486699,-0.0884089358150959
1733699218420413400,0.405413330078125,0.08597235631793737,-0.017178367685526608,-0.08455635204017162
1733699218430369500,0.41536962890625,0.05723521439433098,0.00808539903908968,-0.05212240142524242
1733699218440324600,0.42532470703125,0.015036241090297699,0.028141367987543343,-0.0025298107385635375
1733699218450280400,0.435280517578125,-0.007782324439287185,0.02544774498939514,0.0714642307549715
1733699218460235500,0.445235595703125,-0.03566372631639242,0.06709127636775374,0.11226561222076416
1733699218470191400,0.45519140625,-0.08329933771640062,0.043348727861046786,0.1044558152526617
1733699218480146700,0.465146728515625,-0.13300912504196166,0.03867152983024716,0.06490531063079834
1733699218490102500,0.4751025390625,-0.17273147909939288,0.01454904209524393,0.006466565665602684
1733699218500057300,0.485057373046875,-0.19115560906231402,0.005973375321179628,-0.08779694139659404
1733699218510013700,0.495013671875,-0.1684860966145992,-0.005125526320189237,-0.11619944453835487
1733699218519968500,0.504968505859375,-0.12558628156483173,-0.007268091306835413,-0.112202483856678
1733699218529924600,0.514924560546875,-0.06589636749476194,-0.014169687388837336,-0.08854629845917224
1733699218539879700,0.524879638671875,0.01078150625526905,0.0028990824423730374,-0.03831482534706592
1733699218549835500,0.53483544921875,0.08444587740302086,0.01133183361440897,-0.009129062873125076
1733699218559790600,0.54479052734375,0.1595648312732577,0.012422551460564136,0.014698971959948539
1733699218569746400,0.554746337890625,0.18650456838607787,0.007892214554548263,0.041970425245165824
1733699218579701500,0.564701416015625,0.1803957301169634,0.003416092053800821,0.026364275312423704
1733699218589657600,0.57465771484375,0.15893500893712043,-0.0029286007978022097,0.00720306324660778
1733699218599612400,0.5846123046875,0.14053075271844864,-0.015184563519805669,-0.02473755089342594
1733699218609568500,0.594568603515625,0.13336568339467048,-0.013974310947209596,-0.053286184507608414
1733699218619523600,0.604523681640625,0.09801496855020522,-0.0042583880968391895,-0.0610246698051691
1733699218629479700,0.614479736328125,0.053368017572164535,-0.01096080834493041,-0.06506488510668278
1733699218639434500,0.6244345703125,0.029881343522667882,-0.02562514738291502,-0.05932078849673271
1733699218649390300,0.634390380859375,-0.006290624576807022,-0.01723608922213316,-0.049935705035924906
1733699218659346700,0.6443466796875,-0.04892565121054649,0.005141454541683197,-0.035224458116292955
1733699218669301500,0.654301513671875,-0.05855740290880203,0.013971388337761162,-0.0243950210660696
1733699218679257600,0.664257568359375,-0.05157470441460609,0.023474545220285654,0.008705284503102302
1733699218689212700,0.674212646484375,-0.053691258177161215,0.03255392373278737,0.036216391763091084
1733699218699168500,0.68416845703125,-0.046210547032952305,0.018845424114912745,0.07395546304881573
1733699218709123600,0.69412353515625,-0.02907937949001789,0.0404243648469448,0.08886018671393393
1733699218719079400,0.704079345703125,-0.005111059403419494,0.039692397310584784,0.0923521204829216
1733699218729034500,0.714034423828125,0.014223755663633346,0.028010142823308704,0.07174012508690357
1733699218738990600,0.723990478515625,0.06677519615590571,0.004308803109824657,0.022720950374007225
1733699218748945400,0.7339453125,0.08482990828454494,0.010891542501002549,-0.014156535646319388
1733699218758901500,0.743901611328125,0.08322451891452073,0.01634951564595103,-0.034361119285225866
1733699218768856600,0.753856689453125,0.06576046615540981,-0.0037310032218694686,-0.06285071618855
1733699218778812700,0.763812744140625,0.049075288814306256,-0.00443067592382431,-0.08141162427365779
1733699218788767500,0.773767578125,0.03485065636783838,0.012479688475281,-0.07529109556674957
1733699218798723600,0.7837236328125,0.04034486986994743,-0.014306465511023998,-0.05100421105027198
1733699218808678700,0.7936787109375,0.07627513816803694,0.007308861708641052,-0.02251987484395504
1733699218818634500,0.803634521484375,0.06236322493255138,0.024197452667355537,0.028384382963180542
1733699218828589300,0.81358935546875,0.051664720785617825,0.020047931772470474,0.011437339815497398
1733699218838545700,0.823545654296875,0.07583791579455137,0.0027238720059394833,0.0013069909453392028
1733699218848500500,0.83350048828125,0.08899638031423092,-0.0020657003581523894,-0.048666708013415334
1733699218858456600,0.84345654296875,0.09172434397339821,-0.013348580264300107,-0.08427695057690143
1733699218868411600,0.85341162109375,0.05764028806388378,-0.009960399130731821,-0.0712684159219265
1733699218878367500,0.863367431640625,-0.008967150309681891,-0.008619359785318375,-0.053768415066599844
1733699218888322600,0.873322509765625,-0.07262216861844062,0.009455079957097769,-0.03705751876235008
1733699218898278400,0.8832783203125,-0.12465864532589911,0.03402238885015249,-0.001025251394510269
1733699218908233700,0.893233642578125,-0.14570610952973365,0.052406917455047365,0.042184944778680795
1733699218918189600,0.903189453125,-0.13483517142534254,0.035879853285104034,0.0858072288841009
1733699218928144400,0.913144287109375,-0.08552724289894104,0.03911825068444014,0.07099602872133255
1733699218938100500,0.9231005859375,-0.025887305450439452,0.024468086302280423,0.05834229885339737
1733699218948055600,0.9330556640625,0.07244155135452747,0.007159808626770973,0.015493337208032608
1733699218958011600,0.94301171875,0.1063292079091072,0.020570202080905438,-0.028128946897387503
1733699218967966500,0.952966552734375,0.14521978731751442,0.02109977891296148,-0.049123804131150244
1733699218977922600,0.962922607421875,0.1809124474674463,0.0029687866777181626,-0.03759294081330299
1733699218987877600,0.972877685546875,0.18844576558172701,-0.022081045035272834,-0.034394437032938
1733699218997833500,0.98283349609375,0.17109598685204983,0.00887728006914258,-0.05556874248683452
1733699219007788500,0.99278857421875,0.09467150334119796,-0.013912059365957975,-0.05588087717592716
1733699219017744600,1.00274462890625,0.058937926658988,-0.024828590177744626,-0.039676761350035665
1733699219027699500,1.012699462890625,0.04801145897507667,-0.013064648756384849,-0.02258943294882774
1733699219037655600,1.022655517578125,-0.004545242214202881,0.007668781062215566,0.02215337961912155
1733699219047610600,1.032610595703125,-0.06909457901418209,0.033303426925837994,0.04646013787984848
1733699219057566700,1.042566650390625,-0.09570844517350197,0.043752924747765064,0.03903612535893917
1733699219067521500,1.052521484375,-0.10111410360932349,0.012168430569022894,0.03906125980019569
1733699219077477400,1.062477294921875,-0.09139525814950465,0.006795505359023809,0.014715338572859763
1733699219087432700,1.0724326171875,-0.058070496174693106,-0.0016287702456116676,-0.038811084431409834
1733699219097388500,1.082388427734375,-0.01921674164533615,0.006133680449426174,-0.06109481243193149
1733699219107344000,1.09234375,-0.0035299276918172836,0.013660861083865165,-0.07800093904733657
1733699219117299700,1.1022998046875,-0.0031377135038375852,0.0061981239877641195,-0.07569207758307457
1733699219127255000,1.112255126953125,0.04481880041360855,-0.0072875266596674915,-0.04304360743463039
1733699219137211000,1.1222109375,0.04742985969483852,0.0026714111663401125,-0.03049976768195629
1733699219147166000,1.132166015625,0.02158405529856682,0.024034224929660557,0.004145429241657257
1733699219157121800,1.142121826171875,0.019953823748230935,0.04373363552540541,0.02037526403069496
1733699219167076900,1.152076904296875,0.04631576097309589,0.032898353256285186,0.02390402267873287
1733699219177033000,1.162032958984375,0.06688917792439461,0.02250029336065054,0.049317280876636505
1733699219186987800,1.17198779296875,0.10142974542975425,0.02241173829436302,0.023673721054196357
1733699219196944000,1.18194384765625,0.11922902149260044,0.025004239005595445,0.013512392523884772
1733699219206899000,1.19189892578125,0.10631401033997535,-0.003998568116873502,-0.025561726757884023
1733699219216854800,1.201854736328125,0.07558218746781349,-0.02088219063952565,-0.04241875353455543
1733699219226809900,1.211809814453125,0.039811785906553265,0.00016994973942637443,-0.019287468793988228
1733699219236766000,1.221765869140625,0.009967851784825324,-0.007019377242773771,-0.027760698106884956
1733699219246720800,1.231720703125,-0.019547581034898755,-0.012393179235607385,-0.00215805481672287
1733699219256676900,1.2416767578125,-0.05297112720906734,0.0193082193210721,0.009786065477132797
1733699219266632000,1.2516318359375,-0.04697802427411079,0.018533727817237375,0.015070727881789207
1733699219276588000,1.261588134765625,-0.03125613900721073,0.04109539597630501,0.018863105902075766
1733699219286542800,1.27154296875,-0.03523673307597637,0.0519696950815618,-0.010275310298800468
1733699219296499000,1.2814990234375,-0.027227029621601104,0.02150792132243514,0.010343114838004111
1733699219306454000,1.2914541015625,0.002434533670544624,0.01378565650731325,-0.012787585380673408
1733699219316409900,1.301409912109375,-0.0018593641310930252,0.01664484533071518,-0.04076981728374958
1733699219326365000,1.311364990234375,0.0010603227078914642,0.006868278334289789,-0.05414017098844051
1733699219336320800,1.32132080078125,0.008709376156330108,-0.023347703970223663,-0.0888794759362936
1733699219346277000,1.331277099609375,0.04622106842696667,-0.03000277794525027,-0.08155366309285163
1733699219356232000,1.34123193359375,0.06069909111261367,-0.007017185285687446,-0.05831950249969959
1733699219366187800,1.351187744140625,0.05245265629291534,0.0036059155374765393,-0.03014379385113716
1733699219376143000,1.36114306640625,0.056041036173701285,0.03413549383580684,0.013578443497419357
1733699219386099000,1.371098876953125,0.03806055832505226,0.040945466111600395,0.03867138369977474
1733699219396053800,1.3810537109375,0.04263502663373947,0.04616203171610832,0.03677285660207271
1733699219406009900,1.391009765625,0.05001403096914291,0.018612638272345064,0.029838088902831076
1733699219415965000,1.40096484375,0.06319383053779602,0.01204115092754364,0.023728666111826894
1733699219425921000,1.410921142578125,0.060196986809372896,0.011873831536620855,-0.0008878887504339218
1733699219435875800,1.420875732421875,0.07213467736244202,-0.01398527073264122,-0.0037578912287950512
1733699219445832000,1.43083203125,0.07745850273370743,-0.038635581734031435,0.01112520512640476
1733699219455787000,1.440787109375,0.0551338582009077,-0.021914748557657,0.008042436680197716
1733699219465742800,1.450742919921875,0.023310732960700988,-0.014574322666972875,-0.006996727019548415
1733699219475698000,1.460697998046875,0.012241641935706139,-0.011043810453265905,-0.023123101434111594
1733699219485653800,1.47065380859375,-0.0018950199663639068,0.014047230052947998,-0.04025426897704601
1733699219495608800,1.48060888671875,-0.025334347742795943,0.002647007377445698,-0.03156476656496525
1733699219505565000,1.49056494140625,-0.004554594564437866,0.006254676480591297,-0.026917233020067214
1733699219515519700,1.500519775390625,0.020443068569898606,0.025198300272971392,-0.009061842855811119
1733699219525476000,1.51047607421875,0.014969605594873427,0.013982201992720364,-0.007194295418262481
1733699219535431000,1.520430908203125,-0.014441782328486441,0.013961743726581334,-0.02052957780957222
1733699219545386800,1.53038671875,-0.021041618984937668,0.018704262078553437,-0.03383037340939045
1733699219555342000,1.540342041015625,-0.025212182667851447,0.02605316353663802,-0.03988134401142597
1733699219565298000,1.5502978515625,-0.03790682906806469,0.024755817202478644,-0.02015314571261406
1733699219575253000,1.5602529296875,-0.016371873608231544,0.02310863451734185,0.018999884024262427
1733699219585208800,1.570208740234375,0.0177899237126112,0.011324673221260309,0.05095861834287643
1733699219595164000,1.580163818359375,0.04914776952862739,0.034367987417429684,0.05894084926843643
1733699219605120000,1.5901201171875,0.05729366658329963,0.018475275628268718,0.0433656789958477
1733699219615074800,1.60007470703125,0.03295183700919151,0.02303235441073775,-0.005170680636167526
1733699219625031000,1.610031005859375,0.02175824282169342,0.003924187706410885,-0.07216624154448509
1733699219634986000,1.619986083984375,0.007580079865455627,-0.008680442322790622,-0.12224398539960384
1733699219644941800,1.62994189453125,-0.001247369712591171,-0.028587358189374208,-0.14524258367121218
1733699219654897000,1.63989697265625,0.013213117316365241,-0.030750527572631834,-0.14003449363410472
1733699219664852700,1.649852783203125,0.03974631945490837,-0.02948781416043639,-0.10262217008471489
1733699219674807800,1.659807861328125,0.015260697495937347,-0.0002991290770471096,-0.06894318784475326
1733699219684764000,1.669763916015625,0.024148352828621863,0.016209230392426253,0.009370470413565635
1733699219694718700,1.67971875,0.019414310044050215,0.011409282764792441,0.05470365009009838
1733699219704675000,1.689675048828125,0.04190729688107967,0.02620323953181505,0.06230827987492084
1733699219714630000,1.6996298828125,0.04355155695676803,0.03603679741248488,0.06980243502259253
1733699219724586000,1.7095859375,0.06625438715219498,0.011587854202091694,0.05297521886229515
1733699219734541000,1.719541015625,0.05286299065947532,0.012439356464892625,0.020931144347786902
1733699219744497000,1.729496826171875,0.043915714094042775,0.0153204648591578,0.004463993671536446
1733699219754452000,1.739451904296875,0.014421908584237099,0.026064269452542064,-0.01871522186398506
1733699219764407800,1.74940771484375,-0.018627543580532074,0.020996903060376642,-0.01944412066042423
1733699219774363000,1.75936279296875,-0.020109891092777252,0.014681874694675206,-0.022516952234506605
1733699219784319000,1.769319091796875,-0.012990998998284339,0.012376958753168582,-0.025462358036637305
1733699219794273800,1.779273681640625,-0.0008545710027217865,0.013058219015598296,0.0017114800930023192
1733699219804230000,1.78922998046875,0.014598434194922447,0.006835398977994918,0.004959083712100983
1733699219814185000,1.79918505859375,0.01836976942718029,0.017758944052457808,0.014355273088812827
1733699219824140800,1.809140869140625,0.021985037314891813,0.020768647262454032,0.014061843100190163
1733699219834095900,1.819095947265625,0.032795769664645195,0.017405454439669846,-0.01619827060699463
1733699219844051700,1.8290517578125,0.029842765077948568,0.019912468824535606,-0.050936991032958026
1733699219854007000,1.839007080078125,0.033143560189008714,0.02360138647034764,-0.0517658430725336
1733699219863963000,1.848962890625,0.04942015672922134,0.0065229720279574395,-0.06141513042747974
1733699219873917700,1.858917724609375,0.05806757356524467,-0.005046323604136705,-0.05521861387491226
1733699219883874000,1.8688740234375,0.055664019554853436,-0.017179682859778403,-0.031203532037138937
1733699219893828900,1.878828857421875,0.04881342300772667,-0.018732611390203237,-0.028731004443764686
1733699219903785000,1.888784912109375,0.043859599992632864,-0.01956219408214092,-0.018758476483821868
1733699219913740000,1.898739990234375,0.04625906234979629,-0.01787614069133997,0.0007031798332929611
1733699219923695900,1.90869580078125,0.028407763838768002,0.0038425007723271844,0.0024117373168468475
1733699219933652000,1.91865185546875,0.010760463467240333,0.012363222488760947,0.028518822997808453
1733699219943606800,1.928606689453125,0.002814472898840904,0.027586218322813508,0.03286182063817978
1733699219953563000,1.93856298828125,0.031919571352005,0.016853081253916023,0.021301731225848195
1733699219963518000,1.94851806640625,0.03323766821324825,0.016881868956983088,0.021924831560254095
1733699219973473800,1.958473876953125,0.0295364756077528,0.019345774852484465,0.005454758274555206
1733699219983428900,1.968428955078125,0.03681786478757858,0.02082008518874645,-0.019856208592653274
1733699219993385000,1.978385009765625,0.033331776237487794,0.014847878911346197,-0.03240706260800361
1733699220003340000,1.988340087890625,0.05020107797384262,0.009256196384131908,-0.02097089183628559
1733699220013295900,1.9982958984375,0.023823358657956123,0.015370879872143268,-0.03272796512544155
1733699220023251000,2.0082509765625,0.001948211458325386,0.008249211298674345,-0.01792670183479786
1733699220033207000,2.01820703125,-0.01635901412665844,0.029775106669217347,-0.031816110977530475
1733699220043161900,2.028161865234375,-0.05468611443340778,0.02587897601351142,-0.03612988252341747
1733699220053118000,2.038117919921875,-0.08248539098501205,0.02179229122176766,-0.06396072325706481
1733699220063073000,2.048072998046875,-0.02510755324959755,-0.033310733449459076,-0.07905717010200024
1733699220073028900,2.05802880859375,0.07412789700627327,-0.03479819552823901,-0.06683540191054343
1733699220082984000,2.06798388671875,0.07252981415987014,0.006748305216431617,-0.059982467275857924
1733699220092939800,2.077939697265625,0.05289572388529777,0.009000321926921606,-0.054874915003776545
1733699220102895000,2.08789501953125,0.04712181665897369,-0.011525164229422806,-0.008090951997041702
1733699220112850400,2.097850341796875,0.02698796016871929,-0.0012261807940900326,0.013311316993832588
1733699220122805200,2.10780517578125,-0.004145429241657257,-0.025552666668593883,0.014393267011642456
1733699220132761600,2.11776171875,0.01598550463914871,0.01856441521644592,0.031738954088091846
1733699220142716400,2.12771630859375,0.04288286391496658,0.03039776861220598,0.021139234140515325
1733699220152672300,2.13767236328125,0.03553542376160621,0.0320505042552948,0.011274842730164528
1733699220162627600,2.147627685546875,0.029504326903820037,0.01593231314718723,0.02184066040813923
1733699220172583400,2.15758349609375,-0.00985387001633644,0.026236703409999607,0.015358312651515006
1733699220182538500,2.16753857421875,0.006903788039088248,0.026122721641510725,0.04729541966021061
1733699220192494300,2.177494384765625,-0.00504500842988491,0.03491729186326265,0.060756958779692644
1733699220202449400,2.187449462890625,-0.00350654681622982,0.04304156160801649,0.05286474422514438
1733699220212405500,2.197405517578125,-0.017678864553570747,0.027807021466642618,0.02338087558746338
1733699220222360300,2.2073603515625,0.014248305583000182,0.003511953643709421,-0.01846212388575077
1733699220232316400,2.21731640625,0.05370002600550651,-0.009557517418265342,-0.06175064599215984
1733699220242271500,2.227271484375,0.05888064351379871,-0.00893061769157648,-0.09232406343221664
1733699220252227300,2.237227294921875,0.0763654467999935,-0.028506694168597458,-0.10357026458978652
1733699220262182400,2.247182373046875,0.08270400217175483,-0.025900603323429822,-0.06441723485291004
1733699220272138200,2.25713818359375,0.06295885273814202,-0.011858487837016582,-0.022655483922362326
1733699220282093300,2.26709326171875,0.033168694630265234,-0.001469634161144495,0.008688917890191078
1733699220292049400,2.27704931640625,0.020042671075463293,0.0327181743837893,0.020045593684911725
1733699220302004200,2.287004150390625,-0.022099603605270385,0.02002192054837942,0.028275077369809148
1733699220311960600,2.296960693359375,-0.01903846246898174,0.030325726289302107,0.029665070423483847
1733699220321915400,2.306915283203125,-0.014427753803133964,0.026304507949203252,-0.0020218612164258957
1733699220331871500,2.31687158203125,0.007284311789274215,0.016261545101553202,-0.02221826154887676
1733699220341826600,2.32682666015625,0.05261866050958633,0.007067308037728071,-0.023797639694809913
1733699220351782400,2.336782470703125,0.10382160900235175,-0.006993950540572404,-0.017325813332200048
1733699220361737500,2.346737548828125,0.11388239976763724,-0.008818389488756656,0.014604863935708999
1733699220371693300,2.356693359375,0.0841349117577076,0.005343552985042333,0.05729658919274807
1733699220381648400,2.3666484375,0.04095394167900085,0.017504092508554458,0.04098609038293361
1733699220391604500,2.3766044921875,0.00845218652486801,0.00472542108669877,0.006259060394763946
1733699220401559300,2.386559326171875,0.009839841490983962,-0.0006593406915664673,-0.0657043520539999
1733699220411515400,2.396515380859375,0.006606850919127464,0.01295461251065135,-0.06268412744998932
1733699220421470500,2.406470458984375,-0.004830488896369934,0.029058336701989172,-0.02646598212122917
1733699220431426300,2.41642626953125,0.02096212400794029,0.0012790800251066684,0.019570377388596533
1733699220441382400,2.42638232421875,0.03679916008710861,0.005055529823899269,0.05029577051997185
1733699220451337200,2.436337158203125,0.07535539297461509,-0.014920651886612176,0.03692424777150154
1733699220461293600,2.44629345703125,0.12190145557224749,-0.0031806758627295493,0.006772270613908767
1733699220471248400,2.456248291015625,0.12072422848641871,0.03233063637092709,-0.05302373417913914
1733699220481204500,2.46620458984375,0.06273205824494361,0.030577655223757026,-0.08871931693851948
1733699220491159600,2.47615966796875,0.039679099437594414,0.006396715299785137,-0.12891864085793495
1733699220501115400,2.486115478515625,-0.030033319213986394,0.016977146025002002,-0.13447101428806782
1733699220511070500,2.496070556640625,-0.11105740547478199,0.050530748319625854,-0.0998065281420946
1733699220521026300,2.5060263671875,-0.18660218354165553,0.044007337900251145,-0.019590251132845876
1733699220530981400,2.5159814453125,-0.2299211007863283,0.015003215603530407,0.040083588585257526
1733699220540937500,2.5259375,-0.21373510513901708,0.010039017324894666,0.10143851325809955
1733699220550892300,2.535892333984375,-0.19153847090005874,0.01864142597541213,0.09275368702113627
1733699220560848400,2.545848388671875,-0.1137795239150524,0.029210166262835263,0.0493523521900177
1733699220570803500,2.555803466796875,0.015647650986909865,0.012608137160539627,0.033811668708920474
1733699220580759300,2.56575927734375,0.1435994926393032,-0.0012277882292866707,-0.003593640577793121
1733699220590714400,2.57571435546875,0.20683482423126695,-0.026479718385636807,-0.055980830419063564
1733699220600670500,2.58567041015625,0.1953869630217552,-0.01891512835025787,-0.12450608511269091
1733699220610625500,2.59562548828125,0.13597089745700358,-0.03543970830217004,-0.17784429206848143
1733699220620581400,2.605581298828125,0.10118132362663745,-0.04849734279587865,-0.21359189727604388
1733699220630536200,2.6155361328125,0.04813420857191086,-0.039432431200146674,-0.20829262182414532
1733699220640492500,2.625492431640625,0.014916998624801635,-0.028989509249478577,-0.17880407701134682
1733699220650447400,2.635447265625,-0.019226093995571136,-0.022005495581030845,-0.09735212072730064
1733699220660403500,2.645403564453125,-0.04314239163398743,-0.0004424830704927444,-0.0021954642176628112
1733699220670358500,2.655358642578125,-0.09792495217919349,0.02392462707534432,0.08353519229888916
1733699220680314400,2.665314453125,-0.12711948248147964,0.05786006829440593,0.12493921583294867
1733699220690269400,2.67526953125,-0.0958943231344223,0.07128770514428615,0.12631401131749154
1733699220700225300,2.685225341796875,-0.04640168569087982,0.06912132089063525,0.08807166668474674
1733699220710180600,2.6951806640625,0.007170914542675018,0.05393836480602622,0.026003040784597396
1733699220720136400,2.705136474609375,0.05415653760135174,0.01901069767922163,-0.04093231436908245
1733699220730091300,2.71509130859375,0.11022270821630954,-0.012410714892297982,-0.08173369583487511
1733699220740047400,2.72504736328125,0.07964461460113526,-0.03462050087377429,-0.11837971118688582
1733699220750002400,2.73500244140625,0.06540040067136288,-0.0281748318657279,-0.128206108674407
1733699220759958500,2.74495849609375,0.040485739645361896,-0.01630962202697992,-0.1272170976370573
1733699220769913300,2.754913330078125,0.0044505496680736535,-0.006656535279750824,-0.07401333071589469
1733699220779869400,2.764869384765625,0.0017874679386615752,0.004803162498027086,-0.011648936739563942
1733699220789824500,2.774824462890625,-0.012670096480846405,0.0017567805394530294,0.04583879111111164
1733699220799780400,2.7847802734375,-0.026176059263944625,0.025970307558774948,0.09891922391355037
1733699220809735400,2.7947353515625,-0.041944121760129925,0.03216302471905946,0.10947568924129009
1733699220819691500,2.80469140625,-0.036652445092797276,0.01026931894943118,0.07909750211238861
1733699220829646300,2.814646240234375,0.002527472651004791,0.00737082102894783,0.04090659540593624
1733699220839602400,2.8246025390625,0.0684404990196228,0.009017857583612203,0.010514379751682281
1733699220849557500,2.8345576171875,0.0996761797606945,0.0006982113972306251,-0.026071429845690726
1733699220859513600,2.844513671875,0.06621522418558597,-0.023321985007077453,-0.05416705899536609
1733699220869468400,2.854468505859375,0.044615386795997615,-0.0018313070803880691,-0.07800444617867469
1733699220879424300,2.86442431640625,0.06591127280294895,-0.004335837247222662,-0.06729775872528553
1733699220889379600,2.874379638671875,0.03745616269111633,0.009076017511636019,-0.03406476668715477
1733699220899335400,2.88433544921875,-0.032926118046045304,0.03688420802205801,0.03067746233642101
1733699220909290200,2.894290283203125,-0.046879824596643443,0.046858781808614726,0.08430968380272388
1733699220919246300,2.904246337890625,0.01690320400595665,0.06765680129602551,0.14493395611345766
1733699220929201400,2.914201416015625,0.06202770936787128,0.05609057440385222,0.15953940457105636
1733699220939157500,2.924157470703125,0.1002858360916376,0.06993117596879601,0.11796470064520835
1733699220949112300,2.9341123046875,0.09390168801248074,0.05627586784288287,0.06703998457193375
1733699220959068400,2.944068359375,0.05275719219744205,0.06777268276065587,0.011463643300533293
1733699220969024500,2.9540244140625,0.03726502403318882,0.03567337092757225,-0.03285246828794479
1733699220978979300,2.963979248046875,0.02017185041308403,-0.00397255689278245,-0.05432137277424335
1733699220988935400,2.973935302734375,-0.00602057546377182,-0.026546353881061076,-0.08511749305427074
1733699220998890500,2.983890380859375,-0.028346389040350913,-0.04422068838998675,-0.11546996122002601
1733699221008846600,2.9938466796875,-0.00417231724858284,-0.02820771122202277,-0.118590139067173
1733699221018801400,3.003801513671875,0.004836918637156486,-0.027126345726102587,-0.10546996073126792
1733699221028757200,3.01375732421875,0.02477671386003494,-0.02165902023091912,-0.0822919142395258
1733699221038712600,3.023712646484375,0.05822890160679817,-0.017454992669820785,-0.05504617991745472
1733699221048668400,3.03366845703125,0.07520166371762751,-0.00784136115014553,-0.03493453525900841
1733699221058623200,3.043623291015625,0.06828209358751773,0.015880875220894812,-0.01819675094783306
1733699221068579300,3.053579345703125,0.07424889303743838,0.02596007842570543,-0.004057750958204269
1733699221078534400,3.063534423828125,0.07964519912302494,0.030437516100704668,0.03442249408364296
1733699221088490500,3.073490478515625,0.08532149119377136,0.04515548502206802,0.0793985308855772
1733699221098445300,3.0834453125,0.09668518125116825,0.023161533748358488,0.10871931791603565
1733699221108401700,3.093401611328125,0.08460252926945686,0.046307139275223015,0.09027414516508579
1733699221118356500,3.1033564453125,0.08969722205996512,0.03660889821201563,0.07968143948018551
1733699221128312600,3.1133125,0.11008885270357131,0.0042509354427456856,0.04821896424591541
1733699221138267400,3.123267333984375,0.11646189486682414,0.007392302208393812,0.009586158990859985
1733699221148223700,3.1332236328125,0.08593582369983195,-0.003200987998396158,-0.0072761284828186034
1733699221158178600,3.143178466796875,0.055122167763113974,0.007315729840844869,-0.01687690052092075
1733699221168134700,3.153134765625,-0.019412556478381155,0.002791384284198284,-0.012191373053193092
1733699221178089700,3.16308984375,-0.08520283325016498,0.030297961499541996,-0.025281156250834463
1733699221188045600,3.173045654296875,-0.1387456228673458,0.031140257542580364,-0.04203121552169323
1733699221198000600,3.183000732421875,-0.16339257286787032,0.025687983486056325,-0.04419219294786453
1733699221207956500,3.19295654296875,-0.16532617127895355,0.009646364745497703,-0.07321428929269314
1733699221217911600,3.20291162109375,-0.11562369047701358,0.012882570187747478,-0.10350362909436225
1733699221227867600,3.21286767578125,-0.0769938078314066,-0.0029290391892194748,-0.120263040715456
1733699221237822500,3.222822509765625,-0.02891512883901596,-0.016454437325149774,-0.13391630301475524
1733699221247778600,3.232778564453125,-0.005678630158305168,-0.009267594560980797,-0.13480536080896854
1733699221257733600,3.242733642578125,0.012910919499397277,-0.00670417381376028,-0.10809621758162975
1733699221267689500,3.252689453125,0.03919569983482361,-0.016124182457476852,-0.08692834186851978
1733699221277644500,3.26264453125,0.09170447022914886,-0.03718889005705714,-0.04079378268122673
1733699221287600600,3.2726005859375,0.09351707260906696,-0.02516089087203145,-0.020891396859288213
1733699221297555700,3.2825556640625,0.04978197577893734,0.007929770085960627,0.015091770669817924
1733699221307511600,3.292511474609375,0.019043723165988923,0.018959113622456787,0.04085457295775413
1733699221317466600,3.302466552734375,0.0013689502656459808,0.013786825551092624,0.055125090372562406
1733699221327422700,3.312422607421875,0.02324526650905609,0.01510740663036704,0.046668227672576904
1733699221337377500,3.32237744140625,0.07511749256551266,0.011162176135927439,0.04414718476235866
1733699221347333600,3.332333740234375,0.09694996966719627,0.013031623269617557,0.036053894677758214
1733699221357288700,3.342288818359375,0.09693301853239536,0.01283317808806896,0.01563654507100582
1733699221367244500,3.35224462890625,0.09296996012032031,0.017902298045903445,-0.006176642808318138
1733699221377199600,3.36219970703125,0.07521803033053874,0.019457564663887022,-0.014067688319087028
1733699221387155500,3.372155517578125,0.025833529436588287,0.021669249363988636,-0.018448095360398292
1733699221397110500,3.382110595703125,-0.0005985504150390625,0.0010420563988387584,-0.031548399952054024
1733699221407066600,3.392066650390625,-0.029643443113565444,0.006696282768249511,-0.027219430837035177
1733699221417021400,3.402021484375,-0.04316226537823677,0.01507365049123764,-0.032247488132119174
1733699221426977500,3.4119775390625,-0.061135144442319864,0.019001929850876332,-0.0004956745624542236
1733699221436932600,3.4219326171875,-0.058985857453942296,0.003108049017935991,0.006233925953507423
1733699221446888700,3.431888671875,-0.02351882275342941,0.01710033401325345,0.00980944635272026
1733699221456843500,3.441843505859375,0.0006441431224346161,0.03533303305730223,0.015777999368309974
1733699221466799600,3.451799560546875,0.03721183254122734,0.04616758467406034,0.00046001872718334194
1733699221476754700,3.461754638671875,0.043012627774477,0.03353723568171262,-0.0037082068681716916
1733699221486710500,3.47171044921875,0.019751579174399375,0.017693769861757754,-0.02742050636708736
1733699221496666600,3.48166650390625,0.02085457198023796,-0.0046039866641163826,-0.056743631485104556
1733699221506621700,3.49162158203125,0.044619478449225425,-0.008639671920984983,-0.08182371220588684
1733699221516577500,3.50157763671875,0.05499532651305198,-0.009164572577923536,-0.08839081563651562
1733699221526532600,3.51153271484375,0.0667804568529129,-0.02282353396564722,-0.07541501420736313
1733699221536488400,3.521488525390625,0.01969078889787197,-0.018362316773086786,-0.06255903976559639
1733699221546443500,3.531443603515625,0.003240589356422424,0.005152268196642398,-0.036083120772242544
1733699221556399600,3.541399658203125,-0.011544891843199729,0.010183686492592096,-0.005627192232012748
1733699221566354400,3.5513544921875,0.003939677536487579,0.010736936461180449,0.01579904215633869
1733699221576310500,3.561310546875,0.0028799393504858016,0.008133183703571557,0.044754503005743025
1733699221586265600,3.571265625,-0.005763385832309722,0.00019888357296586034,0.022611060258746145
1733699221596221700,3.5812216796875,-0.0043003275424242015,-0.0007858896806836128,-0.005877952122688293
1733699221606176500,3.591176513671875,0.003450432714819908,0.010823153439909219,-0.03478431313335895
1733699221616132600,3.601132568359375,0.007988076144456863,0.015011252779513597,-0.027182605957984923
1733699221626087700,3.611087646484375,0.003974164327979088,0.022664982403069734,-0.023155250138044356
1733699221636043500,3.62104345703125,-0.001970423290133476,0.014679390476644039,-0.023920389291644095
1733699221645998600,3.63099853515625,0.00868833336830139,0.03453296872079372,-0.010710779106616974
1733699221655954700,3.64095458984375,0.006404021823406219,0.03702566231936216,-0.013882394880056381
1733699221665909500,3.650909423828125,0.04802957915365696,0.03449278284087777,0.012993921607732772
1733699221675865600,3.660865478515625,0.036594577425718304,0.0442500606149435,0.01714753415584564
1733699221685820700,3.670820556640625,0.0146352590739727,0.028547756831347942,0.02744330272078514
1733699221695776500,3.680776611328125,0.01729015749692917,0.022904490247368813,0.01867079820036888
1733699221705731600,3.690731689453125,0.03215162654221058,0.016049509786069394,0.034971944659948344
1733699221715687400,3.7006875,0.04565466671586037,0.036013124275952574,0.011895020455121993
1733699221725642800,3.710642822265625,0.06167056649327278,0.021518881107866764,-0.017644962283968925
1733699221735598600,3.7205986328125,0.06344809755980968,0.003516045296937227,-0.01968202106952667
1733699221745553400,3.730553466796875,0.08227262501716613,-0.014327800559997557,-0.0262467864125967
1733699221755509500,3.740509521484375,0.06846387989521026,-0.017234189525991678,-0.047613399568200106
1733699221765464600,3.750464599609375,0.05256079284250736,-0.012014701312035322,-0.06718377695679664
1733699221775420700,3.760420654296875,0.027858897784352302,-0.015118366415798664,-0.0715337888598442
1733699221785375500,3.77037548828125,0.005347206246852874,-0.015318272902071476,-0.05580605837404728
1733699221795331600,3.78033154296875,-0.020425532913208005,-0.008441080608963966,-0.031356092250347134
1733699221805286700,3.79028662109375,-0.027494156125187873,0.010442921950668095,0.015876783567667006
1733699221815242500,3.800242431640625,-0.032225860822200775,0.041365298958867786,0.05729308206140995
1733699221825197600,3.810197509765625,-0.03790449098050594,0.04171455078795552,0.07657353659272194
1733699221835153700,3.820153564453125,-0.011711480581760405,0.0510178011842072,0.06310206060111523
1733699221845108500,3.8301083984375,0.00985036288499832,0.028523060781508684,0.019884850165247915
1733699221855064600,3.840064697265625,0.005288754057884216,0.0257728852905333,-0.027599370065331457
1733699221865019600,3.85001953125,0.005315057542920112,0.026292963641881942,-0.053122518378496165
1733699221874975700,3.859975830078125,-0.018564999738335607,-0.009034662587940692,-0.08293021214306354
1733699221884930600,3.8699306640625,-0.027818565773963928,0.005396452216058969,-0.09199147047698497
1733699221894886400,3.879886474609375,-0.009309095615148543,-0.020887305206060407,-0.08579086227118969
1733699221904841700,3.889841796875,0.02497252869307995,0.008202887938916683,-0.035839375144243235
1733699221914797600,3.899797607421875,0.06986614790856838,0.016893705525249242,0.0015787936240434645
1733699221924752400,3.90975244140625,0.08501520172357559,0.02840659479498863,0.03426116604208946
1733699221934708500,3.91970849609375,0.07937924166321754,0.050239656418561936,0.04126023114919662
1733699221944663600,3.92966357421875,0.027158056038618088,0.03565773496702313,0.027320553123950958
1733699221954619600,3.93961962890625,-0.022424597775936125,0.02533756261318922,-0.0135591542750597
1733699221964575500,3.949575439453125,-0.05745090297162533,0.016693068386614322,-0.05138122766911983
1733699221974530600,3.959530517578125,-0.08934650892615317,0.015582915187627076,-0.045025136640667915
1733699221984486700,3.969486572265625,-0.09998772992789745,0.0003058510787785053,-0.04422551069557667
1733699221994441500,3.97944140625,-0.06720423522293567,-0.00731046914383769,-0.0244908826559782
1733699222004397600,3.9893974609375,-0.0052162733435630795,-0.00129164724573493,-0.010130933392047882
1733699222014352600,3.9993525390625,0.02988543517589569,-0.04291150548756122,-0.016982698982954025
1733699222024308700,4.009308837890625,0.08362520866990089,-0.014740911405533552,-0.0014560440272092818
1733699222034263600,4.019263671875,0.09786533094644546,0.046243280258774756,0.013251695761084556
1733699222044219400,4.029219482421875,0.11420388680696487,0.048614393304288385,-0.02872866635620594
1733699222054174700,4.0391748046875,0.09051555270552634,0.021867986806482075,-0.013187398353219032
1733699222064130600,4.049130615234375,0.05030687643587589,0.01458002175539732,-0.054043140354752536
1733699222074085400,4.05908544921875,0.002090250277519226,0.014242606494575738,-0.0499228455543518
1733699222084041500,4.06904150390625,-0.03065700407028198,0.016701251693069935,-0.05178688586056232
1733699222093996500,4.07899658203125,-0.03682546357214451,-0.016721709959208964,-0.035249592557549475
1733699222103952600,4.08895263671875,-0.04766425297260284,-0.01484276434481144,-0.03160743666291237
1733699222113907200,4.0989072265625,-0.06078384678661823,-0.004096621663868427,-0.020773323437571524
1733699222123863300,4.10886328125,-0.04166092090457678,0.015517156475037335,0.011245032113790512
1733699222133818000,4.118818115234375,-0.026926585370302198,0.036574995942413806,0.022749591946601866
1733699222143774200,4.128774169921875,-0.010194061756134033,0.046970425489544866,0.025443068814277648
1733699222153729300,4.138729248046875,0.018665537503361702,0.03837064718753099,0.01792787087857723
1733699222163685000,4.14868505859375,0.05665186154842376,0.02015489927828312,0.0076268416166305536
1733699222173640200,4.15864013671875,0.08648995045125484,0.001471241596341133,-0.014846271476149558
1733699222183596000,4.168595947265625,0.11546440826207399,-0.01262085051164031,-0.02259820077717304
1733699222193551000,4.178551025390625,0.13796820875406265,-0.0056089259229600424,-0.01843289779126644
1733699222203507200,4.188507080078125,0.14523966106176375,-0.012560937017947435,0.004867313775420189
1733699222213462000,4.1984619140625,0.1448024386882782,-0.013859160134941338,0.03664484630823135
1733699222223418000,4.208418212890625,0.11892419332712888,-0.0089111823387444,0.09736556473076342
1733699222233373200,4.218373291015625,0.08688976342380046,0.020693390069156884,0.07702829462289809
1733699222243329000,4.2283291015625,0.0705278266876936,0.043898032306879754,0.025977321821451186
1733699222253284000,4.2382841796875,0.07514058118015528,0.023080723597109318,-0.05235036496222019
1733699222263240200,4.248240234375,0.09294570246189832,-0.0013289105162024497,-0.11902268526554106
1733699222273195300,4.2581953125,0.11426233899593352,-0.008492810796201228,-0.15454174241423607
1733699222283151000,4.268151123046875,0.10894026719033717,-0.00942146994844079,-0.1478425370365381
1733699222293106200,4.278106201171875,0.05804243912398815,-0.03315437384396791,-0.08379822714924812
1733699222303062300,4.288062255859375,-0.003356324690580368,-0.0328565599411726,-0.02150514484345913
1733699222313017000,4.29801708984375,-0.04385024764239788,-0.0005069266088306904,0.05014204126298427
1733699222322973200,4.30797314453125,-0.06796294463574885,-0.011447861209511757,0.07479074482917786
1733699222332928300,4.31792822265625,-0.06624211219251155,0.01393310215398669,0.08127835328280925
1733699222342884000,4.327884033203125,-0.05804360816776752,0.051288873210549354,0.07859072163403034
1733699222352839200,4.337839111328125,-0.09339607657790183,0.03693739951401949,0.06558920124173163
1733699222362795000,4.347794921875,-0.08867313970923424,0.039453035596758126,0.0053331777215003965
1733699222372750000,4.35775,-0.10091595068871974,0.04462532366812229,-0.047561377120018004
1733699222382706200,4.3677060546875,-0.09359130688905716,0.04644537870213389,-0.09506079491972923
1733699222392661000,4.377660888671875,-0.07457739433944224,0.03507175177261233,-0.10449147108793258
1733699222402617300,4.387617431640625,-0.04836801732778549,-0.010597089599072932,-0.06430442212820053
1733699222412572200,4.397572265625,0.015991349858045577,0.011664426569640635,-0.00509469279050827
1733699222422528300,4.4075283203125,0.10075462264716624,0.03393310313150286,0.037089667466282845
1733699222432483000,4.417483154296875,0.15330372505187986,0.026234073061496017,0.05021744458675384
1733699222442439200,4.427439208984375,0.22182839522361755,-0.0064225803934037685,0.03975158015191555
1733699222452395300,4.437395263671875,0.2254723046839237,0.02019610807150602,0.016931261056661605
1733699222462350000,4.44735009765625,0.13567629842460155,0.009830196879804133,-0.00599310293495655
1733699222472306200,4.45730615234375,0.0978460417240858,0.004314356067776679,0.013300211077928543
1733699222482261200,4.46726123046875,0.045208091992139814,-0.021593261518329382,0.02999941694438457
1733699222492217000,4.477217041015625,-0.022559622332453726,0.02180544296428561,0.022670681491494177
1733699222502172200,4.487172119140625,-0.08644903391897678,0.015787643979489802,-0.034981297010183335
1733699222512128000,4.4971279296875,-0.1358791275203228,0.01468041338995099,-0.06008008243143558
1733699222522083000,4.5070830078125,-0.1280710841178894,0.028747517187148332,-0.08820902932882309
1733699222532039200,4.5170390625,-0.09211831172704696,0.03173281660825014,-0.07423661807775497
1733699222541994000,4.526993896484375,-0.05953647707402706,0.008001520147919654,-0.041894437399506566
1733699222551950300,4.536950439453125,0.005182371073961258,-0.024183131881058216,0.01542261005938053
1733699222561905200,4.5469052734375,0.04126432280242443,-0.01064034421890974,0.04724865790903568
1733699222571861200,4.556861328125,0.05797814171612262,0.01240793841332197,0.035814825224876404
1733699222581816300,4.56681640625,0.0875724849909544,0.007590308998525142,0.005545359167456626
1733699222591772200,4.576772216796875,0.09078034112155436,-0.01946910897120833,-0.050959202864766115
1733699222601727200,4.586727294921875,0.11060089387893676,-0.01019829953983426,-0.09556114565730095
1733699222611683000,4.59668310546875,0.1008218426644802,0.0021679916888475417,-0.10729834520220756
1733699222621638100,4.60663818359375,0.02288286293745041,-0.013961013074219226,-0.0969271733134985
1733699222631594200,4.61659423828125,-0.0608896452486515,-0.01113046582341194,-0.07440788299143314
1733699222641549000,4.626549072265625,-0.1216442659407854,0.0355859849050641,-0.03722352297902107
1733699222651505200,4.636505126953125,-0.14596154559552668,0.05140153980478644,-0.016806173372268675
1733699222661460200,4.646460205078125,-0.12052958269715308,0.010899871937930584,0.0025000001221895216
1733699222671416000,4.656416015625,-0.06991875487864017,-0.003116378454864025,0.020445406657457352
1733699222681371100,4.66637109375,-0.014768530064821242,-0.007519289588928222,0.03563713057041168
1733699222691327000,4.676326904296875,0.02842179236412048,0.03181201932430267,0.02544423785805702
1733699222701282300,4.6862822265625,0.11694178733825683,0.029444559540599585,0.016208792001008988
1733699222711238100,4.696238037109375,0.17676292657256126,-0.011803542779386042,0.0019938041657209396
1733699222721193000,4.70619287109375,0.14349661678671835,-0.008662029883265495,-0.0382809230774641
1733699222731149300,4.7161494140625,0.07354629772603512,-0.020451105745881795,-0.07264262688457965
1733699222741104000,4.726104248046875,0.016582301488518712,-0.004695172078907489,-0.08713409357368945
1733699222751060200,4.736060302734375,-0.006551905861496925,0.0069109484322369095,-0.057659577286243435
1733699222761015300,4.746015380859375,-0.00865267753303051,0.023739918158203362,-0.0051005380094051355
1733699222770971100,4.75597119140625,-0.004313771545886993,0.007773410480469465,0.023126608565449715
1733699222780926200,4.76592626953125,0.021846505627036092,0.029601942059397694,0.05540215374827385
1733699222790882000,4.775882080078125,0.02641980489194393,0.03168795455321669,0.05678454801738262
1733699222800837000,4.785837158203125,0.05913081888258457,0.039905455539375544,0.0372439812451601
1733699222810793200,4.795793212890625,0.03481061661839485,0.037455432038754226,0.007619827353954315
1733699222820748000,4.805748046875,0.025860417443513868,0.014443682024627922,-0.010386953979730605
1733699222830704000,4.8157041015625,0.012314707171916961,0.006956687270104885,-0.0342681803047657
1733699222840659200,4.8256591796875,-0.015015198302268981,-0.015290508112311363,-0.05331365703642368
1733699222850615300,4.835615234375,-0.02775952906310558,-0.004876081603765487,-0.06131108553111553
1733699222860570000,4.845570068359375,-0.005466448712348937,-0.0048879181720316404,-0.06382569870054722
1733699222870526000,4.85552587890625,0.02238952646255493,0.00038841479569673535,-0.04965747261643409
1733699222880481300,4.865481201171875,0.024442367339134213,0.018028700904548167,-0.016838322076201437
1733699222890437000,4.87543701171875,0.0009773205995559692,0.02022416512221098,0.002793430110812187
1733699222900393200,4.885393310546875,0.0013771335721015929,0.01632262763902545,0.006676409024000168
1733699222910348300,4.895348388671875,0.01662087993323803,0.02713540581539273,0.006885083338618278
1733699222920304000,4.90530419921875,0.018149989196658133,0.025844927613437173,-0.009466332003474236
1733699222930259200,4.91525927734375,0.034005145454406735,0.00227525145560503,-0.015928806015849114
1733699222940215000,4.925215087890625,0.03976385511159897,-0.009337591057270766,-0.04916705875098705
1733699222950170000,4.935170166015625,0.019198621466755866,-0.005809124670177698,-0.05462824676632881
1733699222960126200,4.945126220703125,0.00990881507396698,-0.012909604325145482,-0.06884323460161686
1733699222970081000,4.9550810546875,-0.008635726398229598,-0.020943127046525477,-0.09501169508099555
1733699222980037000,4.965037109375,-0.022893384331464765,-0.010208236411958933,-0.11628303116858005
1733699222989992200,4.9749921875,-0.015570494097471237,-0.028382337136566637,-0.1288245328336954
1733699222999948300,4.9849482421875,0.014828151297569274,-0.02690247384235263,-0.09092822515964508
1733699223009903000,4.994903076171875,0.03550912027657032,-0.018034546123445034,-0.04841887073218822
1733699223019859200,5.004859130859375,0.043398996743559834,-0.012565320932120084,0.00746317548751831
1733699223029814300,5.014814208984375,0.022416998991370198,0.01911196609660983,0.06632394525706768
1733699223039770000,5.02477001953125,0.020904840862751007,0.0225344878911972,0.10115560466349124
1733699223049725000,5.034724853515625,-0.0052735564887523645,0.04147533520460128,0.10459200885295868
1733699223059681300,5.044681396484375,-0.022479542833566665,0.03747106799930334,0.09821779764592647
1733699223069636000,5.054635986328125,-0.00938157632946968,0.04765139349102974,0.04971183315217495
1733699223079592200,5.06459228515625,0.009864391410350799,0.04163037963584065,0.02270809089243412
1733699223089547300,5.07454736328125,0.034063597643375396,0.04047843312174081,-0.020692659416794774
1733699223099503000,5.084503173828125,0.061623220220208164,0.021283464916795492,-0.047428106129169464
1733699223109458400,5.09445849609375,0.0591033463537693,0.02745484702810645,-0.06574526858627795
1733699223119414300,5.104414306640625,0.046668227672576904,0.026986791124939916,-0.06578793868422508
1733699223129369600,5.11436962890625,0.035140286964178084,0.0017022738732397555,-0.04271861326396465
1733699223139325400,5.124325439453125,0.04409107066094875,-0.0007033259637653827,-0.028648586857318876
1733699223149280300,5.1342802734375,0.021221651726961135,-0.00033420039042830464,-0.04003565779030323
1733699223159236400,5.144236328125,-0.002249240231513977,0.010006576360017061,-0.01337093822658062
1733699223169191400,5.15419140625,-0.010796119302511214,0.00868731045499444,-0.024734628283977506
1733699223179147500,5.1641474609375,-0.010061375287175179,0.002252455101907253,-0.009144260442256927
1733699223189102300,5.174102294921875,-0.00956628524661064,0.01910305213779211,0.00647241088449955
1733699223199058200,5.18405810546875,0.019530629900097844,0.0030317689113318917,-0.011359013882279395
1733699223209013500,5.194013427734375,0.04400456142127514,0.01696793980523944,0.0007663081973791122
1733699223218969300,5.20396923828125,0.046857612764835355,0.0059447337485849855,-0.005669277808070182
1733699223228924400,5.21392431640625,0.05079612125754356,0.010503419966250658,-0.014822306078672408
1733699223238880500,5.223880615234375,0.013995207604765891,0.014485767600685357,-0.030579262658953665
1733699223248835300,5.23383544921875,0.01229424890577793,0.013218085752427578,-0.02689209857881069
1733699223258791400,5.24379150390625,0.002681201907992363,0.005610241097211838,-0.021890929290652273
1733699223268746500,5.25374658203125,0.0127051677942276,0.016319412768632174,-0.013904022189974784
1733699223278702600,5.26370263671875,0.014913491493463516,0.007339256846904754,-0.0021200608938932415
1733699223288657400,5.273657470703125,0.009983049353957175,0.009081862730532884,0.012123568513989448
1733699223298613200,5.28361328125,-0.004166472029685974,0.00645297553166747,0.006059738430380821
1733699223308569300,5.2935693359375,-0.013861352092027664,0.015293138460814952,-0.0246913736641407
1733699223318524400,5.3035244140625,0.005153729501366615,0.03303337781280279,-0.04852817632555961
1733699223328480500,5.31348046875,0.009676175361871719,-0.005334492895752191,-0.07495908713340758
1733699223338435300,5.323435302734375,0.025732407149672506,-0.014716215355694293,-0.057469607672095295
1733699223348391200,5.33339111328125,0.05835691190063953,-0.010937135208398103,-0.041159108862280844
1733699223358346500,5.343346435546875,0.05089958163201808,0.01125204637646675,-0.023730419677495954
1733699223368302300,5.35330224609375,0.051772272813320155,0.03340162660330534,0.030003508597612378
1733699223378257400,5.36325732421875,0.058925651699304575,0.023740210419148207,0.07038871047794819
1733699223388213500,5.373213623046875,-0.00713467418551445,0.05069280701354146,0.0718780722528696
1733699223398168300,5.383168212890625,-0.10034604184627532,0.06414440926089883,0.03853460557758808
1733699223408124400,5.39312451171875,-0.07260229487419129,0.0031533494643867016,-0.013340543088316916
1733699223418079500,5.40307958984375,0.014037877702713012,-0.033319355147331954,-0.051530865272879596
1733699223428035600,5.41303564453125,0.041296471506357194,-0.027152795341610907,-0.09218144009113312
1733699223437990400,5.422990478515625,0.04695639696419239,-0.010882336281239986,-0.0769540603429079
1733699223447946200,5.4329462890625,0.07531856809556484,-0.014552841487526893,-0.04964812026619911
1733699223457901600,5.442901611328125,0.06043254913091659,-0.00672638564556837,-0.028318331989645958
1733699223467857400,5.452857421875,0.056906713092327116,0.0034856501586735247,-0.007062777993083
1733699223477812200,5.462812255859375,0.02466039400398731,0.029483576376736164,0.017484218764305115
1733699223487768300,5.472768310546875,0.048641573572158814,0.025565526150166988,0.018170447462797164
1733699223497723400,5.482723388671875,0.059355275288224214,0.019192776247859,0.017236381483078003
1733699223507679500,5.492679443359375,0.06059270812869071,0.008321692012995482,0.0014870236873626708
1733699223517634300,5.50263427734375,0.047749593168497084,0.004122925148904323,0.005232639956474304
1733699223527590400,5.51259033203125,0.03648351826667785,0.03743994220867753,0.002258592581748962
1733699223537545500,5.52254541015625,0.014603694891929626,0.022873656717687842,-0.007467267140746116
1733699223547501300,5.532501220703125,-0.024072949504852295,-0.011650982566177845,-0.028391981747746466
1733699223557456400,5.542456298828125,-0.009420739296078682,-0.0012758651547133922,-0.03860124107301235
1733699223567412500,5.55241259765625,0.0011444938600063323,0.0063471770696341984,-0.05718026933670044
1733699223577367300,5.5623671875,0.023308394873142242,0.0043897593915462494,-0.05207622419595718
1733699223587323400,5.572323486328125,0.01414075355529785,0.010544190368056297,-0.01602349856197834
1733699223597278500,5.582278564453125,0.026020576441287992,0.00853913415595889,0.0040343700826168056
1733699223607234600,5.592234619140625,0.01442658475935459,0.016798282326757907,0.012357377269864082
1733699223617189400,5.602189453125,0.004303834673762321,0.013438742765784262,0.012573065847158432
1733699223627145200,5.612145263671875,0.005396890607476234,0.014429507368803024,-0.008212532550096512
1733699223637100500,5.6221005859375,-0.006644260320067406,0.02014087075293064,-0.00779869105219841
1733699223647056400,5.632056396484375,-0.0156722009062767,0.019727906037867067,-0.005966214928030967
1733699223657011500,5.642011474609375,-0.025091186636686323,0.01425692728087306,-0.01800853489935398
1733699223666967300,5.65196728515625,-0.008166355320811272,0.007193418635427952,-0.02040273655951023
1733699223676922400,5.66192236328125,0.02177694752216339,0.0036726971633732316,-0.017779986840486525
1733699223686878500,5.67187841796875,0.029477438896894453,0.006217559340596199,-0.012332827350497245
1733699223696833300,5.681833251953125,0.01955927147269249,0.01630567650422454,-0.028695348608493803
1733699223706789400,5.691789306640625,0.031768180182576176,0.008287059091031551,-0.034114451047778126
1733699223716744400,5.701744384765625,0.0643359863102436,0.008481851010769604,-0.017206570866703987
1733699223726700300,5.7117001953125,0.06865151142179965,0.01310118137449026,-0.014840426257252692
1733699223736655400,5.7216552734375,0.0650198769211769,0.01198167582526803,-0.02153027928471565
1733699223746611500,5.731611572265625,0.06147592070400715,0.0004065349742770195,-0.017956512451171875
1733699223756567600,5.741567626953125,0.04411445153653622,0.0016650106027722357,-0.017360884645581245
1733699223766522400,5.7515224609375,0.03541501225233078,-0.009801701437681913,-0.0019061258822679519
1733699223776478200,5.761478271484375,0.009955576825141907,0.0021672610364854334,-0.0061275429695844645
1733699223786433500,5.77143359375,-0.0034229601860046384,0.02647314251437783,-0.000032733225822448726
1733699223796389400,5.781389404296875,0.01012275008559227,0.024415479332208632,0.01661854184567928
1733699223806344400,5.791344482421875,0.011911387068033217,0.025894904235005376,0.019324293673038482
1733699223816300300,5.80130029296875,-0.019133739537000656,0.038203327796608205,-0.002679448342323303
1733699223826255400,5.81125537109375,-0.0005716624081134796,0.023575082985311746,-0.002303016245365143
1733699223836211500,5.82121142578125,0.005867430728673934,0.016258330231159926,-0.018149404674768447
1733699223846166300,5.831166259765625,0.03812485573291778,0.012606821986287832,-0.024537059885263442
1733699223856122400,5.841122314453125,0.05399345599412918,0.007933569478243589,-0.01711363188624382
1733699223866077400,5.851077392578125,0.02192424703836441,-0.0005298690930008888,-0.029940964755415914
1733699223876033300,5.861033203125,0.00978022025823593,0.0048804655179381365,-0.006225742647051811
1733699223885988400,5.87098828125,0.015772738671302796,0.004825228199362755,0.004680266770720482
1733699223895944400,5.8809443359375,0.00732639736533165,0.013714929358661174,-0.01571019482910633
1733699223905899300,5.890899169921875,0.017215338695049286,0.013706746052205562,-0.004341828596591949
1733699223915855400,5.90085546875,0.04865618661940097,0.01256941258534789,0.002735562443733215
1733699223925810400,5.910810546875,0.04933773914277553,0.021151655230671165,0.0015063129097223282
1733699223935766500,5.9207666015625,0.04798574001193046,0.020594313608855008,-0.01713233658671379
1733699223945721300,5.930721435546875,0.028925650233030318,0.014273732285201549,-0.028716975918412206
1733699223955677400,5.940677490234375,-0.007872340810298918,0.01821530951783061,-0.044888358518481254
1733699223965632500,5.950632568359375,-0.005058452433347702,0.0029195407085120676,-0.055631870850920674
1733699223975588400,5.96058837890625,0.008259878823161124,0.027402824579924344,-0.051259062594175335
1733699223985543400,5.97054345703125,-0.000042670097947120666,0.020323387712985277,-0.03597381517887115
1733699223995499300,5.980499267578125,0.029234277790784833,0.007157908930629491,-0.0174935711145401
1733699224005454300,5.990454345703125,0.015835867035388945,0.011883622278273104,0.024687282010912893
1733699224015410400,6.000410400390625,-0.002179097604751587,0.022885493285953996,0.0171492877215147
1733699224025365200,6.010365234375,-0.019917583391070366,0.024822891089320183,0.00315232655107975
1733699224035321600,6.020321533203125,-0.01691372539997101,0.026157062302529812,-0.005666939720511436
1733699224045276400,6.0302763671875,-0.011869301491975784,0.007366144853830337,-0.0467599976092577
1733699224055232300,6.040232177734375,-0.014988894817233084,-0.014582213712483643,-0.03736848440766334
1733699224065187300,6.050187255859375,-0.007253916651010513,0.0005666939720511436,-0.03775134624540805
1733699224075143400,6.060143310546875,0.031126959669589994,-0.001885813746601343,-0.02536591192483902
1733699224085098500,6.070098388671875,0.03285129924416542,-0.005003068984299898,-0.005334931287169456
1733699224095054300,6.080054443359375,0.025793781948089598,-0.005633914233744144,-0.007644377273321151
1733699224105009400,6.090009521484375,0.03577390869259834,0.01671411117464304,-0.017907997134327888
1733699224114965800,6.0999658203125,0.03686228845119476,0.00760433752387762,-0.01348725808262825
1733699224124920600,6.109920654296875,0.027749592190980908,-0.0052421384371817105,-0.022221184158325195
1733699224134876700,6.119876708984375,0.018044775256514548,0.015960954719781876,-0.05092237798571586
1733699224144831700,6.129831787109375,-0.0011333879441022873,0.007575257559865713,-0.030984336328506466
1733699224154787600,6.13978759765625,0.025652327650785445,0.007685586066544055,-0.008763152170181273
1733699224164742700,6.14974267578125,0.04304068482518196,0.006850304286181926,0.012356792747974394
1733699224174698500,6.159698486328125,0.053903439623117444,0.016490385421365498,0.03480301783382892
1733699224184653800,6.16965380859375,0.03972176953554153,0.017935031271725892,0.048992871227860446
1733699224194609700,6.179609619140625,0.048237668946385384,0.016020137561112643,0.05024842424690723
1733699224204565800,6.189565673828125,0.02703764452934265,0.024957184993475674,0.037703999972343444
1733699224214520600,6.1995205078125,0.004879588735103607,0.020925299128890035,0.004461655583977699
1733699224224476700,6.2094765625,0.013539865052700042,0.01381488260179758,-0.008658522751927375
1733699224234431700,6.219431640625,0.028072832795977592,0.017087620662152764,-0.017079729616641996
1733699224244387600,6.2293876953125,0.04014788599312305,0.015228548792004585,-0.05199906730651855
1733699224254342700,6.2393427734375,0.02151157458424568,0.011114829862862824,-0.06153904906809329
1733699224264298800,6.249298828125,0.013373860836029051,0.01292450963333249,-0.07344751352667808
1733699224274253600,6.259253662109375,-0.0006926584392786026,-0.00005596797093749046,-0.07383329797387123
1733699224284209700,6.269209716796875,-0.017847206857800484,0.002007248169183731,-0.057685880771279334
1733699224294164700,6.279164794921875,-0.011115852776169777,0.01392681854367256,-0.055796706023812294
1733699224304120600,6.28912060546875,-0.007831424278020858,0.005305412931740284,-0.030246085181832312
1733699224314075600,6.29907568359375,-0.000741173756122589,0.012646131083369254,-0.01414952138364315
1733699224324031500,6.309031494140625,-0.002574234402179718,0.007628156790882349,0.0005576338827610015
1733699224333986800,6.31898681640625,-0.007025953114032745,0.002816518725454807,0.009790741652250289
1733699224343942700,6.328942626953125,0.008275076392292975,-0.0013376783445477485,0.031309915021061896
1733699224353897500,6.3388974609375,0.054495560297369953,0.009886018720269202,0.037438042512536046
1733699224363853600,6.348853515625,0.0653466246575117,0.01996887518689036,0.026366028878092765
1733699224373808600,6.35880859375,0.06716156512498855,0.023285452388972044,0.029767946276068685
1733699224383764700,6.3687646484375,0.05764437971711158,0.02875453144982457,0.01908522422015667
1733699224393719600,6.378719482421875,0.019652794975042343,0.013813421297073364,-0.004293897801637649
1733699224403675600,6.388675537109375,-0.020555296772718428,0.006859948897361755,-0.04263502663373947
1733699224413630700,6.398630615234375,-0.04255553165674209,0.024860446620732543,-0.061109425479173654
1733699224423586600,6.408586669921875,-0.04976327107846737,0.006764379568397998,-0.05607903009653091
1733699224433541600,6.418541748046875,-0.0041284781068563455,0.004677198030799627,-0.05235621018111705
1733699224443497700,6.428497802734375,0.026247370934486387,0.013117255726456641,-0.03336450946331024
1733699224453452500,6.43845263671875,0.06557984889149665,0.00872106659412384,-0.02655833657979965
1733699224463408600,6.44840869140625,0.07337152568101883,0.0019227847561240196,-0.02350537874996662
1733699224473363700,6.45836376953125,0.06710545102357864,-0.0013537526965141295,-0.029030864173173902
1733699224483319800,6.46831982421875,0.05526888275742531,-0.0010913023680448532,-0.013764905980229378
1733699224493274600,6.478274658203125,0.008740940338373185,-0.030246377442777157,-0.05270867688059806
1733699224503230500,6.48823046875,0.03117255237698555,-0.017448855189979077,-0.010623685345053672
1733699224513185800,6.498185791015625,0.005457096362113952,0.024619915863126514,0.007472527837753295
1733699224523141600,6.5081416015625,-0.0640092385739088,0.014165595735609531,-0.0061252048820257185
1733699224533096400,6.518096435546875,-0.055209261524677276,0.04134352551847696,0.0006306991189718247
1733699224543052800,6.528052734375,-0.03510989182591438,0.00960880921408534,-0.0011392331629991531
1733699224553007600,6.538007568359375,-0.015741759011149405,0.028076924449205398,0.0057137014716863626
1733699224562963700,6.547963623046875,-0.0008013795107603073,0.0436107397980988,-0.036600422644615174
1733699224572918500,6.55791845703125,0.030647651720046996,0.011181173097342251,-0.026548984229564664
1733699224582874600,6.56787451171875,0.039945056897401805,0.013210925359278916,0.008528174370527266
1733699224592829700,6.57782958984375,0.05370119504928589,0.026442601245641708,0.028501287341117856
1733699224602785500,6.58778564453125,0.05486673169732093,0.011914601938426493,0.025967384949326513
1733699224612740900,6.597740966796875,0.06629764177203178,0.004181815729290246,0.016823124507069586
1733699224622696700,6.60769677734375,0.039024434921145434,-0.015338585037738084,0.005256020832061767
1733699224632652800,6.61765283203125,-0.006368365988135337,-0.014619769243896007,-0.04280570702552795
1733699224642607600,6.627607666015625,0.01585924791097641,-0.009705693717300892,-0.04437339473366737
1733699224652563500,6.6375634765625,0.07876724724471569,0.03608677403405308,-0.04040858275592327
1733699224662518800,6.647518798828125,0.09745441205799579,0.004994155025482177,-0.059139586710929865
1733699224672474600,6.657474609375,0.09739245273768901,-0.03969838865995407,-0.044155368068814274
1733699224682429400,6.667429443359375,0.09196487473100423,-0.00955649450495839,-0.028338790255784986
1733699224692385800,6.6773857421875,0.03919569983482361,0.03619257249608636,-0.008334113103151321
1733699224702340600,6.687340576171875,0.015271803411841391,0.03902984174862504,0.034595512562990184
1733699224712296700,6.697296630859375,0.06666355247497559,0.009938917951285839,0.1041243913412094
1733699224722251800,6.707251708984375,0.08709083895385265,0.0015824468858540058,0.10673311253488063
1733699224732207600,6.71720751953125,0.05035071557760239,0.0011843874789774418,0.07884148152470588
1733699224742162700,6.72716259765625,0.05089841258823871,0.02015314571261406,0.06490355706512928
1733699224752118500,6.737118408203125,0.0479448234796524,0.045641514973342415,0.01505319222509861
1733699224762073900,6.747073974609375,-0.015843465819954872,0.020032880333811044,-0.04076806371808052
1733699224772029700,6.75702978515625,-0.08159750223457812,0.006538900249451398,-0.07478489961028098
1733699224781984500,6.766984619140625,-0.11433832684159279,-0.012591770547628401,-0.09146656982004642
1733699224791940600,6.776940673828125,-0.1159761571764946,-0.0047616614438593385,-0.08092997823655605
1733699224801895700,6.786895751953125,-0.08745616513490677,0.01088701245635748,-0.07665712322294711
1733699224811851800,6.796851806640625,-0.038384383451938626,0.013221446753293275,-0.042242812445759774
1733699224821806600,6.806806640625,-0.007458499312400817,0.023426029903441666,-0.0019306758016347885
1733699224831762400,6.816762451171875,0.023808745610713958,0.01593231314718723,0.02215688675045967
1733699224841717800,6.8267177734375,0.04542261152565479,-0.01564268255084753,0.0032850130200386047
1733699224851673600,6.836673583984375,0.05388882657587528,0.005665770676732063,-0.017421090400218962
1733699224861628700,6.846628662109375,0.06446633469164371,0.01718582033962011,-0.023224223721027372
1733699224871584800,6.856584716796875,0.08981821809113025,0.03195888044908642,-0.0025689737051725384
1733699224881539600,6.86653955078125,0.11555588593780994,0.008940408433228731,0.028744448447227476
1733699224891495700,6.87649560546875,0.11636544875502586,0.011295300996303558,0.061004796060919755
1733699224901450800,6.88645068359375,0.0674386285007,0.029802140806615352,0.06809972275793552
1733699224911406800,6.89640673828125,0.024775544816255567,0.03942673211172223,0.048100306302309034
1733699224921361700,6.906361572265625,0.018748539611697194,0.024626053342968225,0.005265957704186439
1733699224931317500,6.9163173828125,0.000834112736582756,-0.013765344371646641,-0.05518997230231762
1733699224941272800,6.92627294921875,0.006876315510272979,-0.025230741237848995,-0.08425123161375522
1733699224951228700,6.936228759765625,-0.005139116454124451,-0.04462444688528776,-0.12542787613272666
1733699224961183500,6.94618359375,0.004556348130106926,-0.023855653492361305,-0.1086953525185585
1733699224971139600,6.9561396484375,-0.007120645660161971,0.006174012459814548,-0.07476034969091415
1733699224981094700,6.9660947265625,-0.007102525481581688,0.0010870645843446254,-0.05793430257439613
1733699224991050800,6.97605078125,0.0009364040672779082,0.009337298796325921,-0.023845570489764212
1733699225001005600,6.986005615234375,-0.0013233575582504273,0.014043869052082299,-0.02223229007422924
1733699225010961700,6.995961669921875,-0.0079646952688694,0.013542057009786366,-0.019680267503857613
1733699225020917800,7.005917724609375,-0.013595979154109953,-0.0015839081905782222,-0.03404547746479511
1733699225030872600,7.01587255859375,-0.016070260313153267,0.0028146190293133256,-0.054227849271893495
1733699225040828700,7.02582861328125,-0.021379472637176513,-0.005822860934585333,-0.06313187121748924
1733699225050783700,7.03578369140625,-0.024562778848409652,-0.006772562874853611,-0.08871931693851948
1733699225060739800,7.04573974609375,-0.01721767678260803,0.003041998044401407,-0.08498305301964282
1733699225070694700,7.055694580078125,-0.005682721811532974,0.013085253152996301,-0.039781390768289564
1733699225080650500,7.065650390625,0.005277648141980171,0.027613983112573622,0.007139934882521629
1733699225090605800,7.075605712890625,-0.002618658065795898,0.01962678375095129,0.09200023830533027
1733699225100561700,7.085561767578125,0.014063596665859221,0.03560498186647892,0.12096972768008708
1733699225110515700,7.095515625,0.04249357233643532,0.05063172447606921,0.1394078861683607
1733699225120472000,7.10547216796875,0.07092237896323203,0.060249886040389534,0.12411445544660091
1733699225130427000,7.115427001953125,0.08917582853436469,0.04669380050525069,0.04905249246060848
1733699225140383000,7.125383056640625,0.04168459404110908,0.015388269398361444,-0.0036976854741573332
1733699225150338000,7.135338134765625,-0.014525368958711623,-0.0025524609617888928,-0.08696107509434223
1733699225160294000,7.1452939453125,-0.03477554530501365,-0.011599252378940581,-0.14032558553516863
1733699225170249000,7.1552490234375,-0.04708440725803375,-0.025585692155361175,-0.17796061192452906
1733699225180204800,7.165204833984375,-0.016827216160297392,-0.027568974927067755,-0.161074943575263
1733699225190160000,7.175159912109375,0.02196867070198059,-0.040922085236012935,-0.12152502347528933
1733699225200116000,7.185115966796875,0.07174421674013137,-0.03371405355334282,-0.04217442338466644
1733699225210070800,7.19507080078125,0.12282558467984199,-0.03918576296269893,-0.025704934620857236
1733699225220027000,7.20502685546875,0.08702829511165619,0.002825724945217371,0.004418985486030578
1733699225229982000,7.21498193359375,0.08059855432510375,0.006686053635179996,0.0037760114073753354
1733699225239938000,7.22493798828125,0.03475917869210243,0.01621726756840944,-0.012488310173153877
1733699225249892900,7.234892822265625,0.005731821650266647,0.0028752631753683087,-0.04215396511852741
1733699225259849000,7.244848876953125,0.0032277298748493192,0.01699760429114103,-0.04182429477274418
1733699225269804000,7.254803955078125,0.003171615773439407,0.006964724446088076,-0.04249181877076626
1733699225279760000,7.264759765625,-0.009252689252793789,0.02409749942421913,-0.02392097381353378
1733699225289714700,7.274714599609375,0.008820727576315402,0.030384616869688033,0.0032429274439811705
1733699225299671000,7.284671142578125,0.03302256415784359,0.025585984416306017,0.05051496622860431
1733699225309625900,7.2946259765625,0.031980361628532405,0.028694033434242008,0.09957973364889622
1733699225319582000,7.30458203125,0.04533054932802915,0.041897652269899846,0.12668927437067032
1733699225329537000,7.314537109375,0.0370218629270792,0.038914252544939514,0.12303542803823947
1733699225339492900,7.324492919921875,0.04608955100178718,0.04297419546023011,0.06918693347275257
1733699225349448000,7.334447998046875,0.03909633111357689,0.01189823532551527,0.02771218279004097
1733699225359403800,7.34440380859375,0.027379005312919615,-0.011574702459573745,-0.021274843218922614
1733699225369359000,7.354359130859375,0.03530161500573158,-0.013295973294228314,-0.07827917146682739
1733699225379315000,7.36431494140625,0.032338673546910286,-0.017785978189855813,-0.0987134722083807
1733699225389269800,7.374269775390625,0.03683247783482074,-0.00980681600421667,-0.08552724289894104
1733699225399225900,7.384225830078125,0.03969312796294689,0.002274959194660187,-0.04587561599016189
1733699225409182000,7.394181884765625,0.055419689404964445,0.01392053493335843,-0.02187982337474823
1733699225419137000,7.404136962890625,0.028816929161548613,0.007137742925435305,-0.008264554998278618
1733699225429092900,7.4140927734375,0.02044891378879547,0.006075228260457515,-0.002345686343312263
1733699225439048000,7.4240478515625,0.01216273148059845,-0.00031549568995833396,-0.020280571484565732
1733699225449004000,7.434004150390625,-0.009095160603523254,0.006224865864217281,-0.027426936107873914
1733699225458958800,7.443958740234375,-0.005817746368050575,0.021118045222014187,-0.0282031811773777
1733699225468915000,7.4539150390625,-0.014202128353714942,-0.00837751385346055,-0.04893091190755367
1733699225478870000,7.4638701171875,-0.01066518639922142,0.004467793063819408,-0.0478361024081707
1733699225488825900,7.473825927734375,-0.00632861849963665,-0.0016036358043551445,-0.030057869133353232
1733699225498781000,7.483781005859375,0.016087795969843863,0.013601093720644712,-0.03877601311802864
1733699225508736800,7.49373681640625,0.04111410067677498,0.03029927667379379,-0.06622340749204159
1733699225518692000,7.503692138671875,0.03531915066242218,0.02704129779115319,-0.03035422173142433
1733699225528648000,7.51364794921875,0.06977028631865978,0.004943593882024288,-0.0016197101563215255
1733699225538602800,7.523602783203125,0.09398819725215435,0.004068856874108314,0.0651940644443035
1733699225548558800,7.533558837890625,0.023112580040097235,0.034609687218815084,0.10312135177850723
1733699225558514000,7.543513916015625,-0.01788870791196823,0.05218187652751803,0.11854688444733619
1733699225568470000,7.553469970703125,-0.03309446035027504,0.04076484884768724,0.1287426997691393
1733699225578424800,7.5634248046875,-0.031741292175650596,0.022050649897009132,0.09625964931547641
1733699225588381000,7.573380859375,0.00281681098639965,0.004901946697384119,0.029288638326525687
1733699225598336000,7.5833359375,0.027860066828131674,-0.013831541475653648,-0.0316191271007061
1733699225608291800,7.593291748046875,0.05000409409701824,-0.012528934444487095,-0.09577449614703655
1733699225618247000,7.603246826171875,0.05173310984671116,-0.021021160718798636,-0.12699264123141765
1733699225628203000,7.613203125,0.05692074161767959,-0.03241071586981416,-0.1287239950686693
1733699225638157800,7.62315771484375,0.03874503345787525,-0.014118103332072496,-0.1198836860090494
1733699225648114000,7.633114013671875,0.02371054593324661,-0.0070521104685962194,-0.11264788953661918
1733699225658069000,7.643069091796875,0.020229133558273313,-0.0001955225721001625,-0.07964870625436306
1733699225668025000,7.653025146484375,0.002238134315609932,0.0007432195827364921,-0.045286417925357814
1733699225677980000,7.66297998046875,0.010608487775921821,0.02372121345773339,-0.009520108017325401
1733699225687935700,7.672935791015625,-0.02262567330598831,0.018659838414937256,0.019652210453152654
1733699225697891000,7.68289111328125,-0.04260696958303451,0.022908289639651774,0.013282675421237945
1733699225707847000,7.692846923828125,-0.03674129242002964,0.021310499054193497,0.006265490135550498
1733699225717801700,7.7028017578125,-0.03674596859514713,0.00696340927183628,-0.008520575585961341
1733699225727757800,7.7127578125,-0.0338847339451313,-0.00040039749443531033,-0.016774024668335913
1733699225737713000,7.722712890625,0.006249123522639274,0.002812865463644266,-0.021016484543681144
1733699225747669000,7.7326689453125,0.004618307450413704,-0.01309139063283801,-0.008479074531793593
1733699225757623800,7.742623779296875,0.036649522483348844,0.018872896643728015,0.025962124252319335
1733699225767580000,7.752579833984375,0.032764790004491805,0.05191898780763149,0.05219137500822544
1733699225777536000,7.762535888671875,0.05972878477573394,0.019546265860646964,0.03953238444328308
1733699225787490800,7.77249072265625,0.059473056448996066,0.01080284130424261,-0.002599368843436241
1733699225797447000,7.782447021484375,0.044544075125455856,0.018170593593269585,-0.04303834673762321
1733699225807402000,7.792402099609375,0.07637772175967693,0.009553571895509958,-0.05635024825334549
1733699225817358000,7.802358154296875,0.0746364310503006,-0.015502251166850327,-0.050129766303300856
1733699225827313000,7.81231298828125,0.052474283602833745,-0.028103374064713714,-0.041835985210537906
1733699225837268700,7.822268798828125,0.03030629093647003,-0.0010427870512008666,-0.0098556235820055
1733699225847224000,7.83222412109375,0.01600654742717743,0.011325257743149995,-0.015389292311668395
1733699225857180000,7.842179931640625,0.009643734396994114,0.020037702639400957,0.005974398234486579
1733699225867134700,7.852134765625,0.0017927286356687546,0.039754795022308824,0.00576046322286129
1733699225877090800,7.8620908203125,-0.0007075637474656105,0.032521628898382185,-0.005333762243390083
1733699225887046000,7.8720458984375,-0.02644552385509014,0.012427812157571315,-0.010600888991355896
1733699225897002000,7.882001953125,-0.042077977272868154,0.007651099275052547,-0.04955518128573894
1733699225906956800,7.891956787109375,-0.06169803902208805,-0.015493775599449871,-0.09409458023607731
1733699225916913000,7.901912841796875,-0.06254033506512642,-0.010159574964642525,-0.09724866035282612
1733699225926868000,7.911867919921875,-0.03737316058278083,-0.010904840373992919,-0.08151917630136013
1733699225936823800,7.92182373046875,0.0108054716527462,-0.007809943098574876,-0.05022387432754039
1733699225946779100,7.931779052734375,0.05416939708292484,0.005751987655460834,-0.013833295041322708
1733699225956735000,7.94173486328125,0.08829027787148952,0.012126637253910302,0.03404021676778793
1733699225966689800,7.951689697265625,0.10222995589673518,0.00904240750297904,0.06191957281827926
1733699225976646000,7.96164599609375,0.08079875307232141,0.018374737863242625,0.05491992318928241
1733699225986601000,7.97160107421875,0.0639154228106141,0.01500014686360955,0.037029461711645124
1733699225996557000,7.98155712890625,0.037037352757155896,0.013952099115401505,0.0016027590215206145
1733699226006511900,7.991511962890625,0.010985212133824824,0.002301262679696083,-0.010728899285197257
1733699226016467700,8.0014677734375,-0.012781155639886856,0.006145517017692327,-0.013234744626283644
1733699226026423000,8.011423095703124,-0.010651157873868942,0.02111556100398302,-0.011045710149407386
1733699226036379000,8.02137890625,0.01011398225724697,0.006453267792612314,-0.0003045359045267105
1733699226046333700,8.031333740234375,0.03369067267775536,0.02632482008486986,0.013824527212977408
1733699226056289800,8.041289794921875,0.0512473721563816,0.03234904881045222,0.007498246800899505
1733699226066244900,8.051244873046874,0.061580550122261046,0.0472879670061171,-0.002041150438785553
1733699226076201000,8.061200927734374,0.049396483592689035,0.0380858388967812,0.011261398726701736
1733699226086155800,8.07115576171875,0.04762538226693868,0.025102730944007633,-0.0034679683715105056
1733699226096112000,8.081112060546875,0.037462007910013195,0.028804800332337618,0.0023714053064584732
1733699226106067000,8.09106689453125,0.03441372625529766,0.014008213216811418,-0.012528057661652565
1733699226116023000,8.10102294921875,0.0549205077111721,0.009121756349503993,-0.014727613532543182
1733699226125978000,8.11097802734375,0.0357014279782772,0.0052735564887523645,-0.021644261053204536
1733699226135934200,8.120934326171875,0.03636047640889883,0.0007265607088804244,-0.01641337466239929
1733699226145889000,8.130888916015625,0.03542027294933796,0.0011719663888216018,-0.0266869313955307
1733699226155845000,8.14084521484375,0.04446750275790691,0.017369944734871388,-0.00696866996884346
1733699226165801000,8.150801025390624,0.025345453658699987,0.019920798261463642,-0.021786884394288063
1733699226175756300,8.16075634765625,-0.025155191783607006,0.005217734648287296,-0.04030219977200031
1733699226185712000,8.170712158203125,-0.05642915870845318,0.03057634004950523,-0.041704467785358426
1733699226195667200,8.180667236328125,-0.057682958161830895,0.03203983673080802,-0.0410737686663866
1733699226205623000,8.190623046875,-0.03898322612792253,0.014891133531183003,-0.039355274310708045
1733699226215578000,8.200578125,-0.026842706479132172,0.0020313596971333024,-0.029060090267658233
1733699226225534200,8.2105341796875,0.008022562935948371,-0.0022917641989886758,-0.02340776359438896
1733699226235489000,8.220489013671875,0.052635027122497555,0.0023269816428422925,-0.01999532480239868
1733699226245445400,8.2304453125,0.07602525506019592,0.016584785706549882,0.005554711517691612
1733699226255400200,8.240400146484374,0.0810544813990593,0.024501988571882245,0.004081131833791733
1733699226265356000,8.25035595703125,0.11165303328037261,0.0074142217792570585,0.005261281529068946
1733699226275311000,8.26031103515625,0.09512421554476022,-0.018702508512884377,0.0007797522008419036
1733699226285267200,8.27026708984375,0.07085223633646964,-0.005488222152739763,-0.01445055015683174
1733699226295222000,8.280221923828124,0.016073182922601698,0.013570260190963744,-0.013902853146195411
1733699226305178000,8.29017822265625,-0.025468203255534172,0.003289250803738832,-0.015936989322304723
1733699226315133200,8.30013330078125,-0.013063771973550319,0.007126490879058837,-0.006527355942130089
1733699226325089300,8.31008935546875,-0.01863338879942894,0.010771861644089222,-0.008707038068771362
1733699226335044000,8.320044189453125,-0.01563040759116411,0.024220541281998156,-0.02422024902105331
1733699226345000200,8.330000244140624,0.012902151671051978,0.03629720191434026,-0.009897709158062934
1733699226354955300,8.339955322265626,0.021502222234010694,0.045197424467653034,0.007792845833301544
1733699226364911000,8.3499111328125,-0.011671733093261718,0.02202916871756315,0.02546294255852699
1733699226374866200,8.3598662109375,-0.010278525169193744,0.029831074640154838,0.01742985822856426
1733699226384822000,8.369822021484374,0.005388999561965465,0.015544775134325027,0.03237199129462242
1733699226394777000,8.379777099609376,0.02210544882416725,0.0168738317809999,0.016270751321315766
1733699226404733200,8.389733154296875,0.037164194007217884,0.020363135201483962,-0.005870353338122368
1733699226414688000,8.39968798828125,0.031175182725489137,0.01547945481315255,-0.02873860322833061
1733699226424644400,8.409644287109375,0.03258417274057865,-0.0037537995755672453,-0.05806757356524467
1733699226434599200,8.41959912109375,0.04461217192560434,-0.010289338824152946,-0.05643500392735004
1733699226444555000,8.429554931640626,0.02977905219197273,-0.013470306947827339,-0.07121113277673721
1733699226454510300,8.43951025390625,0.04635843107104301,-0.008649316532164811,-0.05046586638987064
1733699226464466200,8.449466064453125,0.044564533391594885,0.009652648355811833,-0.037600539597868916
1733699226474421200,8.459421142578124,0.043857261905074114,0.00018909283131361007,-0.017076807007193565
1733699226484377000,8.469377197265626,0.031110008534789083,0.006287555836886167,0.002683539995551109
1733699226494332200,8.479332275390625,0.016204992608726022,0.023713906934112308,0.0012070377022027968
1733699226504288300,8.489288330078125,0.001932137106359005,0.008590425951778889,0.005302782583236694
1733699226514243000,8.4992431640625,-0.016057108570635317,0.00794701348170638,-0.007344517543911934
1733699226524199200,8.50919921875,-0.006794482445716858,0.003445025887340307,-0.001955225721001625
1733699226534155000,8.519155029296876,-0.0042108956933021545,0.011694383316487074,0.000007598784565925598
1733699226544110000,8.529110107421875,-0.011025836405158041,0.018117402101308105,0.003240589356422424
1733699226554066200,8.539066162109375,-0.02063888340294361,0.017740093221515416,-0.004245967006683349
1733699226564021000,8.54902099609375,-0.023498364487290382,0.031137627194076773,-0.010212766456604003
1733699226573977300,8.558977294921876,0.005965630406141281,0.02905292987450957,-0.014601941326260566
1733699226583932200,8.56893212890625,0.008546586810052395,0.034653672491014004,-0.030011107382178305
1733699226593888000,8.578887939453125,0.008213117071986197,0.02023673234283924,-0.05284954665601253
1733699226603843300,8.58884326171875,0.020823592320084572,0.022716420329362153,-0.0378758494079113
1733699226613799200,8.598799072265624,0.03361994552910328,0.007594985173642635,-0.020241408517956732
1733699226623754200,8.608754150390626,0.022696400454640386,0.013348580264300107,-0.03500233979821205
1733699226633710000,8.6187099609375,0.02760930693745613,-0.005204729036241769,-0.019391513690352438
1733699226643665200,8.6286650390625,0.02647299638390541,-0.011586246766895056,-0.028868367087841032
1733699226653621200,8.638621337890624,0.025699673923850058,-0.0008493103057146072,-0.03310615078806877
1733699226663576000,8.648576171875,0.030875615257024765,0.0029150106638669965,-0.01637771882712841
1733699226673532200,8.6585322265625,0.04479220466762781,0.012664689653366803,0.0021779285609722135
1733699226683487200,8.6684873046875,0.05199439113140106,-0.0069528878778219215,0.0031365444600582122
1733699226693443000,8.678443115234375,0.05522065970152616,0.0026850013002753257,0.011717910322546958
1733699226703398100,8.688398193359374,0.04781330605447292,0.010504150618612765,0.017142273458838463
1733699226713354000,8.69835400390625,0.008683657193183899,0.004388882608711719,-0.011457798081636428
1733699226723309000,8.70830908203125,0.002601122409105301,0.0031827216893434524,-0.01933130793571472
1733699226733265200,8.71826513671875,-0.004555179086327552,-0.0040578970886766905,-0.01986906807422638
1733699226743220000,8.728219970703124,0.007795768442749976,-0.009547726676613091,-0.007599953609704971
1733699226753176300,8.73817626953125,0.027189035698771475,-0.0029600188493728637,0.0007213000118732452
1733699226763131100,8.748131103515625,-0.02395721417069435,0.03839198223650455,0.0004331307202577591
1733699226773087200,8.758087158203125,-0.033654432320594785,0.04771203763708472,0.007153963407874107
1733699226783042300,8.768042236328125,-0.005877952122688293,0.030779169145226475,0.005235562565922737
1733699226792998100,8.777998046875,0.004136661413311958,0.008294365614652632,0.018757307440042496
1733699226802953200,8.787953125,0.043318917244672774,0.011633008518069981,-0.00862169787287712
1733699226812909000,8.797908935546875,0.04695873505175113,0.010140431872755288,-0.051507484397292136
1733699226822864100,8.807864013671875,0.04527297392189503,-0.012039543492347001,-0.06025894612967968
1733699226832820200,8.8178203125,0.05307575662732124,-0.015329817209392785,-0.04548924702107906
1733699226842775000,8.827775146484376,0.02321604041457176,-0.013301526252180337,-0.04062836298644543
1733699226852731100,8.837731201171875,0.016306991678476334,-0.02226706912666559,-0.02818915265202522
1733699226862686200,8.847686279296875,0.015606734454631805,0.0019435352832078933,-0.011733692413568496
1733699226872642000,8.85764208984375,0.012942191420495509,0.020208675292134284,-0.003200841867923736
1733699226882597000,8.86759716796875,0.027652561557292937,0.0013055296406149863,0.005609072053432464
1733699226892553200,8.87755322265625,0.03992752124071121,0.012051380060613154,-0.011612696382403373
1733699226902508300,8.88750830078125,0.0007797522008419036,0.005443360097706317,-0.028320670077204704
1733699226912464100,8.897464111328125,-0.00040244332104921336,0.007113193006068468,-0.04031213664412498
1733699226922420200,8.907420166015624,-0.017041151171922682,-0.004039776910096406,-0.04675239882469177
1733699226932375300,8.917375244140626,-0.011469196258485316,0.011098317119479178,-0.021432664129137993
1733699226942331100,8.9273310546875,0.02439326750040054,0.02300648931711912,0.020726561686396597
1733699226952286200,8.9372861328125,0.046990883755683895,0.027911358623951672,0.047779988306760786
1733699226962242000,8.947241943359375,0.04273497987687588,0.02015431475639343,0.05543664053976535
1733699226972197000,8.957197021484374,0.031013562422990797,0.03338409094661474,0.025794366469979284
1733699226982153200,8.9671533203125,-0.010787351474165915,0.03464358948841691,-0.00462064553797245
1733699226992108000,8.97710791015625,-0.011332418136298655,0.022189035454392433,-0.03968786726593971
1733699227002064100,8.987064208984375,-0.008198504024744034,-0.01430924199000001,-0.06756839236021041
1733699227012019200,8.997019287109374,-0.010113397735357283,-0.01989566382020712,-0.0850929431349039
1733699227021975000,9.00697509765625,0.006209083773195743,-0.013542203140258788,-0.07785831570625305
1733699227031930000,9.01693017578125,0.01698211446106434,-0.015615502282977103,-0.04496317732036113
1733699227041886200,9.02688623046875,0.045288171491026874,-0.005120265623182058,-0.00047872342765331263
1733699227051841300,9.03684130859375,0.05180734412670135,0.006234364344924688,0.02415361352562904
1733699227061797000,9.046797119140624,0.040241994017362594,0.02749664034321904,0.02893383353948593
1733699227071752200,9.056752197265626,0.025152561435103415,0.023854776709526775,0.01956277860403061
1733699227081708300,9.066708251953125,0.031200901688635346,0.0021735446467995643,-0.007605798828601837
1733699227091663000,9.0766630859375,0.01875438483059406,0.00027516367956995964,-0.023209610673785207
1733699227101619200,9.086619140625,0.0048334115058183665,-0.007837561757862568,-0.037110125732421874
1733699227111574300,9.09657421875,0.011183072793483734,-0.013802753772586582,-0.047045244291424745
1733699227121530400,9.1065302734375,0.01213438216894865,-0.007215192075818777,-0.04956745624542236
1733699227131485200,9.116485107421875,0.007796352964639664,0.0055211015090346335,-0.030988427981734273
1733699227141441300,9.126441162109375,0.017395371437072753,0.012213000363111496,-0.008970072919130325
1733699227151396400,9.136396240234374,0.020683599327504635,0.008989800532907247,0.008082184168696403
1733699227161352400,9.1463525390625,0.014884849920868873,0.01388064131438732,0.024660978525876998
1733699227171307300,9.156307373046875,0.03302840937674045,0.028611469717323777,0.014293313768506049
1733699227181263000,9.16626318359375,0.025299860951304435,0.02701470204517245,0.0034229601860046384
1733699227191218400,9.176218505859374,0.011006547182798384,0.002625818458944559,-0.0014531214177608488
1733699227201174300,9.18617431640625,0.005077157133817673,0.0022825579792261123,-0.02340776359438896
1733699227211129000,9.196129150390625,-0.0113806411921978,0.005255728571116924,-0.03850888661444187
1733699227221085200,9.206085205078125,-0.006055939038097858,-0.001454290461540222,-0.03963116864264011
1733699227231040300,9.216040283203125,0.0207657246530056,0.0022696984976530075,-0.043483167895674704
1733699227240996400,9.225996337890624,0.0327910934895277,-0.013963497292250394,-0.04752046058773994
1733699227250951200,9.235951171875,0.03551555001735687,-0.004923135615885257,-0.025070143848657606
1733699227260907300,9.2459072265625,0.011508359225094317,0.014278992982208728,-0.02324175937771797
1733699227270862300,9.2558623046875,-0.008693886326253413,0.013716536793857812,-0.0026928923457860943
1733699227280818200,9.265818115234374,-0.0017705168038606642,0.005105068054050207,-0.0073918638169765466
1733699227290774300,9.275774169921876,0.003424129229784012,0.01627206649556756,-0.015460603982210159
1733699227300729300,9.285729248046875,0.013288520640134811,0.0063990533873438836,-0.02882102081477642
1733699227310685400,9.295685546875,0.045372342643141744,0.002685585822165012,-0.029087562796473503
1733699227320640300,9.30564013671875,0.06085808106660843,0.0003210486479103565,-0.021743045252561568
1733699227330596000,9.31559619140625,0.028725743746757505,0.009413725033402442,-0.0208136554479599
1733699227340551400,9.325551513671876,0.021165537625551224,0.0033668460845947264,-0.011722001975774764
1733699227350507300,9.33550732421875,0.019876082336902617,0.015069997229427099,0.015480477726459503
1733699227360462000,9.345462158203125,-0.008923895689845085,0.04732449962422251,0.010367664757370948
1733699227370418400,9.35541845703125,-0.03158522483110428,0.03354877998903394,0.007196633505821228
1733699227380373200,9.365373291015626,-0.04930588269978761,0.027626842594146727,0.016153846943378448
1733699227390329300,9.375329345703125,-0.02909282349348068,0.026564766320586203,0.00935585736632347
1733699227400284400,9.385284423828125,-0.04020400009453296,0.022026538369059562,-0.0008154080361127853
1733699227410240300,9.395240234375,0.00031856442987918853,0.01091024720147252,-0.017827917635440824
1733699227420195300,9.4051953125,0.01281973408460617,0.0031720541648566723,-0.04696048861742019
1733699227430151200,9.415151123046876,0.02512012047022581,-0.0015410919621586798,-0.09120938018858432
1733699227440106500,9.4251064453125,0.0581622661113739,-0.00855856950879097,-0.08616729436814785
1733699227450062300,9.435062255859375,0.07124854217767715,-0.016745236965268848,-0.05821136595010757
1733699227460017200,9.44501708984375,0.0773895291507244,-0.018734949477761983,-0.01716156268119812
1733699227469973200,9.45497314453125,0.09078004886060953,-0.011274696599692106,0.011740122154355048
1733699227479928300,9.46492822265625,0.06979279041141272,-0.012277882292866707,0.027017770785093306
1733699227489884400,9.474884521484375,0.038322131870687004,0.0026657120779156685,0.017370821517705918
1733699227499839200,9.484839111328125,0.027450024722516536,-0.0037912089765071866,-0.013706453791260719
1733699227509795000,9.494795166015624,0.0122258598446846,-0.00242971136495471,-0.03404197033345699
1733699227519750400,9.50475048828125,-0.00194236623942852,0.008500409580767154,-0.02707856106162071
1733699227529706200,9.514706298828125,0.000436053329706192,0.020722616163641214,-0.00851765297651291
1733699227539661000,9.5246611328125,-0.016497838075459,0.03991685371622443,0.007373159116506576
1733699227549617400,9.534617431640624,-0.00500233833193779,0.0416314025491476,0.014388590836524962
1733699227559572200,9.544572265625,-0.008283844220638275,0.03035086073055863,0.0036661212921142577
1733699227569528300,9.5545283203125,-0.02045534352958202,0.024945786816626785,-0.007136427751183509
1733699227579483400,9.5644833984375,-0.018115502405166625,0.010826368310302495,-0.04361702340841293
1733699227589439500,9.574439453125,-0.026643092253804207,0.00168313078135252,-0.05964110649228096
1733699227599394300,9.584394287109374,-0.021693945413827895,0.006439677658677101,-0.06896364611089228
1733699227609350100,9.59435009765625,0.023363924452662468,-0.0044447044491767885,-0.05872340712547302
1733699227619305500,9.604305419921875,0.02692132467329502,0.0011148293741047382,-0.0264385095924139
1733699227629261300,9.61426123046875,0.04048164799213409,0.0035129765570163724,0.007500584888458252
1733699227639216000,9.624216064453124,0.03617839784026146,0.012330781523883342,0.02015314571261406
1733699227649172200,9.634172119140626,0.05941665008664131,-0.0018415362134575842,0.03320727307498455
1733699227659127300,9.644127197265625,0.06090016664266586,0.008130261094123124,0.03339548912346363
1733699227669083400,9.65408349609375,0.047453240570425985,0.01891147508844733,0.011406944677233695
1733699227679038200,9.6640380859375,0.021056232032179833,0.007907558254152536,-0.02101005480289459
1733699227688994000,9.673994140625,0.008515899410843849,-0.005368249034881592,-0.04448913006782532
1733699227698949400,9.683949462890626,-0.003166647337377071,-0.005033317992091179,-0.05937456451058387
1733699227708905200,9.6939052734375,-0.012381927189230918,0.00644932226985693,-0.04289630791842937
1733699227718861300,9.703861328125,-0.011998480829596519,0.007750467996299267,-0.02008651021718979
1733699227728816400,9.71381640625,0.0035398645639419554,0.0181862295538187,0.0007242226213216781
1733699227738772500,9.7237724609375,-0.0028711715221405028,0.02549655256718397,0.008196750459074973
1733699227748727300,9.733727294921875,-0.014914952798187732,0.013314093472808599,-0.0008773673564195632
1733699227758683100,9.74368310546875,-0.01939706664830446,0.004939648359268903,-0.04657587321400642
1733699227768638500,9.753638427734375,-0.0018555647388100623,-0.005399667086452245,-0.06508943502604961
1733699227778594300,9.76359423828125,0.0015957447588443754,-0.009861322670429945,-0.06664367873072624
1733699227788549000,9.773549072265626,0.0006268997266888619,0.0020908347994089125,-0.07313830144703387
1733699227798505200,9.783505126953125,0.0237415255934,-0.0020864508852362633,-0.04740297168791294
1733699227808460300,9.793460205078125,0.015331424644589423,-0.010860708971321582,-0.028308395117521284
1733699227818416400,9.80341650390625,0.016555998003482817,0.012511106526851654,0.004697802427411079
1733699227828371200,9.81337109375,0.027062194448709487,0.029302666851878163,0.0403460389137268
1733699227838327300,9.823327392578125,0.03572013267874718,0.018604747226834296,0.03988134401142597
1733699227848282400,9.833282470703125,0.03455225794315338,0.01833367520049214,0.04111410067677498
1733699227858238200,9.84323828125,0.018797054928541182,0.011351707358658314,0.006577040302753448
1733699227868193300,9.853193359375,0.011432663640379905,0.009417232164740563,-0.012692892834544181
1733699227878149400,9.8631494140625,0.02346387769579887,0.014821137034893034,-0.0213712893307209
1733699227888104200,9.873104248046875,0.009714753806591033,0.003623012802749872,-0.03369710241854191
1733699227898060300,9.883060302734375,0.03720627958327532,0.003023731735348701,-0.037568975415825843
1733699227908015400,9.893015380859374,0.03509440199583769,0.002562982355803251,-0.043047699087858195
1733699227917971500,9.902971435546876,0.03956248732060194,0.0036715281195938585,-0.04495440949201584
1733699227927926300,9.91292626953125,0.03145166157931089,0.007002864499390125,-0.04600830245912075
1733699227937882000,9.922882080078125,0.029997955639660356,0.010685790795832872,-0.03533493275344372
1733699227947837400,9.93283740234375,0.02135696854442358,0.004261310706287622,-0.03540449085831642
1733699227957793300,9.942793212890624,0.021636077746748923,-0.012497224131971596,-0.017254501661658286
1733699227967748000,9.952748046875,0.024451135167479515,-0.016167144816368818,-0.006820201408863067
1733699227977704200,9.9627041015625,0.008074585384130478,0.010725099892914295,0.0020154314756393433
1733699227987659300,9.9726591796875,-0.0336363121420145,0.012534341271966695,-0.0019347674548625944
1733699227997615400,9.982615478515624,0.003276245191693306,0.009043868807703257,0.005071311914920807
1733699228007570200,9.992570068359376,0.038920390024781225,0.012426058591902255,-0.005802548798918724
1733699228017526300,10.0025263671875,0.057310617718100546,0.0052316170431673525,0.003737432962656021
1733699228027481300,10.0124814453125,0.06574526858627795,0.0037868250623345374,0.014070026406645774
1733699228037437200,10.022437255859375,0.07456453485786914,0.013407178583741188,0.013214870882034302
1733699228047392300,10.032392333984374,0.04977963769137859,0.009501257186383009,0.018753800308704376
1733699228057348400,10.042348388671876,0.022326982620358465,0.011975392214953898,0.004691372686624526
1733699228067303200,10.05230322265625,0.0017126491367816924,0.021071575731784104,-0.012204817056655883
1733699228077259300,10.06225927734375,0.008494856622815131,0.015951310108602047,-0.029206805261969563
1733699228087214300,10.07221435546875,0.0037777649730443954,0.00082914430052042,-0.04214636633396148
1733699228097170400,10.08217041015625,-0.013835048606991767,0.011861994968354701,-0.04504617942869663
1733699228107125200,10.092125244140625,-0.02054302181303501,0.00832256879583001,-0.04784662380218505
1733699228117081300,10.102081298828125,-0.037792847299575806,0.018865297859162092,-0.050822424742579454
1733699228127036400,10.112036376953125,-0.036233342897892,0.010099953731894493,-0.027092005065083503
1733699228136992500,10.121992431640624,-0.016057985353469847,0.013285305769741535,-0.01597907489836216
1733699228146947300,10.131947265625,0.000689151307940483,0.02228650447949767,0.001720247921347618
1733699228156903400,10.1419033203125,0.01752455077469349,0.018448095360398292,0.010201660540699958
1733699228166858500,10.1518583984375,0.011982114216685295,0.004186930295825004,0.0014724106401205062
1733699228176814300,10.161814453125,0.0027478374034166334,-0.0008854045324027537,-0.014545242702960967
1733699228186770400,10.1717705078125,-0.0024780805513262747,0.004813391631096601,-0.011694529446959494
1733699228196725200,10.181725341796875,-0.0063303720653057095,0.008052373552322387,-0.03692074064016342
1733699228206681600,10.191681640625,0.0031707389906048774,-0.006479717408120632,-0.06187982532978058
1733699228216636400,10.201636474609375,0.038380584059655665,-0.006039718555659056,-0.05758358944058418
1733699228226592300,10.21159228515625,0.056824003244936465,-0.002159954512864351,-0.04087853835523128
1733699228236547600,10.221547607421876,0.06646890668570996,-0.011108253991603851,-0.03418167106509209
1733699228246503400,10.23150341796875,0.057225569783151145,-0.003416676575690508,-0.019337737676501272
1733699228256458500,10.24145849609375,0.054280748502910134,0.0004293313279747963,-0.0024526538491249084
1733699228266414300,10.251414306640624,0.032496494457125664,0.00805251968279481,0.0063613517254590985
1733699228276369400,10.261369384765626,0.021132804399728772,0.014138999989628791,-0.01416997964978218
1733699228286325500,10.271325439453125,0.008343465453386305,0.007149871754646301,-0.006654781714081764
1733699228296280300,10.2812802734375,-0.00127834937274456,0.019454934315383435,-0.0007663081973791122
1733699228306236400,10.291236328125,-0.00779343035519123,0.021127543702721595,-0.009704816934466362
1733699228316191500,10.30119140625,-0.0294406140178442,0.03251680659279227,-0.002037058785557747
1733699228326147300,10.311147216796876,-0.020037410378456116,0.03795402921065688,0.0053904608666896815
1733699228336102400,10.321102294921875,-0.02178746891617775,0.0155938749730587,0.010246668726205825
1733699228346058500,10.33105859375,0.010879705932736397,0.002501169165968895,-0.006018237376213074
1733699228356013300,10.341013427734374,0.022315584443509576,0.019511340677738187,-0.009996493357419967
1733699228365969400,10.350969482421876,0.028943185889720915,-0.0024723814629018306,-0.03531681257486343
1733699228375924200,10.36092431640625,0.04665478366911411,-0.002769464713335037,-0.039481531038880344
1733699228385880600,10.370880615234375,0.042110125976800916,-0.0026442308984696863,-0.05375029488801956
1733699228395835400,10.38083544921875,0.02182137118577957,-0.0010338730923831463,-0.04848258361816406
1733699228405791500,10.39079150390625,0.022663082706928253,0.0011053308933973312,-0.02977905219197273
1733699228415746600,10.40074658203125,0.031529110729694367,0.003405862920731306,-0.007126490879058837
1733699228425702400,10.410702392578125,0.036522681233286856,0.002568681444227695,0.0015320318728685378
1733699228435657500,10.420657470703125,0.05996434709727764,-0.000029810616374015806,0.015602058279514311
1733699228445613300,10.43061328125,0.04932078800797462,0.012973024950176477,0.011475333738327025
1733699228455568400,10.440568359375,0.0336713834553957,0.012005787353217601,-0.008981763356924057
1733699228465524500,10.4505244140625,0.003192074039578438,0.005427431876212358,-0.03545125260949135
1733699228475479300,10.460479248046875,-0.020381109249591828,-0.0012687047615647315,-0.055877370044589036
1733699228485435400,10.470435302734375,-0.010657003092765807,-0.007517243762314319,-0.06276011529564857
1733699228495390500,10.480390380859374,-0.02206716264039278,0.014791764809936284,-0.036895606198906895
1733699228505346300,10.49034619140625,-0.006846797154843807,0.036041473587602374,0.023925649988651276
1733699228515301400,10.50030126953125,0.023435528384149074,0.029423662883043288,0.05885317098498344
1733699228525257500,10.510257568359375,0.02443827568590641,0.035792613393068315,0.07669394810199737
1733699228535212500,10.520212646484374,0.0019487959802150724,0.027172961346805094,0.0524848049968481
1733699228545168400,10.53016845703125,0.022068623945116994,0.016385171481221913,0.021834815189242362
1733699228555123500,10.54012353515625,0.00880816035568714,-0.01551847164928913,-0.03806698806583881
1733699228565079600,10.55007958984375,0.008040390853583813,-0.02559767485409975,-0.07755261075794696
1733699228575034400,10.560034423828125,0.023106442560255527,-0.015874007088690995,-0.09592238018512725
1733699228584990500,10.569990478515624,0.022378420546650884,-0.015520663606375456,-0.09653320555984973
1733699228594945500,10.579945556640626,0.010739420679211615,0.003876256911456585,-0.057418754267692565
1733699228604901400,10.5899013671875,0.015882628786563872,0.014517770174145697,-0.016537293303012846
1733699228614856400,10.5998564453125,0.0163519998639822,0.013005904306471347,0.010133856001496314
1733699228624812300,10.609812255859374,-0.003509761686623096,0.028764760582894084,0.015529577565193175
1733699228634768400,10.619768310546876,-0.002337210775911808,0.02241962933987379,0.011539046624302864
1733699228644723500,10.629723388671875,0.015272095672786234,0.004601940837502479,-0.012442717465758323
1733699228654679300,10.63967919921875,0.011308452738821506,-0.0009885726459324359,-0.03364098831713199
1733699228664634400,10.64963427734375,0.030393092437088487,-0.0019213234513998031,-0.041997897773981094
1733699228674590500,10.659590576171874,0.036707974672317505,0.002382218961417675,-0.034382162073254584
1733699228684545500,10.669545654296876,0.04463029210418463,-0.007877455376833677,-0.037944822990894314
1733699228694501400,10.67950146484375,0.05794044005423784,0.0034799510702490806,-0.015375848308205604
1733699228704456400,10.68945654296875,0.04160246871560812,0.023783757299929854,-0.011716741278767585
1733699228714412500,10.69941259765625,0.02849602664411068,0.014855623826384544,-0.019866145464777947
1733699228724367400,10.709367431640626,0.0197395964756608,0.003805968154221773,0.010413257464766502
1733699228734323500,10.719323486328125,0.008635726398229598,0.0258012346021831,0.005434884530305862
1733699228744278500,10.729278564453125,-0.03448211531639099,0.01799406798258424,-0.0022819734573364257
1733699228754234400,10.739234375,-0.046370121508836744,-0.0016118191108107566,-0.01871522186398506
1733699228764189400,10.749189453125,-0.06655483140349387,-0.004483867415785789,-0.028984686943888664
1733699228774145300,10.759145263671876,-0.025064883151650428,0.0005453589230775832,-0.060931730824708936
1733699228784100400,10.769100341796875,0.004236614656448364,-0.020344430501013994,-0.0747276164650917
1733699228794056400,10.779056396484375,0.0519751019090414,-0.03138034990876913,-0.08309972349107266
1733699228804011300,10.78901123046875,0.09059417089968919,-0.03349558849707246,-0.07740472671985625
1733699228813967400,10.79896728515625,0.09245908798873424,-0.013665391128510236,-0.06880874781012535
1733699228823922400,10.80892236328125,0.06271598389297724,-0.015561872399598359,-0.04611468544304371
1733699228833878500,10.81887841796875,0.030085926184058188,-0.0066308163166046135,-0.024112112471461295
1733699228843833300,10.828833251953125,0.006069675302505493,0.011281418601423501,0.007992752319574355
1733699228853789400,10.83878955078125,0.002367313653230667,0.013763736936450003,0.030668694508075713
1733699228863744500,10.84874462890625,-0.023359540538489817,0.044686844597011804,0.05022387432754039
1733699228873700400,10.858700439453125,-0.04751636893451214,0.05700666633546352,0.06169336284697056
1733699228883655400,10.868655517578125,-0.05638794991523027,0.05759338018223643,0.06583411591351032
1733699228893611500,10.878611572265624,-0.05305179122984409,0.0800270380474627,0.05312193385660648
1733699228903566300,10.88856640625,-0.0523760839253664,0.07248349080011249,0.03955284270942211
1733699228913522400,10.8985224609375,-0.015640052202343938,0.032551731775701045,0.019442951616644857
1733699228923477500,10.9084775390625,0.0444964365914464,0.018446049533784387,-0.019617723661661146
1733699228933433300,10.918433349609375,0.07261164722442627,-0.007479395969957113,-0.05030570739209651
1733699228943388400,10.928388427734374,0.09205635240674018,-0.010507657749950884,-0.04551496598422527
1733699228953344300,10.93834423828125,0.08732932388484478,0.004248743485659361,-0.03558569264411926
1733699228963299600,10.948299560546875,0.07683715596497058,-0.0007557868033647537,-0.008814005574584007
1733699228973255400,10.95825537109375,0.06730711107552051,0.004120440930873155,-0.012953589597344398
1733699228983210200,10.968210205078124,0.029343583384156224,-0.008668898015469313,-0.024457564908266068
1733699228993166300,10.978166259765626,0.03159691526889801,-0.024186492881923913,-0.051585810330510136
1733699229003121400,10.988121337890625,0.039922845065593716,-0.028464900853484867,-0.07941431297659873
1733699229013077500,10.998077392578125,0.03545417521893978,0.0027469606205821036,-0.0840735369592905
1733699229023032300,11.0080322265625,0.030157530115544794,-0.02848755107671022,-0.10062778139710425
1733699229032988400,11.017988525390624,0.038835926611721514,-0.013881079705804586,-0.07229366731643676
1733699229042943500,11.027943603515626,-0.003934124578535557,0.012806728472560643,-0.03704173667132854
1733699229052899300,11.0378994140625,-0.03226531604975462,0.03478738187327981,0.008871873241662978
1733699229062854400,11.0478544921875,-0.05518032769113779,0.038574937587976456,0.047889878422021866
1733699229072810500,11.057810546875,-0.047560208076238626,0.04098404455631971,0.06298807883262635
1733699229082765300,11.067765380859376,-0.039274610289931296,0.03700622696653008,0.025901918497681618
1733699229092721400,11.077721435546875,-0.025734160715341566,0.022334873665869236,0.017136428239941597
1733699229102676500,11.087676513671875,-0.00006517419070005416,0.017300240499526262,0.012409984239935874
1733699229112632600,11.097632568359375,0.02393792494833469,0.015597820495814084,-0.0025561142235994336
1733699229122587000,11.1075869140625,0.03522796524763107,0.00954933411180973,0.010935235512256622
1733699229132543000,11.11754296875,0.043398996743559834,0.02067161662876606,0.0032779987573623654
1733699229142498000,11.127498046875,0.01969897220432758,0.013379413793981075,-0.025156653088331222
1733699229152454100,11.1374541015625,0.03968611370027065,0.005915361523628235,-0.025080665242671964
1733699229162409000,11.147408935546874,0.04443447727113962,0.011834668570011853,-0.034650457620620724
1733699229172365000,11.157364990234376,0.051826341088116165,0.00515416789278388,-0.05224865815341472
1733699229182320000,11.167320068359375,0.0475526092916727,0.0008477028705179691,-0.026698621833324433
1733699229192276000,11.17727587890625,0.04393149618506431,0.0016794775195419786,-0.016017068821191787
1733699229202231000,11.18723095703125,0.05837035590410232,-0.0033268063351511953,-0.009711246675252914
1733699229212187100,11.197187255859374,0.0644014527618885,0.01764554680585861,0.00864917040169239
1733699229222143000,11.20714306640625,0.062008420145511625,0.009872574716806411,-0.0060404492080211635
1733699229232098000,11.21709814453125,0.02914601498544216,0.01696457880437374,-0.0013216039925813673
1733699229242054000,11.227053955078125,-0.017279051581025124,0.005878828905522823,-0.022676526710391044
1733699229252009000,11.237009033203124,-0.022799276307225225,0.009314794703572988,-0.03752630531787872
1733699229261965000,11.246965087890626,-0.03185995011925697,-0.004888794954866171,-0.03528115673959255
1733699229271919900,11.256919921875,-0.019856500853598115,-0.01682604711651802,-0.023505963271856306
1733699229281876000,11.2668759765625,0.00036591070294380185,0.009771890821307897,-0.015370003089308738
1733699229291831000,11.2768310546875,-0.00461976875513792,0.00494198644682765,-0.0032359131813049316
1733699229301787100,11.286787109375,-0.014480360773205756,0.0012951543770730494,0.009777297648787498
1733699229311742000,11.296741943359375,-0.014502572605013846,0.01905687490850687,0.007691139024496078
1733699229321698000,11.306697998046875,-0.012305062560737132,0.016278788497298954,-0.011143909826874732
1733699229331653000,11.316653076171875,-0.0005652326673269272,-0.0003352233037352562,-0.03680149817466736
1733699229341609000,11.32660888671875,0.007176175239682197,-0.007498246800899505,-0.04190028261840343
1733699229351564000,11.33656396484375,0.01397474933862686,0.00870601515546441,-0.045048517516255375
1733699229361520000,11.34652001953125,0.009098667734861373,0.0047667760103940965,-0.027031214788556097
1733699229371475000,11.356474853515625,0.009093407037854193,0.017275836710631848,-0.014626491245627402
1733699229381431000,11.36643115234375,0.011197101318836212,0.011828092698752879,-0.006730185037851333
1733699229391386000,11.37638623046875,0.0057356210425496094,0.0080517890304327,0.008059972336888313
1733699229401342000,11.386342041015626,0.018393734824657438,0.010914338854700327,0.004709492865204811
1733699229411297000,11.396297119140625,0.02858341266661882,0.009352642495930194,-0.017131167542934415
1733699229421252900,11.4062529296875,0.04160802167356014,-0.004566138871759176,-0.02899754642546177
1733699229431208200,11.416208251953124,0.0582405920445919,0.007473989142477512,-0.04632803593277931
1733699229441164000,11.4261640625,0.03716331722438335,-0.014045184226334094,-0.033027824854850764
1733699229451118800,11.436118896484375,0.03939560632109642,-0.011100509076565504,-0.030756957313418386
1733699229461075000,11.446074951171875,0.03323649916946888,0.002013824040442705,-0.025386370190978048
1733699229471030000,11.456030029296874,0.017557868522405623,0.0072812430493533606,0.006137479841709137
1733699229480986000,11.465986083984374,0.01814618980437517,0.027885493530333042,0.012484218519926071
1733699229490941000,11.47594091796875,0.012288403686881064,0.018300211322307587,0.022335165926814077
1733699229500897000,11.48589697265625,-0.0038873628273606298,0.018990531674027443,0.012467851907014845
1733699229510852000,11.49585205078125,-0.0012388941451907157,0.016419073750823736,0.010854571491479873
1733699229520808000,11.505807861328124,-0.010985796655714511,0.021435586738586424,-0.005614332750439643
1733699229530763000,11.515762939453126,-0.003953998322784901,0.01712795267254114,-0.0057101943403482435
1733699229540719000,11.525718994140625,0.009149521139264106,0.006697890203446149,-0.03469254319667816
1733699229550674000,11.535673828125,0.014716507616639136,-0.008594517605006693,-0.04128595011234283
1733699229560630000,11.545630126953125,0.024431845945119858,-0.011407090807706117,-0.05379471855163574
1733699229570585000,11.555585205078126,0.03987549879252911,-0.02267711123228073,-0.05555763657093048
1733699229580541200,11.565541259765626,0.024225217457115648,-0.015311550900340079,-0.060493923929333684
1733699229590496000,11.57549609375,0.017699030558764935,-0.01643207936286926,-0.05600304225087165
1733699229600451800,11.585451904296875,0.02250584631860256,-0.0035566695682704447,-0.029440029495954513
1733699229610407200,11.5954072265625,0.028518822997808453,0.009623130000382661,-0.023607670080661773
1733699229620363000,11.605363037109376,0.015168927559256553,0.017390987522900102,0.0034679683715105056
1733699229630317800,11.61531787109375,0.02941489505469799,0.01604030356630683,0.028493104034662244
1733699229640274000,11.62527392578125,-0.006336217284202575,0.03179726014658808,0.028386721050739288
1733699229650229000,11.63522900390625,-0.006193593943119049,0.0298794438265264,0.012235212194919586
1733699229660185000,11.64518505859375,-0.013896715666353702,0.015728315007686615,0.003155249160528183
1733699229670140000,11.655139892578125,0.025746435675024985,0.003868219735473394,-0.006687514939904213
1733699229680096000,11.665095947265625,0.0244604875177145,0.00729980161935091,-0.014869652351737022
1733699229690051000,11.675051025390625,0.02299333757460117,0.00017594108879566192,-0.0313531696408987
1733699229700007000,11.6850068359375,0.00852495950013399,0.00623626404106617,-0.01861643766462803
1733699229709962200,11.694962158203126,0.000982289035618305,0.0005091185659170151,-0.023266893818974493
1733699229719918000,11.70491796875,-0.0073471478924155235,0.01633329516351223,-0.0306038125783205
1733699229729873000,11.714872802734375,-0.006242401520907878,0.0056724926784634585,-0.041158524340391155
1733699229739829000,11.7248291015625,-0.0005672784939408302,0.001461743115633726,-0.06677519615590571
1733699229749784000,11.7347841796875,0.02356850711405277,-0.012322744347900151,-0.05823883847892284
1733699229759740200,11.744740234375,0.03699117552787065,-0.008130699485540389,-0.03383563410639763
1733699229769695000,11.754695068359375,0.043269232884049415,-0.002154255424439907,-0.02737666722536087
1733699229779650800,11.76465087890625,0.05237725296914577,0.01744198705777526,-0.0048345805495977395
1733699229789607200,11.774607177734374,0.04072568588107824,-0.001631400594115257,0.0011333879441022873
1733699229799562000,11.78456201171875,0.03577595451921224,-0.0076228960938751695,-0.002339256602525711
1733699229809518000,11.79451806640625,0.017011048294603825,0.0031276305012404916,-0.0032739071041345594
1733699229819473200,11.80447314453125,0.015120412242412565,0.02439662850126624,-0.004158873245120048
1733699229829429000,11.814428955078125,0.020915362256765366,0.019082740002125502,0.008775427129864692
1733699229839384000,11.824384033203126,0.01340747084468603,0.03002411299422383,0.01551671808362007
1733699229849340000,11.83433984375,0.005059036955237389,0.03138838708475232,0.011138649129867553
1733699229859295200,11.844295166015625,-0.007990998753905297,0.028075755405426023,0.008930325430631637
1733699229869251000,11.8542509765625,0.00035012861192226406,0.02391191372424364,0.01936754829287529
1733699229879206000,11.864205810546874,-0.01194616612046957,0.014718699573725461,0.006877484554052352
1733699229889162000,11.874161865234376,-0.01658814670741558,0.013833587302267551,-0.008511807757616043
1733699229899117000,11.884116943359375,0.005334931287169456,0.0009175532363355159,-0.01701777029633522
1733699229909073200,11.8940732421875,0.005586860221624374,-0.002486263857781887,-0.042695232388377184
1733699229919028000,11.904028076171874,0.022849545189738273,0.00857800486162305,-0.052258010503649706
1733699229928983800,11.91398388671875,0.04501140037626028,-0.0056873979866504665,-0.052883448925614356
1733699229938939100,11.923939208984375,0.05334522121846676,-0.010652180787175893,-0.03942132528424263
1733699229948895000,11.93389501953125,0.08199731520712375,-0.005640782365947962,-0.024925182420015332
