time,seconds_elapsed,z,y,x
1733859543965729000,0.01772900390625,-0.05885434002876282,0.003615852409601211,0.07160568505227566
1733859543975680000,0.027679931640625,0.0012099603116512297,-0.012794453512877226,0.17719722633659837
1733859543985630000,0.0376298828125,0.0656051294632256,-0.1144160682529211,0.21615034958720206
1733859543995581000,0.047580810546875,0.06747311529219151,-0.09150098354630172,0.17282792521119117
1733859544005531100,0.05753125,0.055630117285251614,-0.013864932288601993,0.056657122245430944
1733859544015481900,0.06748193359375,0.03339344329684973,0.015748773273825643,-0.09187047444581985
1733859544025432000,0.07743212890625,0.01977963622510433,-0.005451835665106773,-0.16794132221341132
1733859544035383000,0.087383056640625,0.02194733565300703,-0.02674129193127155,-0.1459960323870182
1733859544045333000,0.0973330078125,0.004700286645442247,-0.017257058944925664,-0.058536944642663
1733859544055284000,0.107283935546875,0.02563771460354328,-0.025407924435660242,0.055450669065117836
1733859544065234000,0.11723388671875,0.039133740514516825,-0.038059973803162575,0.08489771282374858
1733859544075185200,0.12718505859375,0.04292582627385855,-0.04623633906133472,0.11228840857446193
1733859544085135000,0.137135009765625,0.03246171540468931,-0.0470206213068217,0.07807458880543708
1733859544095086000,0.147086181640625,-0.007231704819202422,-0.041391090987250204,0.06269464884400368
1733859544105036000,0.1570361328125,0.001998626471310854,-0.04098104888163507,0.06105564946532249
1733859544114987000,0.166987060546875,0.027745646668225526,-0.03081862437278032,0.07687047371268271
1733859544124937000,0.17693701171875,0.04368921186178922,-0.041270168021321295,0.05143325011730194
1733859544134888000,0.186887939453125,0.053799686987698075,-0.038872240034118294,0.019003975677490233
1733859544144838100,0.196838134765625,0.04965250418037176,-0.032515710614249106,0.011354337707161903
1733859544154788900,0.206788818359375,0.03633694940283894,-0.026772709982842206,0.008963058656454085
1733859544164738800,0.21673876953125,0.035433424691855904,-0.02709982304535806,0.04746259292066097
1733859544174690000,0.22668994140625,0.006928337958455085,-0.04382401722259819,0.043216041392087935
1733859544184640000,0.236639892578125,0.021330957320332525,-0.04125928130112588,0.03610182547271251
1733859544194591000,0.246591064453125,0.028597733452916142,-0.0336707258682698,0.050101124730706215
1733859544204541000,0.256541015625,0.02867196773290634,-0.05330087062008679,0.06002046119868755
1733859544214492200,0.2664921875,0.016398761615157128,-0.06148213124908507,0.06288578750193119
1733859544224442000,0.276442138671875,0.010529577320814132,-0.06009995617568493,0.06894435688853263
1733859544234393000,0.28639306640625,0.033625206226110455,-0.023207564847171305,0.06717851625978946
1733859544244343000,0.296343017578125,0.044971360626816746,-0.026741657257452606,-0.005084755918383598
1733859544254294000,0.3062939453125,0.03121551473587751,-0.008562441966310144,-0.04166705838441848
1733859544264244000,0.316243896484375,0.013409516671299934,-0.007673164976388216,0.0004857376903295517
1733859544274195000,0.32619482421875,0.015197276870906351,-0.007109320548549294,0.06346563321650028
1733859544284145200,0.336145263671875,0.025778584378957747,-0.03728014853708446,0.07509235812425613
1733859544294096000,0.346095947265625,0.03326104908883572,-0.052014849397540086,0.07620645684599876
1733859544304045800,0.3560458984375,0.023173954838514327,-0.07631649309173226,0.055502106991410255
1733859544313997000,0.3659970703125,0.02614975577890873,-0.06108845575638115,0.044428924313187595
1733859544323947000,0.375947021484375,0.01942424691617489,-0.051738589739426966,0.04822071781158447
1733859544333898000,0.38589794921875,0.03102729868739843,-0.051585810330510136,0.0645756402850151
1733859544343848000,0.395847900390625,0.046048342208564276,-0.04351904292665422,0.09034545683562754
1733859544353800000,0.405800048828125,0.02209814230054617,-0.036226036374270916,0.0902384893298149
1733859544363750000,0.41575,0.024651041653752325,-0.024256270182505247,0.03511164539158344
1733859544373701000,0.425701171875,0.008872750024497509,-0.02202186219394207,0.008937924215197563
1733859544383651000,0.435651123046875,0.020095862567424773,-0.009695683779940008,-0.007229951253533363
1733859544393602000,0.44560205078125,0.025833529436588287,-0.011700959187746046,-0.006586392652988433
1733859544403552000,0.455552001953125,0.025970307558774948,-0.02305617367774248,-0.016803250762820243
1733859544413503200,0.465503173828125,0.03990998558402061,-0.041363253132253884,0.007801613661646842
1733859544423453200,0.475453125,0.04782280453518033,-0.044522009424120185,0.03060731970965862
1733859544433404200,0.485404052734375,0.02383826396614313,-0.0490195400390774,0.0556482374638319
1733859544443354000,0.49535400390625,0.028324469469487665,-0.04089300527200103,0.06907528979182243
1733859544453305000,0.50530517578125,0.03404576972573995,-0.0319350611820817,0.07687748797535895
1733859544463255000,0.515255126953125,0.02449263622164726,-0.0317305515859276,0.08371756312847137
1733859544473206000,0.5252060546875,0.01501958221644163,-0.022978505331650374,0.05481061759591102
1733859544483156200,0.53515625,0.0073059390991926185,-0.016609189495444297,0.02185761154294014
1733859544493107200,0.545107177734375,0.024389175847172737,-0.04743767767511308,0.026731939581036566
1733859544503057000,0.555056884765625,0.021283611047267913,-0.0433272466816008,0.015688567519187926
1733859544513008000,0.565008056640625,0.016343232035636902,-0.03593019523285329,0.047718028986454004
1733859544522958000,0.5749580078125,0.032898937778174875,-0.03124101450331509,0.04891571433842182
1733859544532909000,0.584908935546875,0.014615093068778513,-0.042268239147961136,0.02719838804900646
1733859544542859000,0.59485888671875,0.018819559021294115,-0.029450112498551607,0.02304536002278328
1733859544552810200,0.604810302734375,0.04224120501056313,-0.03359546867497265,0.04120119443833828
1733859544562760200,0.61476025390625,0.026003771436959505,-0.016392551070079208,0.04302665629982948
1733859544572711000,0.6247109375,0.01634571625366807,-0.036192426365613935,0.04462590819001198
1733859544582661000,0.6346611328125,0.02146729705110192,-0.051584933547675606,0.05388590396642685
1733859544592612000,0.644612060546875,0.023286329171806574,-0.03261617531403899,0.056362523213028905
1733859544602562300,0.654562255859375,0.04436316560059786,-0.023699732278287408,0.03909340850412845
1733859544612513000,0.664512939453125,0.030707272952795028,-0.052177054221928115,0.02280219891667366
1733859544622463000,0.674462890625,0.020419979955255983,-0.04221702041737735,0.05014262578487396
1733859544632414200,0.684414306640625,0.016325988639891147,-0.03833119195997715,0.049288639304041856
1733859544642364000,0.694364013671875,0.010060498504340648,-0.02638151870816946,0.05812836384177208
1733859544652315100,0.704315185546875,0.020254998651891946,-0.01983918439261615,0.04055354418456554
1733859544662265000,0.71426513671875,0.024804917041212318,-0.03652121992856264,-0.0014829320341348648
1733859544672216000,0.724216064453125,0.047101942914724346,-0.04202946195602417,-0.0013625205248594284
1733859544682166000,0.734166015625,0.020751111605763435,-0.024242680048570036,-0.001662380254268646
1733859544692117200,0.7441171875,0.01983370449990034,-0.02387545417137444,0.05244213489890098
1733859544702067200,0.754067138671875,0.026706805139780042,-0.03748100487142801,0.08549977037012577
1733859544712018000,0.764017822265625,0.009156535401940346,-0.03356061655730009,0.08688859438002108
1733859544721968000,0.773968017578125,0.013292758423835038,-0.017371771365776657,0.0716997930765152
1733859544731919000,0.783919189453125,0.00710091804638505,-0.018935075159743426,0.05094985051453113
1733859544741869300,0.793869384765625,0.020040040726959703,-0.017580299549922344,0.029434768798947332
1733859544751820000,0.803820068359375,0.02683262347653508,-0.0033301673360168933,0.02107669029831886
1733859544761770000,0.81377001953125,0.03347001566439867,-0.028840456167608497,0.021059154641628264
1733859544771721200,0.82372119140625,0.024432722727954385,-0.03837415431886911,0.009807108265161514
1733859544781671200,0.833671142578125,0.008052958074212075,-0.027546982290968296,0.013057634493708609
1733859544791622100,0.8436220703125,0.02683686126023531,-0.04049852606169879,0.01372165136039257
1733859544801572000,0.853572021484375,0.02086173237338662,-0.04654628179334104,0.0395095880895853
1733859544811522000,0.86352197265625,0.021576018122583626,-0.06373458635099231,0.06384849505424499
1733859544821473000,0.87347314453125,0.014996639732271432,-0.04313946902453899,0.07228256140053271
1733859544831423000,0.883423095703125,0.005813654714822769,-0.023345219752192496,0.08486907125115394
1733859544841374200,0.893374267578125,0.01077887590676546,-0.023796762911975383,0.09272153831720352
1733859544851324200,0.90332421875,0.029123218631744382,-0.03215221106410027,0.0875461815059185
1733859544861275100,0.913275146484375,0.019971651665866372,-0.02186053415238857,0.0722702864408493
1733859544871225000,0.92322509765625,0.017491379157453774,-0.03644998132325709,0.07479483648240566
1733859544881176000,0.933176025390625,0.03153919373229146,-0.037820319828391076,0.041352585607767105
1733859544891126300,0.943126220703125,0.030978491109609603,-0.03889357508309185,0.02388005728125572
1733859544901077000,0.953076904296875,0.03321194925010204,-0.03711202542856335,-0.0035182372540235518
1733859544911027200,0.963027099609375,0.04141629849374294,-0.01818973668515682,0.0019558102428913113
1733859544920978200,0.972978271484375,0.014577391406893729,-0.021569076925143597,0.032572482302784915
1733859544930927900,0.982927978515625,0.013406009539961815,-0.025371976339444515,0.0634165333777666
1733859544940879000,0.992879150390625,0.019274901573359964,-0.02165609762147069,0.07665127800405025
1733859544950829000,1.0028291015625,0.017414222268015145,-0.04080876105464994,0.05608955149054527
1733859544960780000,1.012780029296875,0.00017608721926808357,-0.028496611166000364,0.016371873608231544
1733859544970730000,1.02272998046875,0.01563026146069169,-0.018337255397066474,-0.001699205133318901
1733859544980681200,1.03268115234375,0.02391279050707817,-0.023995061963051557,0.01970657098889351
1733859544990631200,1.042631103515625,0.03601706979870796,-0.025423268135264514,0.035682723277807235
1733859545000582000,1.052581787109375,0.02355754732862115,-0.035171631950512525,0.059226095950603484
1733859545010532000,1.062531982421875,0.014117957201600074,-0.04968918292894959,0.050907764938473696
1733859545020483000,1.072483154296875,0.007335311324149369,-0.027877821680530903,0.08625847978293895
1733859545030433300,1.082433349609375,0.018127192842960358,-0.011032339211180806,0.10072072037756442
1733859545040384000,1.092384033203125,0.0009422492861747741,-0.020697043330967425,0.07540683090090751
1733859545050334200,1.102334228515625,0.023256372424960134,-0.018660569067299366,0.04913783265650272
1733859545060285200,1.11228515625,0.014742957232147455,-0.007327858670055865,-0.0046925417304039
1733859545070235100,1.122235107421875,0.02506780576109886,-0.023499387400597333,-0.055524903345108026
1733859545080186000,1.13218603515625,0.019461217925697563,-0.04212736937254667,-0.02803016269803047
1733859545090136000,1.142135986328125,0.020268881046772002,-0.05369966067932546,0.04074176023304462
1733859545100087000,1.152087158203125,0.02471796941012144,-0.08013751268461346,0.11494447604119777
1733859545110037000,1.162037109375,0.007588555432856083,-0.06030548868514597,0.1499965002000332
1733859545119988200,1.17198828125,0.02378974864929914,-0.043907457722350954,0.1476034675836563
1733859545129938200,1.181938232421875,0.01544657545685768,-0.05266768728308379,0.09801321498453616
1733859545139889000,1.191888916015625,0.0212450326025486,-0.04256115767993033,0.03995557829141617
1733859545149839000,1.201839111328125,0.012570143237709998,-0.022959873696416614,0.024616554862260817
1733859545159790000,1.2117900390625,0.00032440964877605437,-0.0036350685667246576,0.008557984986901282
1733859545169740300,1.221740234375,0.01586450860798359,0.0037285920690745115,-0.022484219008684157
1733859545179691000,1.23169091796875,0.05080781169533729,-0.0008558131117373704,-0.056148003679513926
1733859545189641000,1.241640869140625,0.051772857335209845,-0.02973718581162393,-0.05837620112299919
1733859545199592200,1.25159228515625,0.040620764201879496,-0.023209975999966263,-0.013700024050474166
1733859545209542100,1.261542236328125,0.013552286142855882,-0.03335742213539779,0.018860183292627335
1733859545219493000,1.2714931640625,0.007812281186133622,-0.03041720396503806,0.05940203703939914
1733859545229443000,1.281443115234375,0.015665771165490148,-0.023750074226036668,0.08217033368647098
1733859545239394300,1.291394287109375,0.039108021551370616,-0.03931085064709186,0.07386018598079681
1733859545249344000,1.301343994140625,0.02948153055012226,-0.04440079419724643,0.046725510817766186
1733859545259295000,1.311294921875,0.013015548917651176,-0.029321444617584347,0.058364510685205456
1733859545269245200,1.3212451171875,-0.0025485154390335082,-0.030287732366472482,0.056007718425989145
1733859545279196000,1.33119580078125,0.017295125932991505,-0.03597527648359537,0.0726888041138649
1733859545289146000,1.34114599609375,0.0046184535808861255,-0.03299341112859547,0.08655015620589256
1733859545299097000,1.35109716796875,0.03351473158895969,-0.03887808525301516,0.08078034063279628
1733859545309047000,1.361047119140625,0.012229074715077877,-0.0258221312597394,0.03968494465649128
1733859545318998000,1.370998046875,0.008731587988138199,-0.034742008361592885,0.040435470762848855
1733859545328948000,1.380947998046875,0.0011889175236225128,-0.042935617015510796,0.039238369932770724
1733859545338899200,1.390899169921875,-0.012293664383888243,-0.04051971498019993,0.06734452047646046
1733859545348848400,1.400848388671875,0.023922142857313155,-0.03730287182554602,0.07752455370724201
1733859545358799400,1.41079931640625,0.012313538128137588,-0.01926379565745592,0.054339492952823636
1733859545368749300,1.420749267578125,0.01712006162703037,-0.029060967050492763,0.008761398604512215
1733859545378700300,1.4307001953125,0.02107552125453949,-0.01919993664100766,-0.02685410465598106
1733859545388650500,1.440650390625,0.008560323074460028,-0.02335880988612771,-0.029140169766545293
1733859545398601200,1.450601318359375,0.0010743512332439423,-0.018947715445607898,0.01588964304924011
1733859545408551400,1.460551513671875,0.008696516674757003,-0.018246289177983998,0.062464347219467156
1733859545418502400,1.47050244140625,0.0434223776191473,-0.01366129947528243,0.07774608750343322
1733859545428452400,1.480452392578125,0.02306932542026043,-0.03848397136889398,0.07175824526548386
1733859545438403300,1.4904033203125,0.03878784968629479,-0.04564911375790834,0.05951368072032928
1733859545448353300,1.500353271484375,0.013498948520421982,-0.035221170180663466,0.052559623798727986
1733859545458304500,1.510304443359375,0.025116321077942847,-0.04170483311153948,0.045450668576359744
1733859545468254200,1.520254150390625,0.007902151426672934,-0.03517652732133865,0.05405716888010501
1733859545478205400,1.530205322265625,0.008870704197883605,-0.040111937896907326,0.05366086303889751
1733859545488155400,1.5401552734375,0.015316227075457572,-0.03761602942794561,0.06374503467977047
1733859545498106400,1.5501064453125,0.03563552313521504,-0.0330503289476037,0.06229658943712711
1733859545508056300,1.560056396484375,0.035628655003011225,-0.04138100798465311,0.03965513404011726
1733859545518007300,1.57000732421875,0.04586114907339215,-0.03057590165808797,-0.0008522329151630402
1733859545527957500,1.57995751953125,0.037272622817754744,-0.009338321709632873,-0.028244682231545446
1733859545537907500,1.589907470703125,0.004415186093747615,-0.005816577324271202,-0.031605098575353624
1733859545547858200,1.599858154296875,0.008212532550096512,0.0003039513826370239,0.0129752169072628
1733859545557808400,1.609808349609375,0.03830898012816906,-0.008873261481150984,0.06731529438197613
1733859545567759400,1.61975927734375,0.03607552198767662,-0.026888883708417414,0.09195230751037597
1733859545577709300,1.629709228515625,0.015770985105633736,-0.028017157085984942,0.08540916947722435
1733859545587660300,1.639660400390625,0.018792671014368535,-0.03154138568937778,0.052965866512060165
1733859545597610200,1.6496103515625,0.009143675920367241,-0.03733560505136847,0.019988895061612128
1733859545607561500,1.6595615234375,0.013717705837637185,-0.05361629324480891,-0.01324585054218769
1733859545617511200,1.66951123046875,0.007539163333177566,-0.06456468049958348,0.012045827102661132
1733859545627462400,1.67946240234375,0.00911444982588291,-0.037830183635279534,0.053154082560539245
1733859545637412400,1.689412353515625,0.00976502268910408,-0.022625600240752098,0.061897360986471174
1733859545647363300,1.69936328125,0.037609453556686635,-0.026207185054570436,0.0471913747638464
1733859545657313300,1.709313232421875,0.038323885436356064,-0.02766812445260584,0.02992635170817375
1733859545667264500,1.719264404296875,0.032841946893930433,-0.005316445782408118,-0.012235212194919586
1733859545677214500,1.72921435546875,0.0327694661796093,0.003543737021461129,-0.024034371060132977
1733859545687165200,1.739165283203125,0.0237307119384408,0.0034609541088342663,0.010123334607481957
1733859545697115400,1.749115478515625,0.062086746078729625,-0.031436756271123883,0.05967734684944152
1733859545707066400,1.75906640625,0.030245500659942626,-0.04093910943605005,0.022740824118256567
1733859545717016600,1.7690166015625,0.03747545191347599,-0.03003383067063987,0.06577449468076228
1733859545726967300,1.77896728515625,0.032416999480128286,-0.017746157636120915,0.09146072460114955
1733859545736917200,1.788917236328125,0.06290946063846349,-0.01900098000280559,0.06362813030183315
1733859545746868500,1.798868408203125,0.06882701411917805,-0.03987696009725332,0.022649054181575774
1733859545756818200,1.808818115234375,0.04245221741273999,-0.045637642515823244,0.005845218896865845
1733859545766769400,1.818769287109375,0.03189735952019691,-0.0278676656126976,-0.028828619599342343
1733859545776719400,1.82871923828125,0.03601765432059765,0.007707067245990037,-0.041626141852140426
1733859545786670300,1.83867041015625,0.02836231726184487,-0.023483166918158528,-0.04465162715315819
1733859545796620300,1.848620361328125,0.04184504529982805,-0.05110642931573093,0.0015840543210506439
1733859545806571300,1.8585712890625,0.004991816937923431,-0.038684316246584055,0.045936990788578984
1733859545816521500,1.868521484375,-0.0045054947257041926,-0.02682918941043317,0.08193184875547885
1733859545826472200,1.87847216796875,0.003081599402427673,-0.013350918351858854,0.09758125330805778
1733859545836422400,1.88842236328125,0.007508475933969021,-0.02459799629226327,0.12023206105530261
1733859545846373400,1.898373291015625,0.012323767261207102,-0.04201638327874243,0.08649404210448265
1733859545856323300,1.9083232421875,0.0223265442289412,-0.04234941462539136,0.04173953909873962
1733859545866274300,1.9182744140625,0.0074452014394104475,-0.01330444886162877,0.019219079732894898
1733859545876224300,1.928224365234375,-0.006375964772701263,-0.002597688343003392,-0.00139817636013031
1733859545886175500,1.938175537109375,-0.010661679267883301,-0.05952580954954028,0.038327100306749344
1733859545896125400,1.94812548828125,-0.009972527959942816,-0.11192337465435266,0.10049567945003508
1733859545906076400,1.958076416015625,0.008881517852842807,-0.1132731818281114,0.13363982416093348
1733859545916026400,1.9680263671875,0.01820990269035101,-0.08854702911153435,0.17494915514886378
1733859545925977300,1.977977294921875,0.03127031366303563,-0.0751070442367345,0.1624298653155565
1733859545935927300,1.98792724609375,0.03586246375888586,-0.06668554511107504,0.12760814278125762
1733859545945878300,1.997878173828125,0.024556933629512785,-0.04146744415909052,0.07030687741339206
1733859545955828500,2.007828369140625,0.04765080896914005,-0.03153174107819796,0.010386953979730605
1733859545965779200,2.017779296875,0.034248598821461196,-0.029755525185912846,-0.024149521872401235
1733859545975729200,2.027729248046875,0.005691051248461008,0.0005744388870894909,-0.022049919244647026
1733859545985680400,2.037680419921875,0.004235153351724147,-0.0038614977337419983,0.011077274331450462
1733859545995630300,2.04763037109375,0.006126666186749935,-0.0012698738053441047,0.026730186015367505
1733859546005581300,2.057581298828125,0.0027596739716827866,-0.017006518249958753,0.007678279542922974
1733859546015531300,2.06753125,0.031018823119997978,-0.019153101824596522,0.02389876198172569
1733859546025482500,2.077482421875,0.02751432213038206,-0.019347016961500048,0.010888473761081695
1733859546035432400,2.087432373046875,0.024316256741434335,-0.0294203749474138,-0.011685761618614196
1733859546045383400,2.097383544921875,0.028720190788805482,-0.03246449188366532,0.004517185163497924
1733859546055333400,2.10733349609375,0.016199439650774,-0.051658510240539905,0.05334639026224613
1733859546065284400,2.117284423828125,0.009000175796449184,-0.053445466722548005,0.08263444406688213
1733859546075234300,2.127234375,0.0012352408833801746,-0.03406169794723391,0.12096154437363148
1733859546085185300,2.137185302734375,-0.008573036425560713,-0.035407340402528645,0.135522569167614
1733859546095135500,2.147135498046875,-0.00850888514816761,-0.030249300052225588,0.12767536279857158
1733859546105086200,2.157086181640625,-0.011630670430511235,-0.033532632571831346,0.10797814415991305
1733859546115036200,2.1670361328125,-0.0028238252490758895,-0.03895034677162766,0.08322598021924495
1733859546124987400,2.1769873046875,0.011595745247602462,-0.020843612194806335,0.041701545175909994
1733859546134937300,2.186937255859375,0.01960208770111203,-0.022279051825404166,0.01716156268119812
1733859546144887600,2.196887451171875,0.019042115730792283,-0.03965937182381749,-0.0032797523230314253
1733859546154838300,2.20683837890625,0.0009723521634936332,-0.05237425729446113,0.0129272861123085
1733859546164788200,2.216788330078125,-0.0012565759323537348,-0.058804436472430825,0.061308162921667096
1733859546174739500,2.226739501953125,-0.008007073105871678,-0.04794708850197494,0.06633797378242015
1733859546184689400,2.236689453125,0.018318623761832714,-0.054692032717540855,0.04819032267332077
1733859546194640400,2.246640380859375,0.03954889718666672,-0.04804667641893029,0.05562485658824443
1733859546204590300,2.25659033203125,0.018146482065320015,-0.0176596483964473,0.053474400556087494
1733859546214541300,2.266541259765625,0.03155541421473026,-0.026963483314588664,0.04435878168642521
1733859546224491300,2.2764912109375,0.04287292704284191,-0.04023483362421393,0.03127075205445289
1733859546234442200,2.286442138671875,0.04039572327435016,-0.046160058954730625,0.04053250139653682
1733859546244392400,2.296392333984375,0.04606646238714456,-0.036258038947731254,0.007939560827612876
1733859546254343200,2.30634326171875,0.034194822807610034,-0.045215179320052264,-0.012941899159550666
1733859546264293400,2.31629345703125,0.04503945742696523,-0.0477118915066123,-0.0049789574563503265
1733859546274244400,2.326244384765625,0.04500716259256005,-0.040319297037273646,-0.000886135184764862
1733859546284194300,2.3361943359375,0.02706877031996846,-0.016315905637294053,-0.01930734253823757
1733859546294145300,2.346145263671875,0.02865063268393278,-0.021812895618379114,0.011025251883268356
1733859546304095200,2.35609521484375,0.03828501473069191,-0.021528014262393116,0.06259177299141884
1733859546314046500,2.36604638671875,0.006914309433102607,-0.03289499225541949,0.08948562513589858
1733859546323996400,2.375996337890625,0.017238281179219484,-0.029094284798204896,0.11726093629002571
1733859546333947400,2.385947509765625,0.012075053197145462,-0.03787511875554919,0.11648059956729412
1733859546343897300,2.3958974609375,-0.00009995324313640594,-0.042788244434073565,0.12791618581712244
1733859546353848000,2.40584814453125,0.00936199484616518,-0.030351956709101794,0.12842471986114978
1733859546363798000,2.415798095703125,-0.003077215488255024,-0.01814180589020252,0.021080197429656982
1733859546373749000,2.4257490234375,-0.005941957269608974,-0.022764278059080243,-0.07965279790759086
1733859546383699200,2.43569921875,0.010641221001744269,-0.025105580488219856,-0.1567792922079563
1733859546393650200,2.445650146484375,0.018950784185528754,-0.01305946112461388,-0.1909738227546215
1733859546403600000,2.455599853515625,0.056530280995368956,-0.001674801344424486,-0.16561667865812776
1733859546413551000,2.465551025390625,0.05548807846605777,-0.005172653397545218,-0.12104396196007727
1733859546423501000,2.4755009765625,0.04449497528672218,-0.018602774465456603,-0.11159282752573489
1733859546433452000,2.4854521484375,0.05280220038294792,-0.02559153737425804,-0.09306874431967735
1733859546443402000,2.495402099609375,0.06269727919250727,-0.025246523328870535,-0.047644379228353496
1733859546453353200,2.505353271484375,0.05935659046247601,-0.01356909114718437,-0.01316343295574188
1733859546463303200,2.51530322265625,0.0580326483823359,-0.033933030066266655,0.05116437004804611
1733859546473254100,2.525254150390625,0.0638674920156598,-0.03174640674218535,0.10091068999171257
1733859546483204000,2.5352041015625,0.052258595025539395,-0.033131431359797715,0.1302887601673603
1733859546493155000,2.545155029296875,0.03952244757115841,-0.051079395178332924,0.1696317595183849
1733859546503105300,2.555105224609375,0.04435205968469381,-0.05703033947199583,0.1937713445186615
1733859546513056000,2.565055908203125,0.01570142700076103,-0.05300897500142455,0.19892156688868998
1733859546523006200,2.575006103515625,-0.003369184172153473,-0.04097637270651758,0.15983225003778934
1733859546532957200,2.584957275390625,0.0003226560831069946,-0.025607027204334734,0.08854103776216507
1733859546542907000,2.594906982421875,0.013779519027471541,-0.028377587896212933,0.04068681517541408
1733859546552858000,2.604858154296875,0.001472118379175663,-0.019410656782239674,-0.010970306825637816
1733859546562808000,2.61480810546875,-0.007861234894394874,-0.008336305060237645,-0.028114918372035023
1733859546572759000,2.624759033203125,0.00010696750581264495,-0.009605594343692063,0.01570668769776821
1733859546582709000,2.634708984375,-0.01401274326145649,-0.019033274837210772,0.07996668616235256
1733859546592660200,2.64466015625,0.00635083033144474,-0.0747417911209166,0.15757482649981974
1733859546602610200,2.654610107421875,0.0065425535112619395,-0.07081424241364002,0.190254860830307
1733859546612561000,2.664560791015625,-0.008406301556527614,-0.05671966608762741,0.19101240119934082
1733859546622511000,2.674510986328125,0.0012533610619604586,-0.045330622393265366,0.13832125997543335
1733859546632462000,2.684462158203125,0.026034751097112892,-0.0426993971068412,0.0469517207890749
1733859546642412300,2.694412353515625,0.04254632543697953,-0.036256212316825985,-0.054177580389380454
1733859546652363000,2.704363037109375,0.06855740339756011,-0.038518823486566545,-0.11929507246613502
1733859546662313000,2.71431298828125,0.015970599330961704,-0.02434511750973761,-0.07011573875546455
1733859546672264200,2.72426416015625,0.014313479773700236,-0.014262480238825082,0.053581952583789824
1733859546682214100,2.734214111328125,0.024449673862755296,-0.056457069628685706,0.13577216001451015
1733859546692164000,2.7441640625,0.01003039562702179,-0.076642875501886,0.1948211458325386
1733859546702115000,2.754114990234375,0.010243892247229814,-0.07393237443417311,0.21880407896637916
1733859546712065000,2.76406494140625,0.011198270362615585,-0.03429068439751863,0.18902385773062705
1733859546722016000,2.77401611328125,0.005050269126892089,-0.03836560568623244,0.1339654028534889
1733859546731967200,2.78396728515625,0.023461539608240125,-0.042639629743620754,0.04976268655657768
1733859546741917200,2.793917236328125,0.036034605455398556,-0.01706928128786385,-0.04489537278115749
1733859546751867100,2.8038671875,0.04243716597408056,0.008042948136851191,-0.09955284564197063
1733859546761818000,2.813818115234375,0.03807707106843591,0.022931524384766817,-0.11136077233552932
1733859546771768000,2.82376806640625,0.02576104872226715,-0.005697846315428614,-0.10267769966423511
1733859546781719300,2.83371923828125,0.004764730183780193,-0.022559110875800252,-0.06042085869312286
1733859546791669200,2.843669189453125,0.02058539965003729,-0.01765416850373149,0.011410451808571816
1733859546801620000,2.853619873046875,0.012185820095241068,-0.025082638004049657,0.0644365240752697
1733859546811570200,2.863570068359375,0.035417496470361944,-0.040004093608260155,0.09296996012032031
1733859546821521200,2.873521240234375,0.022916911337524652,-0.06986234851628542,0.0986649568915367
1733859546831471000,2.88347119140625,0.0010877952367067335,-0.06388663510754704,0.11877192537486553
1733859546841422000,2.893422119140625,0.015346037691831588,-0.037710137452185155,0.11648702930808066
1733859546851372000,2.9033720703125,0.028982348856329915,-0.01578311393484473,0.03288753960132599
1733859546861323000,2.913322998046875,0.062320116443186996,-0.014128697791323065,-0.09708031804859638
1733859546871273000,2.92327294921875,0.06788301126733422,-0.005442921706289052,-0.15212006822526453
1733859546881224200,2.93322412109375,0.04716054123416543,-0.027724311619251964,-0.08733984527885913
1733859546891174100,2.943174072265625,0.007155863104015588,-0.013877280313521622,0.023576105898618697
1733859546901125000,2.953125,-0.028813860421627757,-0.017253478748351335,0.15322481459677217
1733859546911075000,2.963074951171875,0.0016197101563215255,-0.038520942378416655,0.1933142484009266
1733859546921026000,2.973026123046875,0.0008387889117002486,-0.05965878827944398,0.21567279520332813
1733859546930976300,2.982976318359375,0.002979600332677364,-0.04318922645039856,0.15697569156289098
1733859546940927000,2.992927001953125,0.016654197680950163,-0.037885420953854915,0.0524631776869297
1733859546950877200,3.002877197265625,0.02270633732676506,-0.03907258491180837,-0.02439034489095211
1733859546960828200,3.012828125,0.04133884934335947,-0.03179959823414683,-0.05996785422861576
1733859546970778000,3.022778076171875,0.04928337860703468,-0.030131738087162373,-0.04697977783977985
1733859546980729000,3.03272900390625,0.04662438853085041,-0.01970415983609855,-0.02477028411924839
1733859546990679000,3.042678955078125,0.021337387061119078,-0.015056626291200517,-0.03263970232009888
1733859547000630000,3.052630126953125,0.028564123444259164,-0.005318053217604756,-0.0132236387103796
1733859547010580000,3.062580078125,0.034921383516490455,-0.007788681114837527,-0.008261047866940497
1733859547020531200,3.07253125,0.028107027326524255,0.00129252402856946,0.0034089316606521606
1733859547030481200,3.082481201171875,0.04447539380341768,-0.03477503384836018,0.03142506583333015
1733859547040432000,3.09243212890625,0.038771483073383566,-0.05149973948225379,0.07587561745643616
1733859547050382000,3.102382080078125,0.011552636758238076,-0.06389467228353023,0.11974924597442149
1733859547060333000,3.1123330078125,-0.0029758009403944015,-0.06174772338271141,0.18191607155203818
1733859547070283300,3.122283203125,-0.01068038396835327,-0.0568998449601233,0.1888648677766323
1733859547080234000,3.13223388671875,0.021117752961069346,-0.0396007004391402,0.13418109143078327
1733859547090184200,3.14218408203125,0.03646671326234936,-0.029516747993975877,0.05685118351280689
1733859547100135200,3.15213525390625,0.018280629839003085,-0.017328005289286373,-0.018183891466259955
1733859547110085000,3.162085205078125,0.04378653475642204,-0.015325579425692558,-0.04050269078016281
1733859547120036000,3.1720361328125,0.024437252772599456,-0.028048282876610754,-0.06756254714131354
1733859547129986000,3.181986083984375,0.015975567767024038,-0.04255092854686081,-0.028414778101444244
1733859547139937300,3.191937255859375,0.02215878644660115,-0.06399272583052516,0.02886719804406166
1733859547149887000,3.201886962890625,0.014215572357177733,-0.06426299413926899,0.06827157219350338
1733859547159838200,3.211838134765625,0.01150938213840127,-0.04545088777206838,0.11500117466449737
1733859547169788200,3.2217880859375,0.007177928805351257,-0.03107340285144746,0.0953974795281887
1733859547179739000,3.23173876953125,0.01187865384221077,-0.025817747345566747,0.05305412931740284
1733859547189689000,3.241689208984375,0.03524199377298355,-0.030920477312058207,0.003413607835769653
1733859547199640000,3.25164013671875,0.03987988270670175,-0.027567732818052172,-0.026328619477152822
1733859547209590300,3.26159033203125,0.03663724752366543,-0.018859671835973858,-0.030748774006962774
1733859547219541000,3.271541015625,0.029689035820960996,-0.028078531884402035,-0.006787468183040619
1733859547229491000,3.281490966796875,0.020271219134330748,-0.021915333079546687,0.04678396300673485
1733859547239442200,3.291442138671875,0.023404256463050842,-0.02585946759544313,0.07274258012771606
1733859547249392000,3.30139208984375,0.040886721661686894,-0.035901992051675914,0.06285539236366748
1733859547259343000,3.311343017578125,0.033925650477409364,-0.03360752443894744,0.06452186427116394
1733859547269293000,3.32129296875,0.03073591452538967,-0.023642376067861914,0.056175476208329196
1733859547279244300,3.331244384765625,0.012337503525614737,-0.027182679023221135,0.04511982918679714
1733859547289194000,3.341194091796875,0.02267974158078432,-0.011930018703266978,0.045264206093549725
1733859547299145000,3.35114501953125,0.029539982739090916,-0.03550444410145283,0.05284779309034347
1733859547309095200,3.36109521484375,0.05792231987565755,-0.040089799130335446,0.06098609136044979
1733859547319046100,3.371046142578125,0.03453267645984888,-0.04485343333557248,0.06107201607823372
1733859547328996000,3.38099609375,0.009155512488633393,-0.05090725348182022,0.06435878266394138
1733859547338946000,3.390946044921875,0.0174510471470654,-0.04509951705113053,0.04889993224740028
1733859547348897500,3.4008974609375,-0.0012146364867687224,-0.04196194967776537,0.06650456252098083
1733859547358847500,3.410847412109375,-0.000019289222359657286,-0.054860740347951645,0.09101414987742901
1733859547368798500,3.420798583984375,0.010272972211241722,-0.03907565365172922,0.09349953695237637
1733859547378748400,3.43074853515625,0.000002922609448432922,-0.04527377763949334,0.050851650837063785
1733859547388699600,3.44069970703125,0.0035177988626062867,-0.042937443646416065,0.005986088672280311
1733859547398649300,3.4506494140625,0.02020122263804078,-0.02339446572139859,-0.036307577177882196
1733859547408600600,3.4606005859375,0.02069733559191227,-0.01813639906272292,-0.05642623609900474
1733859547418550500,3.470550537109375,0.03962473890185356,-0.023493322985991834,-0.018639234018325804
1733859547428501200,3.480501220703125,0.042676235426962375,-0.035489173467084766,0.0686889208227396
1733859547438451500,3.490451416015625,0.017784663015604017,-0.04039601553529501,0.12510054387450217
1733859547448402400,3.50040234375,0.012878916925936937,-0.041025253349542615,0.1623959630459547
1733859547458352600,3.5103525390625,0.0293589270837605,-0.05239318119063973,0.16173369974493979
1733859547468303400,3.520303466796875,-0.013261048111319541,-0.04524520913213491,0.1556032341659069
1733859547478253300,3.53025341796875,-0.0035948096215724945,-0.021290844505652783,0.12683891197443006
1733859547488204500,3.54020458984375,0.016599544884264468,-0.03114069593399763,0.0755120448410511
1733859547498154500,3.550154541015625,0.029744711530953642,-0.03806501530446112,0.03517944993078709
1733859547508105500,3.56010546875,0.015069704968482254,-0.028236206664144992,0.011842413485050201
1733859547518055400,3.570055419921875,0.04163213320150971,-0.027081483671069145,0.003062310180068016
1733859547528006700,3.580006591796875,0.04620192533507943,-0.026684739438444374,-0.016192425388097762
1733859547537956400,3.589956298828125,0.0366438233949244,-0.02173858827315271,-0.05262099859714508
1733859547547907300,3.5999072265625,0.052312955561280246,0.010371318019181489,-0.0598918663829565
1733859547557857500,3.609857421875,0.03529708496108651,0.0003805237501859665,-0.09458148697018623
1733859547567808500,3.61980859375,0.02783756273537874,0.0046847237501293415,-0.0949748702019453
1733859547577758500,3.629758544921875,0.036921909683942794,-0.016165975772589443,-0.061462476700544354
1733859547587709400,3.63970947265625,0.023970365913212298,-0.03656571665741503,-0.007337503281235695
1733859547597659600,3.64965966796875,0.022093466125428677,-0.043666342442855235,0.04968669871091842
1733859547607610400,3.6596103515625,0.023562954156100747,-0.061011006605997675,0.11694237186014651
1733859547617560300,3.669560302734375,0.03657791855186224,-0.04947166772074997,0.12511632596552372
1733859547627511600,3.679511474609375,0.027030045744776725,-0.056575581441819664,0.08525602474212646
1733859547637461500,3.68946142578125,0.023581951117515564,-0.03487184528633952,0.050961540952324864
1733859547647412500,3.69941259765625,0.01220554770901799,-0.043793914345279336,0.07095803479850292
1733859547657362400,3.709362548828125,-0.005415595307946205,-0.04302987117022276,0.13403729904592038
1733859547667313700,3.719313720703125,0.006611673224717379,-0.041901232466474175,0.1553992360264063
1733859547677263600,3.729263671875,0.0173585465580225,-0.056462111129984255,0.14109014016687868
1733859547687214300,3.73921435546875,0.016388824743032455,-0.046087066783756014,0.08362754675745963
1733859547697164500,3.74916455078125,0.03375701591223478,-0.04134396390989423,0.018250526961684225
1733859547707115500,3.759115478515625,0.01597206063568592,-0.02971343960985541,-0.0031336218506097793
1733859547717065500,3.7690654296875,0.02182312475144863,-0.03169621092490852,0.021854688933491705
1733859547727016400,3.779016357421875,0.009275193345546722,-0.038191418163105846,0.050129766303300856
1733859547736966400,3.78896630859375,0.0037210663497447964,-0.051521732118353245,0.056824880027770995
1733859547746917400,3.79891748046875,0.010664163485914467,-0.026241160389408467,0.04107318414449691
1733859547756867300,3.808867431640625,0.020300006837397813,-0.027213950944319366,0.032466683840751645
1733859547766818600,3.818818603515625,0.013902853146195411,-0.030488734831288455,0.014446458503603935
1733859547776768500,3.8287685546875,0.01846753071323037,-0.03496858365908265,0.03569616728127002
1733859547786719500,3.838719482421875,0.005797580362856387,-0.044371348907053465,0.05775777696371078
1733859547796669400,3.84866943359375,0.011757365550100802,-0.04903408002108335,0.05489595779180526
1733859547806620400,3.858620361328125,0.021608605217933653,-0.03584660860262811,0.0511561867415905
1733859547816570600,3.868570556640625,0.02037263368219137,-0.013895546622574329,0.04570785820782184
1733859547826521300,3.878521240234375,0.03396028339937329,-0.013224369362741708,0.032250995263457295
1733859547836471600,3.888471435546875,0.04621244672909379,-0.005981777823343873,0.01708791292309761
1733859547846422500,3.898422607421875,0.03553220889121294,-0.004619476494193077,0.0009738134682178497
1733859547856372500,3.90837255859375,0.03587649228423834,-0.018958017643913624,0.01922843208312988
1733859547866323500,3.918323486328125,0.028703531914949416,-0.030132468739524482,0.030671617117524145
1733859547876273400,3.9282734375,0.010849310794472693,-0.048499242492020124,0.018559154519438743
1733859547886223600,3.9382236328125,0.02160042191147804,-0.06196538472138345,0.04454933582246303
1733859547896174300,3.94817431640625,0.008850245931744575,-0.07123327154330909,0.062007835623621936
1733859547906124300,3.958124267578125,0.011737784066796302,-0.06470014344751834,0.05044307003617286
1733859547916075500,3.968075439453125,0.011822832001745701,-0.05055127965100109,0.013351064482331275
1733859547926025500,3.978025390625,0.020419979955255983,-0.030688568252325056,0.03091068657040596
1733859547935976400,3.9879765625,0.02033084036707878,-0.01971950353570282,0.03024082448482513
1733859547945926400,3.997926513671875,0.024428338813781737,-0.01920877753458917,0.031028759992122647
1733859547955877600,4.007877685546875,0.0161461020283401,-0.012247633285075426,0.013649170646071433
1733859547965827600,4.01782763671875,0.015091624539345502,-0.003964081325381994,0.041030514046549796
1733859547975778600,4.027778564453125,0.0030200784735381603,-0.011052651346847414,0.07458557764589786
1733859547985728500,4.037728515625,0.023484335961937903,-0.01994732094220817,0.09667758246660232
1733859547995679500,4.047679443359375,0.0356798006683588,-0.03443520743474364,0.059064767909049985
1733859548005629400,4.05762939453125,0.026319851648807523,-0.025131226386129853,0.008334113103151321
1733859548015580400,4.067580322265625,0.025914777979254722,-0.02708988617323339,-0.015503858602046965
1733859548025530600,4.077530517578125,0.04039879201427102,-0.031076763852313158,-0.039542321315407754
1733859548035481300,4.0874814453125,0.01945171944499016,-0.017066943200305103,-0.016625556108355522
1733859548045431300,4.097431396484375,0.002873509609699249,-0.02476392744369805,0.03200724963545799
1733859548055382500,4.107382568359375,0.027128245422244072,-0.020523148068785666,0.07197568740844726
1733859548065332500,4.11733251953125,0.038254765722900624,-0.03604015841335058,0.0640530777156353
1733859548075283500,4.127283447265625,0.03381707553640008,-0.05296557425111532,0.08039338714182376
1733859548085233400,4.1372333984375,0.013962182117998599,-0.04324219874665141,0.08434533963799476
1733859548095184600,4.1471845703125,0.006076835695654153,-0.037352410055696963,0.08566577458679675
1733859548105134600,4.157134521484375,0.014063742796331644,-0.027187136002629994,0.07476561038792133
1733859548115085300,4.167085205078125,0.013793109161406754,-0.02620945007689297,0.04131517620682716
1733859548125035500,4.177035400390625,0.03775383046343923,-0.023435893710330127,0.04722118538022041
1733859548134986500,4.186986572265625,0.020960516572743653,-0.03262187440246343,0.027206571355462072
1733859548144936400,4.1969365234375,0.019485037192702292,-0.0345746889706701,0.016392331874370576
1733859548154887400,4.206887451171875,0.007338818455487489,-0.033225393253564835,0.03710194242596626
1733859548164837400,4.21683740234375,0.011885083582997322,-0.05786474446952343,0.055176528298854825
1733859548174788400,4.226788330078125,0.024723083976656197,-0.05600640325173735,0.09985387441515922
1733859548184738300,4.23673828125,0.02008767926096916,-0.040257264651730656,0.1068827501386404
1733859548194689500,4.246689453125,0.02394844634234905,-0.021762188344448805,0.07062018114626407
1733859548204639500,4.256639404296875,0.046285950356721874,-0.02475179861448705,0.01783376285433769
1733859548214590500,4.266590576171875,0.02891352140381932,-0.03161583916507661,-0.00810322695672512
1733859548224540400,4.27654052734375,0.007323474755883216,-0.01544657545685768,-0.015029811349511146
1733859548234491600,4.28649169921875,0.012538579055666924,-0.026742241779342292,0.010833528703451155
1733859548244441600,4.296441650390625,0.0323772519916296,-0.026976927318051454,0.04149170181751251
1733859548254392300,4.306392333984375,0.02602393744215369,-0.026591362066566943,0.03633212709724903
1733859548264342500,4.316342529296875,0.04995543264970183,-0.01818162644393742,0.024054244804382324
1733859548274293500,4.32629345703125,0.02276069786250591,-0.011875950428470968,0.013327683606743811
1733859548284243500,4.336243408203125,0.01184767418205738,-0.020241846909373997,-0.009705985978245735
1733859548294194400,4.3461943359375,0.009904723420739173,-0.03435512793585658,-0.001620294678211212
1733859548304144400,4.356144287109375,0.02351984566673636,-0.030562165393680334,0.05138005862534046
1733859548314095600,4.366095703125,0.03729015847444534,-0.035812121811136605,0.09663666593432425
1733859548324045300,4.37604541015625,0.03634498657882213,-0.057882353191450235,0.10316752900779247
1733859548333996500,4.38599658203125,0.016146394289284945,-0.045005701287835834,0.07740472671985625
1733859548343946500,4.395946533203125,0.022928601775318382,-0.0317757789671421,0.05917699611186981
1733859548353900500,4.405900634765625,0.02022343446984887,-0.037598786032199856,0.0549292755395174
1733859548363850500,4.4158505859375,0.01451090204194188,-0.03173493550010025,0.06703706196248531
1733859548373801700,4.4258017578125,0.0025574293978512285,-0.03470423363447189,0.045617257314920424
1733859548383751700,4.435751708984375,0.010683452708274125,-0.02209470823444426,0.038437574943900106
1733859548393701600,4.44570166015625,0.026317075169831512,-0.02318849482052028,0.04665653723478317
1733859548403652600,4.455652587890625,0.03305500512272119,-0.0429255340129137,0.04542436509132385
1733859548413603600,4.465603515625,0.021578940732032058,-0.04669701537564397,0.04085866461098194
1733859548423553800,4.4755537109375,0.016308160722255705,-0.03991305432394147,0.027443887242674825
1733859548433503700,4.485503662109375,0.03507189790308475,-0.04593267993964255,0.011116437298059462
1733859548443454500,4.495454345703125,0.04572787808254361,-0.040135537968203426,0.012692892834544181
1733859548453404700,4.50540478515625,0.03806874163150787,-0.04579984734021127,0.03463701361715794
1733859548463355600,4.515355712890625,0.037792847299575806,-0.041743557686731214,0.03428863857090473
1733859548473305600,4.5253056640625,0.026652006212621926,-0.026116291900724172,0.034682021802663804
1733859548483256600,4.535256591796875,0.019075287348031995,-0.026986644994467495,0.04519347894489765
1733859548493206500,4.54520654296875,0.02695581146478653,-0.014014131500944495,0.03302081059217453
1733859548503157500,4.555157470703125,0.03472644546627998,-0.0200521695561707,0.01720773991048336
1733859548513107500,4.565107421875,0.015740005445480345,-0.02482091832794249,0.030462358281016347
1733859548523058700,4.57505859375,0.017299509847164152,-0.022678645602241157,0.022843699970841406
1733859548533008600,4.585008544921875,-0.002966886981576681,-0.019235884737223385,0.0626543168336153
1733859548542959600,4.594959716796875,0.007340572021156549,-0.016341040078550577,0.1087608189702034
1733859548552909600,4.60490966796875,0.0011246201157569884,-0.024592370269075035,0.11499065327048301
1733859548562860500,4.614860595703125,0.017538579300045966,-0.02207797629535198,0.10030804792344569
1733859548572810800,4.624810791015625,0.026959903118014335,-0.015235928380861878,0.05556698892116546
1733859548582761500,4.634761474609375,0.013339812435954808,-0.02591989254578948,0.006903203517198562
1733859548592711700,4.644711669921875,0.0207657246530056,-0.027319237949699163,-0.01281798051893711
1733859548602662700,4.65466259765625,0.026080197674036024,-0.02454305123463273,-0.039671500653028484
1733859548612612600,4.664612548828125,0.02022621094882488,-0.04976721660122275,-0.027706922093033787
1733859548622563600,4.6745634765625,0.012821049258857964,-0.054683703280612825,0.0379541753411293
1733859548632513500,4.684513427734375,0.02394566986337304,-0.049773207950592036,0.09614508302509785
1733859548642464500,4.694464599609375,0.02806304205432534,-0.026842779544368384,0.09721768069267273
1733859548652414500,4.70441455078125,0.025815993779897687,-0.027993483949452638,0.08307049739658832
1733859548662365700,4.71436572265625,0.02073766760230064,-0.03717537298835814,0.07932312756180762
1733859548672315600,4.724315673828125,0.011787468427419661,-0.027051746119931337,0.0687894585877657
1733859548682266600,4.7342666015625,-0.008021978414058686,-0.02161627706773579,0.05396949059665203
1733859548692216600,4.744216552734375,0.018717706082016228,-0.0099089612044394,0.046602761220932
1733859548702167600,4.75416748046875,0.041014293564110994,-0.000475289361551404,0.011837152788043022
1733859548712117800,4.76411767578125,0.06039397068619728,-0.011375307429954408,-0.03884849383234978
1733859548722068500,4.774068359375,0.042137598505616186,-0.019292802556231618,-0.05542261201441288
1733859548732018700,4.784018798828125,0.02463350599706173,-0.02194207495599985,-0.04948386961519718
1733859548741969700,4.7939697265625,0.020807371837645767,-0.02212583402507007,0.0023889409631490705
1733859548751919600,4.803919677734375,0.015991495988517998,-0.03377959307022393,0.041293548896908755
1733859548761870600,4.81387060546875,0.013092121285200119,-0.03059760203324258,0.07227554713785649
1733859548771820500,4.823820556640625,0.01978489692211151,-0.02828209163248539,0.07466098096966743
1733859548781771800,4.833771728515625,0.02405848258808255,-0.05376615004427731,0.08052373552322387
1733859548791721500,4.843721435546875,0.024179770880192516,-0.05135149011798203,0.0726449649721384
1733859548801672700,4.853672607421875,0.010493921485543251,-0.04650317330397665,0.07158230417668819
1733859548811622700,4.86362255859375,-0.001169043779373169,-0.03780636436827481,0.09527414540946483
1733859548821573400,4.873573486328125,0.009926789122074842,-0.02537760236263275,0.10375614255070685
1733859548831523600,4.883523681640625,0.023493542181700466,-0.02183532664589584,0.07657002946138382
1733859548841474600,4.893474609375,0.023211364239454267,-0.013246946520730852,0.06277239025533199
1733859548851424800,4.9034248046875,0.014068272840976715,-0.004685235206782818,0.027510522738099098
1733859548861375500,4.91337548828125,0.005052607214450836,0.004586158746480941,0.0011140987217426299
1733859548871325400,4.923325439453125,0.008226122684031724,-0.02550188632942736,0.009703647890686989
1733859548881276700,4.933276611328125,0.012432342202216387,-0.05172631477974355,0.01610533162653446
1733859548891226600,4.9432265625,0.015448475152999162,-0.048645372964441776,0.07132569906711578
1733859548901177600,4.953177490234375,0.017266922751814125,-0.039426585981249804,0.08858078525066375
1733859548911127600,4.96312744140625,0.0051491994567215435,-0.044379313017800445,0.06724982793033123
1733859548921078800,4.973078857421875,0.02767711147665977,-0.02511917062215507,0.06870294934809207
1733859548931028500,4.983028564453125,0.015247253492474555,-0.04566672247983515,0.04087210861444473
1733859548940979500,4.9929794921875,0.022058102551102635,-0.035317835488170385,0.03954641296863556
1733859548950929700,5.0029296875,0.015724077223986388,-0.012447028314694762,0.045723055776953694
1733859548960879600,5.012879638671875,0.008262801432609558,-0.0014914076015353202,0.005093523746728897
1733859548970830600,5.02283056640625,0.03208338361158967,-0.02445946460440755,-0.03812602477669716
1733859548980780500,5.032780517578125,0.0482074199385941,-0.02287577560953796,-0.018462708407640457
1733859548990731500,5.0427314453125,0.033599487262964245,-0.032557138603180644,-0.00015197569131851195
1733859549000681700,5.052681640625,0.004771306055039167,-0.026494185302406548,0.044375732821226116
1733859549010632400,5.062632568359375,0.009460340654104947,-0.02710340324193239,0.08328150979876518
1733859549020582700,5.072582763671875,0.03801905727088451,-0.05226546315774321,0.09205869049429893
1733859549030533600,5.08253369140625,0.027536680092662573,-0.03255845377743244,0.08999065204858779
1733859549040483800,5.09248388671875,0.015924860493093728,-0.027151772428303956,0.05984218202233314
1733859549050434600,5.1024345703125,0.009046206895262003,-0.018905776000022887,0.023567922592163084
1733859549060384500,5.112384521484375,0.007935469174385071,-0.023219109154492615,0.01685118155777454
1733859549070335700,5.122335693359375,0.023332068009674547,-0.01448613292686641,-0.014839841735363006
1733859549080285400,5.132285400390625,0.011066168415546416,-0.017340426379442213,-0.01699848107397556
1733859549090236700,5.142236572265625,0.021074498341232536,-0.018815248172357676,0.02635492296218872
1733859549100186600,5.1521865234375,0.02165726666525006,-0.019045842057839036,0.07681611317694187
1733859549110137600,5.1621376953125,0.020705665028840303,-0.03506714866273105,0.11390987229645251
1733859549120087600,5.172087646484375,0.026390140406042335,-0.03559314529821277,0.09752923085987568
1733859549130038500,5.18203857421875,0.0029502281077206133,-0.05352649606950581,0.07209083822071552
1733859549139988700,5.19198876953125,0.01632102020382881,-0.043943771144747734,0.08859247568845749
1733859549149939500,5.201939453125,0.011156330917030572,-0.04165025338008999,0.07220306642353534
1733859549159889700,5.2118896484375,0.014740911405533552,-0.032139570778235795,0.03947802390754223
1733859549169840600,5.221840576171875,0.02322247015535831,-0.03400580304153263,0.007287234398722648
1733859549179790600,5.23179052734375,0.022093758386373518,-0.026910218757390976,-0.04148819468617439
1733859549189741600,5.241741455078125,0.022655483922362326,-0.01173668808825314,-0.026867548659443855
1733859549199691500,5.25169140625,0.0379946534819901,0.0013373130183666944,-0.012459084078669547
1733859549209642800,5.261642822265625,0.03413958548903465,-0.019556348863244057,0.008860767325758934
1733859549219592400,5.271592529296875,0.019368132814764974,-0.025125308101996778,0.03298515475690365
1733859549229543700,5.281543701171875,0.016188333734869956,-0.043374154563248155,0.07006956152617931
1733859549239493600,5.29149365234375,0.02048164701461792,-0.04048763934150338,0.10499942061007023
1733859549249444600,5.301444580078125,0.006399491778761148,-0.047305210401862856,0.10617781673967838
1733859549259394600,5.31139453125,0.019071780216693878,-0.04191796440556645,0.0686404055058956
1733859549269345500,5.321345458984375,0.016516835036873817,-0.038632878320291636,0.03706628659069538
1733859549279295700,5.331295654296875,0.007575988212227821,-0.012775968008115887,0.016463059023022652
1733859549289246500,5.34124658203125,0.011711626712232828,-0.00890570244602859,0.041220483660697936
1733859549299196400,5.351196533203125,0.028182284519821403,0.0008091974910348653,0.058770753398537635
1733859549309147600,5.361147705078125,0.02517433487549424,-0.016791121933609245,0.035711364850401876
1733859549319097600,5.37109765625,0.046267245656251905,-0.009625395022705197,0.008875964894890785
1733859549329048600,5.381048583984375,0.03327215500473976,-0.010318857179582119,-0.016370120042562483
1733859549338998500,5.39099853515625,0.0031881285168230532,-0.03148322576135397,-0.012142857736349105
1733859549348946400,5.400946533203125,0.0015378770917654036,-0.04777750408872962,0.02827098571658134
1733859549358896000,5.410896240234375,0.006079758305102587,-0.056012613796815276,0.05548632490038871
1733859549368847400,5.420847412109375,0.008629442787915468,-0.06151837160624563,0.05817220298349857
1733859549378797300,5.43079736328125,0.018353548944741487,-0.0485942272990942,0.08961831160485743
1733859549388748300,5.440748291015625,0.013978402600437402,-0.05141849093958735,0.12309797188043593
1733859549398698200,5.4506982421875,0.00811564804688096,-0.025835502197965977,0.10085925206542014
1733859549408649500,5.4606494140625,0.002171498820185661,-0.02493994159772992,0.07299334001839161
1733859549418599400,5.470599365234375,0.014690058001130818,-0.015004019321128725,0.048536359632015226
1733859549428550100,5.480550048828125,0.012997574869543314,-0.020985431818291544,0.020184709894657135
1733859549438500400,5.490500244140625,0.00423266913369298,-0.015915800403803585,0.0021498715102672575
1733859549448451300,5.500451416015625,0.017948475275188683,-0.017862769753113388,0.029001638078689572
1733859549458401500,5.510401611328125,0.027140081990510222,-0.027312515947967766,0.036226913157105446
1733859549468351500,5.5203515625,0.02455196519345045,-0.03825951496325433,0.03729366560578346
1733859549478302200,5.53030224609375,0.035075551164895295,-0.02764642407745123,0.016467735198140144
1733859549488252400,5.54025244140625,0.0370947820328176,-0.01511449395827949,0.015017536389827727
1733859549498203400,5.550203369140625,0.04873217446506023,-0.015611118368804454,0.007653729623556137
1733859549508153300,5.5601533203125,0.024877982277423143,-0.035103973541781304,0.03528115673959255
1733859549518104300,5.570104248046875,0.013923895934224127,-0.02977905219197273,0.05472761548757553
1733859549528054300,5.58005419921875,0.025776684682816266,-0.040623175354674454,0.0666150371581316
1733859549538005200,5.590005126953125,0.01594824136868119,-0.020438830786198375,0.08541735278367996
1733859549547955200,5.599955078125,0.012482026562839746,-0.03508190784044563,0.07115384963154793
1733859549557906400,5.609906494140625,0.016419804403185842,-0.01907455669566989,0.043300212544202805
1733859549567856400,5.6198564453125,0.03324292891025543,-0.01838314036540687,0.03620996202230453
1733859549577807400,5.629807373046875,0.03155205321386456,-0.013262290220335125,0.005940495964884758
1733859549587757300,5.63975732421875,0.020128011271357535,-0.017488675743713974,0.00031330373287200925
1733859549597708500,5.64970849609375,0.022498247534036633,-0.026512963068112728,0.015514379996061324
1733859549607658500,5.659658447265625,0.030564211220294235,-0.03427504843696952,0.00845744722187519
1733859549617609200,5.669609130859375,-0.001381663616746664,-0.036407530421018595,0.036377135282754894
1733859549627559400,5.679559326171875,0.016111761367321013,-0.05714592867568135,0.08416063072085381
1733859549637510400,5.689510498046875,0.009211480459570884,-0.06475888789743185,0.10633037695288658
1733859549647460400,5.69946044921875,0.004522884251922369,-0.06219897428154945,0.13012918569147586
1733859549657411300,5.709411376953125,0.01431917886212468,-0.051680722072347994,0.11261632535457611
1733859549667361300,5.719361328125,0.005779752445220947,-0.0455414886649698,0.11032558406889438
1733859549677312300,5.729312255859375,0.0038999300479888913,-0.02520619131848216,0.07862579294741154
1733859549687262200,5.73926220703125,0.0006869593508541583,-0.023585092922672628,0.04512625892758369
1733859549697213400,5.74921337890625,0.017069938874989747,-0.0068717124003916975,0.01499649360179901
1733859549707163400,5.759163330078125,0.031806027974933385,-0.0023009704187512397,-0.030962124496698377
1733859549717114400,5.7691142578125,0.035986528529971834,-0.019257658177614212,-0.03749649470150471
1733859549727064300,5.779064208984375,0.03002498977705836,-0.016638561720401047,-0.032410569739341734
1733859549737015300,5.789015380859375,0.03930442090630531,-0.00023943477906286715,0.01748831041753292
1733859549746965500,5.798965576171875,0.03773483350202441,-0.022165435383096337,0.04808101707994938
1733859549756916200,5.808916259765625,0.01724061926677823,-0.04733209840878844,0.08084580708444118
1733859549766866400,5.818866455078125,0.007241057169437408,-0.04341390205174684,0.08072013487815856
1733859549776817400,5.8288173828125,0.01504427826628089,-0.031701471621915694,0.03370236311554908
1733859549786767400,5.838767333984375,0.022405893075466154,-0.022592136362567544,-0.020153730234503744
1733859549796718300,5.84871826171875,0.035440146693587304,-0.018228315129876136,-0.06552373479008675
1733859549806668300,5.858668212890625,0.03969546605050563,-0.005914996197447181,-0.08474982878565787
1733859549816619500,5.86861962890625,0.010138970568031072,-0.013159414367750286,-0.06236790110766887
1733859549826569200,5.8785693359375,0.023865298103541134,-0.023276465364918113,-0.034084055909514424
1733859549836520400,5.8885205078125,0.02080313405394554,-0.006848989111930132,-0.018177461725473402
1733859549846470400,5.898470458984375,0.026411913846433162,-0.020580431213974952,0.008884148201346398
1733859549856421000,5.908421142578125,0.028123978461325166,-0.03946421457789838,0.020062544819712636
1733859549866371300,5.918371337890625,0.01885024642050266,-0.03890248904190957,0.06662205142080783
1733859549876322300,5.928322265625,0.02007891143262386,-0.04025945660881698,0.12915420317947865
1733859549886272500,5.9382724609375,0.025545652405917642,-0.03894632818363607,0.18236147723197935
1733859549896223200,5.94822314453125,0.02736789939701557,-0.03657733402997255,0.18604805679023265
1733859549906173200,5.958173095703125,0.012905220410972832,-0.03977313439659774,0.15187982972860337
1733859549916124400,5.96812451171875,0.013455693900585174,-0.01789126519523561,0.09450140747129916
1733859549926074400,5.978074462890625,0.015537760871648787,0.005303951627016067,-0.008165186277031899
1733859549936025300,5.988025390625,0.0032119477838277815,0.02373553424403071,-0.11247954723238944
1733859549945975300,5.997975341796875,-0.007892506815493106,0.03095430651642382,-0.17365794629454612
1733859549955926500,6.007926513671875,-0.03380743092522025,0.014049348944798111,-0.15028408496975898
1733859549965876200,6.017876220703125,-0.049333501359075306,0.015708295132964848,-0.0353179816186428
1733859549975827500,6.027827392578125,-0.022731471768021583,-0.02073635242804885,0.09848726223707198
1733859549985777400,6.03777734375,0.019299159231781958,-0.047559988880529994,0.17535247525274753
1733859549995727400,6.047727294921875,0.030432109273225066,-0.047878334114700556,0.21727321613728998
1733859550005678300,6.05767822265625,0.023811960481107234,-0.08810732252001761,0.23775369410812852
1733859550015628300,6.067628173828125,0.007576864995062351,-0.0921760332636535,0.2609960380077362
1733859550025579500,6.07757958984375,-0.0004914367787539959,-0.1184409398548305,0.28299335028231143
1733859550035529500,6.087529541015625,0.001101239240169525,-0.10216843496784567,0.29911387947797774
1733859550045480200,6.097480224609375,-0.01558773749321699,-0.09615260874442756,0.2944610852360725
1733859550055430400,6.107430419921875,-0.004921089789271354,-0.09576704349294304,0.2691103708803654
1733859550065381400,6.11738134765625,0.020688860024511813,-0.06567819469943642,0.19237375268042087
1733859550075331300,6.127331298828125,0.017107932797819376,-0.033813349209353326,0.07244622752964497
1733859550085282300,6.1372822265625,0.020712971552461386,-0.007761646977439522,-0.08244798158407211
1733859550095232300,6.147232177734375,0.03377484382987022,0.04154664687514305,-0.18592939884662626
1733859550105183500,6.15718359375,0.04091185610294342,0.058403235260397195,-0.24572072746455667
1733859550115133200,6.16713330078125,0.056342064946889876,0.043168256727606054,-0.29903964519798754
1733859550125084400,6.17708447265625,0.061898530030250545,0.04468925574980676,-0.30935178037583827
1733859550135034400,6.187034423828125,0.06913827202543615,0.041804347963258624,-0.23845921202898024
1733859550144985300,6.1969853515625,0.06963833050206303,0.023150573962926864,-0.13687398377656937
1733859550154935300,6.206935302734375,0.04489887991249561,0.025501301807537673,-0.048642742615938185
1733859550164886300,6.21688623046875,0.03112812871336937,0.021015753891319034,0.014074702581763267
1733859550174836500,6.22683642578125,0.03208206843733787,-0.020643486512824893,0.06638941170871257
1733859550184787200,6.236787109375,0.039095015939325094,-0.07615005048364401,0.06997253089249134
1733859550194737400,6.2467373046875,0.047629327789694066,-0.10070837235264479,0.09174071058630942
1733859550204688400,6.2566884765625,0.024886019453406332,-0.10711144432798027,0.09815700736939907
1733859550214638300,6.266638427734375,0.008708207112550735,-0.1019675055682659,0.12791443225145338
1733859550224589300,6.27658935546875,0.006060322952270507,-0.10202895343191921,0.1288765552818775
1733859550234539300,6.286539306640625,0.017937223228812218,-0.10261771310530603,0.14823708931207655
1733859550244490500,6.296490478515625,0.013890139795094727,-0.0808952722493559,0.12616788084506989
1733859550254440200,6.306440185546875,0.0033949031352996824,-0.021874197351559994,0.09188508749306201
1733859550264391400,6.316391357421875,-0.019499650239944457,0.00040463527813553807,0.08073240983784198
1733859550274341400,6.32634130859375,-0.0168313078135252,-0.009171806036308407,0.06332593248486519
1733859550284292400,6.336292236328125,-0.008117547743022441,0.014698971959948539,0.06566285099983216
1733859550294242300,6.3462421875,0.012601122897863387,0.003937412514165043,0.08751520184576511
1733859550304193300,6.356193359375,0.012271890943497418,-0.005757540613412856,0.10386837075352669
1733859550314143500,6.3661435546875,0.03638224984928965,-0.007244052844122052,0.10018938997983932
1733859550324094200,6.37609423828125,0.0265681273214519,-0.014515212890878319,0.06241875451207161
1733859550334044400,6.38604443359375,0.008934417083859444,-0.017260419945791364,0.044484453892707825
1733859550343995400,6.395995361328125,-0.002509352472424507,-0.029996421269699928,0.055659343379735944
1733859550353945300,6.4059453125,0.0159989486426115,-0.024206074365228415,0.048958968958258624
1733859550363896300,6.415896240234375,0.037110125732421874,-0.022921660577878356,0.03733458213806152
1733859550373846300,6.42584619140625,0.03867357565686107,-0.027347879522293804,0.012798691296577453
1733859550383797500,6.435797607421875,0.038260903202742336,-0.024565628392621875,-0.05872223808169365
1733859550393747500,6.44574755859375,0.0317095818631351,-0.021148001968860623,-0.06917991921007632
1733859550403698400,6.455698486328125,0.014747633407264947,-0.020962343203648922,-0.026336802783608435
1733859550413648400,6.4656484375,0.023575082985311746,-0.028789675828441975,0.052821489605307574
1733859550423599400,6.475599365234375,0.027330051604658363,-0.04670541787780821,0.1087912141084671
1733859550433549300,6.48554931640625,0.02842252301648259,-0.03525098079703748,0.12202011351585387
1733859550443500300,6.495500244140625,0.023000497967749833,-0.043675183336436746,0.11437515172064304
1733859550453450500,6.505450439453125,0.01804316782131791,-0.037256694596260784,0.07367430801987647
1733859550463400400,6.515400390625,0.007332827106118202,-0.029500746707245704,0.03297287979722023
1733859550473351200,6.52535107421875,0.01096270804107189,-0.02227232982367277,0.015675123515725135
1733859550483301400,6.53530126953125,0.013253303196281194,-0.026540289466455577,0.005595043528079986
1733859550493252400,6.54525244140625,0.016457213804125785,-0.029147841616347432,-0.016965163326263428
1733859550503202600,6.55520263671875,0.020395283905416724,-0.03311681831255555,0.007445639830827713
1733859550513153300,6.5651533203125,0.019623130489140748,-0.04373780024386942,0.05017652805447578
1733859550523103200,6.575103271484375,0.021715134332329033,-0.06332666313722729,0.06806289787888527
1733859550533054500,6.585054443359375,0.023038930281996727,-0.06851268747299909,0.060279404395818706
1733859550543004200,6.595004150390625,0.027545009529590606,-0.05102788418680429,0.0341810865432024
1733859550552955400,6.604955322265625,0.02301730297207832,-0.04996843826174736,0.027789339679479597
1733859550562905300,6.6149052734375,0.02475786302909255,-0.06281352598331869,0.028912206229567528
1733859550572856300,6.624856201171875,0.036981530916690826,-0.04683605852015316,0.060897244033217425
1733859550582806300,6.63480615234375,0.02189677450954914,-0.01078062947243452,0.08917349044680595
1733859550592757500,6.644757568359375,0.02013034935891628,-0.010219707654044032,0.0763572634935379
1733859550602707500,6.65470751953125,0.018058657651394604,-0.009519669625908136,0.050340778705477714
1733859550612658200,6.664658203125,0.011061492240428924,-0.0009428338080644607,0.03609305764436722
1733859550622608400,6.6746083984375,-0.0071545479297637935,0.009225216723978519,0.029749826097488403
1733859550632559400,6.684559326171875,0.008006780844926833,0.002910699814930558,0.00939677389860153
1733859550642509600,6.694509521484375,0.025472879430651664,-0.01159552605189383,0.015213351222872732
1733859550652460300,6.704460205078125,0.05242123824134469,-0.02978774695508182,-0.010464110869169235
1733859550662410200,6.71441015625,0.07132979072034358,-0.027876287310570475,-0.050182957795262335
1733859550672361500,6.724361572265625,0.06188917768001556,-0.011561331521347164,-0.052719198274612425
1733859550682311400,6.7343115234375,0.052231707018613814,-0.002886222960799932,-0.052259764069318766
1733859550692262400,6.744262451171875,0.031084289571642873,0.011661357829719781,-0.025419687938690184
1733859550702212400,6.75421240234375,0.01586217052042484,-0.002501534492149949,0.007073299387097358
1733859550712163300,6.764163330078125,0.0027568974927067755,-0.018376710624620318,0.05847966149747371
1733859550722113300,6.77411328125,-0.007822364188730717,-0.04269808193258941,0.11035305659770965
1733859550732064300,6.784064208984375,-0.004305588239431381,-0.06433569404929876,0.16102584373652934
1733859550742014500,6.794014404296875,-0.01376782858967781,-0.0727691758736968,0.197425775372982
1733859550751965200,6.803965087890625,0.003774988494068384,-0.07115684530623256,0.1658732837677002
1733859550761915400,6.813915283203125,0.008155249404907226,-0.07614201330766081,0.09524784192442894
1733859550771866400,6.823866455078125,0.02157821007966995,-0.07355017018355428,0.018110241708159447
1733859550781816300,6.83381640625,0.03721124801933765,-0.07212780923023819,0.008738017728924751
1733859550791767300,6.843767333984375,0.01266249769628048,-0.02668700446076691,0.04249357233643532
1733859550801717200,6.85371728515625,-0.0029062428355216977,-0.024967779452726244,0.04589899686574936
1733859550811668500,6.86366845703125,0.0140209265679121,-0.004922843354940414,0.054230187359452245
1733859550821618400,6.873618408203125,0.025152561435103415,-0.005165346873924136,0.02841360905766487
1733859550831569400,6.8835693359375,0.039410219368338585,-0.011324673221260309,0.010821838265657423
1733859550841519400,6.893519287109375,0.030011253512650726,-0.039139001211524006,0.05615735602974891
1733859550851470300,6.90347021484375,0.005875760165601969,-0.0552776505857706,0.11064531754255294
1733859550861420300,6.913420166015625,-0.00397168010994792,-0.07256386255994439,0.1640864003509283
1733859550871371300,6.923371337890625,0.013862521135807037,-0.055362917716428636,0.1405143861055374
1733859550881321500,6.933321533203125,0.04362374541014433,-0.06122698744423687,0.0697825612783432
1733859550891272200,6.943272216796875,0.045566696171462535,-0.056891077131777996,-0.0029962592065334317
1733859550901222100,6.95322216796875,0.05666954333558678,-0.03302811711579561,-0.06348609148263931
1733859550911173400,6.96317333984375,0.037189620709419245,-0.027113632375001907,-0.09684417120516299
1733859550921123300,6.973123291015625,0.006615618747472763,0.011477087303996086,-0.060683893543481825
1733859550931073500,6.983073486328125,0.009330284533649683,0.01709792286045849,0.007153963407874107
1733859550941024300,6.993024169921875,0.028315701641142367,0.006379983360692858,0.056878071519732475
1733859550950974500,7.002974365234375,0.05665040024369955,0.006518880374729633,0.07578560108542443
1733859550960925400,7.012925537109375,0.04015577703863382,0.00436769369021058,0.025275895553827286
1733859550970875100,7.022875244140625,0.01780249093323946,-0.014858473370596766,0.0021966332614421842
1733859550980826400,7.032826416015625,-0.0026776947766542435,-0.015452274545282125,0.013870119920372962
1733859550990776300,7.0427763671875,-0.02097352218478918,-0.035264936257153746,0.025831775870919227
1733859551000727300,7.052727294921875,-0.003945815016329288,-0.07197342238612472,0.03265957606434822
1733859551010677200,7.06267724609375,0.030420272704958912,-0.07315678695179521,0.05576455731987953
1733859551020628500,7.07262841796875,0.015978490376472473,-0.05571005065366626,0.05851414828896522
1733859551030578400,7.082578369140625,0.01639730031043291,-0.05072327521704137,0.06955225965380668
1733859551040529200,7.092529052734375,0.01706394752562046,-0.023431509796157476,0.07035071655511856
1733859551050479400,7.102479248046875,0.010553542718291281,-0.03131006115153432,0.09692834235727786
1733859551060430300,7.112430419921875,0.026802666729688642,-0.031410087459906935,0.050422027248144145
1733859551070380500,7.122380615234375,0.035976445527374744,-0.012236162042990327,0.01860416270494461
1733859551080331300,7.132331298828125,0.026309330254793165,-0.012950959248840809,-0.029055998614430426
1733859551090281200,7.14228125,0.029781974801421165,-0.01033938851095736,-0.052853053787350654
1733859551100232400,7.152232421875,0.03396802831441164,-0.027186259219795464,-0.004041968867182732
1733859551110182400,7.162182373046875,0.0011522387750446796,-0.03994344946220517,0.06809329301714896
1733859551120133400,7.17213330078125,0.000666062693297863,-0.045541927056387065,0.11840250754058361
1733859551130083300,7.182083251953125,0.011997604046761989,-0.054834144601970905,0.14005962807536124
1733859551140034600,7.19203466796875,0.013186229309439659,-0.027568974927067755,0.0934802477300167
1733859551149984300,7.201984375,0.032011925810575485,-0.03530680263750255,0.01570844126343727
1733859551159935200,7.211935302734375,0.02336582414880395,-0.02250306983962655,-0.023223639199137686
1733859551169885400,7.221885498046875,0.032883594078570604,-0.013740429126098751,-0.020177111110091208
1733859551179836200,7.231836181640625,0.02328793660700321,-0.022989172856137156,-0.033465631750226016
1733859551189786400,7.241786376953125,0.032495325413346286,-0.036127690566331146,-0.021018238109350204
1733859551199737300,7.2517373046875,0.02794306893646717,-0.027852102717384693,0.016539631390571595
1733859551209687300,7.261687255859375,0.011113806949555874,-0.04652297398298978,0.09024608811438083
1733859551219638300,7.27163818359375,0.008386720073223114,-0.022594912841543555,0.11033902807235717
1733859551229588200,7.281588134765625,0.031275428229570384,-0.027817104469239712,0.04891980599164963
1733859551239539500,7.29153955078125,0.036761750686168666,-0.026477745624259114,0.004131985238194465
1733859551249489400,7.301489501953125,0.022687340365350243,-0.021635566290095446,-0.009817045137286186
1733859551259440400,7.3114404296875,0.017601269272714853,-0.01951404409147799,0.005243745872378349
1733859551269390300,7.321390380859375,0.03098199824094772,-0.03404657344333827,0.059926937696337695
1733859551279341600,7.331341552734375,0.021591215691715477,-0.06107106623016297,0.099837507802248
1733859551289291300,7.341291259765625,0.010703180322051047,-0.044350013858079906,0.12197627437412738
1733859551299242200,7.3512421875,0.01725654748827219,-0.0461976875513792,0.1163069965660572
1733859551309192400,7.3611923828125,0.020015929199010133,-0.05784150972440839,0.0990443115979433
1733859551319143200,7.37114306640625,0.015021774173527956,-0.05559650727659463,0.09416121573150157
1733859551329093400,7.38109326171875,0.011402414632588623,-0.043342298120260234,0.0662099634885788
1733859551339044400,7.39104443359375,0.001269727674871683,-0.024174364052712918,0.02403203297257423
1733859551348994300,7.400994384765625,0.014717968921363353,-0.007437602654844522,0.011297639083862304
1733859551358944000,7.410944091796875,0.020193477723002434,-0.016353607299178837,0.007379004335403442
1733859551368894700,7.420894775390625,0.03415010688304901,-0.021852862302586436,0.0033639234751462934
1733859551378844700,7.4308447265625,0.024845395182073116,-0.02752586643770337,-0.018998714980483052
1733859551388796000,7.4407958984375,0.0070607321664690964,-0.034087489975616336,0.004943886142969131
1733859551398745900,7.450745849609375,0.006956979531049728,-0.02833199518881738,0.025474632996320724
1733859551408696800,7.46069677734375,0.02467807579115033,-0.030077523681893942,0.06215981131494045
1733859551418646800,7.470646728515625,0.01465469442680478,-0.019455738032981753,0.0582709871828556
1733859551428598000,7.480597900390625,0.027145488817989824,-0.0352774304125458,0.0672854837656021
1733859551438548000,7.4905478515625,0.015142185682803391,-0.05434643415026366,0.05113923560678959
1733859551448499000,7.5004990234375,0.00682400080114603,-0.04084631658606231,0.08659165726006031
1733859551458449000,7.510448974609375,-0.006462766273319721,-0.03020940643325448,0.08393558979332447
1733859551468399900,7.52039990234375,0.02691606397628784,-0.03341770095527172,0.07134089663624762
1733859551478349800,7.530349853515625,0.022878917414695023,-0.02786065135002136,0.04398761028647422
1733859551488300800,7.54030078125,0.03788827049806714,-0.03315583514869213,-0.005557049605250358
1733859551498251000,7.5502509765625,0.01549275268614292,-0.009057166680693627,-0.01217968261539936
1733859551508201700,7.56020166015625,0.009504472056776285,-0.012877967077866197,0.005875614035129547
1733859551518151700,7.570151611328125,0.024856793358922002,-0.03666493924818933,0.03274959243535995
1733859551528103000,7.58010302734375,0.037598786032199856,-0.045442631400376556,0.05932721823751926
1733859551538052900,7.590052978515625,0.017550854259729385,-0.04700958845615387,0.049399113941192625
1733859551548003800,7.60000390625,0.029830636248737573,-0.027530907939001915,0.04890694651007652
1733859551557953800,7.609953857421875,0.018458032232522962,-0.039500089608877895,0.03045709758400917
1733859551567905000,7.619905029296875,0.0140209265679121,-0.04283770959898829,0.04290682931244373
1733859551577855000,7.62985498046875,0.019474515798687933,-0.030886501977220177,0.060009355282783505
1733859551587805700,7.6398056640625,0.028738018706440924,-0.03359013491272926,0.060011108848452566
1733859551597756000,7.649755859375,0.026987375646829605,-0.024015374098718165,0.028788872110843657
1733859551607707000,7.659706787109375,0.023848200838267802,-0.03624671383611858,-0.003257540491223335
1733859551617656800,7.66965673828125,0.021890344768762587,-0.04391257228888571,0.010795534780621528
1733859551627607800,7.67960791015625,0.03018719460144639,-0.030976883674412963,0.09183364956676959
1733859551637557800,7.689557861328125,0.00861716782823205,-0.0380054671369493,0.12974106315672396
1733859551647508700,7.6995087890625,0.010774199731647968,-0.050168198617547746,0.11146715531945228
1733859551657458700,7.709458740234375,0.028621698850393295,-0.04107099218741059,0.057343350943923
1733859551667410000,7.719409912109375,0.03568418458253145,-0.027409254320710896,0.03106266226172447
1733859551677359900,7.72935986328125,0.025782968293130395,-0.007874751963093876,0.007430442261695862
1733859551687310800,7.739310791015625,0.030638007108867167,-0.03376680665388703,-0.011108838513493537
1733859551697260800,7.7492607421875,0.020297814880311488,-0.020783260309696197,-0.0537093783557415
1733859551707211800,7.759211669921875,0.023241467116773128,-0.026109642964228987,-0.029629999110102653
1733859551717162000,7.769161865234375,0.019283669401705263,-0.020830971908941863,0.03884966287612915
1733859551727112000,7.77911181640625,0.02831599390208721,-0.029712197500839827,0.09945464596450328
1733859551737063000,7.78906298828125,0.039543490359187125,-0.032718978101387616,0.10852233403921127
1733859551747014000,7.799013916015625,0.02592296128571033,-0.043878158562630415,0.08973404693901538
1733859551756963800,7.8089638671875,0.01662029541134834,-0.03351042074002325,0.0813765529602766
1733859551766913800,7.818913818359375,0.004253565791249275,-0.04595167690105736,0.042591187492012975
1733859551776864800,7.82886474609375,0.009695464584231376,-0.03469407756663859,-0.023076924204826352
1733859551786815000,7.83881494140625,0.0126963999658823,-0.04409289729185402,-0.016999650117754936
1733859551796765700,7.848765625,0.025570640716701745,-0.057336044420301914,0.0199988319337368
1733859551806715600,7.858715576171875,0.006754296565800905,-0.03693126203417778,0.06690846714675426
1733859551816667000,7.8686669921875,0.030855887643247842,-0.026387948448956013,0.09878536840081215
1733859551826616800,7.878616943359375,0.02140241512134671,-0.030886355846747753,0.09796469966769218
1733859551836567800,7.88856787109375,0.007528203547745943,-0.031884353908151385,0.06595043576955795
1733859551846517800,7.898517822265625,0.01063596030473709,-0.02993796908073127,0.032658991542458535
1733859551856469000,7.908468994140625,0.008035422417521476,-0.027246903365850447,0.036197687062621116
1733859551866419000,7.9184189453125,0.026136896297335625,-0.029404958182573316,0.03907704189121723
1733859551876370000,7.928369873046875,0.039637159992009396,-0.03470985965766012,0.04587152433693409
1733859551886319900,7.93831982421875,0.05660290784016251,-0.03470774076581001,0.019286299750208853
1733859551896270800,7.948270751953125,0.051613867381215095,-0.04628288161680102,-0.0013859014004468917
1733859551906220800,7.958220703125,0.03134147920310497,-0.018407909480482338,0.0041273090630769725
1733859551916171800,7.968171875,0.00047141690403223037,-0.029101737452298403,0.03241290782690048
1733859551926122000,7.9781220703125,0.006461304968595504,-0.023492519268393516,0.044586745223402974
1733859551936072700,7.98807275390625,0.01906681178063154,-0.026485855865478514,0.03313303879499435
1733859551946022700,7.998022705078125,0.020676877325773238,-0.03031608167812228,0.031383564779162404
1733859551955974000,8.007973876953125,0.028168109863996503,-0.02928549652136862,0.032309447452425956
1733859551965923800,8.017923828125,0.039976036557555196,-0.02256444463804364,0.008970072919130325
1733859551975874800,8.027874755859376,0.014461071550846099,-0.04100026503875851,0.02479951021373272
1733859551985824800,8.03782470703125,0.010414572639018297,-0.035701647173985836,0.07944003193974494
1733859551995776000,8.04777587890625,0.0256520353898406,-0.03366970295496285,0.11156710856258868
1733859552005726000,8.057725830078125,0.01787891717031598,-0.03569024899713695,0.10361235016584396
1733859552015676700,8.0676767578125,0.01861293053328991,-0.029602891907468436,0.07252981415987014
1733859552025627000,8.077626953125,0.009129062873125076,-0.019630144751816986,0.04664776940643787
1733859552035577900,8.087577880859374,0.012247779415547846,-0.013538111487030982,0.04781096796691418
1733859552045527800,8.09752783203125,0.008174538627266883,-0.03355243325084448,0.0413093309879303
1733859552055478800,8.107478759765625,0.00395487510561943,-0.03821282627731561,0.014226678273081779
1733859552065428700,8.1174287109375,0.028553309789299965,-0.04953406543247402,0.014922843843698502
1733859552075380000,8.1273798828125,0.03204290547072887,-0.05348945199474692,0.03806815710961819
1733859552085329700,8.13732958984375,0.0205652336448431,-0.0320410788398236,0.07032441307008266
1733859552095281000,8.147281005859375,0.001757072800397873,-0.04247041065655648,0.036709143716096876
1733859552105230800,8.15723095703125,0.03075111209452152,-0.060573930362984536,0.026376550272107124
1733859552115181800,8.167181884765625,0.026865210571885106,-0.04285429540760815,0.026186580657958983
1733859552125131800,8.1771318359375,0.018329437416791914,-0.03740772043950855,0.052320554345846176
1733859552135083000,8.1870830078125,0.0241620890930295,-0.022942922561615703,0.06964344506859779
1733859552145033000,8.197032958984375,0.03969342022389173,-0.024751067962124944,0.07922492788434028
1733859552154983000,8.20698291015625,0.04177577945590019,-0.028549072005599734,0.055308630245923994
1733859552164934000,8.216933837890625,0.034893618726730344,-0.017068989026919005,-0.001616203024983406
1733859552174883800,8.2268837890625,0.019796587359905242,-0.017493278853595255,-0.01834405046403408
1733859552184835000,8.2368349609375,0.014514555303752421,-0.0209203306928277,-0.018003274202346802
1733859552194784800,8.24678466796875,0.000884089358150959,-0.03818133516050875,0.013239420801401138
1733859552204735700,8.25673583984375,0.015602642801403999,-0.025502470851317047,0.052414077848196024
1733859552214686000,8.26668603515625,0.013770751199126243,-0.015446648522093891,0.05893500404953956
1733859552224636700,8.27663671875,0.03236863029375672,-0.009255977188423276,0.04468728298842907
1733859552234587000,8.2865869140625,0.017736147698760033,-0.03509579023532569,0.04461012609899044
1733859552244537900,8.296537841796875,0.008349895194172858,-0.017208032171428203,0.062115387651324266
1733859552254487800,8.30648779296875,0.009426146123558281,-0.016616276823356747,0.08607844704091548
1733859552264438800,8.316438720703125,0.02433890696465969,-0.04115706303566694,0.0747282009869814
1733859552274388700,8.326388671875,0.009174947841465473,-0.045530455814301964,0.05417231969237327
1733859552284340000,8.336340087890624,0.03226765413731336,-0.052415173826739186,0.02172083342075348
1733859552294290000,8.3462900390625,0.02353475097492337,-0.05103694427609443,0.005138531932234764
1733859552304241000,8.356240966796875,0.00522694086804986,-0.04118490089066326,0.05040916776657104
1733859552314190800,8.36619091796875,0.00038929157853126526,-0.021103724435716866,0.07880524116754531
1733859552324141800,8.376141845703126,0.020605565655231476,-0.048685558844357726,0.0953887116998434
1733859552334091800,8.386091796875,0.029847002861648795,-0.04457673528604209,0.08161737597882747
1733859552344042800,8.396042724609375,0.02370060906112194,-0.025585984416306017,0.05273439584374427
1733859552353993000,8.405992919921875,0.015426701712608336,-0.021797186592593786,-0.004056581914424896
1733859552363944000,8.41594384765625,0.029289222848415373,-0.01881378686763346,-0.009539981761574745
1733859552373893600,8.4258935546875,0.013149550560861825,-0.024532895166799424,-0.01171907936632633
1733859552383844900,8.435844970703124,0.00915434344485402,-0.025777269204705952,0.037899230283498765
1733859552393794800,8.445794921875,0.0008938800998032092,-0.045082785112038254,0.07604395976066589
1733859552403745800,8.455745849609375,0.019061843344569205,-0.0439631334323436,0.07411854465603827
1733859552413695700,8.46569580078125,0.023810499176383018,-0.041011882411316036,0.06563187133967877
1733859552423647000,8.47564697265625,0.02309869764521718,-0.01769873829782009,0.06553951688110828
1733859552433597000,8.485596923828124,0.02743526554480195,-0.02533873165696859,0.058768415310978886
1733859552443548000,8.4955478515625,0.002895429180562496,-0.03905943316929042,0.046344402545690534
1733859552453497900,8.505497802734375,0.007678425673395395,-0.03329882381595671,0.04351590112149715
1733859552463448800,8.51544873046875,0.026057109059393405,-0.032521628898382185,0.04435527455508709
1733859552473399000,8.52539892578125,0.038682197354733945,-0.05482296562083065,0.025691490617394445
1733859552483349800,8.535349853515624,0.011457213559746741,-0.04064465653412044,0.02928630023896694
1733859552493300000,8.545300048828125,0.015394260747730731,-0.04007292106077075,0.046640755143761634
1733859552503250000,8.55525,0.029584406402707097,-0.031911461110785605,0.04406067552268505
1733859552513200600,8.56520068359375,0.03288110986053944,-0.02892499264590442,0.01611936015188694
1733859552523150800,8.57515087890625,0.03221767751574516,-0.03833163035139441,-0.004233107525110244
1733859552533101800,8.585101806640624,0.009934680167585612,-0.032210224861651655,0.003494856378436088
1733859552543052000,8.595052001953125,-0.003739771050214767,-0.010299933283403515,0.03807400232851505
1733859552553002800,8.605002685546875,0.001144639990478754,-0.007559183207899332,0.09171440710127353
1733859552562952700,8.61495263671875,0.0015358312651515007,-0.026600202960148454,0.11849895365238189
1733859552572904000,8.624904052734376,0.01781929593756795,-0.03936068113818764,0.12073124274909496
1733859552582854000,8.63485400390625,0.00291267257630825,-0.028387378637865186,0.0868441707164049
1733859552592804900,8.644804931640625,0.02075520325899124,-0.043036739302426574,0.04728489826619625
1733859552602754800,8.6547548828125,0.010597089599072932,-0.0563537553846836,0.02022270381748676
1733859552612706000,8.6647060546875,-0.018817513194680214,-0.045870793684571975,0.013294950380921364
1733859552622655700,8.67465576171875,-0.001426233410835266,-0.05457001377306878,0.027479543077945708
1733859552632606700,8.684606689453124,0.001644260075688362,-0.06167078568898141,0.10028758965730666
1733859552642557000,8.694556884765625,0.011771101814508437,-0.04890285485684871,0.1308814653635025
1733859552652508000,8.7045078125,0.015092939713597297,-0.032778964660316705,0.09719079268574714
1733859552662457900,8.714457763671875,0.040868016961216926,-0.04287526513040066,0.053142976644635194
1733859552672408800,8.724408935546874,0.03322466260120272,-0.039629195881262416,-0.015264789149165153
1733859552682358800,8.73435888671875,0.0303783332593739,-0.025602570224925875,-0.0808925688356161
1733859552692309800,8.744309814453125,0.029584990924596783,-0.009350231343135238,-0.11300970858633518
1733859552702259700,8.754259765625,0.05452011021673679,-0.01505326529033482,-0.10576514428555965
1733859552712211000,8.7642109375,0.03277297331094742,-0.0061793462220579385,-0.021367197677493094
1733859552722161000,8.774160888671876,0.0494873767465353,-0.03304265709780156,0.05056874224245548
1733859552732112000,8.78411181640625,0.04080313503146171,-0.065883215752244,0.1242412966966629
1733859552742061800,8.794061767578125,0.010115297431498766,-0.07090615848079324,0.17698621393442152
1733859552752012800,8.8040126953125,-0.008953121784329414,-0.06235065771192312,0.18057050216197967
1733859552761963000,8.813962890625,-0.005098784443736076,-0.04184826017022133,0.14510054485201834
1733859552771913700,8.823913818359374,-0.01286591131389141,-0.06331431511230766,0.11039689573943615
1733859552781864000,8.833864013671874,0.003061871788650751,-0.05364771129637956,0.07182955693602562
1733859552791815000,8.84381494140625,-0.004036123648285866,-0.03938968803696334,0.06047872636020183
1733859552801764900,8.853764892578125,-0.007473696881532668,-0.018354425727576017,0.06820610574185848
1733859552811715800,8.8637158203125,0.0022923487208783627,-0.006719955904781818,0.054202714830636975
1733859552821665800,8.873665771484376,0.025951602858304976,-0.01701711270920932,0.011122867038846015
1733859552831616800,8.88361669921875,0.016902034962177275,-0.01233136604577303,0.01624269427061081
1733859552841566700,8.893566650390625,0.003630903848260641,-0.00917392492815852,0.0493827473282814
1733859552851517000,8.903516845703125,-0.00008534019589424133,-0.010292042237892747,0.1358791275203228
1733859552861468000,8.913468017578126,-0.01300605043694377,-0.03315605434440076,0.1751005463182926
1733859552871419000,8.9234189453125,0.0024526538491249084,-0.06790602681674063,0.1891127050578594
1733859552881368800,8.933368896484374,-0.010829583180695771,-0.09980521296784281,0.1906552583247423
1733859552891318800,8.94331884765625,-0.031761750441789624,-0.11307751312553882,0.19002222111821174
1733859552901270000,8.95327001953125,-0.043397243177890774,-0.09948197236284613,0.20088731400370596
1733859552911219700,8.9632197265625,-0.030125819803029297,-0.07204531857855617,0.1938666215866804
1733859552921171000,8.9731708984375,0.006851181069016456,-0.06824212690331041,0.10667875199913977
1733859552931121000,8.983120849609374,0.013075754672288893,-0.04714877773113548,-0.004838087680935859
1733859552941072000,8.99307177734375,0.041167438299208874,-0.0009079816903918981,-0.12007599371075629
1733859552951021800,9.003021728515625,0.07804638562425971,0.03039243484996259,-0.2484521982550621
1733859552960972800,9.012972900390626,0.08785524745509028,0.04846658233143389,-0.3578244271218777
1733859552970923000,9.022923095703124,0.09969181572124361,0.05765183237120509,-0.42795302535891533
1733859552980873700,9.032873779296875,0.10516031026020646,0.06115801386125386,-0.42182022169232364
1733859552990823700,9.04282373046875,0.0779167678952217,0.04218501784391701,-0.3275216433167457
1733859553000775000,9.05277490234375,0.08330825167521834,0.01597483711466193,-0.21641338443756103
1733859553010724900,9.062724853515626,0.05141118441596627,-0.02186294530518353,-0.06219196001887321
1733859553020675800,9.07267578125,0.04615136419162154,-0.04644786292016506,0.08625672621726989
1733859553030625800,9.082625732421874,0.019741057780385016,-0.06707958592996001,0.17770985203385353
1733859553040577000,9.092576904296875,0.010425386293977499,-0.08284764842614531,0.2457844403505325
1733859553050527000,9.10252685546875,0.01727715188488364,-0.0811786923006177,0.27579963938593866
1733859553060477700,9.112477783203126,0.026209523142129182,-0.06024689036570489,0.20944588351249693
1733859553070428000,9.122427978515624,0.039797318989783524,-0.04168722438961267,0.10934124920666217
1733859553080379000,9.13237890625,0.02603109783530235,-0.04917085814327001,0.0456879844635725
1733859553090328800,9.142328857421875,0.009524199670553207,-0.009594196166843176,0.020112229180336
1733859553100279800,9.15227978515625,0.015838789644837377,-0.012978285647183656,0.00907879399061203
1733859553110229800,9.162229736328126,0.02625029354393482,-0.014539762810245155,0.009258826732635497
1733859553120180700,9.1721806640625,0.03502396710813045,-0.01129099014736712,-0.014164718952775001
1733859553130130700,9.182130615234374,0.021599691259115934,0.005408142653852701,-0.043568508091568946
1733859553140082000,9.19208203125,0.02042670195698738,-0.00822042359560728,-0.06198796187937259
1733859553150032000,9.202031982421875,0.026187749701738355,-0.001193739829212427,-0.05142915846407413
1733859553159982800,9.21198291015625,0.022219430592656134,-0.020921645867079494,-0.030828853505849838
1733859553169932800,9.221932861328124,0.003390080829709768,-0.040374315160140395,0.027553777357935905
1733859553179884000,9.231884033203125,0.015497428861260413,-0.059483139451593156,0.12961422190666197
1733859553189834000,9.241833984375,0.02839431983530521,-0.08696860081367194,0.21296178267896174
1733859553199784700,9.25178466796875,0.0067069502927362915,-0.09683394207209348,0.23889058918356895
1733859553209735000,9.26173486328125,0.009567015898972749,-0.10691716386489569,0.23739421314597128
1733859553219684900,9.271684814453126,0.002992898205667734,-0.08303922547549009,0.21695406718552113
1733859553229635800,9.2816357421875,0.010093670121580361,-0.07175327682942152,0.18273790932893752
1733859553239585800,9.291585693359375,0.028842063602805137,-0.0482324082493782,0.12643208473920822
1733859553249536800,9.301536865234375,0.021192425632476804,-0.035476825442165134,0.06020633915960789
1733859553259487000,9.311487060546876,0.022706921848654745,-0.0008824819229543209,0.009155366358160971
1733859553269437700,9.321437744140624,0.02658931623995304,-0.0076413085334002965,0.002613397368788719
1733859553279388000,9.331387939453125,0.03927709450796246,-0.015971622244268655,-0.007426350608468055
1733859553289339000,9.3413388671875,0.05276727520003915,-0.016047902350872754,-0.011949965512752533
1733859553299288800,9.351288818359375,0.04274024057388305,-0.019297917122766375,-0.016855857732892037
1733859553309239800,9.36123974609375,0.04235927843227982,-0.023439473906904457,-0.03815583539307117
1733859553319189800,9.371189697265624,0.017181436425447463,-0.03804448397308588,-0.030434301230311392
1733859553329141000,9.38114111328125,0.0142693483710289,-0.03602415712662041,0.054551674398779865
1733859553339091000,9.391091064453125,0.0013232114277780054,-0.02168035527989268,0.1016366661787033
1733859553349042000,9.4010419921875,0.010192162059992552,-0.033433702242001886,0.1359656367599964
1733859553358991600,9.41099169921875,-0.0008395195640623569,-0.056299540979415176,0.15010755935907363
1733859553368942800,9.42094287109375,0.014128040204197168,-0.05397855068594217,0.12331424497961997
1733859553378892500,9.430892578125,0.01874868574216962,-0.045712315187230707,0.08994973551630973
1733859553388843800,9.44084375,0.010716039803624152,-0.06371551632434129,0.029341829818487167
1733859553398793700,9.450793701171875,-0.000786620333045721,-0.06291179872602223,0.017635609933733937
1733859553408744700,9.46074462890625,0.022024346411973237,-0.06431150945611298,0.006897358298301696
1733859553418694700,9.470694580078124,0.028551702354103325,-0.055510363363102076,-0.02630173147022724
1733859553428645600,9.480645751953125,0.05841083404496312,-0.008771189346164464,-0.03833879074454307
1733859553438595800,9.490595947265625,0.07172375847399234,0.005371683100983501,-0.03610124095082283
1733859553448546600,9.500546630859375,0.048218525854498144,-0.011330445374920964,-0.04147007450759411
1733859553458496800,9.510496826171876,0.03521934354975819,-0.028210926092416048,-0.058494859066605565
1733859553468447700,9.52044775390625,0.028564854096621274,-0.018492592089250682,-0.032059272083640095
1733859553478397700,9.530397705078125,0.008724427594989538,-0.027753756909444927,0.009679097971320152
1733859553488348700,9.5403486328125,0.015772008018940686,-0.04926482003703713,0.07831950347721577
1733859553498298600,9.550298583984375,0.03389569373056292,-0.058153279087319966,0.13397066355049608
1733859553508249900,9.560249755859376,0.02186579484939575,-0.06477744646742939,0.1612888785868883
1733859553518199800,9.57019970703125,0.028502017993479966,-0.06327624812424182,0.1506920812487602
1733859553528150800,9.58015087890625,0.017980623979121445,-0.06394253001324832,0.09057634298205375
1733859553538100700,9.590100830078125,0.022693623975664375,-0.04892090197019279,0.030463527324795722
1733859553548050700,9.60005078125,0.022836685708165168,-0.026006328720226884,0.01635726056098938
1733859553558001700,9.610001708984376,-0.00499079402461648,-0.02385594575330615,0.017808628413081166
1733859553567951600,9.61995166015625,-0.020203268464654683,-0.01043093925192952,0.03054594491124153
1733859553577902800,9.62990283203125,-0.008297872745990753,0.005160305372625589,0.05778115783929824
1733859553587852800,9.639852783203125,0.008031915286183357,-0.014202639810368418,0.044810617107152936
1733859553597803800,9.6498037109375,0.013516630307585,-0.020655396146327255,0.02859656440913677
1733859553607753700,9.659753662109376,-0.005341361027956008,-0.009628171501681208,-0.006181903505325317
1733859553617704700,9.66970458984375,0.006084872871637344,-0.0004123801931738853,-0.022907412856817244
1733859553627655000,9.679655029296875,0.03443418452143669,-0.01856689943447709,-0.036246786901354786
1733859553637605600,9.689605712890625,0.047858898761868475,-0.03355469827316701,-0.012144611302018165
1733859553647555800,9.699555908203125,0.041325113078951835,-0.03502542841285467,-0.005824760630726814
1733859553657506800,9.7095068359375,0.026559651754051446,-0.03391154888682067,0.004888941085338592
1733859553667456500,9.71945654296875,0.0020284370876848695,-0.04706964808031917,0.04762392096221447
1733859553677407700,9.72940771484375,0.02268076449409127,-0.06474047545790672,0.11963351064026355
1733859553687357700,9.739357666015625,0.021298224094510078,-0.06426759724915027,0.18446283342540262
1733859553697308700,9.74930859375,0.02504033323228359,-0.06533829522058367,0.22426702054738998
1733859553707258600,9.759258544921876,0.04178498567566275,-0.05189144221358001,0.18734978703856467
1733859553717209900,9.7692099609375,0.03148585610985756,-0.03513539159335196,0.08862754700183868
1733859553727159800,9.779159912109375,0.04349880385622382,-0.0274106425601989,-0.019794249272346496
1733859553737110500,9.789110595703125,0.04894552495479584,-0.009806523743271827,-0.10670096383094788
1733859553747060700,9.799060791015625,0.050088995901495216,0.007341960260644554,-0.15204875655472277
1733859553757011700,9.80901171875,0.04915083826854825,0.01060929149352014,-0.14612930337786673
1733859553766962000,9.8189619140625,0.06298048004806041,-0.01490494286082685,-0.10255962624251842
1733859553776912600,9.82891259765625,0.04131459168493747,-0.015660145142301917,-0.047939562782645224
1733859553786862600,9.838862548828125,0.03772811150029302,-0.020600962545350193,0.030253683966398236
1733859553796813800,9.848813720703125,0.028969635505229234,-0.029031740956008432,0.10787059213221073
1733859553806763800,9.858763671875,0.006930676046013832,-0.07154964401610195,0.1685340274095535
1733859553816714800,9.86871484375,0.0025888474494218825,-0.09659648005440831,0.20713000778555868
1733859553826664700,9.878664794921875,-0.02402019640430808,-0.07986929020248353,0.20212065519094466
1733859553836615700,9.88861572265625,-0.008891016333550215,-0.08073759746961295,0.15245616831183434
1733859553846565600,9.898565673828125,-0.011309329521656036,-0.08104067206941544,0.09161036220490931
1733859553856515600,9.908515625,-0.019098083701729773,-0.05247881364747881,0.02939034513533115
1733859553866466800,9.918466796875,-0.010694997015595436,-0.02934051464423537,-0.007794014877080917
1733859553876417500,9.92841748046875,0.0008259294301271438,-0.017572408504411576,-0.03709901981651783
1733859553886367700,9.93836767578125,0.015566256313771008,-0.010173603489995003,-0.07401859141290187
1733859553896317700,9.948317626953125,0.02127645065411925,-0.011712284299358725,-0.06807575736045837
1733859553906269000,9.95826904296875,0.025803134298324582,-0.010860343645140528,0.03014905454814434
1733859553916219000,9.968218994140624,0.02206979298889637,-0.030187925253808496,0.08842822503745555
1733859553926169600,9.978169677734375,0.0345827992118895,-0.04959317520856857,0.08341478078961372
1733859553936119800,9.988119873046875,0.03597396130934358,-0.04798574001193046,0.07346388013958931
1733859553946070800,9.99807080078125,0.040488077732920645,-0.06304565423876046,0.0770195267945528
1733859553956020700,10.008020751953126,0.02882745055556297,-0.0797954943139106,0.09671206925809382
1733859553965971700,10.0179716796875,-0.0012228197932243347,-0.07609766270928084,0.11475450642704962
1733859553975921700,10.027921630859375,0.00974105729162693,-0.06220094704292714,0.1340747084468603
1733859553985872600,10.03787255859375,0.010195230799913406,-0.06301628201380371,0.14505612118840217
1733859553995822600,10.047822509765625,0.02288052484989166,-0.05868000637516379,0.12213935598134994
1733859554005773800,10.05777392578125,0.0373398428350687,-0.039716070447117086,0.09042086015939713
1733859554015723800,10.067723876953124,0.03556348081231117,-0.0449899191968143,0.052011926788091654
1733859554025674800,10.0776748046875,0.03760273155495524,-0.02704305135682225,0.010976736566424368
1733859554035624700,10.087624755859375,0.008718874637037514,-0.006766936851665377,0.0066822542428970335
1733859554045575700,10.09757568359375,0.008049450942873954,-0.017734686394035814,-0.03450432714819908
1733859554055526000,10.10752587890625,0.004083031529933214,0.010409019681066275,-0.04403028038442135
1733859554065476600,10.1174765625,0.01193023789897561,0.012788973620161414,-0.058549219602346415
1733859554075426800,10.1274267578125,-0.002118745719641447,-0.003441299560293555,-0.09874854352176189
1733859554085377800,10.137377685546875,0.021053163292258977,-0.005848141506314277,-0.10985153681635856
1733859554095327500,10.147327392578125,0.0183779527336359,-0.019449089096486568,-0.06928045697510242
1733859554105278700,10.15727880859375,0.06344459042847156,-0.03727781044952571,-0.003279167801141739
1733859554115228700,10.167228759765624,0.08349252220094204,-0.05103935542888939,0.029150691160559652
1733859554125179600,10.1771796875,0.08432312780618667,-0.04937536773942411,0.008722235637903213
1733859554135129600,10.187129638671875,0.05571063517555594,-0.03986358915902674,-0.03131576023995876
1733859554145080800,10.197080810546876,0.052186844963580364,-0.03849098563157022,-0.027169746476411818
1733859554155030800,10.20703076171875,0.047605946914106606,-0.054149596403911704,-0.009205635240674019
1733859554164981500,10.2169814453125,0.044926498571783303,-0.05450155164673924,0.030585107877850532
1733859554174931700,10.226931640625,0.029252251838892695,-0.047590968540683384,0.07457797886133194
1733859554184881700,10.236881591796875,0.022019962497800586,-0.045725978386402126,0.10926058518588543
1733859554194833000,10.2468330078125,0.004868921210616827,-0.0406599271684885,0.15699556530714034
1733859554204782800,10.256782958984376,-0.0000393090970814228,-0.04683298978023231,0.2045551888614893
1733859554214733800,10.26673388671875,-0.009677344405651092,-0.04561426164023578,0.19025193822085856
1733859554224683800,10.276683837890625,-0.0029955285541713238,-0.041250367342308164,0.14424305123984812
1733859554234634800,10.286634765625,-0.006754588826745748,-0.05609707720987499,0.10391688607037067
1733859554244584700,10.296584716796875,-0.01900558311268687,-0.04367657157592475,0.06488192975521087
1733859554254535700,10.30653564453125,-0.002039396873116493,-0.03180588184446096,0.029327216771245
1733859554264486000,10.31648583984375,0.003607230711728334,-0.02677417128756642,0.03969078987538814
1733859554274436600,10.3264365234375,0.036966479478031396,-0.04076002654209733,0.04751519989073276
1733859554284386600,10.336386474609375,0.039379824230074884,-0.04678213637582958,0.04816752631962299
1733859554294337800,10.346337890625,0.006024667116999626,-0.036871713866665955,0.05665186154842376
1733859554304287700,10.356287841796876,-0.008670651581138372,-0.02889408605098724,0.030475217762589452
1733859554314238700,10.36623876953125,0.022570143726468084,-0.015536299566924571,0.01605272465646267
1733859554324188700,10.376188720703125,0.04913491004705429,-0.022544424763321875,-0.048375616112351416
1733859554334140000,10.386139892578125,0.05119812618717551,-0.02369790564738214,-0.09744389066398143
1733859554344089900,10.39608984375,0.04453165403530002,-0.010284078127145766,-0.09309563232660294
1733859554354041300,10.406041259765624,0.0258383517421782,-0.01309489776417613,-0.03917641061246395
1733859554363991300,10.4159912109375,0.02512391986250877,-0.02540149469487369,-0.006545476120710373
1733859554373942000,10.42594189453125,0.013938508981466292,-0.024032471363991496,0.06535188535451888
1733859554383892200,10.435892333984375,0.0039028526574373243,-0.03247720523476601,0.13034428974688053
1733859554393843200,10.44584326171875,0.006930822176486253,-0.044718774105235934,0.13447042976617812
1733859554403793400,10.45579345703125,0.010199322453141212,-0.045306437800079584,0.12336451386213301
1733859554413744000,10.465744140625,0.03669453066885471,-0.043592400423809886,0.10382803874313831
1733859554423694000,10.475694091796875,0.03631166883111,-0.030300299587100742,0.0512169770181179
1733859554433645300,10.485645263671875,0.03650529170706868,-0.060186027023941276,0.01569675082564354
1733859554443595300,10.49559521484375,0.028624767590314147,-0.051310427455231546,-0.007859481328725814
1733859554453546200,10.505546142578124,0.025070874501019715,-0.05325915037021041,0.008061725902557373
1733859554463496200,10.51549609375,0.03821604114770889,-0.07537132119610905,0.03420680550634861
1733859554473447400,10.525447509765625,0.02050561241209507,-0.07600530825071036,0.06543547198474407
1733859554483397000,10.535397216796875,0.006896189254522323,-0.06602182050533592,0.09708967039883136
1733859554493347000,10.54534716796875,0.016220044047385453,-0.05907594689019024,0.11241057364940643
1733859554503298300,10.55529833984375,0.004242021483927965,-0.06130334061607718,0.10943068105578421
1733859554513248300,10.565248291015624,0.02192234734222293,-0.05593801419064402,0.08707447234094143
1733859554523199200,10.57519921875,0.02879340215548873,-0.054229310576617715,0.04763385783433914
1733859554533149200,10.585149169921875,0.018277853360027074,-0.026124256011471152,-0.003863689690828323
1733859554543100200,10.59510009765625,0.034525954458117486,0.0067591188713908195,-0.03796002056002617
1733859554553050400,10.60505029296875,0.026415128716826438,-0.0011857757184654473,-0.06724748984277248
1733859554563001000,10.6150009765625,0.01647109619900584,-0.003848857447877526,-0.08219020743072032
1733859554572951300,10.624951416015625,0.02795549002662301,-0.025744170652702448,-0.041465398332476616
1733859554582902300,10.63490234375,0.02123816447034478,-0.024161066179722548,0.012172083830833434
1733859554592852200,10.644852294921876,0.015674100602418185,-0.03467486140951514,0.06663724898993968
1733859554602803200,10.65480322265625,0.028185060998797414,-0.05904957033991813,0.07087620173394679
1733859554612753200,10.664753173828124,0.015864070216566325,-0.04138729159496724,0.09492226323187351
1733859554622704400,10.674704345703125,0.026259792024642226,-0.041497400905936954,0.10130641131103038
1733859554632654000,10.684654052734375,0.005486906978487968,-0.03257766993455589,0.07923135762512683
1733859554642605300,10.694605224609376,0.007496493235230445,-0.03982055373489857,0.0554606059372425
1733859554652555300,10.70455517578125,0.03141556735262275,-0.051600058051571245,0.01570142700076103
1733859554662506000,10.714506103515625,0.0013993454039096832,-0.05284224013239145,0.02478372812271118
1733859554672456200,10.724456298828125,0.012014847442507743,-0.052012730505689976,0.06256956115961075
1733859554682407200,10.7344072265625,0.0160644150942564,-0.057636561736837025,0.10447393543124198
1733859554692357400,10.744357421875,0.01781681171953678,-0.05346329464018344,0.10332827252745627
1733859554702308000,10.75430810546875,0.018418869265913962,-0.06092420510537922,0.08866028022766113
1733859554712258300,10.76425830078125,0.01226049276664853,-0.044668578287959095,0.06806289787888527
1733859554722209300,10.774209228515625,0.02516717448234558,-0.030643267805874345,0.03783785548508167
1733859554732159200,10.7841591796875,0.01665814320370555,-0.02258928681835532,-0.0005617255359888076
1733859554742110200,10.794110107421876,0.030112229669094083,-0.03856536604203283,-0.029812954461574552
1733859554752060200,10.80406005859375,0.01607566714063287,-0.04709916643574834,-0.014963760375976562
1733859554762011400,10.814011474609375,0.011946019989997147,-0.05157631184980273,0.02308744559884071
1733859554771961000,10.823961181640625,0.01726107753291726,-0.05487681469991803,0.05002981306016445
1733859554781911000,10.8339111328125,0.028810061029344795,-0.05725326150767505,0.06341711789965629
1733859554791862300,10.8438623046875,0.04332958476915955,-0.048192733826115726,0.010563479590415955
1733859554801812200,10.853812255859374,0.03658887833729386,-0.0373864584557712,-0.018255203136801717
1733859554811763200,10.86376318359375,0.023774843341112135,-0.01357698219269514,-0.019941548788547515
1733859554821713200,10.873713134765625,0.01542962432205677,-0.025692367400228976,0.03769055596888065
1733859554831664400,10.883664306640625,0.0258896435379982,-0.0376955974701792,0.0814548788934946
1733859554841614300,10.8936142578125,0.021957564786076543,-0.030118294083699582,0.05871697738468647
1733859554851565000,10.90356494140625,0.021344985845685005,-0.037787878863513466,0.025884967362880706
1733859554861515300,10.913515380859375,-0.01654196947813034,-0.039209582229703666,-0.005066635739803314
1733859554871466200,10.92346630859375,0.01365326229929924,-0.02466981941945851,0.040813656425476075
1733859554881416400,10.93341650390625,0.04310922001674771,-0.02977963671386242,0.08189853100776671
1733859554891367200,10.9433671875,0.034858693543821574,-0.050074894310906524,0.08103402313292025
1733859554901317000,10.953317138671874,0.0308184782423079,-0.059621159682795404,0.08160100936591624
1733859554911268400,10.963268310546875,0.04697349422946572,-0.02862864004783332,0.0597872369647026
1733859554921218000,10.973218017578125,0.006811433580517769,-0.05391542232185602,0.01589841087758541
1733859554931169300,10.983169189453125,0.002940729627013206,-0.07241290978193282,0.033091537740826606
1733859554941119200,10.993119140625,0.008326368188112974,-0.07601327236145734,0.07861585607528686
1733859554951070200,11.0030703125,0.01497603533565998,-0.058115723555907606,0.11333879441022872
1733859554961020200,11.013020263671875,0.0006412205129861831,-0.046236850517988204,0.13268120826184748
1733859554970971100,11.02297119140625,0.011637100171297788,-0.04064414507746696,0.1274170041233301
1733859554980921300,11.03292138671875,0.014010405173897742,-0.02898446774818003,0.07828384764194488
1733859554990872000,11.0428720703125,0.017153379374742508,-0.000998436452820897,0.03664543083012104
1733859555000822300,11.052822265625,0.019085078089684248,0.005405804566293955,-0.015740589967370034
1733859555010773200,11.062773193359375,0.03180325149595737,0.014898220859095453,-0.08499240536987782
1733859555020723200,11.07272314453125,0.056917380616813895,0.0016098463494330644,-0.11248422340750694
1733859555030674200,11.082674072265625,0.06353752940893173,-0.03336436333283782,-0.12530045036077497
1733859555040624000,11.0926240234375,0.06842997762560844,-0.047500221517309545,-0.07038812595605849
1733859555050575400,11.102575439453124,0.03493117425814271,-0.04704473283477127,0.003016132950782776
1733859555060525000,11.112525146484375,0.02605930101647973,-0.05549728468582034,0.0729939245402813
1733859555070475300,11.122475341796875,0.01933481506705284,-0.05392959697768092,0.10823591831326485
1733859555080426200,11.13242626953125,0.020168927803635595,-0.05243680113665759,0.1108387942880392
1733859555090376200,11.142376220703126,0.011499153005331754,-0.04701733337119222,0.08478431557714938
1733859555100327200,11.1523271484375,0.006246639304608106,-0.037990927154943344,0.07704933741092682
1733859555110277000,11.162277099609375,0.013778934505581856,-0.04912278121784329,0.054684945389628405
1733859555120228400,11.172228271484375,0.009662000706046819,-0.06338913391418755,0.04133446542918682
1733859555130178300,11.18217822265625,0.003575958790630102,-0.04817717093080282,0.0793283882588148
1733859555140129300,11.19212939453125,0.024709932234138247,-0.03478920850418508,0.07331307349205017
1733859555150079200,11.202079345703124,0.023850246664881704,-0.046098611091077324,0.05456161127090454
1733859555160030200,11.2120302734375,0.04169102378189563,-0.0341075098503381,0.015157237121462821
1733859555169980200,11.221980224609375,0.055463090155273675,-0.022722192483022808,0.006242693781852722
1733859555179931100,11.23193115234375,0.03391863621473312,-0.03280066503547132,0.022719196808338164
1733859555189881300,11.24188134765625,0.012750760501623153,-0.0424495870642364,0.025250176590681076
1733859555199832300,11.251832275390624,0.014043722921609878,-0.05135638548880815,0.05869359650909901
1733859555209782000,11.261781982421875,0.027182605957984923,-0.06536262594424187,0.07077332588136195
1733859555219733200,11.271733154296875,0.016659604508429765,-0.06752221513092517,0.09826397487521171
1733859555229683200,11.28168310546875,-0.016263737058639524,-0.06720094728730619,0.1278799454599619
1733859555239634200,11.29163427734375,-0.014839111083000898,-0.03997947062365711,0.1517161635994911
1733859555249584000,11.301584228515624,0.002100187149643898,-0.04499291487149894,0.134095751234889
1733859555259535400,11.311535400390625,0.008638064485788344,-0.04480053410455584,0.0671463675558567
1733859555269485300,11.3214853515625,0.023226123417168853,-0.029512437145039438,-0.03613514322042465
1733859555279436000,11.33143603515625,0.037653731089830396,-0.011648206087201834,-0.09318915582895278
1733859555289386200,11.34138623046875,0.029654110638052223,-0.018782295750826596,-0.11441957538425922
1733859555299337200,11.351337158203124,0.036508214316517115,-0.034993425839394326,-0.06682137338519097
1733859555309287400,11.361287353515625,0.05724705096259713,-0.04177906739152968,-0.020348376023769377
1733859555319238100,11.371238037109375,0.035934798342734574,-0.04468041485622525,0.021276596784591675
1733859555329188000,11.38118798828125,0.03403130280897021,-0.03762304369062185,0.055393385919928546
1733859555339138300,11.39113818359375,0.021021160718798636,-0.049012671906873584,0.0539139610171318
1733859555349089000,11.401089111328124,0.025250761112570762,-0.058508741461485624,0.0767360336780548
1733859555359039200,11.411039306640625,0.014495558342337608,-0.04141271829716861,0.0922825623780489
1733859555368990200,11.420990234375,0.00560337296500802,-0.02701440978422761,0.10111059647798537
1733859555378940200,11.430940185546875,-0.008079115428775548,-0.026612112593650816,0.09037234484255313
1733859555388891100,11.44089111328125,-0.011724778454750775,-0.03619907530210912,0.09430500811636447
1733859555398841000,11.450841064453124,0.004550356780737638,-0.04240713616199791,0.13365969790518284
1733859555408792300,11.460792236328125,-0.00836859989464283,-0.04890234340019524,0.13703063564300536
1733859555418742300,11.4707421875,0.012200725403428076,-0.05491634299270808,0.10777823767364024
1733859555428693200,11.480693359375,0.01921221160069108,-0.04455233149714768,0.04066226525604725
1733859555438643200,11.490643310546876,0.03487739824429154,-0.033539719899743796,-0.05184533804953098
1733859555448594400,11.500594482421874,0.048033816937357185,-0.06293963658101856,-0.0686363138526678
1733859555458544000,11.510544189453125,0.03943944546282291,-0.07226911739706993,-0.06670329996347427
1733859555468495000,11.5204951171875,0.023395634765177965,-0.04256824500784278,-0.019800094491243363
1733859555478445300,11.5304453125,0.040392946795374154,-0.022821268943324684,0.023405425506830214
1733859555488396300,11.540396240234376,0.04216112551167607,-0.04520619229599833,0.0640484015405178
1733859555498346200,11.55034619140625,0.03605331015586853,-0.05913936751522123,0.09195347655415534
1733859555508297200,11.560297119140625,0.03434942884743213,-0.06170483408905565,0.10512041664123535
1733859555518247200,11.5702470703125,-0.0070383742041885845,-0.05242503763362765,0.13982055862247944
1733859555528198100,11.5801982421875,-0.025639322038739917,-0.04896086865440011,0.12354922277927398
1733859555538148000,11.590148193359376,0.001630231550335884,-0.047024566829577084,0.08862520891427993
1733859555548099300,11.600099365234374,0.03391585973575711,-0.026407895258441567,0.03368658102452755
1733859555558049300,11.61004931640625,0.038528906489163635,-0.015906009662151336,-0.05071253462731838
1733859555568000300,11.620000244140625,0.031728578824549915,-0.018663783937692642,-0.10979600723683833
1733859555577950200,11.6299501953125,0.03135375416278839,-0.011402195436879993,-0.11635551188290119
1733859555587901200,11.639901123046876,0.03254325620830059,-0.007956950353831052,-0.13579437184631823
1733859555597851400,11.649851318359374,0.042958997891098256,-0.002651829683035612,-0.10196282939314842
1733859555607801000,11.659801025390625,0.021418635603785513,-0.01459865339063108,-0.043811669197678565
1733859555617752300,11.66975244140625,0.021571195816993714,-0.025524682683125136,0.02614624864757061
1733859555627702300,11.679702392578125,0.030721301478147504,-0.014675298823416233,0.0738823978126049
1733859555637653000,11.689653076171876,0.026592238849401473,-0.04681823060251772,0.11116378845870495
1733859555647603200,11.699603271484374,0.011596183639019727,-0.060778220763429994,0.14976327596604824
1733859555657554200,11.70955419921875,0.005760901614278555,-0.0604319646090269,0.15058920539617537
1733859555667504400,11.71950439453125,-0.000483545733243227,-0.08137984089590608,0.13141864098012446
1733859555677455000,11.729455078125,0.021982260835915802,-0.11639759745895861,0.1610679293125868
1733859555687405000,11.739405029296876,0.020365911680459974,-0.10889124041683972,0.16546587201058863
1733859555697356300,11.749356201171874,0.01634776208028197,-0.0975038041576743,0.14289572828412056
1733859555707306200,11.75930615234375,0.014458733463287353,-0.0716492319330573,0.13277531628608702
1733859555717257200,11.76925732421875,0.03121171534359455,-0.053012920524179934,0.09276537745893002
1733859555727207200,11.779207275390625,0.009162819012254476,-0.04770283141732216,0.06372866806685924
1733859555737158400,11.789158447265624,0.0053967444770038125,-0.04049173099473118,0.019193945291638374
1733859555747108000,11.799108154296874,0.006425210741907357,-0.019428996156528593,-0.0026636662513017653
1733859555757059300,11.809059326171875,0.0029687866777181626,-0.021592092474550007,-0.028165771776437757
1733859555767009300,11.81900927734375,0.0023147066831588742,-0.014160919560492037,-0.03462415413558483
1733859555776960300,11.828960205078126,0.017981500761955975,-0.005811681953445076,-0.03197977710664272
1733859555786910200,11.83891015625,0.026877485531568525,0.0013723112665116786,-0.038249358895421026
1733859555796861200,11.848861083984374,0.047515638282150024,-0.008766440105810762,-0.0464765044927597
1733859555806811400,11.858811279296875,0.037361470144987106,-0.02456285191364586,-0.03782674956917763
1733859555816762000,11.86876220703125,0.04643047339394688,-0.018530220685899258,-0.04376315388083458
1733859555826712000,11.878712158203125,0.03718801327422261,-0.034480800142139195,-0.029520108994841573
1733859555836663300,11.888663330078124,0.026644991949945688,-0.06006174305714666,0.002849544212222099
1733859555846613200,11.89861328125,0.03388020390048623,-0.07232472004182636,0.04703939907252788
1733859555856564200,11.908564208984375,0.021374650331586597,-0.07545235054306686,0.09262684577107429
1733859555866514200,11.91851416015625,0.028739626141637564,-0.07129588845074177,0.11736322762072085
1733859555876464000,11.928464111328125,0.03261529853120446,-0.07952201113477349,0.11868892326653004
1733859555886415400,11.938415283203126,0.03010302344933152,-0.06937047334611415,0.10915069507062435
1733859555896365000,11.948364990234374,0.03613938100412488,-0.047105450046062466,0.07738368393182754
1733859555906316300,11.95831640625,0.015681114865094423,-0.03322561244927347,0.027597616499662397
