time,seconds_elapsed,z,y,x
1733859617965476900,0.021476806640625,0.16635551432669163,-0.04411700881980359,-0.048076340904831885
1733859617975427600,0.031427490234375,0.139299165096879,-0.05168700568266213,0.08751111019253731
1733859617985377500,0.04137744140625,0.031492870372533795,-0.07376943895742297,0.16394143892228602
1733859617995328800,0.051328857421875,-0.010514379751682281,-0.04538439840711653,0.13216565995514393
1733859618005278500,0.061278564453125,-0.018906360521912573,-0.0616079495858401,-0.03934007674157619
1733859618015229700,0.071229736328125,0.08150690134167671,-0.09385536465272307,-0.24872809258699416
1733859618025180700,0.0811806640625,0.10155424859225749,-0.09879282105490565,-0.228004453510046
1733859618035130600,0.091130615234375,0.000012274959683418274,-0.07382745275497436,-0.0450911876142025
1733859618045081600,0.10108154296875,-0.11242401765286922,-0.015787059457600117,0.13872282651364803
1733859618055031600,0.111031494140625,-0.07713117047548293,-0.003777472712099552,0.16657061838209627
1733859618064982500,0.120982421875,0.014724106401205061,0.016831673139706252,0.12724047851264475
1733859618074933500,0.13093359375,0.16232465137541294,-0.03763970256447792,0.00850713158249855
1733859618084883700,0.1408837890625,0.1608756216108799,-0.06025397769361734,-0.09438333404958248
1733859618094834700,0.150834716796875,0.17408055562078953,-0.05442775575816631,-0.1486760652512312
1733859618104784600,0.16078466796875,0.12134615977704524,0.015226137639209627,-0.11548106713593005
1733859618114735600,0.170735595703125,-0.006386486166715622,0.0578051232367754,-0.03417582584619522
1733859618124685600,0.180685546875,-0.06957505600750447,0.0378447966825217,0.004259995532035828
1733859618134636500,0.190636474609375,-0.055025137129426,0.025145327976718545,-0.03332008579969406
1733859618144587500,0.20058740234375,-0.08564882345199584,-0.026884207533299922,-0.11161620840132236
1733859618154537700,0.210537841796875,0.006521510723233223,-0.04901274497210979,-0.13539280530810355
1733859618164488400,0.220488525390625,0.0836859989464283,-0.03429273022413253,-0.14342881224751472
1733859618174438700,0.230438720703125,0.1512678353101015,-0.05169343542344868,-0.10827391223609446
1733859618184389600,0.2403896484375,0.056662382942438125,0.039568917061388494,0.05008475811779499
1733859618194340600,0.250340576171875,0.05324585249722004,0.04631393434219062,0.050393385675549504
1733859618204290600,0.26029052734375,0.0061129299223423,-0.0150187054336071,-0.006341477981209755
1733859618214241800,0.27024169921875,-0.053669046345353126,0.002080678731575608,-0.011632570126652716
1733859618224191700,0.280191650390625,-0.026829554736614226,-0.022453750805184244,-0.042839024773240086
1733859618234142500,0.290142578125,-0.015112228935956954,-0.05073744987286627,-0.11780804877877235
1733859618244093700,0.30009375,0.03699497492015361,-0.0366248994987458,-0.10921791508793831
1733859618254043600,0.310043701171875,0.009582651859521864,-0.018870047099515796,-0.08370470364689826
1733859618263994600,0.31999462890625,0.05526771371364593,-0.0336052594166249,-0.042858313995599744
1733859618273944600,0.329944580078125,0.05443067836761474,-0.026819617864489553,0.03691080376803875
1733859618283895800,0.339895751953125,0.0005804302364587784,-0.04071896387934684,0.03034603842496872
1733859618293846500,0.349846435546875,-0.032905075258016586,-0.04539404301829636,-0.009080547556281088
1733859618303796500,0.35979638671875,0.004558686217665672,-0.057751201092451805,-0.08231120346188545
1733859618313747700,0.369747802734375,0.0027677111476659775,-0.07509995690882205,-0.04713584518432617
1733859618323697700,0.37969775390625,0.0033750293910503387,-0.06441080511212348,0.007373743638396262
1733859618333648600,0.389648681640625,0.07786123831570148,-0.0692884210858494,0.05212824664413929
1733859618343599600,0.399599609375,0.06456628793478011,-0.06075820088870823,0.026477088037133216
1733859618353549800,0.4095498046875,0.05146715238690376,-0.013483970146998762,-0.008738602250814437
1733859618363500500,0.41950048828125,0.05802431894540786,0.016628624848276374,-0.056525604820251464
1733859618373450500,0.429450439453125,0.0359369902998209,-0.017551877173036336,-0.031086043137311933
1733859618383401700,0.439401611328125,0.0821826086461544,-0.02576258309222758,0.004050152173638344
1733859618393351700,0.4493515625,0.11210136156976222,-0.055006067102774975,0.06192132638394832
1733859618403302700,0.459302734375,0.09556699087619781,-0.11323204610012472,0.055708443218469614
1733859618413253000,0.469253173828125,0.06572013414502144,-0.11748217782527208,0.06695522889792918
1733859618423203000,0.479203125,0.09576572831869125,-0.10019026676267385,0.018240005567669866
1733859618433154000,0.489154052734375,0.08687456585466861,-0.07712569058276712,0.03971943144798278
1733859618443104000,0.49910400390625,0.11742694050669669,-0.06750833273604512,0.020899580165743826
1733859618453055200,0.50905517578125,0.11267068589031695,-0.03532273085899651,0.053013797307014464
1733859618463006000,0.519005859375,0.04827215573787689,0.01844626872949302,0.0837771843612194
1733859618472956200,0.5289560546875,0.06727145524024963,0.0007641893055289983,0.11203647964000701
1733859618482907100,0.5389072265625,0.09366904830038547,-0.012856632028892636,0.13921090229153632
1733859618492857000,0.548857177734375,0.07413783387839794,-0.023514731100201604,0.22438100231587885
1733859618502808000,0.55880810546875,0.1059936923444271,-0.028484409271553157,0.26591712779700755
1733859618512759300,0.56875927734375,0.12169628838896751,-0.06848258459568023,0.10932312902808189
1733859618522709200,0.578709228515625,0.11937164483368395,-0.0872471254941076,-0.0653600686609745
1733859618532660000,0.588659912109375,0.20063070889413356,-0.1085502449594438,-0.05642974323034286
1733859618542610200,0.598610107421875,0.20237901386618612,-0.1303643826868385,0.11244681400656699
1733859618552561200,0.60856103515625,0.1993470988243818,-0.11708689489737152,0.34046061986684795
1733859618562512100,0.61851220703125,0.16041092670857907,-0.06448489326164127,0.5171721085131168
1733859618572462000,0.628462158203125,-0.004677928683161735,-0.024207974061369895,0.4206985241860151
1733859618582413300,0.638413330078125,-0.0523848517537117,0.01725852024964988,0.2728448812335729
1733859618592363000,0.648363037109375,-0.04291384357511997,0.053137569817155596,0.21636253103315828
1733859618602314000,0.65831396484375,-0.14491174428164957,0.018733049781620503,0.04581365666985512
1733859618612265200,0.66826513671875,-0.03526654369235038,-0.049608957299590105,-0.05649287159442901
1733859618622215000,0.67821484375,0.08069733852446079,-0.05185717461779713,-0.03703530693054199
1733859618632166100,0.688166259765625,0.17926877191364765,-0.19142580430582165,-0.06325520533621311
1733859618642116000,0.6981162109375,0.18459376632869243,-0.43637854307256635,-0.19811551120281218
1733859618652067000,0.708067138671875,0.08147767524719238,-0.5832243972219526,-0.25750293519496914
1733859618662018000,0.71801806640625,0.05468260730206966,-0.5740328635718673,-0.2588742235481739
1733859618671968000,0.727968017578125,0.02365384730994701,-0.4730515194967389,-0.09603051673471927
1733859618681919000,0.7379189453125,0.019779051703214645,-0.2853978541407734,0.07649345709383487
1733859618691869000,0.747868896484375,0.05308510897755622,-0.11453465313129127,0.08481997141242027
1733859618701820200,0.757820068359375,0.06018471184968948,-0.08027041834928095,0.06337094067037105
1733859618711770000,0.76777001953125,-0.03457446977496147,-0.066285586008057,0.09336568143963814
1733859618721721000,0.77772119140625,-0.17170038248598574,0.014807985292375087,0.2064583921343088
1733859618731672000,0.787672119140625,-0.23413141195774076,0.08753945950418711,0.35558161663115023
1733859618741622300,0.797622314453125,-0.1141547869682312,0.0852286252785474,0.36956338023245333
1733859618751573000,0.807572998046875,0.07245382631421089,0.051806248148158186,0.31564532756209374
1733859618761523000,0.81752294921875,0.26048984205126763,-0.061130322136729955,0.23189620025157928
1733859618771474200,0.82747412109375,0.3888005801439285,-0.24729287215210496,0.1708528257459402
1733859618781425000,0.8374248046875,0.4018365873277187,-0.45244339655824,0.09592296470701694
1733859618791375000,0.847375,0.2782318349689245,-0.5732620983950794,0.05567044929563999
1733859618801326000,0.857326171875,0.25043138937354087,-0.6783935478869825,0.1399175892561674
1733859618811276300,0.8672763671875,0.25168811143636705,-0.4362968561384827,0.3319190014928579
1733859618821227000,0.87722705078125,0.24825872150957584,-0.13497684491835535,0.24621581750512123
1733859618831178200,0.88717822265625,0.30332652873694893,-0.041723172485828394,0.09264496594965457
1733859618841128200,0.897128173828125,0.007615735700726508,0.03221417038440704,0.1097410621792078
1733859618851079000,0.907078857421875,-0.14241232868134976,0.29007337167114017,0.026020576441287992
1733859618861029000,0.917029052734375,-0.17946867839992045,0.33697562729530034,-0.0205740014731884
1733859618870980000,0.92697998046875,-0.26829087119102474,0.42373051229305564,0.031087212181091308
1733859618880931000,0.93693115234375,-0.1364408530563116,0.3257256998106837,-0.06572071866691112
1733859618890881000,0.946881103515625,-0.227808638677001,0.24891513959169387,-0.1890641897410154
1733859618900832300,0.956832275390625,-0.2116834333062172,0.1570809785682708,-0.40840953597724433
1733859618910782200,0.9667822265625,-0.13592296666204928,-0.05772833167351782,-0.5976034895777702
1733859618920733000,0.97673291015625,-0.33778584769964215,-0.12931443524248898,-0.5661649797409772
1733859618930684200,0.98668408203125,-0.18285189109742642,0.08356346854530275,-0.5670762493669986
1733859618940634000,0.996634033203125,-0.12704349463582038,0.29515805452428756,-0.45736207519471644
1733859618950585000,1.006585205078125,-0.14683189868927002,0.5603901226665824,-0.11321195316016673
1733859618960535000,1.01653515625,-0.08042612036764621,0.7428790987357496,0.10851707334220409
1733859618970486300,1.026486328125,-0.1564706646502018,0.825657115991786,0.21731939336657524
1733859618980437000,1.03643701171875,-0.15976093836724758,0.7552311422433704,0.217019533637166
1733859618990387200,1.04638720703125,-0.1701736113101244,0.5366201746962964,0.018288520884513854
1733859619000338200,1.056338134765625,-0.2324129176020622,0.4709649224810302,-0.21767244458794593
1733859619010288000,1.0662880859375,-0.24572715720534324,0.381722385386005,-0.282296600189805
1733859619020239000,1.076239013671875,-0.13851765933036803,0.21072620564661917,-0.1774848111063242
1733859619030190000,1.086190185546875,0.030624270844459532,0.10443338422514498,-0.12923720528781413
1733859619040140000,1.09614013671875,0.22949966050386428,-0.07192505319975316,-0.13449907133877276
1733859619050091000,1.106091064453125,0.4201730390071869,-0.1858262307330966,0.12368950803279875
1733859619060041200,1.116041259765625,0.5238157843112945,-0.20922179243303834,0.4035509900301695
1733859619069992200,1.1259921875,0.5875777701258659,-0.20991715428605676,0.6572165390193462
1733859619079942000,1.13594189453125,0.5887362925112247,-0.22168124183788895,0.8296043192476034
1733859619089893000,1.14589306640625,0.5285439818769693,-0.23825528695471584,0.8931067773431539
1733859619099844000,1.155843994140625,0.40854397601187226,-0.28134572920575734,0.7219447395175695
1733859619109794000,1.1657939453125,0.25104630640149117,-0.387669895613566,0.3223082925826311
1733859619119745000,1.1757451171875,0.08066109816730022,-0.5179533950839191,-0.06996727019548415
1733859619129695200,1.1856953125,-0.085476974016428,-0.5084238616511225,-0.25508476813733577
1733859619139646000,1.19564599609375,-0.1919932289302349,-0.48920953115858135,-0.3533119181334972
1733859619149597200,1.20559716796875,-0.24273031347692012,-0.38894042700603604,-0.3390378935873508
1733859619159547100,1.215547119140625,-0.3064472911059856,-0.2507120329458266,-0.2894260136783123
1733859619169498000,1.225498046875,-0.30981589075624943,-0.1794583031363785,-0.41526948487460613
1733859619179448000,1.235447998046875,-0.24796938317418096,-0.14693711262941359,-0.5739946504533291
1733859619189399000,1.24539892578125,-0.3576356265515089,-0.020770912284776566,-0.5649509277760982
1733859619199350000,1.25535009765625,-0.5205915615677833,0.18320348101407288,-0.4884504564195871
1733859619209300000,1.265300048828125,-0.33898061044216155,0.28347616536319253,-0.4194295271635055
1733859619219251200,1.275251220703125,-0.14171090241372583,0.2405645137451589,-0.47621407518088815
1733859619229201200,1.285201171875,-0.058821022281050676,0.22324812582843004,-0.4938537767678499
1733859619239152000,1.295152099609375,-0.06324409942030906,0.17248283810056744,-0.3511772441923618
1733859619249103000,1.30510302734375,-0.1400876851260662,0.13139876723587512,-0.16637772615849972
1733859619259053000,1.315052978515625,-0.14866963551044463,0.14559658474065362,-0.01634849273264408
1733859619269004000,1.325004150390625,-0.11730594447553157,0.1409038968797773,0.06085106680393219
1733859619278954000,1.3349541015625,-0.04318213912248611,0.06701799193583428,-0.07793313450813293
1733859619288905200,1.3449052734375,-0.0037526305317878723,-0.03508483044989407,-0.25950024649202824
1733859619298856000,1.35485595703125,-0.04593523722290992,-0.15324293477535247,-0.471553682154417
1733859619308806100,1.36480615234375,-0.04914601596295833,-0.17529935682602227,-0.5894967554897069
1733859619318757000,1.374757080078125,-0.11297463727295398,-0.11716938554905354,-0.7012357134878635
1733859619328707000,1.38470703125,-0.15679741238653658,-0.10170498217456042,-0.8110527635127306
1733859619338658000,1.394657958984375,-0.1057499467164278,0.006216390296816826,-0.7084259172528982
1733859619348609300,1.404609375,-0.10334171653091907,0.15713658121302723,-0.3998299236804247
1733859619358559200,1.414559326171875,-0.14877718753814698,0.19175942017436026,-0.07963058607578277
1733859619368510000,1.424510009765625,-0.15584990240335464,0.16877645786330103,0.01702127742767334
1733859619378460200,1.434460205078125,-0.006305822145938873,0.11511186849735676,-0.02976210105717182
1733859619388411100,1.4444111328125,0.10645078846216201,0.06876468947269022,0.08850713549256324
1733859619398362000,1.454362060546875,0.14446283147037028,0.10573146121166646,0.312151640227437
1733859619408312000,1.46431201171875,0.26974633069634435,0.11541041305251419,0.5089484700471163
1733859619418265600,1.474265625,0.3582856148928404,0.07705174856372177,0.615095891648531
1733859619428215600,1.484215576171875,0.1963157683044672,0.10481858415044844,0.6087181733101606
1733859619438166500,1.49416650390625,0.11559271081686019,0.11012107447274029,0.39578620124757286
1733859619448116500,1.504116455078125,0.11544950295388698,-0.004888794954866171,0.2933189294636249
1733859619458067700,1.514067626953125,0.10110825839042663,-0.17608100872300564,0.38329438394308085
1733859619468018400,1.524018310546875,0.1559001712858677,-0.40929910522811114,0.48557168611288065
1733859619477968600,1.53396875,0.2261351525068283,-0.41819823180288074,0.7155149987310171
1733859619487919600,1.543919677734375,0.3213268803298473,0.07433211434148251,0.9768132345557212
1733859619497869600,1.55386962890625,0.3399363037317991,0.11236943792141973,0.7635843253731727
1733859619507820500,1.563820556640625,0.21471242573857305,-0.16186718993149696,0.47183074553012844
1733859619517771500,1.573771484375,0.07317571084797382,-0.3770401458539068,0.4650613975256681
1733859619527721700,1.5837216796875,0.30340836180150504,-0.4760957825634628,0.26883623011410235
1733859619537672400,1.59367236328125,-0.07308160282373428,-0.5131669645249843,0.6030436348050833
1733859619547623700,1.603623779296875,-0.23455051415264605,-0.4270978698343038,0.6705763713300228
1733859619557573600,1.61357373046875,0.20509002639055252,-0.10452646933607757,0.1038373910933733
1733859619567524600,1.623524658203125,0.12606968116760253,0.057301849889755244,-0.16366729815602302
1733859619577474600,1.633474609375,0.011991466566920279,0.1266330872040242,-0.2296247481882572
1733859619587425800,1.64342578125,-0.003353402081131935,0.15467662084028125,-0.24511808539628982
1733859619597375700,1.653375732421875,-0.07600655035972595,0.1695850708324462,-0.31737843496501444
1733859619607326500,1.663326416015625,-0.11649638165831565,0.17525939014181494,-0.4405436268627643
1733859619617277700,1.673277587890625,-0.0423415966451168,0.18823782191947103,-0.5463578709870577
1733859619627227600,1.6832275390625,0.05010755447149277,0.10982640237510204,-0.5648527280986309
1733859619637178600,1.6931787109375,0.06663900255560874,0.019033567098155617,-0.5029220493644475
1733859619647128600,1.703128662109375,0.0865396348118782,-0.029855770689994093,-0.43892216314077376
1733859619657079800,1.713079833984375,0.07717734770476818,-0.05174933032914996,-0.4208487463116646
1733859619667030500,1.723030517578125,0.06734861212968826,-0.014122633376717566,-0.4511497765511274
1733859619676980500,1.73298046875,0.03022445787191391,0.035150369966775175,-0.5666548090845346
1733859619686931700,1.742931640625,-0.00999766240119934,0.07160970364026725,-0.6287900704801083
1733859619696881400,1.75288134765625,-0.08320435290932655,0.029547946849837897,-0.5396539894342423
1733859619706832600,1.76283251953125,-0.1193523556113243,-0.060769891326501964,-0.3695464290976524
1733859619716783600,1.77278369140625,-0.08277297575473785,-0.1404198396898806,-0.18810031314492223
1733859619726733600,1.782733642578125,-0.00234627086520195,-0.13550134371649472,-0.05111585473120212
1733859619736684500,1.7926845703125,0.13553542864918708,-0.08981916793920099,0.054393853488564486
1733859619746634500,1.802634521484375,0.2572352241694927,-0.07774740267768501,0.12410685666203498
1733859619756585500,1.81258544921875,0.24691490568518637,-0.06165193485803902,0.1529366453051567
1733859619766536400,1.822536376953125,0.26779753471612927,-0.022018610790930686,0.19060498944222926
1733859619776486700,1.832486572265625,0.23008418239355086,-0.023979389469884333,0.2888461679637432
1733859619786437600,1.842437744140625,0.16702128475904462,-0.022950009889528153,0.2683639364272356
1733859619796387600,1.8523876953125,0.15090367817282677,0.010099624938331544,0.16085107169151305
1733859619806338600,1.862338623046875,0.12846388282775878,0.001679221791215241,0.08422843526005744
1733859619816289500,1.87228955078125,0.11890694993138312,-0.03987045729123056,0.037549686193466186
1733859619826239500,1.882239501953125,0.10036533106863497,-0.05191664972007274,0.053468555337190624
1733859619836190700,1.892190673828125,0.04870236384868622,-0.10010185782685875,0.13977496591508387
1733859619846140700,1.902140625,-0.03958265332579612,-0.1282405224006623,0.19552374114394186
1733859619856091400,1.91209130859375,-0.05734802711904049,-0.14526987353693693,0.2310112341105938
1733859619866042600,1.922042724609375,-0.012663666740059852,-0.16301614077091217,0.21478607549667358
1733859619875992600,1.93199267578125,-0.020340192717313764,-0.15549290565922855,0.2002583684504032
1733859619885943600,1.941943603515625,-0.09158756585121154,-0.15893318230621517,0.1760334432542324
1733859619895893500,1.9518935546875,-0.16821604750156402,-0.0854587807726115,0.11131634867191315
1733859619905844700,1.9618447265625,-0.19640520015358923,0.02271715098172426,0.11705343101918697
1733859619915795500,1.97179541015625,-0.20171850413084028,0.10711809326447545,0.1855412763118744
1733859619925745400,1.981745361328125,-0.11551555392742156,0.14212744732536375,0.1436164437741041
1733859619935696600,1.991696533203125,-0.039382162317633626,0.12161876617334783,0.06416004522144794
1733859619945647400,2.0016474609375,0.020990765580534934,0.09539565289728343,0.05262275216281414
1733859619955597600,2.01159765625,0.17914602231681345,0.06933781318552791,0.21696166597008704
1733859619965548500,2.021548583984375,0.11920388705134391,0.015224018747359513,0.22078619269430635
1733859619975498800,2.031498779296875,-0.041992052555084224,-0.0499592320419848,0.05051613527238369
1733859619985449500,2.041449462890625,-0.28552783719599245,-0.09524133911840617,-0.10671090070307254
1733859619995399400,2.0513994140625,-0.46824178112745285,-0.14888495876155794,-0.23978783028423784
1733859620005350700,2.0613505859375,-0.4545832581311464,-0.20516769473664462,-0.32115561541616916
1733859620015301600,2.071301513671875,-0.18477555263638495,-0.17879099833406506,-0.16805355041623116
1733859620025251600,2.08125146484375,0.15259762260913848,-0.10010470737107098,0.21690321378111838
1733859620035202600,2.09120263671875,0.3314817791193723,-0.05221234473101794,0.5381488455682992
1733859620045152800,2.10115283203125,0.36680677500069137,-0.014772987044230102,0.680229165816307
1733859620055103500,2.111103515625,0.30471126109361646,-0.017693039209395647,0.5981909340769053
1733859620065054700,2.1210546875,0.1799064852952957,-0.06491203263252973,0.3542220187157392
1733859620075004700,2.131004638671875,0.04577157109379768,-0.10689071424938738,0.15742168176472185
1733859620084955600,2.14095556640625,-0.061569444206357,-0.13870989396683872,0.056896191698312754
1733859620094906600,2.15090673828125,-0.0703577308177948,-0.11826711765788495,0.02168108593225479
1733859620104856600,2.160856689453125,-0.033062896168231964,-0.0503373446393758,-0.015506781211495398
1733859620114807600,2.1708076171875,0.0002829085946083069,0.0049299306828528636,-0.16868424953520297
1733859620124757500,2.180757568359375,0.08155307857096195,0.06548975945524871,-0.3251607594043016
1733859620134708700,2.190708740234375,0.1322580144137144,0.09920015974678098,-0.4324608581721782
1733859620144659500,2.200659423828125,0.05156476754248142,0.11141549819745122,-0.47267245705127714
1733859620154609700,2.210609619140625,-0.0380891998976469,0.11749795991629361,-0.39168811827898026
1733859620164560600,2.220560546875,-0.0527115994900465,0.08247289682962,-0.22974808230698107
1733859620174510600,2.230510498046875,-0.008697685718536376,0.018371230731904505,-0.0654343029409647
1733859620184461600,2.240461669921875,0.05051671979427337,-0.022848230015486477,-0.012449731728434561
1733859620194412800,2.250412841796875,0.056101241928339,-0.05571735717728734,-0.04444412188231945
1733859620204362800,2.26036279296875,0.10990940448343753,-0.0756220810867846,-0.09325696036815642
1733859620214313500,2.2703134765625,0.045728316473960876,-0.09427417458668351,-0.19325462716817854
1733859620224263700,2.280263671875,-0.009095160603523254,-0.11961005669943987,-0.2704085939973593
1733859620234214700,2.290214599609375,0.0344599034845829,-0.1069799269028008,-0.20975918724536893
1733859620244165600,2.30016552734375,0.03223755125999451,-0.0836151256673038,-0.11696692177951336
1733859620254115600,2.310115478515625,-0.003065232789516449,-0.06904840178489685,-0.032194881162047384
1733859620264066800,2.32006689453125,0.02914893759489059,-0.08283873446732759,0.06860182706117629
1733859620274016500,2.3300166015625,0.09981471144855023,-0.04918006436303258,0.15041209526360033
1733859620283967500,2.339967529296875,0.10971358965039253,-0.05145283160060644,0.1737988160699606
1733859620293918700,2.349918701171875,0.04273439535498619,-0.054681365193054075,0.13643091618418693
1733859620303868400,2.359868408203125,0.030150223591923712,-0.05852949198856949,0.0752682992130518
1733859620313819600,2.369819580078125,0.01972527568936348,-0.05721519451960921,0.08036357652544975
1733859620323769600,2.37976953125,0.04109481145441532,-0.06185264506191015,0.06061901161372661
1733859620333720600,2.389720458984375,0.004071779483556747,-0.04792144260406494,0.05591185683608055
1733859620343671600,2.399671630859375,0.016546061131358147,-0.04030388027243316,0.07197276479899883
1733859620353621500,2.40962158203125,0.059711833640933035,-0.03359408043548465,0.08272036878466606
1733859620363572500,2.419572509765625,0.04073357692658901,-0.03519391684755683,0.07432195827364921
1733859620373522400,2.4295224609375,0.05680675984919071,-0.03679857556521892,0.10500058965384959
1733859620383473700,2.4394736328125,0.04916881231665611,-0.01925327426344156,0.11976385902166366
1733859620393424400,2.44942431640625,0.05386486117839813,0.034942572434991596,0.07224982817471028
1733859620403374600,2.45937451171875,0.051856443965435026,0.04331789433136582,-0.002245148578286171
1733859620413325600,2.46932568359375,0.03572247076630592,0.01697619617693126,-0.1005079544097185
1733859620423274800,2.479274658203125,-0.0035170682102441788,-0.04029350500889122,-0.12797405348420143
1733859620433225700,2.489225830078125,-0.014521861827373504,-0.09844181566014885,-0.07247019292712212
1733859620443176700,2.4991767578125,-0.010641805523633956,-0.12488902001567184,0.014671499431133269
1733859620453126700,2.509126708984375,0.006404606345295906,-0.11298800821118056,0.03545943591594696
1733859620463078000,2.519077880859375,0.055498015338182445,-0.09962583781294525,0.043506548771262164
1733859620473027600,2.529027587890625,0.09603577743172645,-0.07502747619450092,0.07680500726103782
1733859620482978800,2.538978759765625,0.1536819107145071,-0.04327712392956018,0.07929507051110267
1733859620492929800,2.5489296875,0.12273498378694057,-0.04719451656900346,0.006525017854571342
1733859620502879700,2.558879638671875,0.07225391982793808,-0.09013203328065574,-0.05162555781900882
1733859620512830700,2.568830810546875,-0.0016495207726955413,-0.0834456873845309,-0.010620762735605239
1733859620522780700,2.57878076171875,-0.04147182807326317,-0.0620676760520786,0.03528817100226879
1733859620532731600,2.588731689453125,-0.06913432650268077,-0.033276246657967565,0.040051439881324764
1733859620542682600,2.5986826171875,-0.018546879559755324,-0.023015037949755787,-0.014056582403182983
1733859620552632800,2.6086328125,-0.010547112977504729,0.02600676711164415,-0.13652151707708834
1733859620562583800,2.618583740234375,-0.03916764278411865,0.02798471612110734,-0.19126783726513386
1733859620572533500,2.628533447265625,-0.008922142124176025,0.029946006256714463,-0.12523615295290946
1733859620582484700,2.638484619140625,0.02765899129807949,-0.002324716620519757,-0.024065350720286368
1733859620592435700,2.648435791015625,0.05046878899931907,-0.023590865076333283,0.025827099695801735
1733859620602385700,2.6583857421875,0.027697569742798803,-0.05917787289470434,0.01849485711157322
1733859620612336600,2.668336669921875,0.02435118192434311,-0.07700564439967274,0.03833995978832245
1733859620622286800,2.678286865234375,0.011674071180820464,-0.09163213564530015,0.004134907847642899
1733859620632237600,2.688237548828125,0.014702479091286658,-0.07979827079288661,-0.02094517287313938
1733859620642188800,2.698188720703125,0.001883329528570175,-0.04195055150091648,0.03357844447493553
1733859620652138800,2.708138671875,-0.00856675281524658,-0.008190028457343578,0.13104045531749725
1733859620662089700,2.71808984375,0.01698328350484371,-0.014644465293735264,0.2064969705790281
1733859620672039700,2.728039794921875,0.09103753075301646,-0.01603263171650469,0.2148544645577669
1733859620681990700,2.73799072265625,0.10293547381758689,-0.031737492783367634,0.08088087839782238
1733859620691941600,2.747941650390625,0.04561082757413387,-0.06905176278576254,-0.03845744868814945
1733859620701891600,2.7578916015625,0.027073300364613532,-0.1217157968070358,-0.04621639225184917
1733859620711842800,2.7678427734375,0.07038461882472039,-0.10947269356660544,0.05153729501366615
1733859620721792800,2.777792724609375,0.11285364124178886,-0.04172054213732481,0.16830255674123762
1733859620731743700,2.78774365234375,0.12135901925861835,-0.012435776268318295,0.14432371526062487
1733859620741694700,2.79769482421875,0.07769172696769237,-0.046646308101713656,0.028602994149923323
1733859620751644700,2.807644775390625,0.03075169661641121,-0.05115377558879554,-0.025519056659936902
1733859620761595600,2.817595703125,-0.0007318214058876037,-0.03773183782733976,-0.032225276300311086
1733859620771545600,2.827545654296875,-0.03252747411727905,-0.032698373704776164,0.012055179452896117
1733859620781496800,2.837496826171875,-0.021416297516226767,-0.04037124642021954,0.06945873615145683
1733859620791447600,2.847447509765625,-0.02004851629436016,-0.0347879663951695,0.05961714109480381
1733859620801397800,2.857397705078125,-0.03771978206336498,-0.038747298480197784,0.02721592370569706
1733859620811348700,2.8673486328125,-0.01579904215633869,-0.08542246735021472,0.09025134881138801
1733859620821298700,2.877298583984375,0.049343584361672396,-0.10044022293575107,0.21356500926911828
1733859620831249700,2.887249755859375,0.07165653845667838,-0.12652078593596816,0.3478799562126398
1733859620841201000,2.897200927734375,0.15573358254730701,-0.14786087641082704,0.37978491451740265
1733859620851150800,2.90715087890625,0.21510639349222183,-0.15151523419991134,0.35499767926335335
1733859620861101600,2.9171015625,0.24937223570942876,-0.14807429996579885,0.3503150744050741
1733859620871051800,2.9270517578125,0.24871231049597262,-0.13897943162322043,0.2357072829723358
1733859620881002800,2.937002685546875,0.14974340222179888,-0.10659399632513522,-0.05499591103494167
1733859620890953700,2.94695361328125,-0.07175473813414573,-0.06990954865887761,-0.3394061423778534
1733859620900903700,2.956903564453125,-0.25566987454891205,-0.02393142214231193,-0.5327402645230292
1733859620910855000,2.96685498046875,-0.2877794155150652,0.027599370065331457,-0.6430787080734968
1733859620920804900,2.976804931640625,-0.2615314600586891,0.03249335265196859,-0.5408493366986513
1733859620930755600,2.986755615234375,-0.04574760569632053,0.02887969219945371,-0.20973229923844336
1733859620940706800,2.996706787109375,0.17196517090201377,0.007706848050281405,0.13137421731650828
1733859620950656800,3.00665673828125,0.2293675585567951,0.019040508295595646,0.2628448807448149
1733859620960607700,3.016607666015625,0.19250994628071783,0.052011853722855446,0.13899229110479355
1733859620970557700,3.0265576171875,0.0541927779585123,0.053325420539453626,-0.11094517727196215
1733859620980509000,3.036509033203125,-0.03956804027855396,0.055488224596530196,-0.23806290618777273
1733859620990459600,3.046459716796875,-0.08032587486356496,0.0066493018213659525,-0.2396855389535427
1733859621000409600,3.05640966796875,-0.08934972379654646,-0.04354213154129684,-0.11558277394473553
1733859621010360800,3.06636083984375,-0.0211012402176857,-0.08940598402842878,0.046698622810840605
1733859621020310500,3.076310546875,0.09642916066348552,-0.12998795058988033,0.17289748331606386
1733859621030261800,3.08626171875,0.14845833084732293,-0.14552936472333966,0.27216040610074993
1733859621040212700,3.096212646484375,0.13780278905928134,-0.1366400288902223,0.3017360446751117
1733859621050162700,3.10616259765625,0.1174985444381833,-0.09032456017807125,0.30526480332314965
1733859621060113700,3.11611376953125,0.06540683041214942,-0.02997698591686785,0.2276806283831596
1733859621070063900,3.12606396484375,0.04346504771709442,-0.05370294861495495,0.11483926210105419
1733859621080014600,3.1360146484375,0.00689414342790842,-0.08106047274842858,0.00043020811080932614
1733859621089965800,3.1459658203125,-0.058579907001554965,-0.0918444632217288,-0.10788988135457038
1733859621099915800,3.155915771484375,-0.06558920124173163,-0.09946071037910878,-0.061063832771778105
1733859621109866500,3.165866455078125,0.021424773083627224,-0.09081943102292717,0.09735971951186656
1733859621119816700,3.175816650390625,0.03108049017935991,-0.0573528494246304,0.12710662299990652
1733859621129767700,3.185767578125,0.002513444125652313,-0.034499358712136746,0.03778291042745113
1733859621139718700,3.19571875,-0.01129997717142105,-0.03356872679851949,-0.06821604261398315
1733859621149668600,3.205668701171875,-0.022001696188747883,-0.00814860046841204,-0.13245090663731096
1733859621159619800,3.215619873046875,-0.028942309106886385,0.004430383662879467,-0.1751882246017456
1733859621169569800,3.22556982421875,-0.045615503749251364,0.04161832387186586,-0.12487491842508315
1733859621179520500,3.2355205078125,0.016214052698016165,0.06922149332948029,-0.01915536684691906
1733859621189471700,3.2454716796875,0.03599602701067924,0.056535980083793395,-0.00012099603116512298
1733859621199421700,3.255421630859375,0.036439971385896205,0.028595030039176343,0.006941197440028191
1733859621209372700,3.26537255859375,0.0265431390106678,-0.006508943502604961,0.03744739486277103
1733859621219322600,3.275322509765625,0.029841596034169197,-0.007711305029690265,0.09786007024943828
1733859621229273900,3.28527392578125,0.04908171855509281,-0.006658215780183672,0.11532207718193531
1733859621239224600,3.295224609375,0.1354065415725112,0.029582433641329405,0.03356850760281086
1733859621249174800,3.3051748046875,0.2069721868753433,0.009878566066175699,-0.13240005323290824
1733859621259125800,3.315125732421875,0.2177607073932886,-0.0532273669924587,-0.3377461002111435
1733859621269075700,3.32507568359375,0.21180559838116167,-0.07585245577655732,-0.45822424498200415
1733859621279026700,3.335026611328125,0.17630290784537792,-0.009041092328727246,-0.4341448657363653
1733859621288977700,3.344977783203125,0.09701426707506179,0.0825775262478739,-0.2972422403872013
1733859621298927900,3.354927978515625,0.03844049755334854,0.14013919611759482,-0.13520692734718323
1733859621308878600,3.364878662109375,0.010924714118242264,0.16682240118607877,0.031901451173424716
1733859621318828800,3.374828857421875,0.014466332247853278,0.15416216851212083,0.15820727918446062
1733859621328779800,3.38477978515625,0.01752747338414192,0.09486001165062188,0.2037970639705658
1733859621338730800,3.394730712890625,-0.03896598273217678,0.0015933336060494183,0.13217910395860671
1733859621348680700,3.4046806640625,-0.08001227886974811,-0.12563494301214814,0.06829787567853927
1733859621358631700,3.414631591796875,-0.10425649328827857,-0.2099310366809368,-0.010530746364593505
1733859621368582000,3.424581787109375,-0.12056114687919615,-0.20341244856715202,-0.0070125091105699535
1733859621378532600,3.43453271484375,-0.06960252853631974,-0.15421294885128736,0.06193593943119049
1733859621388482800,3.44448291015625,-0.0007277297526597976,-0.13732633065395056,0.1326595809519291
1733859621398433800,3.454433837890625,0.025828853261470792,-0.13313172850832342,0.21785423089563846
1733859621408384800,3.464384765625,0.0614256518214941,-0.13614735000245273,0.3111316495299339
1733859621418333000,3.4743330078125,0.10022621485888958,-0.14655461611784995,0.2780027023881674
1733859621428284000,3.484283935546875,0.06570961275100708,-0.14526092304550112,0.15761866564154625
1733859621438233900,3.49423388671875,0.031919571352005,-0.12102766841240227,0.0931447321653366
1733859621448185000,3.50418505859375,0.008542787417769431,-0.0516456507589668,0.18386837466359138
1733859621458135800,3.5141357421875,-0.012259469853341578,-0.011441577599197625,0.25869360628426075
1733859621468085800,3.524085693359375,-0.04558949252516031,-0.009324439314752816,0.26642157018780704
1733859621478037000,3.534037109375,-0.05000292505323887,-0.02826623647622764,0.16391045926213263
1733859621487986700,3.543986572265625,-0.02620850022882223,-0.05532879625111818,-0.041003041517734526
1733859621497938000,3.55393798828125,0.028965397721529004,-0.07050875666104257,-0.24778642782270907
1733859621507889000,3.563888916015625,0.04476414761692285,-0.03906294030062854,-0.4004728977590799
1733859621517838800,3.5738388671875,0.03515431548953056,0.022273425802215932,-0.475945779633522
1733859621527789800,3.583789794921875,0.06989303591549396,0.03570230476111173,-0.3956114292025566
1733859621537740000,3.593739990234375,0.09270838657468557,0.02274557335861027,-0.1911778208941221
1733859621547690800,3.603690673828125,0.1440504512771964,-0.0027103549372404813,-0.015405074402689933
1733859621557642000,3.61364208984375,0.1723603076994419,-0.006516761482879519,0.06003039807081222
1733859621567592000,3.623592041015625,0.15390578259825705,-0.019935630504414437,0.0321592253267765
1733859621577542700,3.633542724609375,0.07938274879455566,-0.05285035037361085,0.021148001968860623
1733859621587492900,3.643492919921875,0.05200725061297416,-0.05818462407365441,0.04168342499732971
1733859621597443800,3.65344384765625,0.07694470799267292,-0.022931451319530605,0.03933481604456901
1733859621607394800,3.663394775390625,0.05515723907649517,-0.05590703453049063,0.03993745811283588
1733859621617344800,3.6733447265625,0.05460077423751354,-0.10825243105664849,0.098477909886837
1733859621627296000,3.6832958984375,0.07617197005450725,-0.12530366523116826,0.18021569737493992
1733859621637246000,3.693245849609375,0.06827624836862087,-0.12554331920593975,0.1894569884508848
1733859621647196700,3.70319677734375,0.01980330936163664,-0.1216658201854676,0.14105623789727686
1733859621657148000,3.71314794921875,-0.016032266390323638,-0.09073051063045859,0.059167643761634824
1733859621667097900,3.723097900390625,-0.01647358041703701,-0.06535458876825868,-0.05059972190260887
1733859621677048800,3.733048828125,-0.03909428528696298,-0.0710105687033385,-0.1088216092467308
1733859621686998800,3.742998779296875,-0.01492810454070568,-0.09516666644699871,-0.07677753473222255
1733859621696950000,3.752949951171875,-0.03247603619098663,-0.06907682416178286,-0.029822891333699225
1733859621706900700,3.762900634765625,0.005768646529316902,-0.04015738447383046,-0.011402853024005889
1733859621716851000,3.772850830078125,0.04039455423057079,-0.016685177341103554,-0.008192074283957481
1733859621726802000,3.782802001953125,0.061980363094806666,-0.015493775599449871,-0.020673954716324806
1733859621736751900,3.792751953125,0.04800970540940761,-0.024224194543808697,-0.021253800430893897
1733859621746702800,3.802702880859375,0.030994857722520825,-0.055055678398162125,0.010762801554799079
1733859621756653800,3.81265380859375,0.0031722002953290937,-0.04280490330792963,0.011214052453637123
1733859621766604000,3.82260400390625,0.017844868770241735,-0.006431713547930121,-0.015747604230046272
1733859621776554800,3.8325546875,0.03863280525505543,0.025561653692647814,-0.053420624542236325
1733859621786505000,3.8425048828125,0.03514963931441307,0.02791318525485694,-0.03790741358995437
1733859621796456000,3.8524560546875,0.05678396349549293,0.008497998427972197,0.013097381982207298
1733859621806407000,3.862406982421875,0.10815700785815716,-0.005488076022267341,0.04357376878857613
1733859621816356900,3.87235693359375,0.11045184079706669,-0.027789266614243385,0.012649053692817687
1733859621826307800,3.882307861328125,0.07928338007330894,-0.034778906305879355,-0.020258359652757643
1733859621836258000,3.892258056640625,0.05771919851899147,-0.00868109990991652,-0.03939151466786861
1733859621846208800,3.902208740234375,0.03201163354963064,0.021166341343149542,-0.028260464322566986
1733859621856160000,3.912159912109375,0.03796645030081272,0.0012365560576319693,-0.026803835773468017
1733859621866110000,3.92210986328125,0.012743746238946915,-0.055283203543722625,-0.0035766894429922103
1733859621876061000,3.93206103515625,0.015626023676991462,-0.05029810860753059,0.008340542843937874
1733859621886011000,3.942010986328125,0.04570288977175951,-0.028214287093281745,-0.015880875220894812
1733859621895962000,3.951962158203125,0.024913491982221602,-0.04228402123898267,-0.09962883348762988
1733859621905912800,3.961912841796875,-0.01403320152759552,-0.06606558658182621,-0.1004991865813732
1733859621915862800,3.97186279296875,0.013050620231032371,-0.07647161058820784,-0.012964695513248442
1733859621925814000,3.98181396484375,0.05624269622564315,-0.07252228844054043,0.06844108354151249
1733859621935763700,3.991763671875,0.05570435156524181,-0.05991035188771784,0.13011574168801307
1733859621945715000,4.00171484375,0.0646498745650053,-0.05800714861489832,0.13678338288366793
1733859621955666000,4.011666015625,0.06465718108862638,-0.09103943044915795,0.08456395082473754
1733859621965615900,4.021615966796875,0.03517652732133865,-0.08902312219068408,0.04925532155632972
1733859621975566800,4.03156689453125,0.00043079263269901275,-0.08267053829357028,0.03774842363595962
1733859621985516800,4.041516845703125,0.006668225717544555,-0.06769274939224124,0.023038345760107038
1733859621995467800,4.0514677734375,0.037727380847930904,-0.0593457037422806,0.0028425299495458602
1733859622005418800,4.061418701171875,0.04130143994241953,-0.047728623445704575,0.019571546432375908
1733859622015369000,4.071368896484375,0.0943430020391941,-0.050073652201890945,0.03971358622908592
1733859622025320000,4.08131982421875,0.07621873180568217,-0.030740079243853687,0.0436053329706192
1733859622035270000,4.091269775390625,0.030454174974560735,-0.020325579670071602,0.10155892476737499
1733859622045220900,4.101220947265625,0.031360183903574944,-0.02113068550787866,0.09048457304537295
1733859622055171800,4.111171875,0.03456161029338836,-0.017742577439546586,0.020678046369552613
1733859622065121800,4.121121826171875,0.015619301675260065,-0.02150887117050588,-0.05981003331840038
1733859622075072800,4.13107275390625,0.02420505145192146,-0.0213267195366323,-0.09569441664814948
1733859622085023000,4.14102294921875,0.07891951519697904,-0.0005696165814995766,-0.10682897412478923
1733859622094973700,4.1509736328125,0.048448681348562235,0.013524156026914714,-0.1169780276954174
1733859622104925000,4.160925048828125,0.025368542273342606,-0.00480623123794794,-0.04292436496913433
1733859622114875000,4.170875,0.03304331468492746,-0.03180653943158686,0.017016016730666158
1733859622124825900,4.180825927734375,0.03202683111876249,-0.06450169826596976,0.03948386912643909
1733859622134775800,4.19077587890625,0.013003566218912601,-0.1018385454263538,0.05227846876978874
1733859622144727000,4.20072705078125,0.016733108136057852,-0.12761997934952377,0.04719838902652263
1733859622154677800,4.210677734375,0.0455246105954051,-0.08429105216749012,0.035164252361655234
1733859622164627700,4.220627685546875,0.04859247373342514,-0.030459727932512757,0.016289456021785734
1733859622174579000,4.230578857421875,0.058259589006006716,-0.022224691289663312,-0.030752281138300894
1733859622184529000,4.24052880859375,0.05967471650093793,-0.03527940317392349,-0.03169277685880661
1733859622194479900,4.25047998046875,0.0182233466938138,-0.0722000707488507,-0.020752865171432495
1733859622204430800,4.260430908203125,0.017478373545408248,-0.058015624182298775,0.024402619850635528
1733859622214381000,4.270381103515625,0.022837270230054853,-0.003875745454803109,0.0799561647683382
1733859622224331800,4.280331787109375,0.05416647447347641,-0.023235914158821105,0.1083294418156147
1733859622234281700,4.29028173828125,0.07369768889546394,-0.05670242269188165,0.11638882963061332
1733859622244233000,4.30023291015625,0.06136252345740795,-0.0641078035775572,0.06851531782150268
1733859622254183000,4.310182861328125,0.035738837379217146,-0.060362698765099046,-0.018205518776178358
1733859622264134000,4.3201337890625,0.016715864740312097,-0.05459266399629414,-0.07756547023952007
1733859622274084900,4.3300849609375,0.02112695918083191,-0.014884849920868873,-0.058821022281050676
1733859622284035000,4.34003515625,0.056198272562026974,-0.01732932046353817,0.012988076388835906
1733859622293985800,4.34998583984375,0.05902092876732349,-0.03741663439832628,0.055765141841769214
1733859622303935700,4.359935791015625,0.05626841518878936,-0.07102883501239121,0.05845803418755531
1733859622313887000,4.369886962890625,0.06198503926992416,-0.09002608868815004,0.06163783326745033
1733859622323838000,4.379837890625,0.01858545800447464,-0.0635177287299186,0.03803483936190605
1733859622333788000,4.389787841796875,0.010502397052943705,-0.01990304340906441,-0.03190904995799065
1733859622343739000,4.39973876953125,0.02064531314373016,-0.011158449808880685,-0.033685411980748176
1733859622353688800,4.409688720703125,0.045776247268915174,0.02195376539379358,-0.029161797076463696
1733859622363639800,4.419639892578125,0.04507014482617378,0.03801525787860155,-0.014890110617876052
1733859622373591000,4.429591064453125,0.04570639690309763,-0.03673910046294331,0.02252279745340347
1733859622383541000,4.439541015625,0.04087356991916895,-0.07354111009426414,0.05440729749202728
1733859622393492000,4.449491943359375,0.036622342215478415,-0.07652757855914533,0.03546995730996132
1733859622403442000,4.45944189453125,0.023151450745761394,-0.08553082309551537,0.02836217113137245
1733859622413393000,4.469392822265625,0.048994332532584665,-0.06541976295895874,0.039080549022555346
1733859622423347500,4.479347412109375,0.046889469207823276,-0.06898615020364522,0.031633740147948265
1733859622433297400,4.48929736328125,0.03243541191965341,-0.07212934360019863,0.0498924504160881
1733859622443248400,4.499248291015625,0.05341331801861524,-0.06872654941938817,0.04505962343215942
1733859622453198300,4.5091982421875,0.039567455756664274,-0.07552351608313619,0.07169862403273582
1733859622463149600,4.519149658203125,0.05189297658354044,-0.059626712640747426,0.07855623484253883
1733859622473100500,4.5291005859375,0.04253039721548557,-0.03735657477416098,-0.01040156702697277
1733859622483050500,4.539050537109375,0.03902385039925575,-0.028824089554697275,-0.041838323298096655
1733859622493001500,4.54900146484375,0.019420155262947082,-0.020079276758804915,-0.03861000890135765
1733859622502951400,4.558951416015625,0.045531332597136494,-0.024025384036079046,-0.035867432194948194
1733859622512902400,4.56890234375,0.014171733215451239,-0.019868775813281534,-0.007893383598327636
1733859622522852400,4.578852294921875,0.023916005377471447,-0.04012684320509433,-0.011662380743026732
1733859622532803600,4.588803466796875,0.04228635932654142,-0.04570303590223193,-0.0074853873193264
1733859622542754300,4.59875439453125,0.07013210536837577,-0.03941189986877143,0.024339491486549375
1733859622552704500,4.60870458984375,0.0683230101197958,-0.03904167831689119,0.009830489140748976
1733859622562655500,4.618655517578125,0.04671528168469667,-0.03608027122803032,-0.0045317982107400895
1733859622572605400,4.62860546875,0.038680443789064885,-0.043409298941865564,0.04479308145046234
1733859622582556400,4.638556396484375,0.026683424264192578,-0.054825522904098034,0.05637538269460201
1733859622592507400,4.64850732421875,0.012654898911714552,-0.02883271125257015,0.03485387123823166
1733859622602457600,4.65845751953125,0.008045359289646148,-0.04622340651452541,0.034763854867219925
1733859622612408300,4.668408203125,0.04165653699040413,-0.06326937999203801,0.07111877831816672
1733859622622358500,4.678358642578125,0.042942485147714614,-0.05132058352306485,0.06987257764935494
1733859622632309500,4.6883095703125,0.04200900368988514,-0.04414228939153254,0.09285071765482425
1733859622642260500,4.698260498046875,0.05235708696395158,-0.04103336359076202,0.04589899686574936
1733859622652210400,4.70821044921875,0.05691957257390022,-0.05206548360623419,-0.023698855495452878
1733859622662161400,4.718161376953125,0.05008709620535373,-0.0665293316360563,-0.07968377756774425
1733859622672111600,4.728111572265625,0.01727788253724575,-0.055507733014598486,-0.07092471705079079
1733859622682062300,4.738062255859375,-0.0005693243205547332,-0.03602086919099092,-0.018406594306230543
1733859622692013600,4.748013671875,0.004292728757858276,-0.027547493747621773,0.03736556179821491
1733859622701963500,4.757963623046875,0.05430968233644962,-0.02407609131000936,0.027034137398004532
1733859622711914500,4.76791455078125,0.06421206766963004,-0.019238661216199396,-0.05158347224295139
1733859622721864400,4.777864501953125,0.039030280140042305,-0.0195451698821038,-0.11491641899049282
1733859622731815700,4.787815673828125,0.01599953316450119,-0.03902238909453153,-0.001132218900322914
1733859622741766400,4.797766357421875,0.026562135972082613,-0.050654228568822145,0.09677344405651092
1733859622751716400,4.80771630859375,0.04793488660752773,-0.05069594881869852,0.1310948158532381
1733859622761667600,4.81766748046875,0.03607376842200756,-0.0610861176688224,0.15615443830788134
1733859622771617500,4.827617431640625,0.05961801787763834,-0.07351940971910953,0.1511813260704279
1733859622781568500,4.837568603515625,0.07665361609160899,-0.04134294099658727,0.0036152678877115246
1733859622791519500,4.84751953125,0.05481704733669757,0.008703677067905664,-0.09603928456306457
1733859622801469400,4.857469482421875,0.06292378142476081,0.009186638279259205,-0.08565408414900302
1733859622811420400,4.86742041015625,0.006270750832557678,-0.036080709619447586,-0.08652034558951854
1733859622821370400,4.877370361328125,-0.011066752937436104,-0.09373210359923541,-0.05652969647347927
1733859622831321600,4.887321533203125,0.009196282890439033,-0.10703216854669154,0.023110826474428175
1733859622841271300,4.897271240234375,0.04332973089963198,-0.09177548963874578,0.10025836356282233
1733859622851222500,4.907222412109375,0.04752572128474712,-0.06487016625218094,0.09666180037558078
1733859622861173500,4.917173583984375,0.02678016263693571,-0.044328459613397715,0.059921676999330514
1733859622871123500,4.92712353515625,0.007200140637159347,-0.04021693264134228,0.03281330532133579
1733859622881074400,4.937074462890625,0.028692133738100527,-0.02778882822282612,0.03293137874305248
1733859622891024400,4.9470244140625,0.05807634139358997,-0.02659837632924318,0.005256020832061767
1733859622900975400,4.956975341796875,0.04672667986154556,-0.024964126190915703,-0.010674538749456406
1733859622910926600,4.966926513671875,0.02164309200942516,-0.03959039824083447,0.01769581568837166
1733859622920876500,4.97687646484375,0.02593523624539375,-0.05185505572594702,0.06018880350291728
1733859622930827300,4.9868271484375,0.033175708892941476,-0.058956704424694174,0.058655602586269374
1733859622940777500,4.996777587890625,0.028356910434365272,-0.0461443499289453,0.024846271964907643
1733859622950728400,5.006728515625,0.0665711980164051,-0.02898198353014886,-0.015147884771227835
1733859622960679400,5.016679443359375,0.07594225295186043,-0.026363544660061595,-0.045832361370325085
1733859622970629400,5.02662939453125,0.06341828694343567,-0.033392639579251406,-0.0628635756701231
1733859622980580600,5.03658056640625,0.01803776099383831,-0.0478800146151334,-0.07204056933820248
1733859622990530600,5.046530517578125,0.00492518144249916,-0.047929845106229184,-0.0385334365338087
1733859623000481300,5.056481201171875,0.01513502528965473,-0.03579699730724096,0.02069850463569164
1733859623010432500,5.0664326171875,0.03622954350560904,-0.0468018639896065,0.0495657026797533
1733859623020382500,5.076382568359375,0.07475450447201729,-0.03615216742046177,0.044643443846702574
1733859623030333400,5.08633349609375,0.06087269411385059,-0.03706621352545917,0.02309621342718601
1733859623040283400,5.096283447265625,0.032247488132119174,-0.04416990805082023,0.03774725459218025
1733859623050234600,5.106234619140625,-0.00038812253475189204,-0.04857259998917579,-0.043376200389862056
1733859623060185300,5.116185302734375,-0.0061047466158866874,-0.029854820841923355,-0.06459259141981602
1733859623070135300,5.12613525390625,0.013269231417775154,-0.02149922655932605,0.021182488760352135
1733859623080086500,5.13608642578125,0.026641338688135147,-0.05905636540688574,0.10761574058830738
1733859623090036500,5.146036376953125,0.03720598732233047,-0.08184818906001746,0.12697159844338893
1733859623099987500,5.155987548828125,0.055389878788590426,-0.08164455624669789,0.11396423283219337
1733859623109938400,5.1659384765625,0.0712894587099552,-0.07126278989873826,0.04544599240124225
1733859623119888600,5.175888671875,0.05168401000797748,-0.07329495331346988,-0.013237667235732078
1733859623129839400,5.18583935546875,0.04090864123255014,-0.04992423379383981,-0.05291384406387806
1733859623139789600,5.19578955078125,0.022253040601313112,-0.034332769973576066,-0.0335883813470602
1733859623149740500,5.205740478515625,0.009117664696276187,-0.04306647685356438,0.04270750734806061
1733859623159691500,5.21569140625,0.015855740779638288,-0.05150529244020581,0.10363105486631392
1733859623169641500,5.225641357421875,0.034408173297345634,-0.074956456784904,0.10523673649728298
1733859623179592400,5.235592529296875,0.05604074391275644,-0.05953530803024768,0.07387012285292148
1733859623189542700,5.245542724609375,0.057146367067098615,-0.04459543998651206,-0.014629998376965521
1733859623199493400,5.255493408203125,0.05899111815094948,-0.021681012867018578,-0.13004384549558162
1733859623209443600,5.265443603515625,0.022811551266908644,-0.014899609098583459,-0.13226385963261128
1733859623219394600,5.27539453125,0.010431962165236473,-0.034536183591187,-0.07817688013613223
1733859623229345500,5.285345458984375,-0.006662965020537376,-0.058650853345915674,-0.037159225571155544
1733859623239295500,5.29529541015625,-0.0012204817056655883,-0.05445720104835927,0.06672083562016487
1733859623249246500,5.30524658203125,0.028545711004734037,-0.04680734388232231,0.13562310693264007
1733859623259196400,5.315196533203125,0.06585165157020091,-0.04199577888213098,0.10411971516609192
1733859623269147400,5.3251474609375,0.08295476206243038,-0.006388605058565735,-0.023140052568912505
1733859623279098600,5.3350986328125,0.07491641703546047,0.006694894528761506,-0.08487199386060237
1733859623289048300,5.34504833984375,0.02028115600645542,-0.009284911021962761,-0.08127309258580208
1733859623298999600,5.35499951171875,-0.011986790391802787,-0.03545600184984505,-0.02914952211678028
1733859623308949500,5.364949462890625,0.016825462594628332,-0.06363185662887991,0.05051204361915588
1733859623318900500,5.374900390625,0.03928922333717346,-0.07385916306748985,0.10542495254576205
1733859623328851500,5.3848515625,0.06979775884747505,-0.06200725110173225,0.11725041489601135
1733859623338801400,5.394801513671875,0.07363017661720514,-0.046808001469448204,0.015676292559504507
1733859623348752400,5.40475244140625,0.060364452330768106,-0.042803003611788154,-0.05969838963747024
1733859623358702300,5.414702392578125,0.05351794743686914,-0.04727357315458357,-0.0037748423635959624
1733859623368653600,5.424653564453125,0.012494155392050742,-0.07249656947739422,0.020610241830348968
1733859623378604300,5.434604248046875,0.011558920368552206,-0.05974098667018115,0.03064005293548107
1733859623388554500,5.444554443359375,0.012424597287178039,-0.057227031087875364,0.06655249331593513
1733859623398505500,5.45450537109375,0.04297521837353706,-0.07052497714348137,0.041620296633243556
1733859623408455400,5.464455322265625,0.03953618383556604,-0.06227474293150007,-0.04628361226916313
1733859623418402600,5.474402587890625,0.05605974087417125,-0.010734963699802756,-0.09270224909484386
1733859623428353300,5.484353271484375,0.016081950750946997,0.0011673632789403199,-0.0779693748652935
1733859623438303500,5.494303466796875,0.03914776903986931,-0.030936990055441854,0.015443068325519562
1733859623448254500,5.50425439453125,0.03255962282121181,-0.06284896262288094,0.11500818892717361
1733859623458204200,5.5142041015625,0.018096213182806967,-0.06332980494238435,0.18500410069525242
1733859623468155400,5.5241552734375,0.05252221439778804,-0.08339841417670249,0.1366927819907665
1733859623478106600,5.534106689453125,0.03915799817293882,-0.06068250530399382,0.023273908081650734
1733859623488056300,5.544056396484375,0.048048868376016615,-0.025123116144910453,-0.06193769299685955
1733859623498007300,5.55400732421875,0.03283493263125419,-0.023674670902267096,-0.08411971418857574
1733859623507957500,5.56395751953125,0.00623188012689352,-0.029295287263020872,-0.04143967936933041
1733859623517908200,5.573908203125,0.028840894559025762,-0.05681501622088253,0.04525719183087348
1733859623527859500,5.583859375,0.004506371508538723,-0.07495411869734525,0.12551146276295183
1733859623537809400,5.593809326171875,0.025685353137552738,-0.062101212995499366,0.20666005218625066
1733859623547760400,5.603760498046875,0.06952683295160532,-0.049916781139746305,0.176080789527297
1733859623557710300,5.61371044921875,0.06500351030826568,-0.05116013226434588,0.06470423510074615
1733859623567661300,5.623661376953125,0.06032616614699363,-0.01667765162177384,-0.060410921820998185
1733859623577612300,5.6336123046875,0.04266600629389286,-0.004051028956472873,-0.14241115963757037
1733859623587562200,5.643562255859375,0.024517186141014096,-0.02709996917583048,-0.13301789287030696
1733859623597513500,5.653513427734375,0.0017366145342588423,-0.06744622728526592,-0.09772329212725162
1733859623607463400,5.66346337890625,-0.008999591274559498,-0.0723039695147425,-0.025390461844205854
1733859623617414400,5.673414306640625,0.014448504330217837,-0.04086867454834282,0.07890636345446109
1733859623627365400,5.683365478515625,0.048664369925856585,-0.024189488556608556,0.11601941179633139
1733859623637315300,5.6933154296875,0.09019874184131622,0.020169950716942546,0.0718827484279871
1733859623647266300,5.703266357421875,0.11869359944164752,0.07238331836126745,0.053337037912011144
1733859623657216300,5.71321630859375,0.05267419008910656,0.02997873948253691,-0.07950608291327953
1733859623667167500,5.72316748046875,-0.0003898761004209518,-0.06581146569028497,-0.15351707554161548
1733859623677118200,5.7331181640625,0.010925883162021637,-0.13109298922233284,-0.04268237290680408
1733859623687068400,5.743068359375,0.010742051027715206,-0.16437150090262292,0.14044599704444408
1733859623697019400,5.753019287109375,0.006143325060606003,-0.14222783895991742,0.2493015085607767
1733859623706969600,5.762969482421875,0.042802492155134673,-0.11162746044769882,0.20578502291738987
1733859623716920300,5.77292041015625,0.06783084268867969,-0.06055442194491625,0.10270751028060912
1733859623726871600,5.78287158203125,0.0841822580307722,-0.000035582770034670826,-0.014226678273081779
1733859623736821500,5.792821533203125,0.05564122320115566,0.048674087602272625,-0.17896248244345186
1733859623746772200,5.802772216796875,0.008757599212229251,0.039357027876377106,-0.2680290053844452
1733859623756722400,5.812722412109375,0.02045242092013359,0.0022259324211627244,-0.2243663892686367
1733859623766673400,5.82267333984375,0.05385930822044611,-0.04255443567819893,-0.04798340192437172
1733859623776624400,5.832624267578125,0.04413870919495821,-0.06355966817550361,0.11879822885990142
1733859623786574300,5.84257421875,0.04385317025184631,-0.04502747472822666,0.2092167509317398
1733859623796525600,5.852525634765625,0.06716039608120918,-0.05207205947749317,0.18697978468239307
1733859623806475500,5.8624755859375,0.049662148791551584,-0.07530322439596057,0.10689794770777225
1733859623816426200,5.87242626953125,0.051987084607779975,-0.012832374370470643,-0.014516016608476639
1733859623826377500,5.88237744140625,0.0296235693693161,0.010004968924820423,-0.13140753506422043
1733859623836327400,5.892327392578125,-0.00024345336705446243,-0.014832754407450556,-0.16625906821489334
1733859623846278400,5.9022783203125,0.023135376393795013,-0.05878185931444168,-0.04855214172303676
1733859623856228400,5.912228271484375,0.030292262411117554,-0.06854878169968724,0.0878115544438362
1733859623866179600,5.9221796875,0.037301848912239075,-0.07474573664367198,0.18277590325176715
1733859623876130300,5.93213037109375,0.04579407518655061,-0.08152626362927258,0.18411328933537005
1733859623886080300,5.942080322265625,0.05748100584894418,-0.07587035675942898,0.12228490193188189
1733859623896031500,5.952031494140625,0.05659983910024166,-0.04736176289469003,0.0757207191556692
1733859623905981200,5.961981201171875,0.02696311798840761,0.008030307850986719,-0.032329321196675295
1733859623915932400,5.971932373046875,0.013778349983692168,0.029686405472457406,-0.09830079975426197
1733859623925883400,5.98188330078125,0.07250175710916519,0.018999445632845162,-0.10691022266745567
1733859623935833300,5.991833251953125,0.06422463489025831,-0.03670819386802614,-0.10762976911365985
1733859623945784300,6.001784423828125,0.014907061752676963,-0.10125117399245499,-0.07504092019796371
1733859623955734500,6.011734619140625,0.01738543456494808,-0.12417093487419187,0.033816929405927655
1733859623965685200,6.021685302734375,0.05422025048732757,-0.10000234297513962,0.11477438017129897
1733859623975636500,6.031636474609375,0.0491039303869009,-0.04730572185851633,0.14210194755792616
1733859623985586400,6.04158642578125,0.07595102078020573,-0.03498414655439555,0.09719020816385746
1733859623995537400,6.051537353515625,0.060008770760893816,-0.042547786741703744,-0.018370353949069974
1733859624005487400,6.0614873046875,0.03507598955631256,-0.03348331353738904,-0.10970189921259879
1733859624015438300,6.071438232421875,0.0419102194905281,-0.0021017215196043252,-0.1346276661545038
1733859624025389300,6.081389404296875,0.019236615389585494,-0.02299231466129422,-0.1317097328811884
1733859624035339300,6.09133935546875,0.011177227574586867,-0.039869434377923604,-0.02111176161170006
1733859624045290500,6.10129052734375,0.032328152152895924,-0.06684285456463694,0.1266203007876873
1733859624055240400,6.111240478515625,0.04058306253999471,-0.0871472453162074,0.21882219914495943
1733859624065191200,6.121191162109375,0.04070756570249796,-0.07101940959692,0.2252542780190706
1733859624075142400,6.131142333984375,0.046562136949598786,-0.058788873577117914,0.18673837714195252
1733859624085092400,6.14109228515625,0.06617167730480432,-0.016150778203457592,0.10063421113789081
1733859624095043300,6.151043212890625,0.051830432741343975,-0.010816942894831299,-0.014220248532295227
1733859624104993300,6.1609931640625,0.008656476925313471,0.004435425164178014,-0.10689210248887539
1733859624114944500,6.170944580078125,0.025974399212002754,-0.028459567091241478,-0.14550269591212273
1733859624124895200,6.180895263671875,0.037545594540238376,-0.06493965129181742,-0.09782090728282927
1733859624134845400,6.190845458984375,0.018473229801654816,-0.11351707358658313,-0.040135611033439635
1733859624144796400,6.20079638671875,0.0036947628647089003,-0.09800393569953739,0.06679097824692726
1733859624154746400,6.210746337890625,0.03495908517837524,-0.07927702339775859,0.14922142417430878
1733859624164697300,6.220697265625,0.036435002949833865,-0.050455418061092494,0.1312643272012472
1733859624174648300,6.2306484375,0.0966740753352642,-0.005899944758787751,0.07658055085539818
1733859624184598500,6.2405986328125,0.08812193556725978,0.0351896790638566,-0.0518225416958332
1733859624194549200,6.25054931640625,0.02806757209897041,0.012141396431624889,-0.17801204985082147
1733859624204499500,6.26049951171875,-0.024822306567430494,-0.02251563706025481,-0.18273907837271688
1733859624214450400,6.270450439453125,-0.012568389672040938,-0.051655806826800106,-0.07098024663031101
1733859624224401400,6.2804013671875,0.028874796828627584,-0.05577025640830397,0.09432663542628288
1733859624234351400,6.290351318359375,0.046936815480887885,-0.053582244844734665,0.16199439650774
1733859624244302300,6.30030224609375,0.07541179933696984,-0.05464665920585394,0.13906710990667343
1733859624254252500,6.31025244140625,0.07463789235502481,-0.04876432316899299,0.06729775872528553
1733859624264203300,6.320203369140625,0.06164367848634719,-0.03845554899200797,-0.030678631380200383
1733859624274154500,6.330154541015625,0.039702480313181875,-0.033880788422375914,-0.11642974616289138
1733859624284104400,6.3401044921875,-0.005749941828846931,-0.02425290918163955,-0.10228431643247604
1733859624294055400,6.350055419921875,-0.008305179269611836,-0.046246275933459396,-0.05945113687813282
1733859624304005400,6.36000537109375,0.024401158545911312,-0.0759820004403591,0.016322189247608185
1733859624313956600,6.36995654296875,0.0562254528298974,-0.07636310871243476,0.11068038885593413
1733859624323907300,6.3799072265625,0.06442220328897237,-0.048075537187233564,0.15639935297966
1733859624333857300,6.389857177734375,0.07325199095457792,-0.022186405105888842,0.10713058741986752
1733859624343808500,6.39980859375,0.06661562168002128,-0.007265022566914558,0.04568447733223438
1733859624353758200,6.40975830078125,0.04246756111234426,-0.02736526904851198,-0.07843523881137371
1733859624363709400,6.41970947265625,-0.016165537381172178,-0.059083691805228586,-0.1395563547283411
1733859624373660400,6.429660400390625,-0.034389176335930825,-0.043320963071286675,-0.09710194535851478
1733859624383610400,6.4396103515625,0.017109540233016012,-0.04111227404586971,0.027141689425706862
1733859624393561300,6.449561279296875,0.07692366520464419,-0.041882673896476624,0.1490203486442566
1733859624403511300,6.45951123046875,0.07446107448339462,-0.05051050924919545,0.1520306363761425
1733859624413462500,6.469462646484375,0.05532791946828365,-0.05830554703958332,0.1243669689029455
1733859624423414000,6.4794140625,0.05210895742177963,-0.05661204099468887,0.1313613578349352
1733859624433364200,6.4893642578125,0.04693184704482555,-0.015754983818903563,0.05800210711359977
1733859624443315000,6.49931494140625,0.015568740531802176,-0.02744973246157169,-0.0762614019036293
1733859624453265200,6.50926513671875,0.003002688947319984,-0.07118081070370971,-0.17280746694505214
1733859624463216000,6.519216064453125,0.027067455145716665,-0.10521233270838856,-0.18114041100442407
1733859624473167000,6.5291669921875,0.021028174981474874,-0.09186937846727669,-0.06727379332780838
1733859624483117000,6.539116943359375,0.0413046548128128,-0.02619892868287861,0.043732758742570876
1733859624493068000,6.549068115234375,0.04131780655533075,0.010175357055664061,0.1301227559506893
1733859624503018200,6.559018310546875,0.05302987165898084,-0.006540288488939404,0.12469663924872874
1733859624512969000,6.568968994140625,0.06953998469412326,-0.045889936776459216,0.02054828251004219
1733859624522920200,6.578920166015625,0.04392214383482933,-0.0366782371211797,-0.06645546268224715
1733859624532870100,6.5888701171875,-0.01237052901238203,-0.02817293216958642,-0.12167232299149036
1733859624542821000,6.598821044921875,-0.009250643426179886,-0.010796411563456058,-0.06323299350440502
1733859624552771000,6.60877099609375,0.04139934735894203,-0.02175648925602436,0.07539046428799628
1733859624562722300,6.618722412109375,0.09986439580917358,-0.06242978736273944,0.1608317824691534
1733859624572673000,6.628673095703125,0.06709054571539164,-0.10008848688863217,0.14149229122698306
1733859624582623000,6.638623046875,0.05421586657315492,-0.0885878725785762,0.05024608615934849
1733859624592574200,6.64857421875,0.013004735262691974,-0.054859790499880906,-0.019864391899108887
1733859624602524200,6.658524169921875,-0.002923193970322609,-0.018352306835725904,-0.04243687371313572
1733859624612475100,6.66847509765625,-0.0017810381978750228,-0.006003478198498487,-0.05659867005646228
1733859624622426000,6.678426025390625,0.03450900332331657,-0.005598258398473262,0.012220014625787734
1733859624632376300,6.688376220703125,0.08193477136492729,-0.019514628613367675,0.0306996741682291
1733859624642327000,6.6983271484375,0.11951076104342936,-0.04685863567814231,-0.07196750410199165
1733859624652277000,6.708277099609375,0.03547200313657522,-0.047975876205042005,-0.11365385170876979
1733859624662228200,6.718228271484375,-0.01952478468120098,-0.008952391131967306,-0.03919569983482361
1733859624672179000,6.728178955078125,-0.023900223286449907,0.0029915099661797285,0.06436988857984542
1733859624682129200,6.738129150390625,0.025993103912472722,-0.00943666751757264,0.1310562374085188
1733859624692080000,6.748080078125,0.08766659301519393,-0.038984468236938116,0.13633388555049897
1733859624702030000,6.758030029296875,0.1196142214179039,-0.07236037587709725,0.05996083996593952
1733859624711981000,6.76798095703125,0.08801935197561979,-0.06885602101795375,-0.05370353313684463
1733859624721932300,6.777932373046875,0.027914135102927683,-0.0654653556663543,-0.10396657043099403
1733859624731882000,6.787882080078125,0.02327361582070589,-0.07283018534593284,-0.07087269460260867
1733859624741833200,6.797833251953125,0.021292671136558056,-0.0793850138168782,0.03359539560973644
1733859624751783200,6.807783203125,0.008457154960930347,-0.10121705252714455,0.1305284141421318
1733859624761734000,6.81773388671875,0.013622867161035538,-0.11139913158454,0.1774532469242811
1733859624771685000,6.82768505859375,0.04643412665575743,-0.10495097835846244,0.15654665249586106
1733859624781635000,6.837635009765625,0.01970949359834194,-0.07482406257688999,0.12133739194869994
1733859624791586000,6.8475859375,0.03779693895280361,-0.04341382898651063,0.04681786527633667
1733859624801537000,6.857537109375,0.046965749314427374,-0.009251081817597151,-0.07988952927291393
1733859624811487200,6.8674873046875,0.022111878564953804,0.0007077098779380321,-0.20365385610759257
1733859624821438000,6.87743798828125,-0.009154197314381598,-0.03273117999583482,-0.23583763135373592
1733859624831388000,6.887387939453125,-0.03348229062408209,-0.04217274288423359,-0.11972820318639278
1733859624841339100,6.897339111328125,0.0010270049601793288,-0.03060885407961905,0.06315466757118701
1733859624851289000,6.9072890625,0.04782178162187337,-0.004992839851230383,0.1974006409317255
1733859624861240000,6.917239990234375,0.08953209462612867,0.00821063285395503,0.1447229437112808
1733859624871191000,6.92719091796875,0.09237433231472969,0.005977832300588488,-0.014905308187007903
1733859624881141200,6.937141357421875,0.057277884492278094,-0.03980491777434945,-0.13855156159996987
1733859624891092000,6.947092041015625,0.0020028642550110817,-0.039628903620317575,-0.0884393309533596
1733859624901043200,6.957043212890625,-0.015697335347533224,-0.04456767519675195,0.028156419426202773
1733859624910993200,6.9669931640625,0.030899580654501914,-0.03834324772395193,0.061898530030250545
1733859624920943900,6.97694384765625,0.04813830022513866,-0.04717573880329728,0.03647767304778099
1733859624930894000,6.98689404296875,0.10192454320937394,-0.0490695166606456,0.01734919420778751
1733859624940845000,6.996844970703125,0.108974169459939,-0.04555493266843259,0.034255320823192596
1733859624950796000,7.006796142578125,0.05994418109208345,-0.03977035791762173,0.049018590191006656
1733859624960746000,7.01674609375,0.008900514814257621,-0.07955174868591129,0.0645762248069048
1733859624970697200,7.026697265625,0.008232406294345854,-0.08992935031540691,0.03793313255310058
1733859624980647200,7.036647216796875,0.015759294667840002,-0.07709047313891351,-0.05178805490434169
1733859624990598100,7.04659814453125,0.025780337944626808,-0.04615165645256638,-0.09038929597735404
1733859625000549000,7.056549072265625,0.04205985709428787,-0.05233370608836412,-0.02045242092013359
1733859625010499000,7.0664990234375,0.04034662343561649,-0.06216434135958552,0.10833996320962905
1733859625020450000,7.076449951171875,0.04335749568939209,-0.05187617157921195,0.15505787524282932
1733859625030400000,7.08639990234375,0.03318038506805897,-0.04742649869397282,0.07072130343317985
1733859625040351200,7.096351318359375,0.03315583514869213,-0.0597487315852195,-0.04533142611086368
1733859625050302000,7.106302001953125,0.05340308888554573,-0.052297904122620816,-0.16518354793787002
1733859625060252200,7.116252197265625,0.038739188238978386,-0.04086524048224091,-0.18269173209965228
1733859625070203100,7.126203125,0.0060059624165296555,-0.008855506628751755,-0.07469020706415176
1733859625080153000,7.136153076171875,0.008439034782350063,0.009119418261945247,0.06102993050217628
1733859625090104000,7.14610400390625,0.02138561011701822,-0.020236951538547873,0.11585282305777073
1733859625100055000,7.156054931640625,0.019416940392553806,-0.052177931004762645,0.15659399876892566
1733859625110005200,7.166005126953125,0.046807636143267155,-0.07049487426616251,0.1862508858859539
1733859625119956000,7.1759560546875,0.09214519973397255,-0.07899426093362272,0.15679916595220564
1733859625129906200,7.18590625,0.10420593214482068,-0.08342449846602976,0.06080430505275726
1733859625139857200,7.195857177734375,0.018029285426437853,-0.081618252761662,-0.03581190261542797
1733859625149808000,7.20580810546875,-0.002808335418999195,-0.034796368897333736,-0.044893034693598746
1733859625159758000,7.215758056640625,-0.006591653349995613,-0.049969899566471576,-0.02177870108783245
1733859625169709300,7.225709228515625,0.02158522434234619,-0.06357018956951796,0.04887655137181282
1733859625179659000,7.235658935546875,0.04922200380861759,-0.0712205581922084,0.09939151760041713
1733859625189610000,7.24560986328125,0.06056640464365482,-0.041793388177827,0.10208557898998259
1733859625199561200,7.255561279296875,0.0545674564898014,-0.03866604993753135,0.019871406161785125
1733859625209511200,7.26551123046875,0.020094401262700557,-0.016516688906401397,-0.07374854229986667
1733859625219462100,7.275462158203125,0.015636837331950662,-0.0029188100561499592,-0.09071545919179916
1733859625229412000,7.285412109375,0.017096096229553222,-0.0018488427370786666,-0.062223524200916286
1733859625239363000,7.295363037109375,0.04544365431368351,0.015553396832197903,-0.021575287470221517
1733859625249314000,7.30531396484375,0.04106120144575834,-0.011850889052450657,-0.010301029261946678
1733859625259264000,7.315263916015625,0.03830810334533453,-0.06240889070518314,-0.0219376910418272
1733859625269215200,7.32521533203125,0.060284372831881046,-0.09351151965111494,-0.03839373580217361
1733859625279165000,7.3351650390625,0.04985504101514816,-0.12082717740423976,-0.03388181133568287
1733859625289116200,7.3451162109375,0.031246786656975743,-0.09505575341843069,0.01943067665696144
1733859625299067100,7.355067138671875,0.026355507484078406,-0.064951633990556,0.08599836754202843
1733859625309017000,7.36501708984375,0.004660977548360824,-0.04738280568271875,0.10301204618513583
1733859625318968000,7.374968017578125,0.0029340076252818105,-0.040643487490341065,0.11157587639093398
1733859625328919300,7.384919189453125,0.04330196610987186,-0.044211189909279344,0.09558335748910904
1733859625338869000,7.394868896484375,0.08405074060559273,-0.050124505606293675,0.06374971085488795
1733859625348820200,7.4048203125,0.08047434342354536,-0.04582870810851455,-0.04492635244131088
1733859625358770200,7.414770263671875,0.043967152020335194,-0.03386763667985797,-0.09824468565285205
1733859625368721000,7.424720947265625,0.020974106706678868,-0.049990357832610605,-0.09074468528628349
1733859625378672000,7.434672119140625,0.002358545824885368,-0.028361513544246552,-0.030709611040353774
1733859625388622000,7.4446220703125,-0.008741232599318027,-0.00743826024197042,0.038386721539497376
1733859625398573000,7.454572998046875,0.023494272834062576,-0.04850114218816161,0.10160451747477053
1733859625408523000,7.46452294921875,0.06441723485291004,-0.05974244797490537,0.13291384797394276
1733859625418474200,7.47447412109375,0.07414104874879121,-0.06091748310364783,0.09046879095435142
1733859625428425000,7.484425048828125,0.0657502370223403,-0.03240187497623265,0.01457388427555561
1733859625438374700,7.494374755859375,0.011044833366572856,-0.03747537884823978,-0.10106091211736201
1733859625448326000,7.504325927734375,-0.03658464055359363,-0.056131783197075125,-0.14730419237613676
1733859625458275800,7.51427587890625,-0.015400982749462127,-0.049953971344977616,-0.06929507002234458
1733859625468226800,7.524226806640625,0.030484277851879595,-0.024638401367887853,0.04376899909973144
1733859625478177800,7.534177734375,0.06797258924692869,-0.023150647028163072,0.1415215173214674
1733859625488128000,7.5441279296875,0.07251257076412439,-0.04908668699115514,0.16250234602987765
1733859625498078700,7.55407861328125,0.06890110226869582,-0.0784149997409433,0.09413549676835536
1733859625508028700,7.564028564453125,0.008919219514727591,-0.0547436167743057,0.0009995324313640593
1733859625517980000,7.57397998046875,-0.014143676164746283,-0.008217062594741583,-0.061494625404477116
1733859625527930600,7.5839306640625,-0.03989829514622688,0.010984335350990295,-0.05789455508589744
1733859625537880800,7.593880859375,0.03928396264016628,-0.031131562779471277,-0.028262217888236043
1733859625547831800,7.603831787109375,0.07657908955067395,-0.08522139182016253,0.020788521006703375
1733859625557782000,7.613781982421875,0.06190554429292679,-0.10541260452084243,0.08208499349057674
1733859625567732700,7.623732666015625,0.04730711009800434,-0.10090119151100516,0.13524141413867471
1733859625577684000,7.63368408203125,0.03839052093178034,-0.06443827764093875,0.12656710929572582
1733859625587634000,7.643634033203125,0.0568289716809988,-0.01649411174841225,0.06040858373343944
1733859625597584600,7.653584716796875,0.0678761431351304,-0.03280446442775428,-0.06094985100328922
1733859625607534800,7.663534912109375,0.048584290426969524,-0.07026413425020873,-0.10272036976218223
1733859625617485800,7.67348583984375,0.0524894811719656,-0.0808945415969938,-0.02808160062432289
1733859625627436800,7.683436767578125,0.024739596720039843,-0.07070690958164631,0.04179097702503204
1733859625637386800,7.69338671875,0.000988134254515171,-0.05809292720220983,0.03250467776358128
1733859625647338000,7.703337890625,0.018972411495447157,-0.04926335873231291,0.06826338888704776
1733859625657288000,7.713287841796875,0.044622401058673856,-0.03137187434136867,0.04803016367554664
1733859625667239000,7.723239013671875,0.046486441364884376,-0.011813260455802083,-0.0074801266223192215
1733859625677190000,7.73318994140625,0.043186815297603605,-0.02174231460019946,-0.03888005801439285
1733859625687139800,7.743139892578125,0.0475397498100996,-0.0393347429793328,-0.05292611902356147
1733859625697090800,7.7530908203125,-0.002666296599805355,-0.06418196479231118,0.00556523291170597
1733859625707041800,7.763041748046875,0.01393733993768692,-0.06595065496526659,0.03561141160726547
1733859625716992000,7.772991943359375,0.04231821576952934,-0.052187648681178686,0.06276479147076607
1733859625726942700,7.782942626953125,0.05712883141040802,-0.04975479551106691,0.06992693818509578
1733859625736893000,7.792892822265625,0.03734977970719337,-0.05953684240020811,0.048825113445520395
1733859625746844000,7.802843994140625,0.028611469717323777,-0.055731385702639816,0.0985913071334362
1733859625756795000,7.812794921875,0.06634732613265514,-0.045264206093549725,0.05876257009208202
1733859625766744800,7.822744873046875,0.04797931027114391,-0.035960809566825624,-0.05887012211978435
1733859625776695800,7.83269580078125,0.02104980229139328,-0.053922874975949525,-0.07085048277080058
1733859625786646000,7.84264599609375,0.019663608630001543,-0.07680033108592033,0.027432196804881095
1733859625796596700,7.8525966796875,0.012621873424947262,-0.07891016284674406,0.12374094595909117
1733859625806548000,7.8625478515625,0.00846270791888237,-0.0598020692076534,0.12435118681192397
1733859625816498000,7.872497802734375,0.012441840682923793,-0.06148417707569897,0.14070844737291335
1733859625826449000,7.882448974609375,0.06199556066393852,-0.06378543975539505,0.13108838611245155
1733859625836398800,7.89239892578125,0.04324234487712383,-0.04149045970849693,0.05840484269559383
1733859625846350000,7.90235009765625,0.050447746211290355,-0.047887540334463116,-0.03840601076185703
1733859625856300800,7.91230078125,0.05116729265749454,-0.06670278850682079,-0.15563772095739842
1733859625866250800,7.922250732421875,0.01383271051943302,-0.06523987634740769,-0.18901392085850238
1733859625876202000,7.932201904296875,0.00957154594361782,-0.046878290226683016,-0.10074059412181377
1733859625886151700,7.942151611328125,-0.0019102175354957578,-0.04408135298453271,0.0004068272352218628
1733859625896103000,7.95210302734375,0.012364976054430007,-0.038946912705525756,0.0398275679975748
1733859625906054000,7.962053955078125,0.04754910216033458,-0.023375030368566512,0.0806710350394249
1733859625916003800,7.97200390625,0.067272624284029,-0.030256314314901826,0.06206921042203903
1733859625925954800,7.981954833984375,0.08323708613514899,-0.022465441242977977,-0.04582651615142822
1733859625935904800,7.99190478515625,0.046477089014649385,-0.011134411346167326,-0.1355652392655611
1733859625945855700,8.001855712890626,0.030253683966398236,-0.003981836177781224,-0.1373772571235895
1733859625955806700,8.011806640625,0.004776712882518768,-0.01198255260810256,-0.10163023643791674
1733859625965757000,8.0217568359375,0.009955576825141907,-0.03577558919303119,-0.01657587174773216
1733859625975707600,8.031707763671875,0.04662614209651947,-0.06406491428390144,0.09048457304537295
1733859625985659000,8.041658935546875,0.05966624093353748,-0.07372231188006699,0.11567805101275444
1733859625995608800,8.05160888671875,0.05254267266392708,-0.06606375995092094,0.06610591859221458
1733859626005559800,8.061559814453124,0.05502981330454349,-0.048832127708196636,0.02556932554244995
1733859626015509800,8.071509765625,0.03731938456892967,-0.05174238913170993,-0.050906595894694325
1733859626025461000,8.0814609375,0.017663374723494052,-0.02231938383579254,-0.08537818981707096
1733859626035411700,8.09141162109375,0.0035547698721289634,0.033266163655370475,-0.07471124985218047
1733859626045361700,8.101361572265626,-0.0019400281518697738,0.024460998974367976,-0.016042787784337997
1733859626055313000,8.11131298828125,0.045907764694094653,-0.04790843699201941,0.11721826619207858
1733859626065262800,8.121262939453125,0.0331266090542078,-0.08251490934044123,0.1809445961713791
1733859626075213800,8.1312138671875,0.0612380202949047,-0.10459383548386395,0.23860125084817407
1733859626085164800,8.141164794921876,0.07419745511114596,-0.12032470777481794,0.15400573584139346
1733859626095115000,8.151114990234374,0.03882277486920357,-0.10301562638171016,0.02369534836411476
1733859626105065700,8.161065673828125,0.025470249082148073,-0.07077654075175524,-0.13765081336796284
1733859626115015700,8.171015625,0.008823942446708678,-0.035909006314352156,-0.20770634636878965
1733859626124967000,8.180966796875,0.007546177595853805,-0.018400456826388835,-0.09682722007036208
1733859626134917600,8.190917724609376,0.01400397543311119,-0.044339127137884495,0.0894844560921192
1733859626144867800,8.200867919921874,0.0473088636636734,-0.06930741804726422,0.20475100369453428
1733859626154818800,8.21081884765625,0.047242812690138816,-0.053069838343188167,0.2099479878157377
1733859626164769000,8.22076904296875,0.08682195888459682,-0.040348596196994185,0.14017185627818107
1733859626174719700,8.2307197265625,0.08726444195508956,-0.03624970951080322,0.02436754853725433
1733859626184671000,8.2406708984375,0.04786182137131691,-0.03855601369179785,-0.051504561787843704
1733859626194621000,8.250620849609374,0.007464344531297683,-0.036250367097929115,-0.08143383610546588
1733859626204571600,8.260571533203125,0.026407822193205355,-0.03253090818338096,-0.07123217556476592
1733859626214521900,8.27052197265625,0.03245791601240635,-0.04719261687286198,-0.029607202756404875
1733859626224472800,8.280472900390626,0.049933951470255845,-0.07371719731353223,-0.021008885759115217
1733859626234423800,8.290423828125,0.027135551945865154,-0.04514730171561241,-0.04412029675543308
1733859626244373800,8.300373779296875,0.032676234938204284,0.013761837240308522,-0.05119067353308201
1733859626254325000,8.310324951171875,0.038791502948105336,0.0008780980087816715,-0.03415361401438713
1733859626264275000,8.32027490234375,0.03850362591743469,-0.04883431966528296,-0.0031131635844707487
1733859626274226000,8.330225830078126,0.026219606144726276,-0.0709828769788146,0.03041092035472393
1733859626284177000,8.340177001953125,0.026652736864984036,-0.06303754399754107,0.034008652585744856
1733859626294126800,8.350126953125,0.041295010201632974,-0.07085019050985575,0.04571545699238777
1733859626304077800,8.360077880859375,0.03422843281626701,-0.028419600407034156,0.02930500493943691
1733859626314028800,8.37002880859375,0.020780337700247762,-0.0033742987386882303,0.06568856996297837
1733859626323979000,8.37997900390625,0.061332128319144245,-0.002684343713149428,0.06907587431371212
1733859626333929700,8.3899296875,0.08204933765530585,-0.023763445164263246,0.06867021612226963
1733859626343880000,8.3998798828125,0.06817804869115353,-0.06700980862937868,0.03026537440419197
1733859626353831000,8.409830810546875,0.032059856605529784,-0.10465170315094291,-0.0009007482320070266
1733859626363782000,8.419781982421876,0.016941782450675964,-0.08943871725425123,0.007100187394022941
1733859626373731800,8.42973193359375,0.021736615511775016,-0.07390292914398014,-0.00443242948949337
1733859626383682800,8.439682861328125,0.030776246535778044,-0.051043447082117194,0.00010696750581264495
1733859626393632800,8.4496328125,0.038190906706452366,-0.033540596682578326,0.06536182222664357
1733859626403583700,8.459583740234375,0.054116790112853044,-0.03338160672858357,0.08046879046559334
1733859626413535000,8.469534912109374,0.06434212379008532,-0.028579101817682383,0.06849953573048115
1733859626423485200,8.479485107421874,0.06748217538148164,-0.028449995545297858,-0.025043255841732025
1733859626433436200,8.489436279296875,0.04120762417912483,-0.035215032700821755,-0.07465338218510151
1733859626443386400,8.499386474609375,0.01200315700471401,-0.048706528567150235,-0.0969394482731819
1733859626453337000,8.509337158203126,0.02434241409599781,-0.04189575257375836,-0.08421499125659465
1733859626463288300,8.519288330078124,0.008795885396003723,-0.03113726186789572,-0.02675882758796215
1733859626473238300,8.52923828125,0.06277122121155261,-0.02335720245093107,0.10719488482773304
1733859626483189000,8.53918896484375,0.07153057398945092,-0.03252184809409082,0.1368295601129532
1733859626493139200,8.54913916015625,0.044891281127929686,-0.07047668102234601,0.10688099657297134
1733859626503090200,8.559090087890626,0.03011982845366001,-0.087409111122787,0.09001929362118244
1733859626513041200,8.569041259765624,0.05561959589123726,-0.07156118832342326,0.05123801980614662
1733859626522991000,8.5789912109375,0.031053309911489486,-0.05404007161483168,-0.035814240702986715
1733859626532942300,8.5889423828125,0.025907179194688795,-0.028474326268956063,-0.058878305426239966
1733859626542893000,8.59889306640625,0.03375146295428276,-0.05187748675346374,-0.0394312621563673
1733859626552843300,8.60884326171875,0.02442600072622299,-0.06281527954898775,0.0338543388068676
1733859626562794200,8.618794189453125,0.020444822135567663,-0.04477510740235448,0.10840893679261207
1733859626572744200,8.628744140625,0.05005494750142097,-0.03422945572957396,0.11989537644684314
1733859626582695200,8.638695068359375,0.04862228434979916,-0.0378360288541764,0.07454290754795075
1733859626592646100,8.648646240234376,0.01042903955578804,-0.04157236583828926,0.006164952370524406
1733859626602596400,8.658596435546874,0.027595862933993336,-0.03575914951488376,-0.029099253234267233
1733859626612547000,8.668547119140625,0.03625321664214134,-0.03000358166284859,-0.01955927147269249
1733859626622497300,8.678497314453125,0.02443827568590641,-0.03717493459694087,-0.02128594913482666
1733859626632448300,8.6884482421875,0.03726619307696819,-0.05013108147755265,-0.025550036320090293
1733859626642399200,8.698399169921874,0.06066694240868091,-0.06155563487671315,-0.08178221115171909
1733859626652349200,8.70834912109375,0.05805471408367156,-0.043160219551622865,-0.13845219287872312
1733859626662300200,8.718300048828125,0.033950200396776195,-0.05001213127300143,-0.0855938783943653
1733859626672250400,8.72825048828125,0.014786650243401527,-0.026221359710395336,-0.005942834052443504
1733859626682201000,8.738201171875,0.02370586975812912,-0.021639950204268097,0.07613163804411888
1733859626692152300,8.74815234375,0.030558219870924948,-0.06085325876101851,0.1269949793189764
1733859626702102300,8.758102294921875,0.04110650189220905,-0.0716417792789638,0.14411913259923456
1733859626712053200,8.76805322265625,0.04239478813707828,-0.07294358259253203,0.13455693900585175
1733859626722003200,8.778003173828125,0.057897477695345874,-0.04983377903141081,0.1287812782138586
1733859626731954200,8.7879541015625,0.054902972054481504,-0.06422288132458925,0.09212766407728194
1733859626741905200,8.7979052734375,0.034786943481862544,-0.06242459973096847,0.026328619477152822
1733859626751855000,8.807855224609375,0.05475479575544595,-0.055957449543476104,0.0008826280534267425
1733859626761806300,8.817806396484375,0.04077069406658411,-0.026644115167111158,-0.03696691786944866
1733859626771757000,8.827757080078126,0.048235330858826635,-0.0032253917872905728,-0.05449380673170089
1733859626781707300,8.837707275390626,0.011013561445474624,-0.0029906331833451983,-0.08311667462587356
1733859626791658200,8.847658203125,-0.028467385071516034,-0.043367651757225394,-0.09006839345991612
1733859626801608400,8.8576083984375,0.0008837970972061156,-0.0831006733391434,-0.03337678442299366
1733859626811559200,8.86755908203125,0.04231675446480512,-0.04838913318105042,0.04518646468222141
1733859626821510400,8.877510498046876,0.06367284622639417,-0.009682093646004796,0.08447627254128455
1733859626831460400,8.88746044921875,0.07210311318039894,-0.011285217993706465,0.04379588710665703
1733859626841411000,8.8974111328125,0.0655909548074007,-0.02155935924872756,-0.03191898683011531
1733859626851361300,8.907361328125,0.025247838503122327,-0.0555888354267925,-0.08439911565184592
1733859626861312300,8.917312255859375,-0.018151742762327193,-0.08073335968591272,-0.07734393644332885
1733859626871263200,8.92726318359375,0.013328268128633499,-0.09673062782809137,0.0061035775721073144
1733859626881213200,8.937213134765624,0.03143032653033733,-0.09316182943060994,0.10851824238598345
1733859626891164400,8.947164306640625,0.035654373966157435,-0.08905081391520797,0.13401976338922977
1733859626901114000,8.957114013671875,0.06688041009604931,-0.06212890472002327,0.14554185887873172
1733859626911065000,8.967065185546875,0.06799480107873677,-0.06585735065862536,0.09902093072235583
1733859626921016300,8.977016357421874,0.03371522259712219,-0.04844495502151549,0.02173252385854721
1733859626930966000,8.986966064453124,0.02405395254343748,-0.04287343849949538,0.01392681854367256
1733859626940917200,8.996917236328125,0.026887714664638043,-0.03195413120873272,-0.00996200656592846
1733859626950867200,9.0068671875,0.030599720925092694,0.011783084513247012,-0.12069207978248596
1733859626960818200,9.016818115234376,0.026318390344083308,0.010760098141059278,-0.163969495972991
1733859626970769200,9.02676904296875,0.044236032089591024,-0.04150236934199929,-0.10111994882822035
1733859626980719400,9.03671923828125,0.06377279946953057,-0.04952456695176661,0.016024083083868025
1733859626990670000,9.046670166015625,0.06461100385934114,-0.06102152800001204,0.09917465997934341
1733859627000621300,9.056621337890626,0.049154199269413945,-0.05496997287608683,0.0835287625581026
1733859627010571300,9.0665712890625,0.040246670192480086,-0.031341260007396336,0.032815643408894535
1733859627020522200,9.076522216796874,0.03622837446182966,-0.042938393494486804,-0.0021229835033416745
1733859627030472200,9.08647216796875,0.012079437111318111,-0.03422989412099123,-0.013487842604517936
1733859627040423200,9.096423095703125,-0.01171089605987072,-0.03861052035801112,-0.005783844098448753
1733859627050374100,9.1063740234375,0.01542611719071865,-0.04323839935436845,0.049990650093555446
1733859627060324000,9.116323974609376,0.02839256626963615,-0.07348514212332666,0.1140893205165863
1733859627070275300,9.126275390625,0.05641980635821819,-0.06957432535514235,0.12326806775033473
1733859627080225300,9.136225341796875,0.06421499027907848,-0.07024886361584066,0.12419044329226016
1733859627090176000,9.146176025390625,0.05766600702702999,-0.04515541195683181,0.06665361560285091
1733859627100127200,9.156127197265626,0.017583587485551833,-0.01722366813197732,-0.012753683111071586
1733859627110077200,9.1660771484375,0.011646598652005196,-0.008377733049169183,-0.05307867923676967
1733859627120028200,9.176028076171875,0.01996317609846592,-0.0113664665363729,-0.1014098716855049
1733859627129978000,9.18597802734375,0.03658697864115238,-0.04265241615995764,-0.13981003722846508
1733859627139929300,9.195929443359375,0.019803017100691794,-0.07432575766593218,-0.06445932042896747
1733859627149880000,9.205880126953126,0.04270604604333639,-0.09276661956794559,0.02494447164237499
1733859627159830300,9.215830322265624,0.04326367992609739,-0.08453319036029279,0.07693535564243793
1733859627169781200,9.22578125,0.05032499661445618,-0.04428666629828512,0.11358195551633835
1733859627179731200,9.235731201171875,0.06329729091227054,-0.05054010066986084,0.06615794104039668
1733859627189682200,9.24568212890625,0.035732699899375435,-0.06600560002289713,-0.007242810735106468
1733859627199633200,9.255633056640624,0.02590484110713005,-0.05159750076830387,-0.009521277061104774
1733859627209583400,9.265583251953124,0.04940379011631012,-0.02880582324564457,-0.0056003042250871654
1733859627219534000,9.2755341796875,0.025528993532061575,-0.010187193623930215,-0.03534194701611996
1733859627229485300,9.2854853515625,0.04821779520213604,-0.006758461284264922,-0.04624678739011288
1733859627239435300,9.295435302734376,0.04733282906115055,-0.04630465505719185,-0.03303600816130638
1733859627249386200,9.30538623046875,0.05697510215342044,-0.05082790463529527,-0.0003384381741285324
1733859627259336200,9.315336181640625,0.0389519542068243,-0.045811099386587735,0.047803953704237935
1733859627269287200,9.325287109375,0.015910685837268828,-0.03961991659626365,0.05378536620140075
1733859627279238100,9.335238037109375,0.01732259846180677,-0.04403291073292494,0.07977379393875599
1733859627289188000,9.34518798828125,0.036466859392821786,-0.06654233724810182,0.09433364968895912
1733859627299139300,9.355139404296875,0.05966711771637201,-0.06651829878538847,0.08741641764640808
1733859627309089300,9.36508935546875,0.026582886499166486,-0.032939415919035674,-0.024187515795230864
1733859627319040300,9.375040283203125,0.016924246793985367,-0.031515958987176414,-0.0992839655727148
1733859627328991200,9.3849912109375,0.035896658289432525,-0.056445306125655764,-0.1074403840214014
1733859627338941400,9.39494140625,0.06026712943613529,-0.051921764286607504,-0.08666355345249176
1733859627348892200,9.40489208984375,0.028693595042824743,-0.030342823554575443,-0.017276713493466378
1733859627358842000,9.414842041015625,0.02801496512889862,-0.022563933181390165,0.011591653594374656
1733859627368793300,9.42479345703125,0.0609071809053421,-0.02509352472424507,0.011570610806345938
1733859627378744000,9.434744140625,0.027307693642377853,-0.03368833459019661,-0.01182370878458023
1733859627388694300,9.4446943359375,0.023661153833568094,-0.018846373962983488,-0.05510638567209243
1733859627398645200,9.454645263671875,0.018341712376475333,-0.025310893801972267,-0.040679800912737846
1733859627408595200,9.46459521484375,0.047045828813314435,-0.0432981667175889,0.034379823985695834
1733859627418546200,9.474546142578125,0.037165655311942096,-0.09276515826322138,0.05576163471043109
1733859627428497400,9.484497314453124,-0.0017734394133090972,-0.0918019392542541,0.07447685657441616
1733859627438447400,9.494447265625,0.037836686441302295,-0.08176591760404407,0.09693184948861598
1733859627448398300,9.5043984375,0.06537292814254761,-0.04989383865557611,0.08775836295187472
1733859627458349300,9.514349365234375,0.07688771710842847,-0.037311858849599956,0.07790332389175891
1733859627468299300,9.52429931640625,0.05408639497458934,-0.05333331158496439,0.05428922407031059
1733859627478250200,9.534250244140624,0.04572977777868509,-0.058633975276350975,0.04231646220386028
1733859627488200200,9.5442001953125,0.03159603848606348,-0.07168269581124186,0.035029812327027315
1733859627498151400,9.5541513671875,-0.005191138902306556,-0.066430109045282,0.0806879861742258
1733859627508102100,9.56410205078125,0.017341595423221588,-0.04799699205830693,0.12040449501276015
1733859627518052400,9.57405224609375,0.05423895518779754,-0.046644262275099754,0.13892974726259708
1733859627528003300,9.58400341796875,0.06441314319968224,-0.04509169907085597,0.10697101294398308
1733859627537953300,9.593953369140625,0.039836335825920104,-0.04496909560449421,-0.0165261873871088
1733859627547904300,9.603904296875,0.02346446221768856,-0.051178983095288275,-0.12217793442606925
1733859627557855500,9.61385546875,0.01341185475885868,-0.06215118961706757,-0.1148211419224739
1733859627567805200,9.62380517578125,0.046913726866245266,-0.055953577085956926,-0.04200783464610577
1733859627577756200,9.633756103515625,0.012336334481835364,-0.04378733847402036,-0.006294716230034828
1733859627587706400,9.643706298828125,-0.002229366487264633,-0.010479016177356243,0.0398275679975748
1733859627597657000,9.653656982421875,0.05311199698448181,-0.0007120937921106815,0.06713818424940109
1733859627607608300,9.6636083984375,0.08628653683364391,-0.02810994993597269,0.04314297615587711
1733859627617558300,9.673558349609374,0.049449967345595355,-0.05025529237911105,-0.07292027478218079
1733859627627509200,9.68350927734375,-0.003939093014597893,-0.05842201302610337,-0.11957155131995677
1733859627637460200,9.693460205078125,-0.0038943770900368687,-0.06938881272040306,-0.045482817280292506
1733859627647410200,9.70341015625,0.05759878700971603,-0.06466295324228703,0.04764788635969162
1733859627657361200,9.713361083984376,0.035141456007957456,-0.04746639231294393,0.1331383043795824
1733859627667311000,9.72331103515625,0.03898731778115034,-0.022922683491185307,0.14373802432715893
1733859627677262300,9.733262451171875,0.049777299603819845,-0.016861045364663003,0.10261457130014896
1733859627687213000,9.743213134765625,0.05080781169533729,-0.030053119892999528,-0.020011106893420217
1733859627697163300,9.753163330078126,0.02226093164682388,-0.06682648795172572,-0.11444880147874355
1733859627707114200,9.7631142578125,0.008997545447945595,-0.07381167066395282,-0.07441372821033
1733859627717064200,9.773064208984374,0.022453823870420456,-0.08710800928436219,-0.01031271969974041
1733859627727015200,9.78301513671875,0.05032967278957367,-0.09737389416769146,-0.001093055933713913
1733859627736966400,9.79296630859375,0.012788169902563094,-0.04618826213590801,-0.003897591960430145
1733859627746916400,9.802916259765626,0.010000000488758086,-0.01177322070635855,0.004426584270596504
1733859627756867000,9.8128671875,0.02832300816476345,-0.021940832846984264,0.025237901630997657
1733859627766817300,9.8228173828125,0.03157002726197242,-0.015133929311111568,0.0727490098685026
1733859627776768300,9.832768310546875,0.025565233889222144,-0.047353141196817154,0.06863748289644718
1733859627786719200,9.84271923828125,0.024020050273835657,-0.05513860744126141,0.08802373588979244
1733859627796669200,9.852669189453126,0.07215776597708463,-0.052995530997961754,0.11247194844782352
1733859627806620400,9.862620361328124,0.08639671920984983,-0.06594897446483373,0.053912207451462746
1733859627816570400,9.8725703125,0.036971009522676464,-0.04768200782500207,0.005437222617864609
1733859627826521000,9.88252099609375,-0.008413315819203853,-0.042112829390540715,-0.05340601149499416
1733859627836472300,9.892472412109376,0.0267848388120532,-0.049286593477427955,-0.0472737923502922
1733859627846422300,9.90242236328125,0.03745587043017149,-0.05113572847545147,0.013613514810800552
1733859627856373200,9.912373291015625,0.03527238891124725,-0.053821898819506164,0.05277297428846359
1733859627866323200,9.9223232421875,0.039033202749490736,-0.05783434933125972,0.047048751422762866
1733859627876274400,9.9322744140625,0.04667933358848095,-0.060362771830335255,0.0292792859762907
1733859627886225200,9.94222509765625,0.05780979941189289,-0.06543262244053184,-0.015072481447458267
1733859627896175000,9.952175048828124,0.045697921335697174,-0.0571340921074152,-0.0465986695677042
1733859627906126300,9.962126220703125,0.013428805893659591,-0.03624444881379604,-0.054846273431181904
1733859627916077300,9.972077392578125,0.02031856540739536,-0.021944486108794806,-0.062306526309251785
1733859627926027300,9.98202734375,0.03531155187785625,-0.008635653332993388,-0.019808277797698972
1733859627935978200,9.991978271484374,0.05199409887045622,-0.043060704699903724,0.01779284632205963
1733859627945928400,10.001928466796874,0.03677461016774177,-0.0696563045501709,0.07254325816333293
1733859627955879200,10.011879150390625,0.03366612275838852,-0.03864120775721967,0.10896715519726276
1733859627965830400,10.021830322265625,0.03507540503442287,-0.03931589214839041,0.0735515584230423
1733859627975780400,10.0317802734375,0.05460369684696197,-0.04597571536377072,0.046780455875396726
1733859627985731300,10.0417314453125,0.05199789826273918,-0.07057290793843567,-0.006166121414303779
1733859627995681300,10.051681396484375,0.019664485412836073,-0.07225209319703281,-0.10116846414506435
1733859628005632300,10.06163232421875,-0.011640168911218643,-0.058182212920859455,-0.06657002897262573
1733859628015583200,10.071583251953125,0.009119126001000405,-0.07519348041117191,0.06175473764538764
1733859628025533200,10.081533203125,0.03567337092757225,-0.08127762263044715,0.16278934627771377
1733859628035484400,10.091484375,0.02557049458622932,-0.05640555863715708,0.17215163338482378
1733859628045434000,10.10143408203125,0.0662532181084156,-0.03766374102719128,0.13214578621089457
1733859628055385300,10.11138525390625,0.08587444890141487,-0.020506196933984755,0.03194529031515121
1733859628065336300,10.12133642578125,0.04838438394069671,-0.008130334159359336,-0.1070785649716854
1733859628075286300,10.131286376953126,0.022506430840492246,-0.0374849503941834,-0.17270108396112918
1733859628085237200,10.1412373046875,-0.013158172258734703,-0.06555339927598834,-0.13508008609712124
1733859628095188200,10.151188232421875,-0.007350947284698486,-0.06943301718831062,0.002332242339849472
1733859628105138200,10.16113818359375,0.020271803656220434,-0.047546691007539624,0.08123860579431057
1733859628115089200,10.171089111328126,0.06295593012869358,-0.009183861800283194,0.08740414268672465
1733859628125039400,10.181039306640624,0.07051555172801018,-0.017513371793553233,0.05105038827955723
1733859628134990300,10.190990234375,0.058714054775238035,-0.0310945917699486,-0.007853636109828949
1733859628144941300,10.20094140625,0.035405075380206104,-0.030720570825785398,0.016601006188988684
1733859628154891300,10.210891357421875,-0.00012976385951042174,-0.03624218379147351,-0.008039514070749283
1733859628164842200,10.22084228515625,0.003922726401686668,-0.04861132456436753,-0.021643676531314847
1733859628174792200,10.230792236328124,0.01811228753477335,-0.05313099394589662,0.013920388802886008
1733859628184743200,10.2407431640625,0.03583528349101543,-0.053286184507608414,0.04254091860949993
1733859628194694400,10.2506943359375,0.06219020645320415,-0.05732457317821681,0.044370472124218935
1733859628204644000,10.26064404296875,0.022516952234506605,-0.04506254604160785,0.0568418311625719
1733859628214595300,10.27059521484375,0.04478256005644798,-0.06385244057700037,0.08113163828849793
1733859628224545300,10.280545166015624,0.042507893122732635,-0.07309943074136972,0.09687281277775764
1733859628234496300,10.290496337890625,0.04906710550785064,-0.05407930764667689,0.07683131074607372
1733859628244447200,10.300447265625,0.026333295652270317,-0.04951273038350045,0.029021511822938918
1733859628254397200,10.310397216796876,0.03634440205693245,-0.06420826827734709,-0.02624211023747921
1733859628264348200,10.32034814453125,0.0372007266253233,-0.0784662184715271,-0.08544307174682617
1733859628274299100,10.330299072265625,0.00017594108879566192,-0.0366350555665791,-0.006382979035377502
1733859628284249300,10.340249267578125,0.02183189257979393,-0.020965996465459463,0.04116846121251583
1733859628294200000,10.350199951171875,0.0066810851991176605,-0.030820597134158013,0.0008253449082374572
1733859628304150300,10.360150390625,0.040840544432401656,-0.03543883151933551,-0.03780687582492828
1733859628314101200,10.370101318359374,0.047963528180122374,-0.04021174500957131,-0.04331599463522434
1733859628324052200,10.38005224609375,0.041676995256543156,-0.03896306012272834,-0.035005846929550166
1733859628334002200,10.390002197265625,0.022334581404924392,-0.015538418458774685,-0.03945172042250633
1733859628343953400,10.399953369140626,0.03487783663570881,-0.031174963529780504,0.006060322952270507
1733859628353903400,10.4099033203125,0.03696399526000023,-0.03668890464566648,0.07389642633795737
1733859628363854000,10.41985400390625,0.04409048613905906,-0.04438128577917814,0.07831599634587764
1733859628373805300,10.429805419921875,0.018204934254288672,-0.0625490298282355,0.03664484630823135
1733859628383755300,10.43975537109375,0.01619914738982916,-0.05457790481857955,0.04939268420040607
1733859628393706200,10.449706298828126,0.0469537666156888,-0.07773768500126897,0.08800093953609466
1733859628403656200,10.45965625,0.0525374119669199,-0.06558452506661415,0.051118777340650554
1733859628413607400,10.469607421875,0.034710078853368756,-0.051555707453191275,0.040871524092555046
1733859628423557600,10.4795576171875,0.06188040985167026,-0.0725099404156208,0.04252805912792682
1733859628433507300,10.48950732421875,0.04176934971511364,-0.07078275129683316,-0.024373978278040883
1733859628443458600,10.49945849609375,0.014644611424207686,-0.045151904825493694,-0.04231470863819122
1733859628453408500,10.509408447265624,0.015497428861260413,-0.011178469683602452,0.005136778366565704
1733859628463359200,10.519359130859375,0.028190321695804595,-0.018217063083499668,-0.010059621721506118
1733859628473310500,10.529310546875,0.022405893075466154,-0.03722637252323329,-0.0363379723161459
1733859628483260400,10.539260498046875,0.0032590017959475514,-0.04619125781059265,-0.05075403568148613
1733859628493211400,10.54921142578125,0.02753741074502468,-0.018379340973123905,0.009330722925066948
1733859628503162400,10.559162353515624,0.04273527213782072,0.009141776224225759,0.05586626412868499
1733859628513112600,10.569112548828125,0.041484395293891425,0.0014768676195293664,0.09588438626229763
1733859628523063300,10.579063232421875,0.060061962252855296,-0.04564867536649107,0.12544891892075538
1733859628533013500,10.589013427734375,0.025946926683187484,-0.09436945165470242,0.09618658407926559
1733859628542964500,10.598964599609374,0.039998832911252974,-0.122762164054811,0.0647416445016861
1733859628552915500,10.60891552734375,0.03731587743759155,-0.12165149939917028,-0.011828384959697723
1733859628562865400,10.618865478515625,0.03445464278757572,-0.08397825989127158,-0.030584523355960843
1733859628572816400,10.62881640625,0.036928339424729346,-0.055463090155273675,-0.050611996862292286
1733859628582766600,10.6387666015625,0.005701426512002944,-0.06257745220512151,-0.0710720165669918
1733859628592717300,10.64871728515625,0.028816344639658927,-0.05476575554087758,-0.011034019711613654
1733859628602668500,10.65866845703125,0.04082622364610433,-0.053044776967167855,0.051038113319873804
1733859628612618500,10.668618408203125,0.049962593042850494,-0.05756985317617654,0.09419336443543433
1733859628622569500,10.678569580078126,0.013645078992843626,-0.028739918402582405,0.10829729311168193
1733859628632519400,10.68851953125,0.051131052300333976,0.0065807666298002,0.1009182887762785
1733859628642470400,10.698470458984374,0.06728899089694022,-0.009445873737335204,0.04198270020484924
1733859628652421400,10.70842138671875,0.05084171396493911,-0.033837606867775316,-0.027011341044306754
1733859628662371300,10.718371337890625,0.016994389420747755,-0.020744901060685515,-0.052364978009462354
1733859628672322600,10.728322509765626,0.026986791124939916,-0.028981325943022964,-0.029625907456874847
1733859628682273300,10.738273193359374,0.04743044421672821,-0.06852328193224966,0.003071078008413315
1733859628692223500,10.748223388671875,0.0462760134845972,-0.07664075661003589,0.03629530221819877
1733859628702174500,10.758174560546875,0.04622077616602182,-0.061882236482575535,0.027726211315393445
1733859628712124400,10.76812451171875,0.05360299537181854,-0.047740679209679365,-0.018440496575832365
1733859628722075400,10.778075439453126,0.04563391618877649,-0.023143340504541993,-0.06759644941091537
1733859628732026600,10.788026611328124,-0.0025102292552590367,-0.021120967831462622,-0.10597381860017775
1733859628741976600,10.7979765625,0.0025528993532061574,-0.017811039565876124,-0.06777706667482852
1733859628751927300,10.80792724609375,0.02753478039652109,-0.06142923201806843,0.005429039311408996
1733859628761877500,10.81787744140625,0.0664186378031969,-0.09836948107630014,0.10825754562318324
1733859628771828500,10.827828369140626,0.059117374879121776,-0.06902765125781297,0.16644202356636523
1733859628781779500,10.837779541015625,0.06376870781630277,-0.015877514220029115,0.11723638637065886
1733859628791729400,10.8477294921875,0.053204643703997134,-0.011179419531673193,0.020353636720776558
1733859628801680600,10.8576806640625,0.010552958196401596,-0.026644845819473264,-0.04898293435573577
1733859628811630600,10.867630615234376,-0.007954466135799884,-0.04817088732048869,-0.05877718313932419
1733859628821581300,10.877581298828124,0.009855331321060657,-0.03705861474089324,0.015981997507810593
1733859628831532500,10.887532470703125,0.03627952012717724,-0.05901113802567124,0.05987491524815559
1733859628841482500,10.897482421875,0.037516368445754046,-0.09390526820905506,0.07967442521750927
1733859628851433500,10.90743359375,0.07724924389719963,-0.10605126775056123,0.09954407781362533
1733859628861384400,10.917384521484376,0.06908113501071929,-0.0810970784317702,0.07263678166568278
1733859628871334700,10.927334716796874,0.03717208505272865,-0.04254201458804309,0.012215338450670242
1733859628881285400,10.937285400390625,0.02361176173388958,-0.004013619555532932,-0.050636546781659124
1733859628891235300,10.9472353515625,0.01690437304973602,-0.01736943327821791,-0.08726619552075862
1733859628901186600,10.9571865234375,0.020983166795969007,-0.03732062667794525,-0.07712123360335826
1733859628911137500,10.967137451171874,0.03185468942224979,-0.0581265372108668,0.0001204115092754364
1733859628921087500,10.97708740234375,0.02290799737870693,-0.039519013505056495,0.04306698831021785
1733859628931038500,10.98703857421875,0.04428220931887626,-0.041927243690565226,0.06343465355634689
1733859628940988400,10.996988525390625,0.04990647894144058,-0.021984306662529707,0.11176409243941307
1733859628950939400,11.006939453125,0.05970131224691867,-0.0479812830325216,0.07883037560880184
1733859628960890600,11.016890625,0.027742870189249515,-0.047099824022874236,0.007018354329466819
1733859628970840600,11.026840576171875,0.033714638075232506,-0.03977591087557375,-0.021188918501138687
1733859628980791600,11.03679150390625,0.016054478222131727,-0.057900108043849464,-0.01032791726887226
1733859628990741500,11.046741455078125,0.014717384399473666,-0.060772813935950395,0.008766074779629707
1733859629000692500,11.0566923828125,0.01282324121594429,-0.050118879583105444,0.04324994366168976
1733859629010643500,11.0666435546875,0.026489655257761476,-0.03143412592262029,0.08548807993233204
1733859629020593400,11.076593505859375,0.05650923820734024,-0.04713599131479859,0.10292553694546222
1733859629030544600,11.086544677734375,0.07528349678218364,-0.036318317767605184,0.01973404351770878
1733859629040495400,11.096495361328126,0.025782676032185554,-0.01149535361304879,-0.07792728928923606
1733859629050445600,11.106445556640624,0.008258125257492066,-0.020657149711996316,-0.11618658505678177
1733859629060396500,11.116396484375,0.015387538745999336,-0.03971541285999119,-0.0627718057334423
1733859629070346200,11.12634619140625,0.03674216920286417,-0.06376059757508337,0.028101474368572233
1733859629080297500,11.13629736328125,0.03252572055160999,-0.05417560762800276,0.10038403576910496
1733859629090248700,11.146248779296876,0.05330488920807838,-0.0740093121279031,0.11621405758559702
1733859629100198400,11.156198486328124,0.06458119324296713,-0.06822912129126489,0.0680441931784153
1733859629110149400,11.1661494140625,0.05420739100575447,-0.04959390586093068,-0.03370119407176971
1733859629120099600,11.176099609375,0.011746844156086443,-0.027961408310756084,-0.07240005030035972
1733859629130050300,11.18605029296875,0.02134732393324375,-0.050956207190081475,-0.039815293037891386
1733859629140001500,11.19600146484375,0.04964373635202646,-0.06948343220129609,-0.016657120290398595
1733859629149951500,11.205951416015624,0.040676586042344566,-0.07462503287345171,0.05944412261545658
1733859629159902500,11.21590234375,0.05700257468223571,-0.07427227391302585,0.1266682315826416
1733859629169852400,11.225852294921875,0.05905424651503562,-0.06570062572695315,0.10697159746587276
1733859629179803400,11.235803466796876,0.031054478955268857,-0.03377542835175991,0.06144903269708156
1733859629189754400,11.24575439453125,0.018908114087581633,-0.03284918035231531,-0.020174188500642776
1733859629199704300,11.255704345703125,0.030669863551855085,-0.04695500872470438,-0.08609539817571639
1733859629209655600,11.265655517578125,0.01039981346130371,-0.04397212045639753,-0.05692249518334865
1733859629219606300,11.275606201171875,0.037791093733906746,-0.029116423564776776,0.025387539234757422
1733859629229556500,11.285556396484376,0.04524871626347303,-0.017356500731408594,0.026226912668347358
1733859629239507500,11.295507568359374,0.04096972377002239,-0.014184592697024344,-0.020164251628518103
1733859629249457400,11.30545751953125,0.024282500602304934,-0.03234868348427117,-0.05240121836662292
1733859629259408400,11.315408447265625,0.02063186914026737,-0.04360438312254846,-0.06062602587640285
1733859629269359400,11.325359375,0.006623802053928375,-0.019441928703337906,-0.05005319393575191
1733859629279309600,11.3353095703125,0.01352817461490631,-0.01726443853378296,-0.01813303806185722
1733859629289260300,11.34526025390625,0.05243453611433506,-0.052938467048481104,0.05197042573392391
1733859629299210500,11.35521044921875,0.06409516329169274,-0.06957293711565435,0.10524199719429016
1733859629309161500,11.365161376953125,0.04551847311556339,-0.028619287697598337,0.15766893452405928
1733859629319112400,11.375112548828126,0.040731238839030265,-0.03051496525108814,0.13083996430933476
1733859629329062400,11.3850625,0.033417408694326876,-0.04553505892418325,0.061791562524437904
1733859629339013600,11.395013671875,0.05988660568594932,-0.08825995579846203,-0.009859715235233307
1733859629348963600,11.404963623046875,0.03366933762878179,-0.11593085673004389,-0.06592413228452206
1733859629358914300,11.414914306640625,0.008440496087074279,-0.11311433800458907,-0.040943420284986494
1733859629368865500,11.424865478515626,0.017344810293614864,-0.07740757626406848,0.050855742490291594
1733859629378815500,11.4348154296875,0.05359685789197683,-0.06492759552784264,0.11321195316016673
1733859629388766500,11.444766357421875,0.04198971446752548,-0.05590053172446787,0.11201894398331641
1733859629398717400,11.454717529296875,0.05096037190854549,-0.02535020289905369,0.09440203875005244
1733859629408667600,11.464667724609376,0.037410569983720776,-0.01548646907582879,-0.014324293428659438
1733859629418618400,11.474618408203124,0.011107084947824478,0.003862155320867896,-0.1147469076424837
1733859629428569000,11.484569091796875,0.053558863969147205,0.01588672043979168,-0.15477613569200038
1733859629438520300,11.494520263671875,0.05939823764711618,-0.04089088638015091,-0.13389701379239557
1733859629448471000,11.504470947265625,0.03148585610985756,-0.07137998653762043,-0.051849429702758784
1733859629458421200,11.514421142578126,0.03169569946825504,-0.09776640061661601,0.0835287625581026
1733859629468372200,11.524372314453124,0.04307224900722503,-0.08019099643751978,0.1577723948985338
1733859629478322000,11.534322021484375,0.0382505279392004,-0.03765015089325607,0.13655132769346237
1733859629488273200,11.544273193359375,0.05191372711062431,-0.0040842005737125875,0.06628712037801743
1733859629498224000,11.55422412109375,0.04603109881281853,0.004970774149894714,-0.02779401585459709
1733859629508174000,11.564174072265626,0.03854863410294056,-0.022319895292446015,-0.10473346315026283
1733859629518125000,11.574125,0.027390695750713345,-0.0783285635665059,-0.09428571889400482
1733859629528075300,11.5840751953125,0.00109013332426548,-0.08502754974849522,-0.0008528174370527267
1733859629538026000,11.59402587890625,0.019926351219415665,-0.06537468170821667,0.10738602348566055
1733859629547977200,11.603977294921876,0.026885084316134452,-0.04130903872698545,0.15642741003036498
1733859629557927200,11.61392724609375,0.05529869337379932,-0.06326448462121188,0.16537819372713564
1733859629567878100,11.623878173828125,0.048363341152667993,-0.0689387308653444,0.09625321957468987
1733859629577829000,11.6338291015625,0.011346738922595977,-0.021156696731969713,0.006198854640126228
1733859629587779000,11.643779052734375,0.012232289585471153,0.023277634408697484,-0.0529728807747364
1733859629597730000,11.65372998046875,0.0340501536399126,-0.004249693333730101,-0.10258943685889244
1733859629607680000,11.663679931640624,0.033089784175157545,-0.061978609529137606,-0.11182254462838172
1733859629617631200,11.67363134765625,0.03120645464658737,-0.09869637494310736,0.0027419921845197675
1733859629627582000,11.68358203125,0.04749737197309732,-0.07841003130488097,0.09082359574139118
1733859629637532200,11.6935322265625,0.05656944396197795,-0.07402852828502654,0.10535130278766154
1733859629647483100,11.703483154296874,0.04800035305917263,-0.051295376016572115,0.0508686019718647
1733859629657433000,11.71343310546875,0.037216216455399985,-0.02874379086010158,0.01664659889638424
1733859629667384000,11.723384033203125,0.019914076259732245,-0.05593363027647137,0.011207038190960883
1733859629677335000,11.7333349609375,0.03139671652168035,-0.03938157779574394,-0.022666005316376685
1733859629687285200,11.74328515625,0.05937076511830091,-0.06156389124840497,-0.03336977016031742
1733859629697236000,11.753236083984374,0.04335603438466787,-0.06924436274841428,0.018620529317855832
1733859629707186200,11.763186279296875,0.03427285647988319,-0.073116162680462,0.03901332900524139
1733859629717137200,11.77313720703125,0.040323827081918714,-0.053872386897727845,0.06785130095481873
1733859629727088000,11.783088134765626,0.028131577245891094,-0.04100026503875851,0.04191957184076309
1733859629737038000,11.7930380859375,0.028258126235008237,-0.035584012143686415,0.027415245670080184
1733859629746989300,11.8029892578125,0.057742287133634086,-0.040777708329260344,0.02442424716055393
1733859629756940000,11.81293994140625,0.026635785730183124,-0.027131168031692503,-0.05030570739209651
1733859629766890000,11.822889892578125,0.0058753217741847035,-0.039282939726859326,-0.03413023313879966
1733859629776841200,11.83284130859375,0.05375818593353033,-0.06796491739712655,0.006674655458331108
1733859629786791200,11.842791259765624,0.04765548514425754,-0.027004180651158092,0.010958031865954398
1733859629796742100,11.8527421875,0.033602117611467835,-0.007395517078787088,-0.027687048348784445
1733859629806693000,11.862693115234375,0.029819384202361104,-0.01650916318707168,-0.06891805340349674
1733859629816643300,11.872643310546875,0.04389525582790375,-0.06282543561682105,-0.03938742301464081
1733859629826594000,11.882593994140626,0.0451391184091568,-0.07671988626085222,-0.0016384148567914962
1733859629836544000,11.8925439453125,0.011149755045771597,-0.05972885784097016,0.029638182416558263
1733859629846495200,11.9024951171875,-0.007993921363353728,-0.05034596633724868,0.0808580820441246
1733859629856446000,11.912446044921875,0.0439124992236495,-0.07446100141815841,0.1768704786002636
1733859629866396200,11.922396240234375,0.06147182905077934,-0.08067578427977859,0.2213251218765974
1733859629876347100,11.93234716796875,0.0601490560144186,-0.049821650202199814,0.14423603697717188
1733859629886298000,11.942298095703125,0.05597732328772544,-0.02940605416111648,-0.0435574021756649
1733859629896248000,11.952248046875,0.01772913343608379,-0.03531710483580827,-0.16416940245926379
1733859629906199300,11.96219921875,0.010367080235481262,-0.04106324727237224,-0.13553425960540771
1733859629916149200,11.972149169921876,0.027452655071020123,-0.06963219302222132,-0.04540390682518482
1733859629926100000,11.982099853515624,0.026332418869435787,-0.06804952694065869,0.07175473813414573
1733859629936051200,11.99205126953125,0.06599281360656023,-0.05935308333113789,0.13854688542485236
1733859629946001200,12.002001220703125,0.04950783501267433,-0.05009330675043165,0.13649930524528026
1733859629955952000,12.0119521484375,0.03971183266341686,-0.037105376492068166,0.10385960292518139
1733859629965902000,12.021902099609376,0.04041179762631655,-0.0447779569465667,0.015498597905039786
1733859629975853300,12.031853271484374,0.017808628413081166,-0.05955803131870925,-0.09002163170874118
1733859629985804000,12.041803955078125,0.005754618003964424,-0.06627155748270451,-0.1276999127179384
