time,seconds_elapsed,z,y,x
1733861751217019100,0.01301904296875,-0.04519347894489765,-0.02828326067626476,0.03349778045415878
1733861751226969900,0.022969970703125,-0.09770911747142672,0.01442658475935459,0.04582008641064167
1733861751236921000,0.032921142578125,-0.1902839407943189,0.029531214910745618,0.02891805144846439
1733861751246872000,0.0428720703125,-0.19122589781954882,-0.038682489615678786,0.04765606966614723
1733861751256823000,0.052822998046875,-0.1562755804695189,-0.06418985583782195,0.05100421105027198
1733861751266774000,0.06277392578125,-0.07481997092366219,-0.030485154634714125,0.06498129847645759
1733861751276725000,0.07272509765625,0.016559505134820938,-0.02921265048086643,0.042643794462084765
1733861751286676000,0.082676025390625,0.07643719686195254,-0.03941723363101482,0.043162849900126456
1733861751296627000,0.092626953125,0.10892916127443313,-0.030346622946858404,0.05539513948559761
1733861751306578000,0.102577880859375,0.08611118026673793,0.031924247527122494,0.04522270503938198
1733861751316529200,0.112529052734375,0.027976386684179306,-0.011152093133330345,0.023231237983703613
1733861751326480000,0.12247998046875,-0.07833879269957542,-0.11768296109437942,0.030156653332710264
1733861751336431000,0.13243115234375,-0.15033099285140633,-0.054389177313446994,0.040863925307989116
1733861751346381800,0.1423818359375,-0.11108896965682506,-0.04258884940445423,0.022672435057163237
1733861751356333000,0.1523330078125,-0.02711947759389877,-0.009772621473670005,0.04790507599115371
1733861751366285000,0.16228515625,0.04952770875692367,-0.001928337714076042,0.06577332563698292
1733861751376236000,0.172236083984375,0.1302232937157154,-0.014316694644093513,0.07318564772009849
1733861751386187000,0.18218701171875,0.08100786577835678,-0.03787701845169067,0.05311491959393024
1733861751396138000,0.192137939453125,-0.009525222583860158,0.003787701845169067,0.04770224689543247
1733861751406089000,0.2020888671875,-0.04288271778449416,-0.04492401435375214,0.04230769437551498
1733861751416040000,0.2120400390625,-0.10354279206097125,-0.043859599992632864,0.04813713118135929
1733861751425991200,0.2219912109375,-0.10706702066436409,-0.015949848803877828,0.08363865267336368
1733861751435942000,0.23194189453125,-0.05213818351626396,-0.009704232412576674,0.06989712756872177
1733861751445893600,0.2418935546875,-0.0241162041246891,-0.032277883270382876,0.022272037562727928
1733861751455844400,0.25184423828125,0.007792407441884279,-0.033488428103923794,0.028142975422739983
1733861751465795600,0.261795654296875,0.030920038920640942,-0.03861585412025451,0.03968494465649128
1733861751475746300,0.271746337890625,-0.010478723916411399,-0.012850129222869872,0.04250818538367748
1733861751485697500,0.281697509765625,-0.041083705538511275,-0.015062544575333594,0.03207622321844101
1733861751495648500,0.2916484375,-0.06725275053977967,-0.04174012362062931,0.05699146876633167
1733861751505599500,0.301599609375,-0.11831716734468936,-0.024389760369062423,0.04952010997235775
1733861751515550500,0.311550537109375,-0.09800590846091509,-0.0339455242216587,0.0337888723552227
1733861751525501400,0.32150146484375,-0.07549713953286409,-0.020741759255528448,0.014831658428907393
1733861751535452700,0.33145263671875,-0.030058015263825653,-0.025008184528350828,0.020647066709399222
1733861751545403400,0.3414033203125,-0.00283273920789361,-0.03351356254518032,0.03629237960875034
1733861751555355600,0.351355712890625,-0.02729775677025318,-0.02115910788476467,0.04225333383977413
1733861751565306400,0.361306396484375,-0.035684476843476295,-0.033279169267415996,0.07857610858678818
1733861751575257600,0.371257568359375,-0.03823284615203738,-0.022746084815263745,0.056366030344367025
1733861751585208300,0.381208251953125,-0.054283963373303414,-0.015512041908502578,0.05580430480837822
1733861751595159600,0.39115966796875,-0.0539969631254673,-0.04017360495626926,0.06950666694641112
1733861751605110500,0.401110595703125,-0.01150412144139409,-0.027574235624074933,0.05494973380565643
1733861751615061500,0.4110615234375,0.015518325518816708,0.0076543141454458235,0.0678916329652071
1733861751625012500,0.421012451171875,0.04053586239740252,-0.015482815814018249,0.05275602315366268
1733861751634963500,0.43096337890625,0.03200505767837167,-0.06615092677772044,0.04827449382543564
1733861751644914400,0.44091455078125,-0.014891133531183003,-0.06697510264217853,0.0860907220005989
1733861751654865400,0.450865478515625,-0.050340194183588025,-0.024413141244649886,0.07329904496669769
1733861751664816400,0.46081640625,-0.08300079316124319,-0.03374269512593746,0.04303834673762321
1733861751674767600,0.470767578125,-0.09890519538819789,-0.02127250513136387,0.05044482360184192
1733861751684718600,0.480718505859375,-0.08076265884563326,-0.011100655207037924,0.04289981504976749
1733861751694669600,0.490669677734375,-0.06368132179379463,-0.020620178702473638,0.029953239715099333
1733861751704620500,0.50062060546875,-0.033100743960589166,-0.02385433831810951,0.0018377368211746215
1733861751714571500,0.510571533203125,-0.016527210300415752,-0.04141337588429451,-0.02160100643336773
1733861751724522500,0.5205224609375,-0.04370689364895224,-0.03561550326049328,0.0014385083705186843
1733861751734473500,0.530473388671875,-0.06159165603816509,-0.07085106729269028,0.026338556349277495
1733861751744425500,0.540425537109375,-0.08700418358370661,-0.05037994167208671,0.054909986317157745
1733861751754376400,0.55037646484375,-0.09948431045040487,0.03095160310268402,-0.017474281892180442
1733861751764327400,0.560327392578125,-0.11291150890886784,-0.011928922724723815,0.0021352584630250928
1733861751774278400,0.5702783203125,-0.0998233331464231,-0.008118424525856972,0.014973112726211548
1733861751784229600,0.580229736328125,-0.0460747918240726,-0.0280985517591238,-0.0007476034969091414
1733861751794180400,0.590180419921875,-0.06381400826275348,-0.03471533955037594,0.0247960030823946
1733861751804131600,0.600131591796875,-0.059487231104820966,0.01668868447244167,0.013919804280996323
1733861751814082300,0.610082275390625,-0.053473816034197805,-0.031226328390836715,0.07113572945296764
1733861751824033500,0.620033447265625,-0.05517930477783083,-0.0373702379733324,0.1292997491300106
1733861751833984300,0.629984375,-0.07252908350750803,-0.060222705772519106,0.10214227761328219
1733861751843935500,0.639935546875,-0.04060965828597545,-0.045836453023552895,0.03888181158006191
1733861751853886700,0.64988671875,-0.023413754943758247,-0.07382511466741562,0.05319909074604511
1733861751863837400,0.65983740234375,-0.013670651825517416,-0.03375555460751056,0.0307084419965744
1733861751873788700,0.66978857421875,-0.06612535394504666,0.01265372986793518,-0.031310499542951585
1733861751883739400,0.679739501953125,-0.08755728742182255,-0.024166473007202146,0.014800094246864319
1733861751893690600,0.689690673828125,-0.09254209009706973,-0.015213351222872732,-0.0032820904105901718
1733861751903641300,0.699641357421875,-0.03584638940691948,0.024158874222636222,-0.0207744924813509
1733861751913592600,0.709592529296875,0.004916413614153862,-0.008033668851852416,0.018024901512265205
1733861751923544300,0.71954443359375,0.01683203846588731,-0.015278817674517631,0.03258592630624771
1733861751933495600,0.72949560546875,-0.009297989699244499,-0.02399462357163429,0.012729717713594435
1733861751943446300,0.7394462890625,-0.05758417396247387,-0.04150397677719593,0.0362070394128561
1733861751953397500,0.7493974609375,-0.09041852207183837,-0.035523733323812486,0.03961947820484638
1733861751963348500,0.759348388671875,-0.09489888235628605,-0.027368483918905256,0.03283434810936451
1733861751973299500,0.769299560546875,-0.06046528235673904,-0.017275544449687003,0.02586684718430042
1733861751983250400,0.77925048828125,-0.012140665779262781,-0.022447394129633903,0.04546469710171223
1733861751993201400,0.789201416015625,0.017959288930147886,-0.0216109433054924,0.03691255733370781
1733861752003152600,0.799152587890625,-0.027499562952667474,-0.02878478045761585,0.03452770802378654
1733861752013103400,0.809103271484375,-0.04419394651353359,-0.02126373730301857,0.030943419796228406
1733861752023054600,0.8190546875,-0.05681377411186695,-0.014672083953022956,0.04195464315414429
1733861752033005600,0.829005615234375,-0.06308437881395221,-0.024538813450932503,0.045263037049770354
1733861752042956500,0.83895654296875,-0.03162029614448547,-0.02901099042892456,0.03601239362359047
1733861752052907500,0.848907470703125,-0.023713322412222623,-0.03614741818010807,0.03550385957956314
1733861752062858500,0.8588583984375,-0.02396349778100848,-0.033006197544932364,0.05278408020436764
1733861752072809500,0.8688095703125,-0.040730069795250894,-0.018925065222382544,0.023377952978014944
1733861752082760400,0.878760498046875,-0.05509250327721238,-0.020675123760104178,0.039784897899627684
1733861752092711400,0.88871142578125,-0.045521834116429086,-0.018892331996560097,0.028166356298327443
1733861752102662700,0.89866259765625,-0.04888648824393749,-0.030177111598849296,0.03279284705519676
1733861752112613400,0.90861328125,-0.06815408329367638,-0.03450257358253002,0.023595395120978354
1733861752122565600,0.918565673828125,-0.0536702153891325,-0.0419669181138277,0.03981821564733982
1733861752132516400,0.928516357421875,-0.0543682806558907,-0.036064416071772576,0.05426759676039219
1733861752142467600,0.938467529296875,-0.02573985980376601,-0.016549568262696265,0.033873628029227255
1733861752152418300,0.948418212890625,-0.04553177098855376,-0.02713350611925125,0.04488309782147407
1733861752162369500,0.95836962890625,-0.046684448155015705,-0.019894202515482903,0.041133389899134634
1733861752172320500,0.968320556640625,-0.025132103168964384,-0.020814824491739273,0.04215747224986553
1733861752182271500,0.978271484375,-0.0246826058357954,-0.03656359776556491,0.03033025633394718
1733861752192222700,0.98822265625,-0.04542568026557565,-0.028493104034662244,0.015233809489011764
1733861752202173400,0.99817333984375,-0.04374152657091617,-0.024666239222884176,0.03583879062235355
1733861752212124700,1.008124755859375,-0.04282908790111541,-0.02737491365969181,0.042651393246650696
1733861752222075400,1.018075439453125,-0.0415139136493206,-0.024091654205322263,0.04883972649276256
1733861752232026600,1.028026611328125,-0.01882277389168739,-0.02887713491618633,0.04559679904878139
1733861752241977300,1.037977294921875,-0.013968904119729996,-0.011484101566672324,0.0401543157339096
1733861752251928600,1.047928466796875,-0.031170652680844065,-0.02190028164088726,0.03741758424639702
1733861752261879600,1.057879638671875,-0.044900487347692246,-0.030772739404439923,0.023944354689121244
1733861752271830500,1.06783056640625,-0.05595788793489337,-0.03608896599113941,0.03794073133766651
1733861752281781500,1.077781494140625,-0.046790246617048975,-0.04092179297506809,0.0274450562864542
1733861752291732500,1.087732421875,-0.016975684720277787,-0.02003331872522831,0.04881166944205761
1733861752301683500,1.097683349609375,-0.007628010660409927,-0.02935994999706745,0.059987143450975416
1733861752311634400,1.107634521484375,-0.02249167166277766,-0.039698973181843754,0.03773848676383495
1733861752321586700,1.117586669921875,-0.03132218998074531,-0.027073884886503218,0.03471884668171406
1733861752331537400,1.127537353515625,-0.05454290657043457,-0.008669044145941733,0.03871872997283935
1733861752341488600,1.137488525390625,-0.03458323760330677,-0.012012509354948997,0.060308630490303036
1733861752351439400,1.147439453125,-0.027349779218435285,-0.026990882778167722,0.0635170711427927
1733861752361390600,1.157390625,-0.007395224817842245,-0.033985271710157396,0.04772855038046837
1733861752371341600,1.167341552734375,0.003905775266885757,-0.014704232656955718,0.04525836087465286
1733861752381292500,1.17729248046875,0.016470657807588576,-0.01589490374624729,0.030156653332710264
1733861752391243500,1.187243408203125,-0.025060060846060512,-0.030976737543940543,0.039057752668857575
1733861752401194500,1.197194580078125,-0.050392801153659815,-0.039137832167744635,0.04666355149745941
1733861752411145500,1.2071455078125,-0.05968450724259019,-0.03596621639430523,0.019746902999281883
1733861752421096400,1.217096435546875,-0.07773834258839488,-0.03304945216476917,0.04210778788924217
1733861752431047400,1.22704736328125,-0.03122340578138828,-0.03170388277471065,0.046971010011434555
1733861752440998700,1.23699853515625,-0.017153379374742508,-0.02212298448085785,0.0372352134168148
1733861752450949600,1.24694970703125,-0.0016349077254533767,-0.024803601866960526,0.04778291091620922
1733861752460900900,1.25690087890625,0.0003337619990110397,-0.030807226195931434,0.03401742041409016
1733861752470851600,1.2668515625,0.0033627544313669204,-0.03982464538812637,0.03277414235472679
1733861752480802800,1.276802734375,0.012862404182553291,-0.03650280748903751,0.056304071024060244
1733861752490753500,1.28675341796875,-0.003515168514102697,-0.027539748832583425,0.06658931819498538
1733861752500704800,1.296704833984375,-0.011929507246613501,-0.02147767231464386,0.041406361621618266
1733861752510655700,1.30665576171875,-0.011343231791257858,-0.027206571355462072,0.03600011866390705
1733861752520607700,1.316607666015625,-0.039871991661190986,-0.03789630767405033,0.031238018828630445
1733861752530558700,1.326558837890625,-0.04669409276619553,-0.03181552645564079,0.03438800729215145
1733861752540509700,1.336509765625,-0.041039135744422674,-0.03514437861740589,0.05243745872378349
1733861752550461000,1.3464609375,-0.04269859338924289,-0.03270224616229534,0.05856792430281639
1733861752560411600,1.35641162109375,-0.025465280646085737,-0.029026772519946096,0.056022915995121
1733861752570363000,1.36636279296875,-0.02671542683765292,-0.024193945536017416,0.04732873740792274
1733861752580313600,1.376313720703125,-0.04066460334360599,-0.02339256602525711,0.033137714970111844
1733861752590264800,1.386264892578125,-0.03419029276296496,-0.02706862418949604,0.03599836509823799
1733861752600215600,1.396215576171875,-0.03596796995997429,-0.026884499794244766,0.044969022539258004
1733861752610166800,1.406166748046875,-0.02239303359389305,-0.021640753921866415,0.051394671672582624
1733861752620117800,1.41611767578125,-0.017851298511028287,-0.02388005728125572,0.0376361954331398
1733861752630068700,1.42606884765625,-0.025919454154372214,-0.019961422532796858,0.04387421303987503
1733861752640019700,1.436019775390625,0.0012875555925071238,-0.018055881172418593,0.03811725694835186
1733861752649970700,1.445970703125,-0.025590368330478667,-0.020805472141504286,0.04029518550932407
1733861752659921700,1.455921630859375,-0.033718583597987885,-0.03371522259712219,0.048638650962710375
1733861752669872600,1.46587255859375,-0.03064809011146426,-0.028322423642873764,0.024508418312668798
1733861752679823600,1.47582373046875,-0.03265197727978229,-0.03582710018455982,0.03447977722883224
1733861752689774800,1.48577490234375,-0.026364421442896125,-0.039970775860548015,0.050904842329025264
1733861752699725600,1.4957255859375,-0.024231939458847045,-0.020304536882042885,0.03092880674898624
1733861752709676800,1.5056767578125,-0.029292145457863804,-0.018661445850133896,0.020960370442271233
1733861752719628800,1.51562890625,-0.05820069842562079,-0.03055062108635902,0.0491997919768095
1733861752729579800,1.525579833984375,-0.05403028087317943,-0.02495850016772747,0.04525251565575599
1733861752739530800,1.53553076171875,-0.06870353386998176,-0.027606384328007695,0.04300795159935951
1733861752749481700,1.545481689453125,-0.06601458704695105,-0.017017185774445533,0.050449499776959415
1733861752759432700,1.5554326171875,-0.05636237708255648,-0.03196107240617275,0.03633914135992527
1733861752769383700,1.5653837890625,-0.057698594122380015,-0.03625672377347946,0.033444588962197305
1733861752779334700,1.575334716796875,-0.03807853237316012,-0.038947862553596495,0.04096972377002239
1733861752789285600,1.58528564453125,-0.030103461840748785,-0.03586217149794101,0.02596621590554714
1733861752799236900,1.59523681640625,-0.010419687205553054,-0.013877718704938887,0.0354968453168869
1733861752809187600,1.6051875,-0.036837154009938235,-0.028479075509309767,0.03729541917145252
1733861752819138800,1.615138916015625,-0.05095043503642082,-0.03669219258129597,0.048317748445272445
1733861752829089500,1.625089599609375,-0.029079964011907575,-0.030296938586235046,0.03651332888305187
1733861752839040800,1.635040771484375,-0.009476707267016172,-0.029309681114554405,0.02456862406730652
1733861752848991700,1.64499169921875,0.009412117598205804,-0.03846446295082569,0.04305938952565193
1733861752858942700,1.654942626953125,0.01908010965362191,-0.031603929531574246,0.05578618462979793
1733861752868894000,1.66489404296875,0.00609963204935193,-0.032927871611714364,0.04330255063176155
1733861752878844700,1.6748447265625,-0.025224896018952128,-0.03328910613954067,0.04533201063275337
1733861752888796000,1.6847958984375,-0.04328443045318126,-0.041915480187535284,0.04134147969186306
1733861752898746600,1.69474658203125,-0.01657820983529091,-0.03906184432208538,0.03199906632900238
1733861752908697900,1.70469775390625,0.003661445116996765,-0.01825344957113266,0.031205870124697683
1733861752918649600,1.714649658203125,-0.0022853344582021234,-0.011354337707161903,0.045589200264215465
1733861752928600800,1.724600830078125,0.013501871129870413,-0.02512450438439846,0.0626408728301525
1733861752938551600,1.734551513671875,0.014110942938923834,-0.035766309908032416,0.053421209064126014
1733861752948502800,1.744502685546875,-0.014160627299547195,-0.037490649482607837,0.0440191744685173
1733861752958453800,1.754453857421875,-0.035414427730441095,-0.02262567330598831,0.04387830469310283
1733861752968404700,1.76440478515625,-0.024380992540717124,-0.02323357607126236,0.03890226984620094
1733861752978355700,1.774355712890625,-0.015667378600686788,-0.032875849163532256,0.045724224820733066
1733861752988306700,1.784306640625,-0.011344254704564809,-0.03301730346083641,0.021658289578557012
1733861752998257700,1.794257568359375,-0.026072598889470097,-0.0256412217348814,0.0395358915746212
1733861753008208600,1.804208740234375,-0.05462298606932163,-0.02977028436362743,0.03640694589912891
1733861753018159600,1.81415966796875,-0.07493585238829255,-0.030440730971097944,0.04295943628251552
1733861753028110800,1.82411083984375,-0.05032572726681828,-0.02159866834580898,0.05936579668223858
1733861753038061800,1.834061767578125,-0.04685629759058356,-0.03212240044772625,0.03558803073167801
1733861753048012800,1.8440126953125,-0.032631519013643265,-0.01638765569925308,0.04731120175123214
1733861753057963800,1.8539638671875,-0.01585164912641048,-0.03779518538713455,0.035520226192474365
1733861753067914800,1.863914794921875,-0.026061492973566053,-0.01917348702549934,0.02667348739206791
1733861753077865700,1.87386572265625,-0.044777883881330485,-0.02720072613656521,0.033681904849410055
1733861753087816700,1.883816650390625,-0.07470145911052822,-0.03174830643832684,0.05230535677671432
1733861753097768000,1.893767822265625,-0.08840615933611988,-0.03602174597382545,0.04910919108390808
1733861753107718700,1.90371875,-0.06923588718101382,-0.026001287218928335,0.030776246535778044
1733861753117670000,1.913669921875,-0.030225042393803594,-0.020761632999777794,0.060891983336210244
1733861753127621600,1.92362158203125,0.022804683134704826,-0.012765373548865318,0.052371407750248906
1733861753137572900,1.93357275390625,0.06070844346284866,-0.023058219504356384,0.03995908542275429
1733861753147523600,1.943523681640625,0.04594809670448303,-0.02894260136783123,0.0415530766159296
1733861753157474800,1.953474853515625,0.0022317045748233796,-0.026684593307971953,0.050714872714877124
1733861753167425500,1.963425537109375,-0.039836335825920104,-0.026678748089075086,0.038894086539745326
1733861753177376800,1.973376708984375,-0.04096621663868427,-0.026357845571637152,0.051612113815546035
1733861753187327700,1.98332763671875,-0.006165390761941671,-0.025443068814277648,0.05283668717443943
1733861753197278700,1.99327880859375,0.022580665120482443,-0.027165070301294326,0.05162906495034694
1733861753207230000,2.00322998046875,0.013722089751809835,-0.01989654060304165,0.04976093299090862
1733861753217180700,2.0131806640625,-0.017815204284340143,-0.02608428932726383,0.04384206433594227
1733861753227132000,2.0231318359375,-0.06211611830368638,-0.0319938056319952,0.03604804945886135
1733861753237082600,2.03308251953125,-0.08061199832856655,-0.04154606235325336,0.032605215528607366
1733861753247033900,2.043033935546875,-0.0687584789276123,-0.044156537112593645,0.032599954831600185
1733861753256984800,2.05298486328125,-0.07218143911361694,-0.04778232639431953,0.034622985091805454
1733861753266935800,2.062935791015625,-0.03937734001204371,-0.022051088288426397,0.04087736931145191
1733861753276886800,2.07288671875,0.007584902171045542,-0.021832477101683616,0.04573357717096805
1733861753286837800,2.082837646484375,-0.0005734159737825394,-0.012723287972807883,0.059386839470267294
1733861753296788700,2.092788818359375,-0.035438977649807926,-0.012511106526851654,0.05051379718482494
1733861753306739700,2.10273974609375,-0.039711248141527176,-0.019935119047760963,0.03264496301710605
1733861753316690700,2.112690673828125,-0.06128536656796932,-0.03084872725009918,0.03501812188923359
1733861753326642700,2.122642578125,-0.07931377521157264,-0.027802783682942388,0.04036708170175552
1733861753336593700,2.13259375,-0.07487827698215842,-0.026200024661421774,0.01885550711750984
1733861753346544600,2.142544677734375,-0.060831631451100106,-0.037274376383423805,0.03310615078806877
1733861753356496000,2.152495849609375,-0.02845964015647769,-0.03827800046801567,0.059165305674076074
1733861753366446800,2.16244677734375,-0.022468875309079882,-0.017370821517705918,0.04668167167603969
1733861753376397800,2.172397705078125,-0.025719986059516666,-0.032006665113568304,0.039548751056194306
1733861753386348800,2.182348876953125,-0.010976444305479525,-0.029178748211264607,0.049480947005748746
1733861753396299800,2.1922998046875,-0.009134177439659833,-0.042909167400002474,0.04106441631615162
1733861753406250800,2.202250732421875,-0.0285778597086668,-0.04374620274603366,0.037195465928316115
1733861753416201700,2.21220166015625,-0.02619783270433545,-0.03874327989220619,0.03407470355927944
1733861753426152700,2.222152587890625,-0.01881912062987685,-0.03985620957016945,0.05194646033644676
1733861753436104000,2.23210400390625,-0.008014818020910024,-0.02302081010341644,0.03926525793969631
1733861753446054700,2.2420546875,-0.0012274959683418274,-0.022657822009921072,0.040673955693840975
1733861753456005000,2.252005126953125,-0.0007378127552568912,-0.0225344878911972,0.040354806742072105
1733861753465956000,2.2619560546875,-0.0009364040672779082,-0.029283962151408195,0.029906477963924406
1733861753475907000,2.271906982421875,0.029134909069538115,-0.03202770790159702,0.047181437891721724
1733861753485858300,2.2818583984375,0.011936667639762163,-0.022592355558276177,0.03395663013756275
1733861753495809000,2.29180908203125,0.01575637205839157,-0.03846797008216381,0.02664952199459076
1733861753505760300,2.30176025390625,0.0016140110678970812,-0.024648119044303893,0.03882335939109325
1733861753515711000,2.3117109375,-0.0026284488074481485,-0.012188450443744659,0.050449499776959415
1733861753525662200,2.321662109375,0.021368951243162154,-0.011651274827122688,0.08048691064417361
1733861753535614000,2.331614013671875,0.014285130462050438,-0.01774842265844345,0.04930325235128402
1733861753545565200,2.341565185546875,0.00937003202214837,-0.03528817100226879,0.05308335541188717
1733861753555516000,2.351515869140625,-0.023114333605766296,-0.016320435681939124,0.04111234711110592
1733861753565467100,2.361467041015625,-0.0643109979994595,-0.018744447958469388,0.019414310044050215
1733861753575418000,2.371418212890625,-0.1125555350780487,0.0017424597531557082,0.02275017646849155
1733861753585369000,2.381369140625,-0.11643252264186739,-0.010938158121705054,0.036140988439321516
1733861753595320300,2.3913203125,-0.10655717144608497,-0.04382394415736198,0.03349661141037941
1733861753605271000,2.40127099609375,-0.11697115956321358,-0.052098436027765274,-0.005223872128129005
1733861753615222300,2.41122216796875,-0.09963993940353393,-0.0856289497077465,0.005201075774431229
1733861753625173000,2.421173095703125,-0.09584449264332652,-0.05718962168693542,0.03720364923477173
1733861753635124200,2.431124267578125,-0.07751695492267609,-0.04801204349696636,0.044188101294636725
1733861753645075200,2.4410751953125,-0.06266410757526755,-0.05920271507501602,0.03206862443387508
1733861753655026200,2.451026123046875,-0.08702873350307345,-0.020741174733638762,0.017398294046521184
1733861753664977200,2.46097705078125,-0.1329978729955852,-0.011750643548369407,0.033957799181342126
1733861753674928000,2.47092822265625,-0.15527692482098937,-0.011418635115027427,0.032574235868453975
1733861753684879000,2.480879150390625,-0.11899535886719823,-0.003985270243883132,0.03430909683704376
1733861753694830000,2.490830078125,-0.08888064498007298,-0.024166473007202146,0.04900280809998512
1733861753704781000,2.500781005859375,-0.07285773093998432,-0.04316577250957489,0.023711130455136297
1733861753714732300,2.510732177734375,-0.04109656502008438,0.0007768295913934707,0.04171791178882122
1733861753724683000,2.52068310546875,-0.032833032935112715,-0.006084872871637344,0.07342705526053905
1733861753734634200,2.53063427734375,0.013918050715327262,-0.008116086438298226,0.05435761313140392
1733861753744586200,2.540586181640625,0.04858472881838679,-0.0022439795345067974,0.0785877990245819
1733861753754537200,2.550537109375,0.09471417343914508,-0.015254267755150794,0.05609773479700088
1733861753764488200,2.56048828125,0.07637421462833881,-0.02338730532824993,0.062492988792061804
1733861753774439200,2.570439208984375,0.09602759412527084,-0.011886252626776695,0.0453524688988924
1733861753784390100,2.58039013671875,0.119835024561733,-0.018419453787803648,0.05078618438541889
1733861753794341000,2.590341064453125,0.1078805290043354,-0.026901450929045674,0.038892332974076266
1733861753804292000,2.6002919921875,0.07061740466728807,-0.03153554047048092,0.015678630647063256
1733861753814243000,2.6102431640625,0.025696166792511937,-0.02670738966166973,0.030322073027491566
1733861753824194300,2.6201943359375,-0.016736030745506284,-0.0374924030482769,0.040136780077219006
1733861753834145000,2.63014501953125,-0.04703647646307945,-0.032004911547899244,0.03299275354146957
1733861753844096300,2.64009619140625,-0.07730930352136492,-0.01926817957162857,0.04557283365130424
1733861753854047000,2.650046875,-0.0962818611472845,-0.020009937849640846,0.05069733705818653
1733861753863998200,2.659998291015625,-0.09955226112008095,-0.04915712187886238,0.01657645626962185
1733861753873949000,2.669948974609375,-0.09066811291873454,-0.058094461572170256,0.031767595660686494
1733861753883900200,2.679900146484375,-0.08885726410448551,-0.040705519875884055,0.0244213245511055
1733861753893851100,2.68985107421875,-0.08598857680037617,-0.025433131942152975,0.06107727677524089
1733861753903802000,2.699802001953125,-0.07286445294171572,-0.018258710268139838,0.051768765681982035
1733861753913753000,2.709753173828125,-0.05845087379440665,-0.023044190979003905,0.061438511303067204
1733861753923704000,2.7197041015625,-0.04501330007240176,-0.016317513072490693,0.04849427405595779
1733861753933655000,2.729655029296875,-0.026775632592290637,-0.034631752920150756,0.035818332356214524
1733861753943607000,2.73960693359375,-0.015256021320819853,-0.038788288077712056,0.019191607204079628
1733861753953558300,2.749558349609375,-0.0026934768676757813,-0.029642858591675758,0.022807459613680837
1733861753963509000,2.759509033203125,-0.008860182803869247,-0.015671616384387015,0.04325520435869693
1733861753973460200,2.769460205078125,-0.0052712184011936185,-0.024462825605273245,0.03883388078510761
1733861753983411200,2.7794111328125,-0.023898177459836006,-0.008693009543418884,0.03720832540988922
1733861753993362200,2.789362060546875,-0.0032476036190986633,0.003121346890926361,0.058273909792304034
1733861754003313200,2.799313232421875,-0.0037945699773728847,-0.02405775193572044,0.04609598074257373
1733861754013264100,2.80926416015625,0.0188180977165699,-0.017251579052209854,0.046319852626323696
1733861754023215000,2.819215087890625,0.013995061474293469,-0.04320844260752201,0.02494622520804405
1733861754033166000,2.829166015625,-0.02184343688711524,-0.02154255424439907,0.032494156369566915
1733861754043117000,2.839116943359375,-0.02454290510416031,-0.028951953718066213,0.04598550610542297
1733861754053068300,2.849068359375,-0.04949292970448732,-0.037058103284239766,0.041434418672323226
1733861754063019000,2.85901904296875,-0.02183466905876994,-0.01896656627655029,0.031818449065089224
1733861754072970200,2.86897021484375,-0.02170607424303889,-0.025907179194688795,0.035466450178623196
1733861754082921000,2.8789208984375,-0.02341930790171027,-0.020723639076948165,0.048262803387641905
1733861754092872200,2.8888720703125,-0.014073387407511472,-0.01655365991592407,0.046239773127436636
1733861754102823000,2.898822998046875,-0.023956629648804663,-0.035168344014883036,0.038619361251592633
1733861754112774100,2.908774169921875,-0.04616670789122581,-0.03246609931886196,0.04517535876631736
1733861754122725000,2.91872509765625,-0.06282485109493136,-0.031814357411861414,0.033307226318120955
1733861754132676000,2.928676025390625,-0.06613207594677806,-0.021253800430893897,0.030370003822445868
1733861754142627000,2.938626953125,-0.08136997708901762,-0.02352057631909847,0.053827451777458186
1733861754152579000,2.9485791015625,-0.08429200201556086,-0.02616670691370964,0.03646189095675945
1733861754162530300,2.9585302734375,-0.05674947670400143,-0.013154080605506897,0.03426291960775852
1733861754172481000,2.96848095703125,-0.021871640068292616,-0.026771687069535255,0.03775426885485649
1733861754182432300,2.978432373046875,-0.006500467935204505,-0.035870354804396626,0.02998421937525272
1733861754192383000,2.988383056640625,0.007067892559617758,-0.019378654208779333,0.04084638965129852
1733861754202334200,2.998334228515625,0.014772475587576626,-0.031279519882798194,0.03953413800895214
1733861754212285000,3.008284912109375,0.010929682554304598,-0.03312602453231811,0.04968494514524936
1733861754222236200,3.018236083984375,-0.0020503566585481164,-0.03669102353751659,0.054447629502415655
1733861754232187100,3.028187255859375,-0.006647036799043417,-0.018389058649539946,0.0557090277403593
1733861754242138000,3.03813818359375,0.005362549946457147,-0.016701543954014776,0.05831541084647178
1733861754252089000,3.048089111328125,0.02240545468404889,-0.028475568377971647,0.039894203492999075
1733861754262040000,3.0580400390625,0.003852583774924278,-0.023275077125430105,0.04196925620138645
1733861754271991000,3.067990966796875,-0.005658756414055824,-0.019352350723743438,0.0315583368241787
1733861754281942000,3.07794189453125,-0.042645548027753825,-0.02700023512840271,0.03130056267082691
1733861754291893000,3.08789306640625,-0.05129705651700496,-0.031550738039612766,0.036784547039866444
1733861754301844200,3.09784423828125,-0.042797962110489605,-0.016609774017333982,0.051610360249876974
1733861754311795200,3.107795166015625,-0.04210077362656593,-0.03196516405940056,0.04536474385857582
1733861754321746200,3.11774609375,-0.04327683166861534,-0.021103578305244446,0.040296939074993134
1733861754331697200,3.127697265625,-0.05744520388320088,-0.02698912921249866,0.037462592431902884
1733861754341648100,3.137648193359375,-0.05558320940360426,-0.033869536375999446,0.031572949871420855
1733861754351599000,3.14759912109375,-0.0603090688817203,-0.030946926927566527,0.019622984358668327
1733861754361550000,3.157550048828125,-0.03991510015055537,-0.031893267866969104,0.030553543695807456
1733861754371502000,3.167502197265625,-0.04310381318926811,-0.022929624688625333,0.034758009648323054
1733861754381453000,3.177453125,-0.05345043515861034,-0.016029343780875206,0.039112113204598425
1733861754391404000,3.187404052734375,-0.06070303663536906,-0.01611059232354164,0.03406593573093414
1733861754401355000,3.19735498046875,-0.09159034233018755,-0.01787351034283638,0.04066752595305442
1733861754411306200,3.20730615234375,-0.10579948494657873,-0.0024058920979499816,0.040732992404699325
1733861754421257000,3.217257080078125,-0.14193112103566527,-0.02496492990851402,0.04281505937576294
1733861754431208200,3.227208251953125,-0.1278733695887029,-0.03999123412668705,0.03176993374824524
1733861754441159000,3.237158935546875,-0.09990531234145164,-0.032770050701498986,0.04328559949696064
1733861754451110700,3.247110595703125,-0.0621453443981707,-0.030954525712132454,0.029461656805872916
1733861754461061600,3.2570615234375,-0.04434285346493125,-0.043736265873909,0.023178046491742134
1733861754471012600,3.2670126953125,-0.05419847704693675,-0.04268821812570095,0.05866612398028374
1733861754480963600,3.276963623046875,-0.023511662360280752,-0.031088965746760365,0.05163315660357475
1733861754490914600,3.28691455078125,-0.007063362514972686,-0.03346387818455696,0.03882452843487263
1733861754500865800,3.29686572265625,0.014111673591285944,-0.029127894806861877,0.032821488627791405
1733861754510816500,3.30681640625,-0.006063683953136206,-0.029802433067560193,0.03339724268913269
1733861754520767700,3.316767822265625,0.00918532310500741,-0.03833236100375652,0.036660043877363206
1733861754530718500,3.326718505859375,0.04124868684187531,-0.01918576198518276,0.04481763136982918
1733861754540669700,3.336669677734375,0.032909605302661654,-0.02512099725306034,0.04435995073020458
1733861754550620700,3.34662060546875,0.01113937978222966,-0.0006155015498399734,0.03908756328523159
1733861754560571600,3.356571533203125,-0.014514847564697266,-0.02991583031415939,0.048750294643640515
1733861754570522600,3.366522705078125,-0.04172536444291472,-0.022922610425949095,0.04132394403517246
1733861754580474600,3.376474609375,-0.044175095682591196,-0.04417874894440174,0.03654781567454338
1733861754590425900,3.38642578125,-0.0692844024978578,-0.035865678629279134,0.041374212917685504
1733861754600376600,3.39637646484375,-0.04513312705978751,-0.035597383081912994,0.04458206904828548
1733861754610327800,3.406327880859375,-0.021924977690726516,-0.031900282129645345,0.047449733439087864
1733861754620278500,3.416278564453125,-0.052676382046192884,-0.05963350770771503,0.03293839300572872
1733861754630229800,3.426229736328125,-0.08138356722295284,-0.054175826823711394,0.02834989617168903
1733861754640180500,3.436180419921875,-0.1134925236672163,-0.024889526584744453,0.03671031275987625
1733861754650131700,3.446131591796875,-0.13548515976667402,-0.021567688685655593,0.03662789517343044
1733861754660082700,3.456082763671875,-0.1491864989914,-0.027304771032929418,0.03944470615983009
1733861754670033700,3.46603369140625,-0.10735504382550716,-0.03726502403318882,0.049126142218708986
1733861754679984600,3.475984619140625,-0.08760039591118693,-0.04964461313486099,0.06194587630331516
1733861754689935600,3.485935546875,-0.046035336596518754,-0.06265607039928436,0.04820668928623199
1733861754699886600,3.495886474609375,-0.035373657328635455,-0.030436639317870138,0.0348562093257904
1733861754709837600,3.505837646484375,-0.0478306955806911,-0.026619126856327054,0.02934825955927372
1733861754719788500,3.51578857421875,-0.04396817493364215,-0.03616086218357086,0.02277121925652027
1733861754729739800,3.52573974609375,-0.03816153448149562,-0.030951018580794333,0.014335399344563484
1733861754739690500,3.5356904296875,-0.014165741866081952,-0.0341810865432024,0.021115268743038176
1733861754749641700,3.545641845703125,0.007837269496917725,-0.015105214673280715,0.022732640811800955
1733861754759592700,3.5555927734375,0.0426413102440536,-0.021715572723746298,0.03491933768987655
1733861754769543700,3.565543701171875,0.07387289933189749,-0.02329495086967945,0.03843523685634136
1733861754779494700,3.57549462890625,0.09356558792591095,0.0027542671442031858,0.06120879420042038
1733861754789446700,3.58544677734375,0.07780629325807094,-0.0005634791016578674,0.051505146309733386
1733861754799397600,3.595397705078125,0.039458734685182566,-0.005050853648781776,0.03390928386449814
1733861754809348600,3.6053486328125,0.0037052842587232586,-0.0064244800895452495,0.03515490001142025
1733861754819299600,3.615299560546875,0.00853299667611718,-0.0056780456364154816,0.04305588239431381
1733861754829250600,3.62525048828125,0.03783142574429512,-0.023832711008191107,0.04160860619544983
1733861754839201800,3.635201904296875,0.06554419305622577,-0.019147183540463446,0.04245207128226757
1733861754849152500,3.645152587890625,0.05871873095035553,-0.023997546181082723,0.056469490718841546
1733861754859103700,3.655103759765625,0.02723302097097039,-0.028765491235256194,0.049747488987445826
1733861754869054500,3.665054443359375,-0.01188406066969037,-0.031708558949828144,0.04965864166021347
1733861754879005700,3.675005615234375,-0.0489918483145535,-0.040673955693840975,0.03606558511555195
1733861754888956700,3.684956787109375,-0.06559343902543187,-0.03880465469062328,0.03219546568393707
1733861754898907600,3.69490771484375,-0.07894538029059767,-0.041160277906060215,0.03433306223452091
1733861754908859000,3.70485888671875,-0.09901903102621436,-0.03926350437402725,0.035119828698039056
1733861754918809600,3.7148095703125,-0.10981076641455292,-0.05375614010691642,0.02391103694140911
1733861754928760800,3.7247607421875,-0.1017372039437294,-0.0292313551813364,0.014047814574837683
1733861754938711600,3.734711669921875,-0.11622691706717013,-0.03741349259316921,0.03710544955730438
1733861754948662800,3.744662841796875,-0.09360533541440963,-0.02853518961071968,0.03180734314918518
1733861754958613800,3.75461376953125,-0.058056321518868206,-0.028654432076215743,0.047853638064861294
1733861754968564700,3.764564697265625,-0.04732990645170212,-0.03376841408908367,0.04316577250957489
1733861754978515700,3.774515625,-0.0190969146579504,-0.029169395861029623,0.04418167155385017
1733861754988466700,3.784466796875,-0.009175970754772424,-0.02309796699285507,0.047940731826424596
1733861754998418700,3.794418701171875,0.004960252755880356,-0.028520576563477514,0.034738135904073715
1733861755008369700,3.80436962890625,-0.016733254266530273,-0.018847908332943916,0.02725157954096794
1733861755018320600,3.814320556640625,-0.05449512190595269,-0.012689970225095748,0.017485972329974172
1733861755028271600,3.824271728515625,-0.08580956697165966,-0.017131752064824105,0.03247778975665569
1733861755038222600,3.83422265625,-0.09281272373199462,-0.019332476979494095,0.024435353076457975
1733861755048173600,3.844173583984375,-0.08267594512104988,-0.03861351603269577,0.05911094513833522
1733861755058124500,3.85412451171875,-0.04216857816576958,-0.02734568756520748,0.05295066894292831
1733861755068075800,3.86407568359375,-0.007632832965999841,-0.014062427622079848,0.06469838988184928
1733861755078026800,3.87402685546875,0.010171411532908677,-0.011876900276541709,0.07331774966716766
1733861755087977700,3.883977783203125,0.009133300656825303,-0.01345277129113674,0.04416998111605644
1733861755097928700,3.8939287109375,-0.007675941455364227,-0.026636662513017655,0.03772854989171028
1733861755107879700,3.903879638671875,-0.01874620152413845,-0.0303729264318943,0.042133506852388376
1733861755117830700,3.91383056640625,-0.02902428830191493,-0.04396422941088676,0.025212182667851447
1733861755127781600,3.92378173828125,-0.010189239450544119,-0.03697159404456615,0.041780455631017684
1733861755137732900,3.93373291015625,-0.008379413549602031,-0.013113164073228835,0.056956981974840164
1733861755147683600,3.94368359375,0.007861234894394874,-0.02524082424044609,0.04775660743117332
1733861755157634800,3.953634765625,0.006231441735476255,-0.013307809862494469,0.042894554352760315
1733861755167585500,3.96358544921875,-0.032332828328013416,-0.031388825476169585,0.019128478839993475
1733861755177536800,3.973536865234375,-0.0305875920958817,-0.025564649367332458,0.0523889434069395
1733861755187487500,3.983487548828125,-0.027089666977524757,-0.023802315869927405,0.04435527455508709
1733861755197438700,3.993438720703125,-0.04133899547383189,-0.015898995399475098,0.029780221235752104
1733861755207389700,4.0033896484375,-0.03126023066043854,-0.022868249890208244,0.05720540377795696
1733861755217341700,4.013341796875,-0.05192775563597679,-0.0025280571728944776,0.0339455242216587
1733861755227292700,4.023292724609375,-0.07900412474051118,-0.02776829689145088,0.01818798311948776
1733861755237243600,4.03324365234375,-0.10800196342691779,-0.039946225941181183,0.0025800796210765837
1733861755247195000,4.04319482421875,-0.11061652983948587,-0.0987736779630184,0.013159341302514076
1733861755257145600,4.0531455078125,-0.081163202470541,-0.13800386458933353,-0.04263093498051166
1733861755267096800,4.063096923828125,-0.05353299887552857,-0.07638473602235317,-0.010821838265657423
1733861755277047600,4.073047607421875,-0.05174933032914996,-0.0031359599381685253,0.08682605053782462
1733861755286998800,4.082998779296875,0.008569090902805328,0.11243395452499388,0.08843173216879367
1733861755296949500,4.092949462890625,0.03448854505717754,0.01625087757706642,0.09807342073917388
1733861755306900700,4.102900634765625,0.05494271954298019,-0.1309638829499483,0.03855038766860962
1733861755316851700,4.112851806640625,0.01898410193324089,-0.13445523219704628,-0.02067103210687637
1733861755326802700,4.122802734375,-0.06261866099834441,-0.018843232157826423,-0.010946341428160667
1733861755336753700,4.132753662109375,-0.062031801021099085,0.03659516194760799,0.07762742955982685
1733861755346704600,4.14270458984375,-0.008852730149775744,0.02293430086374283,0.10581249055862427
1733861755356655600,4.152655517578125,0.04717267006337642,-0.05695347484350204,0.0666150371581316
1733861755366606600,4.162606689453125,0.08458148648142814,-0.13632979389727115,0.022053426375985143
1733861755376557600,4.1725576171875,0.09501651738658547,-0.0957066916078329,-0.03480067974627018
1733861755386508800,4.1825087890625,0.09376257180273533,-0.06587269435822964,0.022623335218429564
1733861755396459500,4.19245947265625,0.07061375140547752,-0.016970424023270606,0.06421615932285785
1733861755406410800,4.20241064453125,0.03836684779524803,-0.008690086933970451,0.07302081254720687
1733861755416361500,4.212361572265625,-0.004564093045145273,-0.04649754728078842,0.04322656278610229
1733861755426312700,4.222312744140625,-0.028158319122344254,-0.09284779504537582,-0.0007277297526597976
1733861755436263700,4.232263671875,-0.06247194600403309,-0.1140326218932867,-0.015433131453394889
1733861755446215700,4.242215576171875,-0.05537351217567921,-0.14436755440235138,-0.02419336101412773
1733861755456166100,4.252166259765625,-0.0052625967033207415,-0.13879881435930727,0.0014168810606002807
1733861755466117000,4.2621171875,0.033653263276815414,-0.007139350360631943,0.02424947511553764
1733861755476068000,4.272068115234375,0.021938860085606575,0.1399567522227764,0.09018938949108123
1733861755486019000,4.28201904296875,0.021403584165126083,0.07695230677723884,0.12420680990517138
1733861755495970000,4.291969970703125,0.023763152903318405,-0.056711482781171794,0.04851940849721431
1733861755505921000,4.301921142578125,0.001573679057508707,-0.2537140643060207,-0.03429331474602222
1733861755515872000,4.3118720703125,-0.20534896958768367,0.09906360082030295,-0.04863163670003414
1733861755525823200,4.3218232421875,-0.3984206414043903,0.34375381619334217,0.15946517029106616
1733861755535774200,4.331774169921875,-0.30830329423621294,0.0347211847692728,0.13260697398185728
1733861755545725200,4.34172509765625,-0.24309724709317088,-0.08058277223408222,-0.01941021839082241
1733861755555676200,4.35167626953125,-0.2359697333008051,-0.02635433844029903,-0.025640052691102026
1733861755565627100,4.361627197265625,-0.19379297182857988,-0.0496615642696619,-0.00578267505466938
1733861755575578000,4.371578125,-0.13875322165191173,-0.05700023659467697,0.029846856731176374
1733861755585529000,4.381529052734375,-0.08188391796052455,-0.05778232688307762,0.04828559974133968
1733861755595480300,4.391480224609375,-0.06748904351368547,-0.027134675163030624,0.04108838171362877
1733861755605431000,4.40143115234375,-0.06420856053829192,-0.021578794601559637,0.03750526252985
1733861755615382300,4.41138232421875,-0.03927884807363152,-0.038543373405933376,0.027490064471960066
1733861755625333000,4.4213330078125,-0.045740153042227026,-0.024170564660429952,0.020715455770492552
1733861755635284200,4.4312841796875,-0.06776888336837292,-0.026562428233027457,0.03672317224144935
1733861755645235000,4.44123486328125,-0.06795344615504145,-0.027830840733647343,0.04347615363299846
1733861755655187200,4.451187255859375,-0.060912879993766544,-0.025742928543686865,0.023744448202848434
1733861755665138000,4.461137939453125,-0.04176452740952372,-0.02651099030673504,0.02740530879795551
1733861755675089200,4.471089111328125,0.008922872776538133,-0.023055881416797635,0.036036943542957306
1733861755685040000,4.4810400390625,0.029530191997438667,-0.015789105284214018,0.06395896969139575
1733861755694991000,4.4909912109375,0.03046075084581971,-0.0022398878812789915,0.09101648796498775
1733861755704942300,4.5009423828125,-0.008833148666471242,0.008041852158308029,0.08546586810052394
1733861755714893000,4.51089306640625,-0.055336102774739264,-0.0005886135429143905,0.05568213973343372
1733861755724844300,4.52084423828125,-0.06231164087578654,-0.014490882167220115,0.050312721654772755
1733861755734795000,4.530794921875,-0.06714578303396701,-0.034064182165265085,0.002933715364336967
1733861755744746200,4.540746337890625,-0.051015901488065715,-0.04368775055706501,0.011771686336398125
1733861755754697000,4.550697021484375,-0.036394817069917915,-0.03831190273761749,0.006912555867433548
1733861755764648200,4.560648193359375,-0.045574733347445724,-0.03180734314918518,0.05016016144156456
1733861755774599200,4.57059912109375,-0.04073021592572331,-0.013998130214214324,0.059607204222679136
1733861755784550100,4.580550048828125,-0.0511994413614273,-0.019505495458841324,0.048832712230086325
1733861755794501000,4.590501220703125,-0.07225085108801722,-0.028255203625559805,0.0350783276438713
1733861755804452000,4.6004521484375,-0.07433072610199451,-0.041617374023795124,0.031603929531574246
1733861755814403000,4.610403076171875,-0.03041194326803088,-0.034164135408401484,0.0455570515602827
1733861755824354000,4.62035400390625,0.01144552312195301,-0.03392915760874748,0.032497663500905036
1733861755834305000,4.630304931640625,-0.0011789806514978407,-0.039651626908779145,0.02348842761516571
1733861755844256300,4.64025634765625,-0.01664762180969119,-0.021315759751200675,0.06639058075249195
1733861755854207000,4.65020703125,-0.03647869596108794,-0.01215747078359127,0.06730769559741019
1733861755864158200,4.660158203125,-0.06195639769732952,-0.015333178210258484,0.044290977147221564
1733861755874109000,4.67010888671875,-0.06992182361856103,-0.03173193982541561,0.04288812461197376
1733861755884061200,4.680061279296875,-0.020551789641380307,-0.046152679365873334,0.02264087087512016
1733861755894012200,4.69001220703125,0.011107669469714164,-0.057848377856612204,0.019599603483080864
1733861755903963100,4.699963134765625,0.02007438138797879,-0.044859716945886606,0.04565291315019131
1733861755913914000,4.7099140625,0.02396422843337059,-0.02980477115511894,0.05561433519423008
1733861755923865000,4.719864990234375,0.015678922908008097,-0.014900632011890411,0.0541582911670208
1733861755933816300,4.72981640625,0.014630582898855209,-0.020105799439549446,0.027771219500899315
1733861755943767000,4.73976708984375,-0.006875584857910871,-0.011191840621829032,0.042516368690133095
1733861755953718300,4.74971826171875,-0.011280687949061393,-0.005084755918383598,0.05840133556425571
1733861755963669000,4.7596689453125,-0.03116203098297119,-0.014492051210999488,0.06258709681630134
1733861755973620200,4.7696201171875,-0.06944222340807318,-0.042863574692606925,0.04857844520807266
1733861755983571000,4.779571044921875,-0.11859233102425933,-0.033579028996825216,0.05140928471982479
1733861755993522200,4.789522216796875,-0.1265676938176155,-0.033815760362148284,0.02784896091222763
1733861756003473200,4.79947314453125,-0.14287351645231247,-0.040540684702992436,0.01683598398864269
1733861756013424000,4.809424072265625,-0.13530863415598868,-0.029939795711636543,0.0158639240860939
1733861756023375000,4.819375,-0.13929624248743055,-0.04357961400747299,0.034064182165265085
1733861756033326000,4.829326171875,-0.10050269371271132,-0.036761166164278984,0.034308512315154076
1733861756043277000,4.839277099609375,-0.04098433681726456,-0.02513794838786125,0.03383095793128013
1733861756053228000,4.84922802734375,-0.03386427567899227,-0.030307459980249404,0.02385258475244045
1733861756063179000,4.859178955078125,-0.06539572449624538,-0.02319558214843273,0.036409868508577345
1733861756073130200,4.869130126953125,-0.059710080075263974,-0.02379997778236866,0.04430734376013279
1733861756083081000,4.8790810546875,-0.06279913213178515,-0.03466331710219383,0.04285246877670288
1733861756093032200,4.8890322265625,-0.05505845487713813,-0.04025251541137695,0.025125088906288146
1733861756102983200,4.898983154296875,-0.05206643345430493,-0.03140577661097049,0.03461713987290859
1733861756112935200,4.90893505859375,-0.022897622115164995,-0.028888825353980064,0.047923196169734
1733861756122886100,4.91888623046875,-0.02132686566710472,-0.026816110733151433,0.02120353154838085
1733861756132837000,4.928837158203125,-0.023988778352737425,-0.04719312832951546,0.036252632120251656
1733861756142788000,4.9387880859375,-0.03912029651105404,-0.021921908950805664,0.07309621587097645
1733861756152739000,4.948739013671875,-0.025992519390583037,-0.024689035576581954,0.05151917483508586
1733861756162690000,4.95868994140625,-0.009083908557146787,-0.03177402540147305,0.0578267505466938
1733861756172641000,4.96864111328125,-0.008327537231892347,-0.020958032354712487,0.0403635745704174
1733861756182592300,4.97859228515625,-0.013607085070014,-0.018351064726710317,0.015258359408378601
1733861756192543000,4.98854296875,-0.057105304404348134,-0.030181203252077102,0.02251461414694786
1733861756202494200,4.998494140625,-0.10357494076490402,-0.024063012632727622,0.040430794587731356
1733861756212445000,5.00844482421875,-0.10510653424635528,-0.020818916144967076,0.051832478567957876
1733861756222396200,5.018396240234375,-0.10537219944521785,-0.016935352709889412,0.04430617471635341
1733861756232347100,5.02834716796875,-0.0907704042494297,-0.022571897292137145,0.028785949501395222
1733861756242298000,5.038298095703125,-0.060315498622506854,-0.02672960149347782,0.050288171735405916
1733861756252249000,5.0482490234375,-0.015823445945233106,-0.03898176482319832,0.041457215026021
1733861756262200000,5.058199951171875,-0.020320757364481686,-0.03169511494636536,0.04253390434682369
1733861756272151300,5.0681513671875,-0.011793752037733793,-0.03466974684298038,0.03032148850560188
1733861756282102000,5.07810205078125,-0.03358195160627365,-0.04368541246950626,0.017540332865715026
1733861756292053200,5.08805322265625,-0.05998655892908573,-0.04965396548509597,0.048992871227860446
1733861756302004200,5.098004150390625,-0.04480813288912177,-0.0498532874494791,0.04523381095528602
1733861756311955200,5.107955078125,-0.040347207957506175,-0.037491234004497526,0.026516251003742216
1733861756321906200,5.11790625,-0.04856617024838924,-0.02073825212419033,0.03208265295922756
1733861756331857200,5.127857177734375,-0.03198737589120865,-0.026415128716826438,0.05458908379971981
1733861756341808000,5.13780810546875,-0.01121653667166829,-0.027822072905302045,0.04403612560331821
1733861756351760100,5.147760009765625,0.027541648528724906,-0.04362988288998604,0.02103285115659237
1733861756361711000,5.157711181640625,0.0371710621394217,-0.04425122965872288,0.03623509646356106
1733861756371662000,5.167662109375,0.0370914210319519,-0.02973813565969467,0.05458557666838169
1733861756381613000,5.177613037109375,0.007392448338866233,-0.03216623958945274,0.040078912410140034
1733861756391564000,5.18756396484375,-0.019873305857926606,-0.03311082696318626,0.055151393857598305
1733861756401515000,5.197514892578125,-0.042189036431908605,-0.016454291194677353,0.03918400939702987
1733861756411466200,5.20746630859375,-0.06217194014415144,-0.02799976755976677,0.02667348739206791
1733861756421417200,5.217417236328125,-0.11040040287077427,-0.02859656440913677,0.03475333347320556
1733861756431368200,5.2273681640625,-0.12479191631674766,-0.043595980620384216,0.019207389295101164
1733861756441319200,5.237319091796875,-0.128812257874012,-0.03145020027458668,0.014468670335412024
1733861756451270400,5.2472705078125,-0.12086042208671569,-0.036928339424729346,0.03565057457387447
1733861756461221400,5.257221435546875,-0.10467018865570425,-0.04007131362557411,0.04202010960578918
1733861756471172400,5.26717236328125,-0.06805515296384691,-0.041433249628543854,0.03038344782590866
1733861756481123300,5.277123291015625,-0.03278393309637904,-0.04186813391447067,0.03926701150536537
1733861756491074300,5.28707421875,-0.03052826312407851,-0.030187632992863655,0.05611643949747085
1733861756501025500,5.297025634765625,-0.03381736779734492,-0.019342998373508453,0.03966565543413162
1733861756510976300,5.306976318359375,-0.056651715417951345,-0.011553075149655341,0.03814765208661556
1733861756520927500,5.316927490234375,-0.05194295320510864,-0.037164486268162725,0.03002688947319984
1733861756530878200,5.326878173828125,-0.07784078004956245,-0.019637012884020803,0.024858546924591062
1733861756540829400,5.336829345703125,-0.07965119047239422,-0.025009938094019888,0.04552139572501182
1733861756550780400,5.346780517578125,-0.06700082160532474,-0.016731354570388792,0.04818506197631359
1733861756560731400,5.3567314453125,-0.06870426452234386,-0.008487842360138893,0.036111762344837185
1733861756570683400,5.366683349609375,-0.07920315444394946,-0.031174305942654607,0.03180266697406769
1733861756580634400,5.37663427734375,-0.0781739575266838,-0.03869242648780346,0.04531447497606277
1733861756590585300,5.38658544921875,-0.06426569755300879,-0.029316110855340957,0.04819558337032795
1733861756600536300,5.396536376953125,-0.04987944480404258,-0.03212590757906437,0.03093991266489029
1733861756610487600,5.406487548828125,-0.04477013896629214,-0.03810030581355095,0.023627543824911116
1733861756620438300,5.416438232421875,-0.03472863742336631,-0.030838790377974507,0.036242110726237294
1733861756630389500,5.426389404296875,-0.016779285365343094,-0.023408348116278645,0.03729249656200409
1733861756640340200,5.43634033203125,-0.03758651107251644,-0.028999884513020515,0.04492459887564182
1733861756650291500,5.44629150390625,-0.05181318934559822,-0.009117372435331344,0.047344519498944276
1733861756660242400,5.456242431640625,-0.04828150808811187,-0.02950023525059223,0.03328969066143036
1733861756670193400,5.466193359375,-0.026729016971588134,-0.037522213664650916,0.038536943665146824
1733861756680144400,5.476144287109375,0.006163344935327768,-0.027678865042328832,0.03434767528176307
1733861756690095400,5.486095458984375,0.04564604501798749,-0.03795826699435711,0.048397827944159505
1733861756700046300,5.49604638671875,0.05293196424245834,-0.03366612275838852,0.03660392977595329
1733861756709997300,5.505997314453125,0.01837225364521146,-0.021721417942643165,0.038404841718077655
1733861756719948300,5.5159482421875,0.00263034850358963,-0.0170534261316061,0.043784196668863296
1733861756729899500,5.5258994140625,0.0081476506203413,-0.02540858202278614,0.02918868508338928
1733861756739850200,5.535850341796875,-0.01798281593620777,-0.053848494565486904,0.02052197902500629
1733861756749801500,5.545801513671875,-0.053799394726753234,-0.03398702527582645,0.04952303258180618
1733861756759752200,5.555752197265625,-0.047986909055709834,-0.0270791455835104,0.0631073212981224
1733861756769703400,5.565703369140625,-0.03468786702156067,-0.02118131971657276,0.039159459477663035
1733861756779654100,5.575654052734375,-0.02262859591543674,-0.03094634240567684,0.03399403953850269
1733861756789605400,5.58560546875,-0.023389497285336253,-0.02522913380265236,0.05437631783187389
1733861756799556400,5.595556396484375,-0.011903203761577606,-0.02600537887215614,0.04172375700771808
1733861756809508400,5.60550830078125,0.010586422074586153,-0.019391513690352438,0.026835399955511093
1733861756819459300,5.615459228515625,0.00018485504761338233,-0.02178922248184681,0.038196751925349236
1733861756829410300,5.625410400390625,-0.028737872575968503,-0.034519524717330934,0.04701601819694042
1733861756839361500,5.635361572265625,-0.04419453103542328,-0.015310966378450393,0.038545126971602436
1733861756849312300,5.645312255859375,-0.03588920563533902,-0.01870177786052227,0.04734978019595146
1733861756859263500,5.655263427734375,-0.05259235702455044,-0.028985855987668036,0.016640169155597687
1733861756869214200,5.665214111328125,-0.05904153316393494,-0.04342413118481636,0.013825111734867095
1733861756879165400,5.67516552734375,-0.06457973193824292,-0.032711013990640636,0.022215923461318014
1733861756889116200,5.6851162109375,-0.07739785858765244,-0.03964636621177196,0.03622983576655388
1733861756899067400,5.6950673828125,-0.08296002275943756,-0.05156184493303299,0.03159223909378051
1733861756909018400,5.705018310546875,-0.09457374205514787,-0.03984627269804478,0.03448620696961879
1733861756918969300,5.71496923828125,-0.10103694671988486,-0.043426469272375104,0.03486848428547382
1733861756928920300,5.72492041015625,-0.09384557391107082,-0.030610242319107053,0.025828853261470792
1733861756938871300,5.734871337890625,-0.09905585590526461,-0.030396307307481763,0.016065584138035775
1733861756948822300,5.744822265625,-0.11313304270505904,-0.0384685546040535,0.042213001829385755
1733861756958773200,5.754773193359375,-0.0739816204033792,-0.03433832293152809,0.03159165457189083
1733861756968724200,5.76472412109375,-0.06481470973789692,-0.023783026647567748,0.030681553989648818
1733861756978675500,5.774675537109375,-0.05491349344849586,-0.02555062084197998,0.047042321681976314
1733861756988626400,5.78462646484375,-0.043545565607398744,-0.019618308183550835,0.04120177896022796
1733861756998577400,5.794577392578125,-0.03527764960825443,-0.036839492097496984,0.04781681318581104
1733861757008528400,5.8045283203125,-0.04234393473267555,-0.03265256180167198,0.05056231250166893
1733861757018479400,5.814479248046875,-0.02694163680896163,-0.026109423768520355,0.030541268736124037
1733861757028430300,5.824430419921875,-0.012564298018813133,-0.02116787571310997,0.03374795582294464
1733861757038381300,5.83438134765625,-0.0017611644536256789,-0.024943302598595618,0.0444680872797966
1733861757048333300,5.844333251953125,0.0181079036206007,-0.014826397731900214,0.03494154952168464
1733861757058284300,5.8542841796875,0.03329670492410659,-0.016480010157823563,0.039219665232300756
1733861757068235500,5.864235595703125,0.04606032490730285,-0.027236381971836088,0.04184592208266258
1733861757078186200,5.874186279296875,0.0058937342137098305,-0.02866144633889198,0.0500099393159151
1733861757088137500,5.884137451171875,-0.0039249183587729925,-0.028320670077204704,0.05024900876879692
1733861757098088200,5.894088134765625,-0.0036145372353494167,-0.036387656676769256,0.0457271474301815
1733861757108039400,5.904039306640625,-0.028422230755537747,-0.03307283304035664,0.04303834673762321
1733861757117990100,5.913990234375,-0.049405397551506754,-0.03705576519668102,0.03958732950091362
1733861757127941400,5.92394140625,-0.04821180385276675,-0.02302081010341644,0.03094108170866966
1733861757137892600,5.933892578125,-0.06158391112312674,-0.027227029621601104,0.03927987098693848
1733861757147843300,5.94384326171875,-0.07246843936145306,-0.035094109734892846,0.039005730220675466
1733861757157794600,5.953794677734375,-0.06757657566666603,-0.03834755857288837,0.025680969223380087
1733861757167745300,5.963745361328125,-0.06931041372194886,-0.05256663806140423,0.027857144218683242
1733861757177696500,5.973696533203125,-0.07180734510421752,-0.03742927468419075,0.03126666040122509
1733861757187647200,5.983647216796875,-0.056121115672588345,-0.019069442129135132,0.04411737414598465
1733861757197598500,5.993598388671875,-0.05553893187046051,-0.0395271237462759,0.044781975534558295
1733861757207549400,6.003549560546875,-0.06072130294442177,-0.04655424590408802,0.032361469900608064
1733861757217500400,6.01350048828125,-0.0618307254910469,-0.026861118918657303,0.01878010379374027
1733861757227451400,6.023451416015625,-0.0748113492257893,-0.040191725134849546,0.0124263508528471
1733861757237402400,6.03340234375,-0.08598448514714836,-0.030811902371048926,0.035624271088838574
1733861757247353300,6.043353271484375,-0.08560849144160747,-0.0215630125105381,0.05220131188035011
1733861757257304300,6.05330419921875,-0.07120280333980918,-0.026520342656970022,0.04641279160678386
1733861757267255300,6.06325537109375,-0.04829889761433005,-0.01748655685186386,0.045969724014401435
1733861757277206500,6.07320654296875,-0.01341711545586586,-0.027216508227586745,0.061709144937992094
1733861757287157200,6.0831572265625,-0.012353870138525963,-0.014056582403182983,0.03250701585114002
1733861757297108500,6.0931083984375,-0.011517273183912038,-0.03423193994760513,0.026559505623579022
1733861757307060500,6.103060546875,-0.005471563278883695,-0.033904607689380646,0.03024082448482513
1733861757317011500,6.113011474609375,-0.029007337167114018,-0.02566518713235855,0.018880641558766363
1733861757326962400,6.12296240234375,-0.037530835362523794,-0.031217560562491416,0.014843933388590812
1733861757336913400,6.132913330078125,-0.04794175473973155,-0.03581307165920734,0.028760230538249013
1733861757346864400,6.142864501953125,-0.04162541119977831,-0.03364858710169792,0.04457914643883705
1733861757356815400,6.1528154296875,-0.026546061620116232,-0.031124621582031248,0.03979892642498016
1733861757366766300,6.162766357421875,-0.029411972445249557,-0.013811083209514618,0.047374914637207985
1733861757376717300,6.17271728515625,-0.006226181038469076,-0.019392682734131812,0.05602759217023849
1733861757386668500,6.18266845703125,-0.009821575181931257,-0.031232173609733578,0.04891980599164963
1733861757396619300,6.192619384765625,-0.028809330376982686,-0.03771101423501968,0.043676060119271276
1733861757406570500,6.202570556640625,-0.023212387152761218,-0.0487596469938755,0.03382745079994202
1733861757416521200,6.212521240234375,-0.02072422359883785,-0.04149988512396812,0.03852408418357372
1733861757426472400,6.222472412109375,-0.028666560905426738,-0.02461246320903301,0.04876607673466205
1733861757436423400,6.23242333984375,-0.05294423920214176,-0.03191898683011531,0.040643560555577274
1733861757446374400,6.24237451171875,-0.07918108874261379,-0.0378191507846117,0.048536359632015226
1733861757456329700,6.252329833984375,-0.058034255817532535,-0.022981062614917752,0.05011281516849994
1733861757466280700,6.26228076171875,-0.04598360640928149,-0.02120353154838085,0.0325865108281374
1733861757476232000,6.27223193359375,-0.053177463436126705,-0.033544542205333705,0.026136311775445936
1733861757486182700,6.2821826171875,-0.060424804215878244,-0.03563362343907356,0.023441081342101096
1733861757496134000,6.2921337890625,-0.06503624353408813,-0.02909282349348068,0.01638473308980465
1733861757506084600,6.302084716796875,-0.07211655718386173,-0.030407413223385808,0.03629237960875034
1733861757516035800,6.312035888671875,-0.08209200775325298,-0.0325339038580656,0.05006020819842815
1733861757525986600,6.321986572265625,-0.06996566276028753,-0.031056232520937917,0.05057751007080078
1733861757535937800,6.331937744140625,-0.03200447315648198,-0.030894904479384422,0.053771922197937964
1733861757545889800,6.341889892578125,-0.04781739770770073,-0.026451953595876692,0.030409751310944557
1733861757555840800,6.3518408203125,-0.054484308250993485,-0.02442950785756111,0.031902035695314405
1733861757565791700,6.361791748046875,-0.07089432191252708,-0.027767712369561194,0.03061959466934204
1733861757575742700,6.37174267578125,-0.06927578079998493,-0.031311668586730956,0.030598551881313323
1733861757585694000,6.38169384765625,-0.07045578436478972,-0.039700726747512814,0.0217938986569643
1733861757595644700,6.391644775390625,-0.05935629820153117,-0.051313423129916186,0.03190612734854221
1733861757605596000,6.401595947265625,-0.051301586561650035,-0.02022621094882488,0.06028700318038463
1733861757615546600,6.411546630859375,-0.017352701339125632,-0.019201544076204297,0.05677870279848575
1733861757625497900,6.421497802734375,0.013051204752922057,-0.022131752309203147,0.05346037203073501
1733861757635448600,6.431448486328125,0.024441782817244528,-0.036381226935982704,0.058937926658988
1733861757645399800,6.44139990234375,0.05942541791498661,-0.023612346255779265,0.04360299488306045
1733861757655350800,6.451350830078125,0.05785363855361938,-0.02640928349792957,0.01882160484790802
1733861757665301800,6.4613017578125,0.03715630296170711,-0.041129298245906824,0.02369184123277664
1733861757675252700,6.471252685546875,0.022942045778781173,-0.038081601113080975,0.04523614904284477
1733861757685203700,6.48120361328125,-0.010272387689352035,-0.03057692457139492,0.03688508480489254
1733861757695154700,6.49115478515625,-0.06459624468162656,-0.053821022036671634,0.026934184154868125
1733861757705105700,6.501105712890625,-0.06563406329676509,-0.03640168520212173,0.038275077858567236
1733861757715056600,6.511056640625,-0.05735036520659923,-0.026388240709900854,0.031115269231796264
1733861757725008000,6.5210078125,-0.022349340582638978,-0.03350713280439377,0.04569324516057968
1733861757734958600,6.53095849609375,0.014193798916786909,-0.02246843691766262,0.06081599549055099
1733861757744909800,6.540909912109375,0.031577041524648665,-0.02930675850510597,0.04347849172055721
1733861757754860500,6.550860595703125,0.03421791142225265,-0.019324878194928168,0.04441080413460731
1733861757764811800,6.560811767578125,0.021024083328247067,-0.022343933755159376,0.028680735561251638
1733861757774762800,6.5707626953125,-0.05670622208416461,-0.041890930268168446,0.034120296266674996
1733861757784713700,6.580713623046875,-0.07542202847003936,-0.04970598793327808,0.04042085771560669
1733861757794665700,6.590665771484375,-0.09284706439301371,-0.04432721750438213,0.027393033838272095
1733861757804616700,6.60061669921875,-0.09062354312464595,-0.02461947747170925,0.05055296015143394
1733861757814567700,6.610567626953125,-0.048205520242452615,-0.023448095604777335,0.04203822978436947
1733861757824518700,6.6205185546875,-0.024658055916428563,-0.02345920152068138,0.055254854232072825
1733861757834470000,6.630469970703125,-0.008698270240426064,-0.02696048763990402,0.028073417317867277
1733861757844420600,6.640420654296875,0.011523264533281325,-0.030333178943395614,0.014234277057647704
1733861757854371800,6.650371826171875,-0.018720044169574974,-0.04316694155335426,0.03169569946825504
1733861757864322600,6.660322509765625,-0.0447347753919661,-0.027253333106637,0.03123918787240982
1733861757874273800,6.670273681640625,-0.07255202599167823,-0.034705402678251264,0.026915479454398154
1733861757884224800,6.680224853515625,-0.06906871392056345,-0.03235270207226276,0.058604749181866644
1733861757894175700,6.69017578125,-0.06164192492067813,-0.028925650233030318,0.043403672918677326
1733861757904126700,6.700126708984375,-0.03752805888354778,-0.027830840733647343,0.03583469896912574
1733861757914077700,6.71007763671875,-0.0046498716324567795,-0.015056114834547041,0.039538229662179944
1733861757924028700,6.720028564453125,0.00476443792283535,-0.03534662319123745,0.04477262318432331
1733861757933979600,6.729979736328125,-0.010496259573101997,-0.02834872712790966,0.02426350364089012
1733861757943930600,6.7399306640625,-0.022659721706062553,-0.03809036894142628,0.014139584511518477
1733861757953881900,6.7498818359375,-0.03523088785707951,-0.05135550870597362,0.03117196785509586
1733861757963832800,6.759832763671875,-0.056287119889259336,-0.025227964758872984,0.040975568988919256
1733861757973783800,6.76978369140625,-0.042833764076232905,-0.03105038730204105,0.04395779967010021
1733861757983734800,6.77973486328125,-0.03292363382801413,-0.015726561442017555,0.04009527902305126
1733861757993685800,6.789685791015625,-0.005739274304360151,-0.012267360898852348,0.03796411221325397
1733861758003636700,6.79963671875,-0.01245499242544174,-0.03329261327087879,0.039998832911252974
1733861758013587700,6.809587646484375,-0.014566139360517262,-0.02855389431118965,0.024639351215958595
1733861758023539000,6.8195390625,-0.02579129773005843,-0.039168811827898026,0.042269700452685355
1733861758033489700,6.82948974609375,-0.0533171641677618,-0.032760698351263995,0.04152034339010715
1733861758043441000,6.83944091796875,-0.05562777919769287,-0.03216331698000431,0.06516542287170887
1733861758053391600,6.8493916015625,-0.036666327487677335,-0.029316110855340957,0.05667231981456279
1733861758063343900,6.85934375,-0.03771262167021632,-0.01983984197974205,0.04624620286822319
1733861758073294600,6.869294677734375,-0.040027182222902774,-0.025441315248608588,0.0422065720885992
1733861758083245800,6.879245849609375,-0.009699556237459182,-0.03200374250411987,0.04885375501811504
1733861758093196500,6.889196533203125,0.015954524978995323,-0.02740413975417614,0.04233984307944774
1733861758103147800,6.899147705078125,0.009331891968846321,-0.04676934995949268,0.03100947076976299
1733861758113098800,6.9090986328125,-0.02919920647740364,-0.048103813433647155,0.028128946897387503
1733861758123049700,6.9190498046875,-0.03827975403368473,-0.020246669214963913,0.0518880081474781
1733861758133001000,6.9290009765625,-0.021686346629261968,-0.02304185289144516,0.05066109670102596
1733861758142951700,6.93895166015625,-0.016908464702963828,-0.038921559068560596,0.04994096573293209
1733861758152903000,6.94890283203125,-0.017831278636306524,-0.02839256626963615,0.04650046989023685
1733861758162853600,6.958853515625,-0.04035466061159968,-0.02659633050262928,0.03907411928176879
1733861758172804900,6.968804931640625,-0.0267260943621397,-0.03602876023650169,0.04555003729760647
1733861758182755600,6.978755615234375,-0.04039908427521586,-0.033462709140777584,0.03527238891124725
1733861758192706800,6.988706787109375,-0.02917275686189532,-0.023854922839999196,0.05331950225532055
1733861758202657800,6.99865771484375,-0.02445873395204544,-0.033082769912481304,0.0410913043230772
1733861758212608800,7.00860888671875,-0.018817659325152634,-0.034094577303528786,0.030180034208297728
1733861758222559700,7.018559814453125,-0.023170447707176207,-0.04468319133520126,0.038377953711152074
1733861758232510700,7.0285107421875,-0.023128508261591196,-0.0296148015409708,0.03339022842645645
1733861758242461700,7.038461669921875,-0.02591989254578948,-0.02185761154294014,0.04498538915216922
1733861758252412700,7.04841259765625,-0.040607758589833974,-0.029396190354228018,0.03850830209255218
1733861758262363600,7.05836376953125,-0.026114099943637847,-0.038653263521194456,0.046075522476434705
1733861758272315000,7.06831494140625,-0.03937222544550895,-0.030126842716336248,0.055229135268926616
1733861758282265600,7.078265625,-0.028531682479381558,-0.034491467666625975,0.036733693635463714
1733861758292216800,7.088216796875,-0.03218026811480522,-0.02345569438934326,0.0347691155642271
1733861758302167600,7.09816748046875,-0.03819426770731806,-0.023148820397257804,0.03224164291322231
1733861758312118800,7.108118896484375,-0.03080956428349018,-0.032336919981241226,0.039682022047042846
1733861758322070800,7.11807080078125,-0.043742549484223125,-0.02609130358994007,0.050632455128431314
1733861758332021800,7.128021728515625,-0.026086627414822577,-0.02040975082218647,0.06328969212770462
1733861758341972700,7.13797265625,-0.004219809652119874,-0.020116320833563805,0.053826282733678815
1733861758351923700,7.147923828125,0.008973580050468444,-0.02265606844425201,0.04250350920855999
1733861758361875000,7.157875,0.010893734458088875,-0.021150340056419373,0.03952887731194496
1733861758371825700,7.16782568359375,-0.001457213070988655,-0.03477496078312397,0.03928045550882816
1733861758381777000,7.17777685546875,-0.0004313771545886993,-0.04679156179130077,0.02988894230723381
1733861758391727600,7.1877275390625,-0.017371259909123183,-0.04671674298942089,0.02139993090331554
1733861758401678800,7.197678955078125,-0.029646365723013875,-0.05375614010691642,0.02198912896811962
1733861758411629600,7.207629638671875,-0.0320079802878201,-0.042834348598122594,0.031214053431153296
1733861758421580800,7.217580810546875,-0.01628083432391286,-0.017489479461312293,0.04239303457140922
1733861758431531800,7.22753173828125,-0.030892712522298096,-0.02516366735100746,0.039969606816768644
1733861758441482800,7.237482666015625,-0.02998056611344218,-0.03319499811530113,0.059171150892972944
1733861758451433700,7.247433837890625,-0.02948503768146038,-0.025717209580540655,0.059440030962228774
1733861758461385200,7.25738525390625,-0.01449044377580285,-0.02483984222412109,0.034684944412112236
1733861758471336400,7.26733642578125,-0.02188727602884173,-0.03234919494092464,0.03290682882368565
1733861758481287200,7.277287109375,-0.026306407645344733,-0.021574118426442145,0.04511515301167965
1733861758491238400,7.28723828125,-0.03130392367169261,-0.03041559652984142,0.03968260656893253
1733861758501189000,7.297189208984375,-0.03969298183247447,-0.0415051458209753,0.03644377077817917
1733861758511140400,7.307140380859375,-0.03081234076246619,-0.04436404238343238,0.03219546568393707
1733861758521091300,7.31709130859375,-0.010130933392047882,-0.02793079397678375,0.05289923101663589
1733861758531042300,7.327042236328125,-0.02300736609995365,-0.029362872606515884,0.03926291985213756
1733861758540993300,7.3369931640625,-0.01888648677766323,-0.01747135928273201,0.055173021167516705
1733861758550944300,7.3469443359375,0.008862959282845258,-0.02542377959191799,0.048155251359939574
1733861758560895200,7.356895263671875,0.009558686462044715,-0.02993336597084999,0.046482349711656566
1733861758570846200,7.36684619140625,0.008655161751061678,-0.03431143492460251,0.05869885720610618
1733861758580797200,7.376797119140625,0.012354016268998383,-0.03170446729660034,0.04539046282172203
1733861758590749200,7.386749267578125,0.000940641850978136,-0.02675532045662403,0.04718552954494953
1733861758600700400,7.396700439453125,-0.02234700249508023,-0.021059154641628264,0.03969546605050563
1733861758610651100,7.406651123046875,-0.02107099120989442,-0.01999532480239868,0.04104045091867447
1733861758620602400,7.416602294921875,-0.028343612561374902,-0.02911678889095783,0.049531800410151476
1733861758630553300,7.42655322265625,-0.022824849139899014,-0.0368909300237894,0.02675707402229309
1733861758640504300,7.43650439453125,-0.0190739721737802,-0.021716157245635984,0.05445347472131252
1733861758650455300,7.446455322265625,-0.0038191198967397213,-0.04003858039975166,0.041758243799209595
1733861758660406300,7.45640625,0.0004350304163992405,-0.03858487446010112,0.03383271149694919
1733861758670357200,7.466357177734375,0.0004816460371017456,-0.03140519208908081,0.05089724354445934
1733861758680308200,7.47630810546875,-0.008100158216804265,-0.04027531176507473,0.03555295941829681
1733861758690259200,7.48625927734375,-0.030666210290044543,-0.04258475775122642,0.040056116056442256
1733861758700210400,7.49621044921875,-0.06231412509381771,-0.03182897045910358,0.03671206632554531
1733861758710161200,7.5061611328125,-0.06382847517952323,-0.0379325480312109,0.0270703777551651
1733861758720112400,7.5161123046875,-0.020537176594138146,-0.04454875130057335,0.04787117372155189
1733861758730063000,7.52606298828125,0.011243863070011139,-0.03963701386153698,0.043291444715857504
1733861758740014300,7.536014404296875,0.03435980411097407,-0.027454408636689184,0.04696048861742019
1733861758749965300,7.54596533203125,0.02651113643720746,-0.0449561630576849,0.05418693273961544
1733861758759916300,7.555916259765625,0.0029823768116533753,-0.0354272872120142,0.05716740985512733
1733861758769867300,7.5658671875,-0.029908669921010732,-0.009435936865210532,0.048937341648340224
1733861758779818200,7.575818359375,-0.05023191150352359,-0.026140403428673742,0.03985153339505195
1733861758789769200,7.585769287109375,-0.06812485719919205,-0.019457564663887022,0.040621348723769185
1733861758799720200,7.59572021484375,-0.02993336597084999,-0.023345219752192496,0.061843584972620005
1733861758809671400,7.60567138671875,-0.002682809343189001,-0.029234277790784833,0.02928279310762882
1733861758819622400,7.615622314453125,0.030606881318241356,-0.03362403718233108,0.026765841850638388
1733861758829573400,7.625573486328125,0.027143589121848343,-0.03658288698792457,0.03756254567503929
1733861758839524400,7.6355244140625,0.029904870528727766,-0.02753741074502468,0.060144379839301106
1733861758849475300,7.645475341796875,0.013221446753293275,-0.038541035318374633,0.05195639720857143
1733861758859427300,7.65542724609375,-0.036996582355350256,-0.03934533743858337,0.037919104027748105
1733861758869378300,7.66537841796875,-0.059752604042738675,-0.03826046481132507,0.04560030618011951
1733861758879329300,7.675329345703125,-0.05151975935697555,-0.039109190595149994,0.04470949482023716
1733861758889280300,7.6852802734375,-0.011970277648419141,-0.03641746729314327,0.014489713123440742
1733861758899231200,7.695231201171875,0.023391543111950158,-0.01934475193917751,0.042269115930795666
1733861758909182200,7.70518212890625,0.0028795009590685365,-0.0175239662528038,0.04181728051006794
1733861758919133200,7.71513330078125,0.016690876429527997,-0.04389584034979343,0.04358312113881111
1733861758929084400,7.72508447265625,0.0008821896620094775,-0.02382745031118393,0.041995559686422344
1733861758939035100,7.73503515625,-0.01951236359104514,-0.04009001832604408,0.029687866777181625
1733861758948986400,7.744986328125,-0.03160845957621932,-0.028081016102433205,0.04648585684299469
1733861758958937000,7.75493701171875,-0.0242687643378973,-0.02999474076926708,0.038085108244419096
1733861758968888300,7.764888427734375,-0.031293986799567935,-0.032736732953786846,0.04932897131443023
1733861758978839300,7.77483935546875,-0.004794102408736944,-0.017181436425447463,0.05324409893155098
1733861758988790300,7.784790283203125,0.02027589530944824,-0.029278701454401014,0.04225274931788444
1733861758998741500,7.794741455078125,0.001151654253154993,-0.030514380729198452,0.04079319815933704
1733861759008692200,7.804692138671875,-0.013505378261208534,-0.045055531778931616,0.048940264257788656
1733861759018643500,7.8146435546875,-0.02824117510020733,-0.047912090253829955,0.0316711495488882
1733861759028594200,7.82459423828125,-0.04119651826322079,-0.048562078595161436,0.021727847683429717
1733861759038545400,7.83454541015625,-0.03265709184631705,-0.0459451740950346,0.0315799641340971
1733861759048496000,7.84449609375,-0.008412877427786588,-0.03700608083605766,0.04345043466985225
1733861759058447400,7.854447265625,0.036913287986069916,-0.02429799043238163,0.05254734883904457
1733861759068398300,7.8643984375,0.053386137750744814,-0.013051204752922057,0.04320142834484577
1733861759078349300,7.874349365234375,0.06136471541449427,-0.022128829699754715,0.05787818847298622
1733861759088300300,7.88430029296875,0.02293430086374283,-0.017591770792007445,0.061407531642913814
1733861759098251300,7.894251220703125,-0.012826163825392723,-0.033431729480624194,0.029028526085615156
1733861759108202200,7.9042021484375,-0.07103460716605187,-0.04392214383482933,0.019888357296586036
1733861759118154200,7.914154296875,-0.10062880431041121,-0.0372007266253233,0.022568390160799024
1733861759128105500,7.92410546875,-0.09271656988114119,-0.04019114061295986,0.01349251877963543
1733861759138056200,7.93405615234375,-0.05247092260196805,-0.029758009403944012,0.030544191345572468
1733861759148007400,7.94400732421875,0.025770401072502135,-0.029865561431646346,0.06608078415095806
1733861759157958100,7.953958251953125,0.07132803715467452,-0.021079028385877607,0.0367471376389265
1733861759167909400,7.963909423828125,0.06616627047732472,-0.018069325175881383,0.057117140972614285
1733861759177860400,7.9738603515625,0.05585515821278095,-0.02145136882960796,0.06728782185316086
1733861759187811300,7.983811279296875,0.021833500014990567,-0.026617373290657994,0.04656067564487457
1733861759197762300,7.99376220703125,-0.012171937700361013,-0.036027591192722315,0.0321112945318222
1733861759207713300,8.00371337890625,-0.01785582855567336,-0.03774316293895244,0.03856149358451366
1733861759217664300,8.013664306640624,-0.01812646219059825,-0.05483750560283661,0.03793430159687996
1733861759227615200,8.023615234375,-0.005309796845912933,-0.04425064513683319,0.023525252494215963
1733861759237566200,8.033566162109375,0.005949263793230056,-0.05232581504285335,0.05335282000303268
1733861759247517400,8.043517333984376,0.00887640328630805,-0.03495265543758869,0.05711480288505554
1733861759257468200,8.05346826171875,0.021775632347911595,-0.031203532037138937,0.03984568817615509
1733861759267419400,8.06341943359375,0.061242258078604936,-0.04556640391051769,0.036187165668606754
1733861759277370000,8.0733701171875,0.10020867920219897,-0.04583002328276634,0.06226385621130466
1733861759287321300,8.0833212890625,0.10313304221630096,-0.030195816299319264,0.06118073714971542
1733861759297272300,8.093272216796874,0.10488310075402259,-0.022409400206804275,0.044516602596640586
1733861759307223300,8.103223388671875,0.04474398161172866,-0.030423195314407347,0.03256137638688087
1733861759317174300,8.11317431640625,-0.009391659332066774,-0.05303308652937412,-0.0037789340168237684
1733861759327125200,8.123125244140626,-0.06136076989173889,-0.05019990893006324,-0.01155833584666252
1733861759337076200,8.133076171875,-0.11560279381945729,-0.05237666844725609,-0.0070364745080471035
1733861759347027200,8.143027099609375,-0.11325418486669658,-0.06256780759394169,-0.029895372048020362
1733861759356978200,8.152978271484375,-0.10724851471111178,-0.05400689999759197,0.023028993409872054
1733861759366930200,8.16293017578125,-0.06600172756537795,-0.049912908682227135,0.06362345412671566
1733861759376881400,8.17288134765625,0.019089169742912054,-0.04656768990755081,0.046209962511062616
1733861759386832100,8.18283203125,0.03861278538033366,-0.01121112984418869,0.08294248710274696
1733861759396783400,8.192783447265626,0.028171616995334624,0.03879822494983673,0.12626549600064754
1733861759406734300,8.202734375,-0.012829086434841156,0.019441782572865485,0.11861527350842951
1733861759416685300,8.212685302734375,-0.036700375887751574,-0.0060714288681745525,0.07263327453434466
1733861759426636300,8.22263623046875,-0.06446414273455739,-0.020150223103165624,0.044295653322339056
1733861759436587300,8.232587158203126,-0.12259177592396736,-0.03450900332331657,0.02692307823896408
1733861759446538200,8.242538330078125,-0.10714242398813366,-0.04932137252986431,0.006991466322541237
1733861759456484600,8.252484619140626,-0.08315481467917561,-0.042108956933021545,0.021231588599085808
1733861759466435600,8.262435546875,-0.04156345187947154,-0.02833645216822624,0.03077741557955742
1733861759476386600,8.272386474609375,-0.030445261015743016,-0.026083120283484456,0.05510112497508526
1733861759486337500,8.282337646484375,-0.00098448099270463,-0.01259703124463558,0.07835399026870728
1733861759496288500,8.29228857421875,-0.0036450785040855406,-0.006098901396989822,0.06915361572504043
1733861759506239700,8.30223974609375,-0.011724924585223197,-0.021671733582019806,0.06997603802382946
1733861759516190500,8.3121904296875,-0.046170653413981196,-0.021095394998788833,0.030155484288930893
1733861759526141700,8.3221416015625,-0.09910393283069133,-0.025963293296098706,0.02700315773785114
1733861759536092400,8.332092529296874,-0.10201952801644802,-0.03245966957807541,0.020480477970838545
1733861759546043600,8.342043701171875,-0.065856181614846,-0.057281976145505904,0.03432780153751373
1733861759555994600,8.35199462890625,0.0045255146004259585,-0.0332704014390707,0.061218731072545045
1733861759565945600,8.361945556640626,0.03443593808710575,-0.004739888003468513,0.07428805600404739
1733861759575896600,8.371896484375,0.04181362724825739,-0.010869184538722038,0.05707154826521873
1733861759585847600,8.38184765625,0.007612228569388389,-0.012874679142236709,0.04179682224392891
1733861759595798800,8.391798828125,-0.0017534195385873316,-0.01994096426665783,0.031357845816016194
1733861759605749500,8.40174951171875,0.003172930947691202,-0.02692074015140533,0.02850420995056629
1733861759615701800,8.41170166015625,-0.013795154988020657,-0.04101356291174888,0.03414718427360058
1733861759625652500,8.421652587890625,-0.011045564018934964,-0.02140752968788147,0.036411037552356716
1733861759635603700,8.431603759765625,-0.04004851727187633,-0.03014730098247528,0.04006429936289787
1733861759645554400,8.441554443359376,-0.04968889066800475,-0.01860533174872398,0.048123687177896494
1733861759655505700,8.451505615234375,-0.07726561051011085,-0.028964813199639318,0.03526303656101227
1733861759665456600,8.46145654296875,-0.061829994838684794,-0.04733867428004741,0.04561433470547199
1733861759675407600,8.47140771484375,-0.02648468682169914,-0.04676350474059582,0.03834346691966056
1733861759685358600,8.481358642578124,0.02065466549396515,-0.039029111096262926,0.04903729489147663
1733861759695309600,8.4913095703125,0.027193711873888967,-0.04479425049424171,0.042490649726986886
1733861759705260500,8.501260498046875,0.03413374027013778,-0.04063654629290104,0.052664253216981885
1733861759715211500,8.51121142578125,0.009931611427664756,-0.024700141492486,0.03323708369135856
1733861759725162500,8.52116259765625,-0.030219781696796417,-0.0404161815404892,0.03004968582689762
1733861759735113700,8.53111376953125,-0.046126083619892594,-0.04155366113781929,0.033760230782628055
1733861759745064700,8.541064697265625,-0.038889410364627834,-0.046482349711656566,0.02973638209402561
1733861759755015700,8.551015625,-0.019322393976897,-0.03471533955037594,0.034659225448966026
1733861759764966700,8.560966552734374,0.01730827767550945,-0.026716742011904715,0.03348959714770317
1733861759774917600,8.570917724609375,0.009271540083736181,-0.0534346530675888,0.027456162202358244
1733861759784868600,8.58086865234375,-0.022589579079300162,-0.043132454761862754,0.04716390223503113
1733861759794819600,8.590819580078126,-0.08995616525709628,-0.05151683674752712,0.037027708145976064
1733861759804770800,8.600770751953124,-0.10653320604860782,-0.06880816328823566,0.019658640193939207
1733861759814721500,8.610721435546875,-0.04219312808513641,-0.08627250830829143,0.021298224094510078
1733861759824672800,8.6206728515625,0.044568040522933006,-0.09834873054921627,-0.01797930880486965
1733861759834623500,8.63062353515625,0.09416866838559508,-0.14757190340161322,0.08865911118388176
1733861759844574700,8.64057470703125,0.25489845178499815,-0.516951743760705,-0.07425473825633526
1733861759854525400,8.650525390625,0.006951864964514971,0.25861528035104275,-0.047187867632508276
1733861759864476700,8.6604765625,-0.2870918716423213,0.5255892237246036,0.3313660437852144
1733861759874428400,8.670428466796874,-0.025958470990508794,-0.14065759396851063,0.08453589377403259
1733861759884379600,8.680379638671875,-0.045571518477052445,-0.008943769434094428,0.009486790269613266
1733861759894330600,8.69033056640625,-0.10719897648096084,0.017937223228812218,0.025036826100945472
1733861759904281600,8.700281494140626,-0.07247370005846022,-0.026739538365602493,0.016592238360643385
1733861759914232800,8.71023291015625,-0.023671821358054877,-0.026094226199388504,0.06423077237010001
1733861759924183600,8.72018359375,-0.011450199297070503,-0.0514957939594984,0.046231005299091334
1733861759934134800,8.730134765625,-0.010122165563702584,-0.025384616625308987,0.03861702316403389
1733861759944085500,8.74008544921875,-0.027375352051109074,-0.041431496062874794,0.04412029675543308
1733861759954036700,8.75003662109375,-0.0568539599917829,-0.03708849842250347,0.04840425768494606
1733861759963987700,8.75998779296875,-0.0836070884913206,-0.023853753796219825,0.03813186999559402
1733861759973938700,8.769938720703125,-0.07646963782683014,-0.024528292056918144,0.03326806335151195
1733861759983889700,8.7798896484375,-0.0593375935010612,-0.03597381517887115,0.04614624962508678
1733861759993840600,8.789840576171875,-0.014994740036129951,-0.0415793801009655,0.0460363595098257
1733861760003791600,8.79979150390625,0.015387538745999336,-0.029562779092788694,0.049125557696819304
1733861760013742600,8.80974267578125,0.034460488006472584,-0.029540567260980605,0.030033319213986394
1733861760023693600,8.819693603515624,0.026059739407896992,-0.033360417810082435,0.036243279770016665
1733861760033644800,8.829644775390625,0.008181114498525857,-0.03223930482566356,0.05220131188035011
1733861760043595500,8.839595458984375,0.00014101590588688848,-0.021074352210760115,0.0488905798971653
1733861760053546800,8.849546630859376,-0.023232407027482985,-0.009527122280001639,0.043725744479894635
1733861760063497500,8.85949755859375,-0.029627661022543904,-0.006248539000749588,0.06270984641313553
1733861760073448700,8.86944873046875,-0.020542437291145323,-0.00832242266535759,0.06883329772949218
1733861760083399400,8.8793994140625,0.013069763322919606,-0.010008183795213699,0.04182429477274418
1733861760093350700,8.8893505859375,0.022600538864731786,-0.039008068308234216,0.03844400468468666
1733861760103301600,8.899301513671874,0.008333528581261634,-0.030245500659942626,0.035087679994106294
1733861760113252600,8.909252685546875,-0.014072802885621785,-0.03162497231960296,0.025935820767283436
1733861760123203600,8.91920361328125,-0.031418051570653915,-0.027823826470971105,0.05427051936984062
1733861760133155600,8.929155517578126,-0.035639907049387694,-0.041161446949839586,0.037321722656488414
1733861760143106800,8.93910693359375,-0.026529402746260165,-0.049907063463330265,0.03218611333370208
1733861760153057500,8.9490576171875,-0.024892303063720464,-0.043187984341382976,0.0375315660148859
1733861760163008800,8.9590087890625,-0.03332476197481155,-0.02800795086622238,0.03361643839776516
1733861760172959500,8.96895947265625,-0.019699410595744846,-0.03340133434236049,0.029904724398255346
1733861760182910700,8.97891064453125,-0.001086480062454939,-0.015974398723244666,0.05231996982395649
1733861760192861400,8.988861328125,-0.005666793590039015,-0.025908932760357856,0.038834465306997294
1733861760202812700,8.998812744140626,-0.026657266909629104,-0.04265957655310631,0.04655307686030864
1733861760212763600,9.008763671875,-0.05329188359603285,-0.03687748602032661,0.05287117396593093
1733861760222714600,9.018714599609375,-0.02959434327483177,-0.022270868518948553,0.04522445860505104
1733861760232665600,9.02866552734375,-0.01982815154194832,-0.03491816864609718,0.024272855991125105
1733861760242616600,9.038616455078126,-0.008109072175621986,-0.038515316355228424,0.04268354195058346
1733861760252567600,9.048567626953124,-0.0013740648321807383,-0.017473112848401067,0.04651625198125839
1733861760262518500,9.0585185546875,-0.04083806021437049,-0.02021452051103115,0.04390110104680061
1733861760272469500,9.068469482421875,-0.0699209468357265,-0.02535012983381748,0.04406184456646442
1733861760282420700,9.078420654296876,-0.09136135587990284,-0.02829845824539661,0.0460147321999073
1733861760292371500,9.088371337890624,-0.06895546280443668,-0.03941255745589733,0.0423854357868433
1733861760302322700,9.09832275390625,-0.034195699590444564,-0.03516483688354492,0.028953707283735274
1733861760312273400,9.1082734375,-0.011619126123189926,-0.03507949668765068,0.026033435922861097
1733861760322224600,9.118224609375,-0.005493336719274521,-0.037761867639422415,0.039106852507591244
1733861760332175600,9.128175537109374,0.00467749029174447,-0.033815760362148284,0.03795242177546024
1733861760342126600,9.138126708984375,-0.01444251298084855,-0.03189268334507942,0.026937106764316557
1733861760352077800,9.148077880859375,-0.040001170998811716,-0.038348727616667744,0.03956277958154678
1733861760362028500,9.158028564453126,-0.06327274099290371,-0.04220189591348171,0.03801204300820827
1733861760371979800,9.167979736328125,-0.0836212631471455,-0.03669453066885471,0.02666296599805355
1733861760381930500,9.177930419921875,-0.07623699811473489,-0.03281330532133579,0.0200075997620821
1733861760391881700,9.1878818359375,-0.025935820767283436,-0.01972352212369442,0.05262625929415226
1733861760401832700,9.197832763671874,0.0044184009641408915,-0.024317279654741286,0.05400397738814353
1733861760411784700,9.20778466796875,0.04017784273996949,-0.018308979150652886,0.03349076619148254
1733861760421735400,9.2177353515625,0.03636325288787484,-0.005301613539457321,0.06669862378835678
1733861760431686700,9.227686767578126,0.020133418098837137,-0.01940320412814617,0.0562058713465929
1733861760441637600,9.2376376953125,-0.006739975779503584,-0.03580371930897236,0.03779986156225204
1733861760451588600,9.247588623046875,-0.0332737624399364,-0.02798281642496586,0.027618659287691114
1733861760461539300,9.257539306640625,-0.05180895156189799,-0.056281274670362466,0.038275077858567236
1733861760471490300,9.267490234375,-0.03989697997197508,-0.0345253699362278,0.047312955316901203
1733861760481441300,9.277441162109374,-0.0033791210442781446,-0.025316227564215657,0.03904956936240196
1733861760491392300,9.287392333984375,0.02651099030673504,-0.026899697363376617,0.046592824348807335
1733861760501343200,9.29734326171875,0.031108254969120022,-0.019583236870169638,0.034247137516736983
1733861760511294500,9.30729443359375,0.027403116840869185,-0.014929273584485054,0.05790683004558086
1733861760521245400,9.317245361328125,0.010695143146067856,-0.024565701457858084,0.05591068779230118
1733861760531196400,9.327196533203125,-0.025143062954396007,-0.026697452789545058,0.048369186371564864
1733861760541147400,9.3371474609375,-0.05354790418371558,-0.026419220370054244,0.047533904591202734
1733861760551098400,9.347098388671874,-0.051109278859943146,-0.02467442252933979,0.03375613912940025
1733861760561049300,9.35704931640625,-0.04523308030292392,-0.04427402601242065,0.0363157604843378
1733861760571000300,9.367000244140625,-0.04264028733074665,-0.04054536087810993,0.04539338543117046
1733861760580951600,9.37695166015625,-0.03214417388811707,-0.04050327530205249,0.03985913217961788
1733861760590902300,9.38690234375,-0.030489100157469508,-0.05181786552071571,0.04720072711408138
1733861760600853500,9.396853515625,-0.009580752163380384,-0.02972586070001125,0.0355839390784502
1733861760610804200,9.40680419921875,-0.02053250041902065,-0.03142272774577141,0.04031096760034561
1733861760620755500,9.41675537109375,-0.02760565367564559,-0.03202712337970733,0.049853871971368785
1733861760630706400,9.42670654296875,-0.049223611243814226,-0.027114216896891592,0.026458383336663244
1733861760640657400,9.436657470703125,-0.03417392615005374,-0.03222819890975952,0.024404373416304588
1733861760650608400,9.4466083984375,-0.025537761360406874,-0.03522796524763107,0.03555588202774525
1733861760660559400,9.456559326171876,-0.023032938932627436,-0.02616436882615089,0.05272855062484741
1733861760670510300,9.46651025390625,-0.025917554458230734,-0.03739128076136112,0.04994622642993927
1733861760680461300,9.47646142578125,-0.004076309528201818,-0.027521628654003143,0.03247662071287632
1733861760690412300,9.486412353515625,-0.007724310641735792,-0.030116905844211575,0.052583589196205135
1733861760700363500,9.496363525390626,-0.0045094402484595775,-0.022971125742793082,0.054290393114089966
1733861760710315500,9.5063154296875,-0.027422844454646107,-0.031251462832093235,0.03812894738614559
1733861760720266200,9.516266357421875,-0.028799247374385592,-0.03620820845663547,0.0376969857096672
1733861760730217500,9.526217529296876,-0.032509207808226345,-0.024314357045292855,0.043045945522189134
1733861760740168400,9.53616845703125,-0.03735957044884562,-0.03532499588131904,0.046696869245171545
1733861760750119400,9.546119384765625,-0.013929010500758886,-0.038971827951073644,0.0328606515944004
1733861760760070400,9.5560703125,-0.0075311261571943755,-0.033003859457373615,0.03408464043140411
1733861760770021400,9.566021484375,-0.02766702847406268,-0.03342354617416859,0.053633975031971926
1733861760779972400,9.575972412109374,-0.0334350904814899,-0.026129297512769697,0.042108956933021545
1733861760789923300,9.58592333984375,-0.03662570321634412,-0.03254617881774902,0.05253916553258896
1733861760799874300,9.595874267578125,-0.002361906825751066,-0.02223871981501579,0.04080664216279983
1733861760809825500,9.605825439453126,0.02087678381204605,-0.025097616377472876,0.042103696236014364
1733861760819776300,9.6157763671875,0.024696049839258192,-0.028214287093281745,0.039002223089337346
1733861760829727500,9.6257275390625,0.01854118047133088,-0.021683424019813536,0.03336977016031742
1733861760839678200,9.63567822265625,-0.02073357594907284,-0.023054712373018264,0.04211304858624935
1733861760849629400,9.64562939453125,-0.049085664077848194,-0.03966623995602131,0.042883448436856264
1733861760859580200,9.655580078125,-0.060021484111994504,-0.03842822259366512,0.04866904610097408
1733861760869531400,9.665531494140625,-0.06540390780270099,-0.025342531049251556,0.03688450028300285
1733861760879482400,9.675482421875,-0.056632572326064105,-0.03052665568888187,0.026368951487541196
1733861760889433300,9.685433349609376,-0.06516893000304698,-0.031070845568180083,0.04166822742819786
1733861760899384300,9.69538427734375,-0.047923926822096105,-0.02753565717935562,0.0412350967079401
1733861760909335300,9.705335205078125,-0.00881517461836338,-0.02872808183431625,0.03994797950685024
1733861760919286300,9.715286376953125,0.010744681376218795,-0.040351884132623674,0.04643675700426102
1733861760929237200,9.7252373046875,-0.0003933832317590713,-0.03614508009254932,0.04065934264659881
1733861760939188500,9.7351884765625,0.009050736939907074,-0.020573416951298714,0.0543453381717205
1733861760949139500,9.745139404296875,0.03150149207040667,-0.018288520884513854,0.04422141904234886
1733861760959090400,9.75509033203125,0.009202128109335898,-0.016934183666110037,0.04589899686574936
1733861760969041400,9.76504150390625,0.009661562314629554,-0.02180617361664772,0.05381050064265728
1733861760978992400,9.774992431640625,0.008599632171541452,-0.032146950367093086,0.052661915129423136
1733861760988943400,9.784943359375,0.007811696664243936,-0.020785013875365257,0.05052022692561149
1733861760998894300,9.794894287109376,0.0008067863382399082,-0.028422961407899856,0.04617722928524017
1733861761008846300,9.804846435546875,-0.008850099801272153,-0.026532033094763756,0.045052609169483185
1733861761018797300,9.81479736328125,0.0029588498055934903,-0.030803719064593314,0.046017070287466044
1733861761028748300,9.824748291015625,0.018077362351864575,-0.04722936868667602,0.029660394248366355
1733861761038699300,9.83469921875,0.03402721115574241,-0.04540624491274357,0.0355927069067955
1733861761048650200,9.844650146484375,0.0640260435782373,-0.036059155374765395,0.046925417304039
1733861761058601500,9.8546015625,0.07815276860818267,-0.03845335703492164,0.0503238275706768
1733861761068552200,9.86455224609375,0.037131753042340274,-0.029370471391081808,0.040320319950580594
1733861761078503400,9.87450341796875,-0.014538812962174415,-0.03904664675295353,0.0522539188504219
1733861761088454400,9.884454345703125,-0.045495530631393194,-0.026630817294120788,0.04133504995107651
1733861761098405400,9.8944052734375,-0.08325447566136718,-0.02693301511108875,0.049596097818017
1733861761108356400,9.9043564453125,-0.09534180381819606,-0.019247136783599853,0.026696868267655372
1733861761118307300,9.914307373046874,-0.08514949562773108,-0.021053309422731398,0.03663140230476856
1733861761128258600,9.924258544921875,-0.06942424935996531,-0.019313772279024123,0.041756490233540534
1733861761138209300,9.934209228515625,-0.04540843686982989,-0.03253916455507278,0.03319149098396301
1733861761148160500,9.944160400390626,-0.029092238971590995,-0.030759879922866818,0.03247136001586914
1733861761158111200,9.954111328125,-0.04467310833260417,-0.03016951281428337,0.029328970336914062
1733861761168062500,9.9640625,-0.07659048772752285,-0.03605272563397884,0.025446575945615765
1733861761178013400,9.974013427734375,-0.10500570422038435,-0.02898176433444023,0.03164016988873482
1733861761187964400,9.98396435546875,-0.08566679750010371,-0.024738135415315627,0.030471126109361646
1733861761197915400,9.993915283203124,-0.07623670585379004,-0.02120703867971897,0.028135376638174055
1733861761207866400,10.003866455078125,-0.07971709531545638,-0.020968553748726842,0.030322073027491566
1733861761217817300,10.0138173828125,-0.07199483050033449,-0.02548573891222477,0.048878304937481874
1733861761227768300,10.023768310546876,-0.06706628805696964,-0.018647417324781417,0.04802957915365696
1733861761237719300,10.03371923828125,-0.054368719047307966,-0.023152327528595924,0.03191197256743908
1733861761247670500,10.04367041015625,-0.07692308068275451,-0.023332944792509077,0.03080897976160049
1733861761257621200,10.053621337890625,-0.09281973799467086,-0.03666647361814976,0.035786768174171445
1733861761267572500,10.063572509765624,-0.08660276317596435,-0.027312369817495345,0.020294015488028526
1733861761277523200,10.073523193359375,-0.0736130793519318,-0.031732524347305294,0.03283551715314388
1733861761287474400,10.083474365234375,-0.07662073673531412,-0.01981061588525772,0.0367693494707346
1733861761297425200,10.093425048828125,-0.08658683495447039,-0.04447627058625221,0.04058803097605705
1733861761307377400,10.10337744140625,-0.09751344876885414,-0.043839141726493835,0.030394553741812703
1733861761317328400,10.113328369140625,-0.0718105599746108,-0.06585457417964935,0.037246319332718845
1733861761327279400,10.123279296875,-0.03637932723984122,-0.055469373765587804,0.04393734140396118
1733861761337230300,10.133230224609376,0.03595218786895275,-0.04762450548410416,0.04420388338565826
1733861761347181300,10.143181396484374,0.11984671499952673,-0.022748422902822495,0.06739712744653224
1733861761357132500,10.153132568359375,0.19873232792690396,-0.019717092382907867,0.06817571060359477
1733861761367083300,10.163083251953125,0.2415764672666788,-0.021647183662652968,0.0697299543082714
1733861761377034500,10.173034423828126,0.23074425373747942,-0.024023265144228933,0.07711188125312328
1733861761386985200,10.182985107421874,0.1796849514991045,-0.026236265018582342,0.05880173305869102
1733861761396936400,10.1929365234375,0.09725991239920258,-0.035221535506844516,0.027808628901839254
1733861761406887200,10.20288720703125,0.011596914291381835,-0.037758360508084295,0.03851005565822124
1733861761416838400,10.21283837890625,-0.03850990952774882,-0.014001052823662758,0.05032032043933868
1733861761426789400,10.222789306640625,-0.03966565543413162,-0.013867781832814216,0.029624153891205787
1733861761436740400,10.232740234375,-0.006713818424940109,-0.013625205248594284,0.04241933805644512
1733861761446691300,10.24269140625,0.009556932896375655,-0.011661211699247359,0.055603813800215715
1733861761456641800,10.252641845703126,0.04436053525209427,-0.019935119047760963,0.060714873203635215
1733861761466592800,10.2625927734375,0.03763970256447792,-0.016558336091041563,0.051040451407432554
1733861761476544000,10.2725439453125,0.011882014843076466,-0.024079963767528533,0.061956982219219206
1733861761486494700,10.28249462890625,-0.03383095793128013,-0.02607084532380104,0.05173486341238021
1733861761496446000,10.292446044921874,-0.08155819313749671,-0.03593523673415184,0.048697103151679036
1733861761506396700,10.302396728515625,-0.09146130912303924,-0.036354338929057116,0.029274609801173208
1733861761516348000,10.312347900390625,-0.10299582570269704,-0.049989481049776074,0.029594927796721456
1733861761526299000,10.322298828125,-0.0977852514475584,-0.034864392632246013,0.021771102303266524
1733861761536249900,10.332249755859374,-0.06949950655326247,-0.028867782565951346,0.028688334345817565
1733861761546200800,10.342200927734375,-0.05274477110728621,-0.04241466188132763,0.04801262801885604
1733861761556151800,10.35215185546875,-0.026981384297460317,-0.022096680995821953,0.03507365146875381
1733861761566103000,10.36210302734375,-0.020048954685777425,-0.029651626420021057,0.03583002279400825
1733861761576053800,10.3720537109375,-0.015609657064080237,-0.03531856614053249,0.0426683443814516
1733861761586005000,10.3820048828125,-0.014794249027967452,-0.023567922592163084,0.03644786243140697
1733861761595956700,10.391956787109375,-0.017402531830221415,-0.031686931639909745,0.039380993273854255
1733861761605908000,10.401907958984374,-0.06436915792748332,-0.030185879427194594,0.03215221106410027
1733861761615858700,10.411858642578125,-0.06421031410396098,-0.02557049458622932,0.036322190225124354
1733861761625810000,10.421809814453125,-0.046099487873911854,-0.021985621836781502,0.044613633230328555
1733861761635761000,10.431760986328126,-0.03801905727088451,-0.032545594295859334,0.04200315847098827
1733861761645712000,10.4417119140625,-0.025535423272848128,-0.024641104781627652,0.03896890534162521
1733861761655662800,10.451662841796875,-0.008331044363230466,-0.021861703196167946,0.050613750427961346
1733861761665613800,10.46161376953125,0.016948358321934937,-0.016631401327252385,0.051425066810846326
1733861761675564800,10.471564697265626,0.023884295064955947,-0.02359656416475773,0.048483752661943436
1733861761685515800,10.481515869140624,0.029216888264566657,-0.03261398335695267,0.03942074076235294
1733861761695466800,10.491466796875,-0.010886135673522949,-0.017248071920871733,0.033354572591185565
1733861761705418000,10.50141796875,-0.004176555032283067,-0.01794482201337814,0.037275545427203176
1733861761715369000,10.511368896484376,0.00021919570863246916,-0.028982348856329915,0.059305590927600856
1733861761725320000,10.52131982421875,0.007298340314626693,-0.021486440142989158,0.06453764636218548
1733861761735271000,10.53127099609375,0.013151011865586041,-0.01873918726146221,0.07088964573740959
1733861761745222000,10.541221923828125,0.01755918369665742,-0.03585866436660289,0.04368015177249908
1733861761755172900,10.5511728515625,0.009607201778888701,-0.023024901756644248,0.04243921180069447
1733861761765123800,10.561123779296874,-0.013261194241791964,-0.0468383235424757,0.026101824983954428
1733861761775075000,10.571074951171875,-0.018130699974298475,-0.03720832540988922,0.03710369599163532
1733861761785025800,10.58102587890625,-0.02721709274947643,-0.03267126650214195,0.04460486540198326
1733861761794977000,10.59097705078125,-0.03812719382047653,-0.045211014601588245,0.03934533743858337
1733861761804927700,10.600927734375,-0.02362520573735237,-0.04282148911654949,0.03896890534162521
1733861761814879000,10.61087890625,-0.027144465904682873,-0.032656653454899785,0.04304010030329227
1733861761824829700,10.62082958984375,-0.018033084818720818,-0.019647534278035162,0.02988894230723381
1733861761834781000,10.630781005859374,-0.02893193384334445,-0.02211538569629192,0.031765842095017434
1733861761844732000,10.64073193359375,-0.024241876330971718,-0.019418986219167707,0.02374853985607624
1733861761854683000,10.650682861328125,-0.035861148584634066,-0.030938743621110914,0.03219137403070926
1733861761864633900,10.6606337890625,-0.03423720064461231,-0.021933014866709708,0.04527531200945377
1733861761874585900,10.6705859375,-0.03922974823489785,-0.018384382474422454,0.030725977653265
1733861761884537000,10.680537109375,-0.04685308272019029,-0.04203764526247978,0.018401333609223365
1733861761894487800,10.69048779296875,-0.04772080546543002,-0.03715221130847931,0.03188625360429287
1733861761904439000,10.70043896484375,-0.053393152013421055,-0.031195348730683324,0.03752630531787872
1733861761914389800,10.7103896484375,-0.052963528424501416,-0.033110242441296574,0.0331003055691719
1733861761924341000,10.720341064453125,-0.033362171375751495,-0.027625673550367352,0.02333236027061939
1733861761934291700,10.730291748046875,-0.009747487032413482,-0.028528759869933126,0.035066637206077576
1733861761944243000,10.740242919921876,0.01210237959548831,-0.026241525715589523,0.04369534934163093
1733861761954194000,10.75019384765625,0.02890110031366348,-0.042642625418305394,0.04019523226618767
1733861761964145000,10.760144775390625,0.04555120634138584,-0.025378186884522435,0.04560147522389889
1733861761974096000,10.770095947265625,0.009946808996796607,-0.013211948272585868,0.052068040889501566
1733861761984046800,10.780046875,-0.004933949270844459,-0.04563830010294914,0.05435761313140392
1733861761993997800,10.789997802734375,-0.02078895939812064,-0.023874796584248542,0.032256840482354165
1733861762003948800,10.79994873046875,-0.024156536135077476,-0.031979192584753034,0.0307563727915287
1733861762013899800,10.809899658203125,-0.03763312669321894,-0.03850888661444187,0.04528057270646095
1733861762023851000,10.81985107421875,-0.041794338025897736,-0.024180501532554625,0.0472521650403738
1733861762033801700,10.8298017578125,-0.032105303182452916,-0.013524082961678504,0.04474339708983898
1733861762043753000,10.8397529296875,-0.018611615359038113,-0.03479892618060112,0.04771685994267463
1733861762053703700,10.84970361328125,-0.004627659800648689,-0.026601006677746772,0.03997194490432739
1733861762063655000,10.859655029296874,0.012076952893286943,-0.022180267626047134,0.039143092864751816
1733861762073606000,10.86960595703125,0.0033213995076715945,-0.036003625795245166,0.0543804094851017
1733861762083556900,10.879556884765625,0.0022520167104899884,-0.031336218506097795,0.05190495928227901
1733861762093507800,10.8895078125,0.01028349360525608,-0.026232173365354536,0.042433366581797596
1733861762103458800,10.899458740234374,-0.014113281026482582,-0.02661678876876831,0.03270283068418502
1733861762113409800,10.909409912109375,-0.02788622418269515,-0.041271921586990355,0.032062779214978215
1733861762123360800,10.91936083984375,-0.034872575938701626,-0.02946808654665947,0.03540390633642673
1733861762133312000,10.92931201171875,-0.03217719937488436,-0.025241408762335774,0.047747839602828024
1733861762143263000,10.939262939453124,-0.011121551864594221,-0.02352057631909847,0.0516787493109703
1733861762153214000,10.9492138671875,-0.004801116671413183,-0.034246552994847294,0.04849719666540622
1733861762163165000,10.9591650390625,-0.018847177680581806,-0.022443302476406097,0.04649111754000187
1733861762173117000,10.969116943359374,-0.019415332957357166,-0.034165888974070545,0.04446516467034817
1733861762183068000,10.97906787109375,-0.05249401121661067,-0.0264168822824955,0.018678396984934807
1733861762193019000,10.989018798828125,-0.04002849739715457,-0.02871113069951534,0.024736381849646567
1733861762202969900,10.998969970703126,-0.047977410575002426,-0.0386035791605711,0.03030512189269066
1733861762212920800,11.0089208984375,-0.037544425496459005,-0.025656419304013252,0.053288522595167157
1733861762222871800,11.018871826171875,-0.023444734603911638,-0.05149053326249122,0.035242578294873234
1733861762232822800,11.02882275390625,0.0014355857610702514,-0.03539864563941955,0.03876198459267616
1733861762242773800,11.038773681640626,-0.010140724133700131,-0.015576339316368102,0.054308513292670245
1733861762252725000,11.04872509765625,0.0034575931079685687,-0.023961305823922155,0.05183014048039913
1733861762262675700,11.05867578125,0.013808891252428292,-0.016188333734869956,0.06320142932236195
1733861762272627000,11.068626953125,0.020142185927182435,-0.02615443195402622,0.03215104202032089
1733861762282577700,11.07857763671875,0.002821487161517143,-0.036945290559530254,0.02893207997381687
1733861762292529000,11.08852880859375,-0.016845920860767364,-0.03278933992385864,0.04206862492263317
1733861762302480000,11.09847998046875,-0.02022153477370739,-0.021685177585482596,0.05586743317246437
1733861762312430800,11.108430908203125,-0.008043605723977089,-0.03350888637006283,0.048640989050269125
1733861762322382000,11.118382080078124,-0.016038111609220505,-0.04506371508538723,0.04873158994317055
1733861762332332800,11.128332763671875,-0.020216420207172632,-0.031794483667612075,0.04461012609899044
1733861762342284000,11.138283935546875,-0.03377484382987022,-0.041811435291171074,0.041729017704725264
1733861762352234800,11.14823486328125,-0.039633945121616124,-0.020396891340613364,0.03704290571510792
1733861762362186000,11.15818603515625,-0.027138620685786007,-0.033873628029227255,0.04163490968048572
1733861762372136700,11.16813671875,-0.01738528843447566,-0.030889059260487555,0.03098082919716835
1733861762382088000,11.178087890625,0.0005268003530800342,-0.027834347864985464,0.06562836420834064
1733861762392039000,11.188038818359376,0.05086801744997501,-0.030115152278542518,0.0588812280356884
1733861762401990000,11.197989990234374,0.08364668984934687,-0.01621463721990585,0.05222118562459945
1733861762411940900,11.20794091796875,0.05492533001676202,-0.0004594342052936554,0.050692660883069035
1733861762421891800,11.217891845703125,-0.020127280618995425,-0.023746201768517494,0.037089667466282845
1733861762431842800,11.2278427734375,-0.08650105636715888,-0.0352004927188158,0.05164776965081692
1733861762441793800,11.237793701171874,-0.1254834057122469,-0.059763856089115136,0.03720715636610985
1733861762451744800,11.247744873046875,-0.1126933361135423,-0.055114568978548044,0.033977672925591465
1733861762461697800,11.25769775390625,-0.04027487337365746,-0.06284428644776344,0.039563364103436464
1733861762471648800,11.267648681640624,0.01835807898938656,-0.04544423883557319,0.039355274310708045
1733861762481599700,11.277599853515625,0.05287482722774148,-0.027674773389101025,0.02929331450164318
1733861762491550700,11.28755078125,0.05026771346926689,-0.0026689269483089447,0.04692717086970806
1733861762501501700,11.297501708984376,0.021079028385877607,-0.003769581666588783,0.03926408889591693
1733861762511452700,11.30745263671875,-0.03056917965635657,-0.008182137411832808,0.0481453144878149
1733861762521404000,11.31740380859375,-0.07217851650416851,-0.0408516503483057,0.03202770790159702
1733861762531354600,11.327354736328125,-0.08028744254931806,-0.0380108739644289,0.011219313150644302
1733861762541305900,11.337305908203126,-0.07304229372665286,-0.04593289913535118,0.038810499909520145
1733861762551256800,11.3472568359375,-0.023346242665499447,-0.03479483452737331,0.04243804275691509
1733861762561207800,11.357207763671875,-0.0011268120728433132,-0.034116789135336875,0.044588498789072034
1733861762571158800,11.36715869140625,-0.0016370996825397013,-0.03920972836017608,0.027833178821206093
1733861762581109800,11.37710986328125,-0.01583630542680621,-0.04914075526595115,0.04263151950240135
1733861762591061000,11.38706103515625,-0.06130071026757359,-0.034005145454406735,0.03351648515462875
1733861762601011700,11.39701171875,-0.06587927022948861,-0.0362549702078104,0.0313444018125534
1733861762610963000,11.406962890625,-0.07634805727377533,-0.043003859946131706,0.04676292021870613
1733861762620913700,11.41691357421875,-0.05138122766911983,-0.025384616625308987,0.04130991550981998
1733861762630865000,11.426864990234375,-0.07190832126066088,-0.057872927775979036,0.026292379119992253
1733861762640815600,11.436815673828125,-0.05857976087108254,-0.03576747895181179,0.04441021961271763
1733861762650766800,11.446766845703126,-0.0315725114800036,-0.02514671621620655,0.04495440949201584
1733861762660717800,11.4567177734375,-0.028717560440301892,-0.019590835654735565,0.06036825172305107
1733861762670668800,11.466668701171875,0.007936492087692022,-0.022631518524885177,0.06266951440274715
1733861762680619800,11.476619873046875,0.03130217010602355,0.0020475801795721052,0.05500175625383854
1733861762690570800,11.48657080078125,0.034870237851142884,-0.03518237254023552,0.029274025279283522
1733861762700521700,11.496521728515624,0.017014993817359207,-0.023262802165746686,0.0396796839594841
1733861762710472700,11.50647265625,-0.010086948119848966,-0.021574118426442145,0.04075169710516929
1733861762720425000,11.516425048828125,0.007894698772579431,-0.02899871546924114,0.004605447968840598
1733861762730375700,11.526375732421876,0.008065379164367914,-0.02577098559439182,0.008331775015592575
1733861762740327000,11.536326904296875,0.027808775032311675,-0.048830958664417265,0.03518003445267677
1733861762750277600,11.546277587890625,0.04772913490235805,-0.03806815710961819,0.045526656422019
1733861762760228900,11.556228759765625,0.02844210449978709,-0.05489712683558464,0.03944996685683727
1733861762770179800,11.566179931640624,-0.026382395491003987,-0.052691141223907466,0.05365560234189033
1733861762780130800,11.576130859375,-0.04486731573045254,-0.042079730838537215,0.04842237786352634
1733861762790081800,11.586081787109375,-0.05183364761173725,-0.02590776371657848,0.06716974843144416
1733861762800032800,11.59603271484375,-0.020663579452782868,-0.02514145551919937,0.07701543514132499
1733861762809983700,11.605983642578124,0.01626943614706397,-0.015413842231035231,0.06773322753310203
1733861762819934700,11.615934814453125,0.016068506747484206,-0.025493337696790692,0.06112871470153331
1733861762829885700,11.6258857421875,-0.0061129299223423,-0.025934651723504065,0.05811024366319179
1733861762839837000,11.6358369140625,-0.054522448304295534,-0.02354161910712719,0.04550210650265216
1733861762849787600,11.64578759765625,-0.07652458288446068,-0.026765841850638388,0.043053544306755065
1733861762859739000,11.65573876953125,-0.08951265927329659,-0.030748189485073088,0.051100657162070275
1733861762869689600,11.665689697265625,-0.08604396024942397,-0.0312923793643713,0.027172084563970564
1733861762879640800,11.675640869140626,-0.07113207619115709,-0.02964052050411701,0.020804303097724915
1733861762889591800,11.685591796875,-0.07018178972899913,-0.03164250797629356,0.01730652410984039
1733861762899542800,11.695542724609375,-0.07805296149551869,-0.036541385933756824,0.008362754675745964
1733861762909493800,11.70549365234375,-0.049157706400752066,-0.03112812871336937,-0.002717442265152931
1733861762919444700,11.71544482421875,-0.023780104038119313,-0.028629882156848904,0.02709375863075256
1733861762929395700,11.725395751953124,-0.010938596513122319,-0.04147358163893223,0.05471358696222305
1733861762939346700,11.7353466796875,0.012878040143102407,-0.041456630504131314,0.03644961599707603
1733861762949297700,11.745297607421875,0.0068709086827933785,-0.048311903226375574,0.0352180283755064
1733861762959249000,11.755248779296876,-0.017774287752062082,-0.04172375700771808,0.043857261905074114
1733861762969199900,11.765199951171875,-0.033018034113198515,-0.044103930142521855,0.06043021104335784
1733861762979151600,11.775151611328125,-0.004687134902924299,-0.033628713357448575,0.04841945525407791
1733861762989102800,11.785102783203126,0.0031162323243916035,-0.029863807865977286,0.06335398953557014
1733861762999053800,11.7950537109375,0.0012282266207039355,-0.032521628898382185,0.055258945885300635
1733861763009004800,11.8050048828125,-0.025778584378957747,-0.029272856235504147,0.04195230506658554
1733861763018955800,11.814955810546875,-0.059764440611004825,-0.031105916881561276,0.04519523251056671
1733861763028906800,11.82490673828125,-0.10502104791998862,-0.035949265259504315,0.028043022179603576
1733861763038857700,11.834857666015624,-0.13367270351722835,-0.04699906706213951,0.034816461837291715
1733861763048808700,11.84480859375,-0.13550912516415117,-0.030331425377726554,0.026358430093526838
1733861763058759700,11.854759765625,-0.11048238206580281,-0.03450958784520626,0.036247955945134164
1733861763068711000,11.8647109375,-0.10890753396451473,-0.048107320564985276,0.0316670578956604
1733861763078661600,11.87466162109375,-0.07996011029109358,-0.04323416157066822,0.02439560558795929
1733861763088612900,11.88461279296875,-0.033598318219184874,-0.02220306397974491,0.04163198707103729
1733861763098563600,11.8945634765625,0.00037453240081667896,-0.005180617508292198,0.04268763360381126
1733861763108514800,11.904514892578124,0.036852205448597665,-0.03131634476184845,0.03301905702650547
1733861763118465800,11.9144658203125,0.03650222296714783,0.000488075777888298,0.0357844300866127
1733861763128416800,11.924416748046875,0.08397051497623324,-0.008167524364590645,0.045377018818259236
