time,seconds_elapsed,z,y,x
1733862064731143200,0.01714306640625,-0.04333046155199408,-0.04311550362706184,0.046749476215243335
1733862064741094400,0.027094482421875,-0.10695347728729247,-0.010540683236718177,0.055366497913002966
1733862064751045400,0.03704541015625,-0.16037103308960796,0.027266192588210104,0.033656185886263845
1733862064760996400,0.046996337890625,-0.15948255981728435,-0.044915831047296524,0.016480010157823563
1733862064770947600,0.056947509765625,-0.07797171295285224,-0.008492518535256385,0.019953239226341245
1733862064780898300,0.066898193359375,0.015070874012261629,-0.025846388918161392,0.02581073308289051
1733862064790849500,0.076849609375,0.11617036457434296,-0.023252865293622017,0.019722353079915045
1733862064800800300,0.08680029296875,0.12340849913433194,0.02139525472819805,0.0686976886510849
1733862064810751500,0.09675146484375,0.09398527464270591,-0.011567688196897507,0.0914718305170536
1733862064820702500,0.106702392578125,0.04400236946418881,-0.016393500918149947,0.060469958531856535
1733862064830653400,0.1166533203125,0.008702946415543556,-0.04432721750438213,0.06205518189668655
1733862064840604400,0.1266044921875,0.0382930519066751,-0.051986207824945445,0.029492636466026304
1733862064850555400,0.136555419921875,0.03006663696169853,-0.023915713116526603,0.0493915151566267
1733862064860506600,0.146506591796875,0.04680544418618083,-0.006028758770227432,0.04387596660554409
1733862064870457300,0.156457275390625,0.0682616353213787,-0.029100422278046607,0.013570260190963744
1733862064880408600,0.16640869140625,0.036141572961211205,-0.03722819915413856,0.02089607303440571
1733862064890359300,0.176359375,-0.028733488661795852,-0.038403088152408595,0.010817162090539931
1733862064900310500,0.186310546875,-0.1125467672497034,-0.02412847908437252,0.035059038421511646
1733862064910261500,0.196261474609375,-0.19354688811302184,-0.02123918738365173,0.05974515138864517
1733862064920212500,0.20621240234375,-0.24220672799423335,-0.04017068234682083,0.055979076853394504
1733862064930163500,0.21616357421875,-0.22092706246972083,-0.07059153957366943,0.019610709398984908
1733862064940114400,0.226114501953125,-0.14265958144068716,-0.0661135173767805,0.03709726625084877
1733862064950065400,0.2360654296875,-0.1586566303871572,-0.04816927988529205,0.043354573079943656
1733862064960017400,0.246017333984375,-0.10729030802622437,-0.04317863199114799,0.024096914902329444
1733862064969967400,0.25596728515625,-0.03292129574045539,-0.007542085942625999,0.03366904536783695
1733862064979919400,0.26591943359375,-0.04449029911160469,0.0014367548048496246,0.05289981553852558
1733862064989870600,0.27587060546875,-0.06776172297522426,-0.01469020413160324,0.01698328350484371
1733862064999821300,0.2858212890625,-0.06224734346792102,-0.03891396028399467,0.03329027518332004
1733862065009772500,0.2957724609375,-0.021795652222633362,-0.014413140755891798,0.05742693757414818
1733862065019723500,0.3057236328125,-0.0012679741092026233,0.008290858483314513,0.07138648934364318
1733862065029674500,0.315674560546875,0.02134483971521258,-0.0037210663497447964,0.07838730801641941
1733862065039625500,0.32562548828125,0.03588745206966996,0.011418050593137741,0.060845806106925006
1733862065049576400,0.335576416015625,0.01472659061923623,-0.03391396003961563,0.04392857357561588
1733862065059527400,0.34552734375,-0.0015747019708156585,-0.03853635914325714,0.040398645883798594
1733862065069478400,0.355478515625,-0.023756138640642164,-0.021025836893916128,0.033410102170705794
1733862065079429400,0.365429443359375,-0.04520473099127412,-0.015035656568408011,0.029786650976538657
1733862065089380600,0.375380615234375,-0.055333764687180514,-0.014188099828362465,0.06920972982645035
1733862065099331300,0.385331298828125,-0.07769158083721994,-0.003920388314127922,0.04513736484348774
1733862065109282600,0.395282470703125,-0.07413125800713896,-0.04513853388726711,0.025176526832580565
1733862065119233300,0.4052333984375,-0.07100596559345722,-0.04965922618210315,0.05474807375371456
1733862065129184500,0.4151845703125,-0.01822597704231739,0.015281740283966063,0.061463645744323725
1733862065139135500,0.425135498046875,-0.05946881866529584,-0.0052589434415102,0.07505085707008838
1733862065149086500,0.43508642578125,-0.08253346791043877,-0.028318331989645958,0.03269932355284691
1733862065159037400,0.445037353515625,-0.13897943162322043,-0.038571430456638335,0.0641442631304264
1733862065168988400,0.454988525390625,-0.15605799219608307,-0.06313011765182018,0.07310849083065986
1733862065178939400,0.464939453125,-0.16899273096248507,-0.07917348995804786,0.034621231526136394
1733862065188890400,0.474890380859375,-0.18891849766001104,-0.05001227740347385,0.09780921684503555
1733862065198841300,0.48484130859375,-0.22843349257707596,-0.03324059082269668,0.1786000788718462
1733862065208792600,0.49479248046875,-0.3330576501339674,-0.032170915764570235,0.17101532283127308
1733862065218743300,0.504743408203125,-0.40154724899232386,-0.013227145841717719,0.13834697893857956
1733862065228694500,0.514694580078125,-0.32264395427778364,-0.03356850760281086,0.11307634408175944
1733862065238645500,0.5246455078125,-0.10828735623955726,-0.0230704944640398,0.0371568874835968
1733862065248596500,0.534596435546875,0.1335223352611065,-0.010545943933725356,-0.001342062258720398
1733862065258547500,0.54454736328125,0.26146774717271326,-0.0371785147935152,-0.0007347440153360367
1733862065268498400,0.55449853515625,0.3415373091876507,0.001107084459066391,-0.07803776392638682
1733862065278449400,0.564449462890625,0.2516037941537797,0.025397476106882092,-0.13558102135658262
1733862065288400400,0.574400390625,-0.4945627287548035,0.0832236421316862,-0.06382686774432658
1733862065298351600,0.5843515625,-1.0760831716030836,0.10386837075352669,0.14761924967467785
1733862065308302300,0.59430224609375,0.474911248954013,-0.38191783489286896,-0.2822550991356373
1733862065318253600,0.604253662109375,0.4816507132768631,0.06311141295135021,-0.04625087904334068
1733862065328204300,0.614204345703125,-0.16352701290249824,0.081359017303586,0.21679040105640887
1733862065338155500,0.624155517578125,-0.008178045758605004,-0.0624713614821434,0.08867723136246204
1733862065348106500,0.6341064453125,0.3395340065412223,-0.061169631233811375,0.02590484110713005
1733862065358057500,0.644057373046875,0.3748761727530509,-0.027105449068546294,0.05075871185660362
1733862065368008400,0.654008544921875,0.16718217440918087,-0.01728314323425293,0.061602177432179446
1733862065377959400,0.66395947265625,-0.014552256965637207,-0.03866963013410568,0.055172436645627015
1733862065387910400,0.673910400390625,-0.0585538227122277,-0.03212941471040249,0.041699791610240934
1733862065397861400,0.683861328125,-0.06448503939211368,-0.024010405662655828,0.0161035780608654
1733862065407812400,0.693812255859375,-0.11423019029200077,-0.040215690532326695,0.038349896660447115
1733862065417763600,0.703763671875,-0.09507657701075077,-0.030298692151904106,0.034845103409886356
1733862065427714300,0.71371435546875,-0.0634469285160303,-0.02807633992731571,0.04756546877324581
1733862065437665500,0.72366552734375,-0.04401990512087941,-0.0033650925189256664,0.050638300347328184
1733862065447616300,0.7336162109375,-0.011355506750941276,-0.02418283962011337,0.003083352968096733
1733862065457567500,0.7435673828125,0.008520575585961341,-0.026206454402208326,0.043318332722783084
1733862065467518200,0.753518310546875,-0.03557823999002575,-0.004582067093253136,0.04806348142325878
1733862065477469400,0.763469482421875,-0.03320778453163802,-0.025237901630997657,0.01864507923722267
1733862065487420400,0.77342041015625,-0.072688146526739,-0.037488895916938776,0.053366264006495474
1733862065497371400,0.783371337890625,-0.07762969458214938,-0.051935938942432404,0.03782850313484668
1733862065507322600,0.793322509765625,-0.03308561945669353,-0.0299327814489603,0.07467676306068897
1733862065517273300,0.8032734375,-0.0000624707769602537,-0.032033553120493885,0.10848492463827132
1733862065527224600,0.813224609375,0.03591872399076819,-0.015473463463783263,0.06999415820240974
1733862065537175300,0.82317529296875,0.05838964512646198,-0.020730068817734718,0.043325931507349015
1733862065547126500,0.83312646484375,0.01935527333319187,-0.014630582898855209,0.06277589738667011
1733862065557077500,0.843077392578125,0.009317863443493843,-0.00975450129508972,0.09083353261351584
1733862065567028500,0.853028564453125,0.02158990051746368,0.006219312906265258,0.06198562379181385
1733862065576979500,0.8629794921875,-0.03861110487990081,-0.012018939095735549,0.06880114902555942
1733862065586930400,0.872930419921875,-0.06899396818391978,-0.06359831968545913,0.05322597875297069
1733862065596881400,0.88288134765625,-0.0935410380065441,-0.04813713118135929,0.07172960369288921
1733862065606832400,0.892832275390625,-0.10235212097167969,-0.039839258435368535,0.06878244432508945
1733862065616783400,0.902783447265625,-0.08715878962352872,-0.034191607937216754,0.046807928404211996
1733862065626734600,0.912734619140625,-0.10211948125958442,-0.0314841025441885,0.08408347383141516
1733862065636685300,0.922685302734375,-0.07671265280246733,-0.03294190013706684,0.06945698258578777
1733862065646636500,0.932636474609375,-0.05643617297112941,-0.013444003462791442,0.040024551874399183
1733862065656587300,0.942587158203125,-0.06906886005103588,-0.021852935367822644,0.029330139380693433
1733862065666538500,0.95253857421875,-0.10449782776348292,-0.021824293795228003,-0.011838321831822395
1733862065676489500,0.962489501953125,-0.12433540472090243,-0.017179098337888717,-0.07809621611535549
1733862065686440400,0.9724404296875,-0.11159180461242794,-0.1119850417137146,0.01955050364434719
1733862065696392400,0.982392333984375,-0.11300517854169011,0.018200842601060866,0.1941273183494806
1733862065706342400,0.99234228515625,-0.022832155663520096,-0.02320259641110897,0.06004267303049564
1733862065716294400,1.00229443359375,-0.12241130479052661,-0.04587736955583095,0.06709960580468177
1733862065726244400,1.012244384765625,-0.06199965231716632,0.10797814415991305,-0.2138087548971176
1733862065736196600,1.022196533203125,0.003361073930934071,-0.006805588361620903,-0.008778934261202812
1733862065746147600,1.032147705078125,-0.060807739118859165,-0.17689736660718916,0.14022504777014255
1733862065756098800,1.042098876953125,-0.08550254684910177,-0.010268880558013916,-0.0016074351966381072
1733862065766049500,1.052049560546875,-0.06092924660667777,-0.051287119644880294,0.1080588081806898
1733862065776000800,1.062000732421875,-0.08921148436963558,-0.009434183299541472,0.050068391504883764
1733862065785951500,1.071951416015625,-0.10503741453289984,-0.005825929674506187,0.018240005567669866
1733862065795902700,1.08190283203125,-0.07038213460668921,-0.03033025633394718,0.06063304013907909
1733862065805854000,1.09185400390625,-0.020192893201112744,0.024323124873638153,-0.017795184409618376
1733862065815804700,1.1018046875,0.04756415359899401,0.009714753806591033,-0.06292085881531238
1733862065825756000,1.111755859375,0.04953304251916706,-0.05412731150686741,0.03323357656002045
1733862065835706600,1.12170654296875,-0.023961232758685946,-0.013809914165735244,0.00419452908039093
1733862065845657900,1.131657958984375,-0.08607713186666369,-0.027854806131124496,0.06391162341833115
1733862065855608600,1.141608642578125,-0.10014664681665598,-0.03544248478114605,0.053665539214015005
1733862065865559800,1.151559814453125,-0.07924772423803805,-0.019772621962428093,0.04361526984274387
1733862065875510800,1.1615107421875,-0.05663542187027633,-0.016487608942389487,0.04392155931293964
1733862065885461800,1.171461669921875,-0.023235914158821105,-0.043111411973834037,0.04909165542721748
1733862065895412700,1.181412841796875,-0.009834580793976783,-0.01148994678556919,0.04685059850215911
1733862065905363700,1.19136376953125,-0.013294511989504099,-0.021990298011898994,0.04725041147470474
1733862065915314700,1.201314697265625,-0.049898222569748754,-0.03351239350140094,0.03201426389813423
1733862065925265700,1.211265625,-0.06016176936551928,-0.031283027014136315,0.0403723423987627
1733862065935216600,1.221216552734375,-0.059497314107418056,-0.028984686943888664,0.04172375700771808
1733862065945168000,1.23116796875,-0.07026537635922432,-0.01899111619591713,0.03487900567948818
1733862065955118600,1.24111865234375,-0.06245733295679092,-0.021944120782613753,0.022429858472943303
1733862065965069800,1.25106982421875,-0.06464680582508445,-0.02356149285137653,0.04482230754494667
1733862065975020500,1.2610205078125,-0.0537958145301789,-0.011478840869665146,0.03897241247296333
1733862065984971800,1.2709716796875,-0.049669163054227826,-0.014374562311172484,0.029422493839263913
1733862065994922800,1.2809228515625,-0.062456602304428815,-0.023663784182071684,0.03190963447988033
1733862066004873700,1.290873779296875,-0.055753013012558215,-0.02692307823896408,0.03505085511505603
1733862066014824700,1.30082470703125,-0.05017024444416165,-0.01821720921397209,0.03977262293994426
1733862066024775700,1.310775634765625,-0.03719955758154392,-0.04125204784274101,0.03680851243734359
1733862066034726700,1.3207265625,-0.04473572524003684,-0.018976503148674963,0.028097967237234112
1733862066044677600,1.330677734375,-0.040132103902101514,-0.025937574332952497,0.025078911677002904
1733862066054628600,1.340628662109375,-0.06742036219164729,-0.023097382470965384,0.043863107123970985
1733862066064579800,1.350579833984375,-0.044471448280662296,-0.025754618981480598,0.05023907189667225
1733862066074530800,1.36053076171875,-0.00904781433045864,-0.0382113649725914,0.04240881666243076
1733862066084481800,1.370481689453125,0.005060790520906448,-0.031003041028976438,0.036246786901354786
1733862066094432800,1.380432861328125,0.010351298144459724,-0.025679800179600715,0.03102349929511547
1733862066104383700,1.3903837890625,0.005692074161767959,-0.031218729606270788,0.0488771358937025
1733862066114334700,1.400334716796875,-0.026281857725977895,-0.0299023863106966,0.04068389256596565
1733862066124285700,1.41028564453125,-0.05638531956672668,-0.02361468434333801,0.04031330568790435
1733862066134237000,1.42023681640625,-0.07456321968361734,-0.03013034984767437,0.035900165420770645
1733862066144187600,1.430187744140625,-0.08224690605401992,-0.026718495577573775,0.03640226972401142
1733862066154139000,1.440138916015625,-0.06580956599414348,-0.026073183411359786,0.040808395728468894
1733862066164089600,1.450089599609375,-0.02819258671812713,-0.021635493224859238,0.046079029607772826
1733862066174040800,1.460040771484375,-0.016993220376968383,-0.030897242566943168,0.048151744228601454
1733862066183991600,1.469991455078125,0.01566935136206448,-0.01419043791592121,0.05054711493253707
1733862066193942800,1.47994287109375,0.0007528641939163207,-0.02126023017168045,0.04384557146728039
1733862066203893800,1.489893798828125,-0.04186513823978603,-0.03636076866984367,0.03223696673810482
1733862066213844700,1.4998447265625,-0.06242978736273944,-0.029735213050246238,0.04036708170175552
1733862066223795700,1.509795654296875,-0.0776642544388771,-0.026972178077697754,0.038591888722777364
1733862066233746700,1.51974658203125,-0.0476997626774013,-0.015408581534028052,0.04796177461445331
1733862066243697700,1.52969775390625,-0.04500760098397732,-0.017338088291883467,0.044888358518481254
1733862066253648600,1.539648681640625,-0.041567105141282076,-0.032200141859054565,0.028455694633722304
1733862066263599600,1.549599609375,-0.03615319033376872,-0.02316518701016903,0.03352525298297405
1733862066273550800,1.55955078125,-0.029071780705451963,-0.02219429615139961,0.04727729948163032
1733862066283501600,1.56950146484375,0.0045082712046802045,-0.029521278038620948,0.057435120880603784
1733862066293452800,1.579452880859375,-0.006772782070562243,-0.03035246816575527,0.04692717086970806
1733862066303403500,1.589403564453125,-0.01156184297800064,-0.02652618787586689,0.06115034201145172
1733862066313354800,1.599354736328125,-0.025869769793748856,-0.01647884111404419,0.05880933184325695
1733862066323305700,1.6093056640625,-0.024704233145713805,-0.029345336949825284,0.050368835756182666
1733862066333256700,1.619256591796875,-0.006683934743329882,-0.029352351212501526,0.049565118157863616
1733862066343208000,1.6292080078125,-0.018595833268016577,-0.028370354437828062,0.0388473247885704
1733862066353158700,1.63915869140625,-0.052602293896675104,-0.024520693272352217,0.0334796602755785
1733862066363110000,1.64910986328125,-0.07404832896403968,-0.025174773266911504,0.023040683847665784
1733862066373060600,1.659060546875,-0.09773081784658133,-0.0299590849339962,0.03502805876135826
1733862066383011800,1.66901171875,-0.05616137461774051,-0.02863105120062828,0.056578211790323255
1733862066392962800,1.678962890625,-0.02814823611974716,-0.03369710241854191,0.04413607884645462
1733862066402913800,1.688913818359375,-0.03615092531144619,-0.021889760246872902,0.05033317992091178
1733862066412864800,1.69886474609375,-0.021268998000025748,-0.019746318477392194,0.0510819524616003
1733862066422815700,1.708815673828125,-0.006066168171167373,-0.02689735927581787,0.047075639429688454
1733862066432766700,1.7187666015625,-0.02620689279362559,-0.031080197918415067,0.029470424634218215
1733862066442717700,1.7287177734375,-0.04312777858674526,-0.023651509222388265,0.03054243777990341
1733862066452668700,1.738668701171875,-0.057605216750502584,-0.03407178094983101,0.029576807618141174
1733862066462620000,1.748619873046875,-0.05541676679551601,-0.03191840230822563,0.04292494949102402
1733862066472570600,1.758570556640625,-0.059171150892972944,-0.023445172995328903,0.054147769773006435
1733862066482521900,1.76852197265625,-0.04395896871387958,-0.03551145836412906,0.05518471160531044
1733862066492472600,1.77847265625,-0.020352613807469604,-0.02489011110663414,0.04536240577101707
1733862066502423800,1.788423828125,-0.025476532692462205,-0.008410685470700263,0.055175359255075454
1733862066512374500,1.79837451171875,-0.015375190721079707,-0.0352180283755064,0.03267477363348007
1733862066522325800,1.80832568359375,-0.02562427060008049,0.027314123383164406,0.06055705229341984
1733862066532277800,1.81827783203125,-0.03597030804753303,0.06885492503941058,0.09927227513492107
1733862066542227700,1.828227783203125,-0.037834859810397026,-0.01624094070494175,0.07799626287221909
1733862066552179700,1.8381796875,-0.1389016902118921,0.1732014346987009,0.11613748521804809
1733862066562130700,1.848130615234375,-0.12597206601202487,0.007923194214701652,0.10893325292766094
1733862066572082000,1.85808203125,-0.2613761233665049,-0.2549304543584585,-0.15064824210703373
1733862066582032600,1.86803271484375,-0.3081085023164749,-0.7525824543654919,-0.653746232560277
1733862066591983900,1.87798388671875,-0.23731135716810822,0.04361526984274387,0.3747591953098774
1733862066601934600,1.8879345703125,0.259290841525048,0.574649314969778,0.38740474187135693
1733862066611885800,1.8978857421875,0.484352227320522,0.05822188734412193,0.19971008691787717
1733862066621836500,1.90783642578125,0.41115510835833846,-0.3886696472406387,-0.19469138197302818
1733862066631787800,1.917787841796875,0.04260872314870357,-0.09647826050221919,-0.16736556815207004
1733862066641738800,1.92773876953125,-0.22049451627135275,0.2458639353275299,0.0807879394173622
1733862066651689700,1.937689697265625,0.07035071655511856,-0.15971359209418295,0.38066637352705
1733862066661640700,1.947640625,0.11618000918552279,-0.03161971162259578,0.10570201592147349
1733862066671591700,1.957591796875,0.04613908923193812,-0.04341711692214012,-0.051048634713888166
1733862066681542700,1.967542724609375,-0.09868249254822731,0.005896656823158264,0.010938742643594741
1733862066691493600,1.97749365234375,-0.13700257859230042,0.0345253699362278,0.010638298392295837
1733862066701444600,1.987444580078125,-0.10095153345875442,-0.04085048130452633,0.140414432862401
1733862066711395800,1.997395751953125,-0.15620923723503946,-0.010514964273571967,0.00036415713727474213
1733862066721346600,2.0073466796875,-0.21327552480325102,-0.01797930880486965,-0.05084872822761535
1733862066731297800,2.0172978515625,-0.1540033246885985,-0.015367665001749992,-0.005125087928771972
1733862066741248800,2.027248779296875,-0.09802198281288146,0.006285948401689529,0.0514870261311531
1733862066751199700,2.03719970703125,-0.1094129992686212,-0.021639584878087044,0.06142272921204567
1733862066761150700,2.047150634765625,-0.13761501140221952,-0.025779168900847433,0.0365513228058815
1733862066771101700,2.057101806640625,-0.09818506442010402,-0.005147884282469749,0.025181203007698057
1733862066781052700,2.067052734375,0.002305792724341154,-0.019115034836530684,0.05453589230775833
1733862066791003600,2.077003662109375,0.0435182392090559,-0.0383159943908453,0.05078852247297763
1733862066800954600,2.08695458984375,0.05313070168495178,-0.027086744368076322,0.04706628707945346
1733862066810905600,2.096905517578125,0.030403394635394213,-0.03861819220781326,0.05358604423701763
1733862066820856600,2.106856689453125,0.0038899931758642195,-0.04222352322340012,0.05370353313684463
1733862066830807800,2.116807861328125,0.0018798954624682663,-0.04825345103740692,0.04287058895528316
1733862066840758800,2.1267587890625,-0.00265073370449245,-0.012594108635187149,0.04152911121845245
1733862066850709800,2.136709716796875,0.007041735205054283,-0.027056933751702306,0.06913257293701172
1733862066860660700,2.14666064453125,0.007996259450912474,-0.0384206238090992,0.03677461016774177
1733862066870611700,2.15661181640625,-0.02745850028991699,-0.01986906807422638,0.016543138521909712
1733862066880562700,2.166562744140625,-0.04313946902453899,-0.021158523362874982,0.04090659540593624
1733862066890513700,2.176513671875,-0.04529986192882061,-0.01684533633887768,0.04228723610937595
1733862066900465000,2.18646484375,-0.049908817028999325,-0.03300678206682205,0.026599837633967397
1733862066910415600,2.19641552734375,-0.0658610039204359,-0.025532500663399696,0.02899579285979271
1733862066920366800,2.206366943359375,-0.09691723644137382,-0.030342531293630598,0.021727847683429717
1733862066930317600,2.216317626953125,-0.1185813712388277,-0.02261339834630489,0.045888475471734996
1733862066940268800,2.226268798828125,-0.09970496746376156,-0.031949966490268704,0.04302840986549854
1733862066950219500,2.236219482421875,-0.06293956351578235,-0.016597499057650567,0.04255202452540397
1733862066960170800,2.246170654296875,-0.036084874337911604,-0.0214367557823658,0.04166939647197723
1733862066970121700,2.256121826171875,-0.024485037437081334,-0.013406009539961815,0.03888414966762066
1733862066980072700,2.26607275390625,-0.043261634099483484,-0.030303368327021598,0.044350598379969595
1733862066990023700,2.276023681640625,-0.06618658261299133,-0.025068974804878234,0.02809504462778568
1733862066999974700,2.285974609375,-0.053251843846589327,-0.03085574151277542,0.036159693139791484
1733862067009925600,2.295925537109375,-0.02641629776060581,-0.0379325480312109,0.06223521463871002
1733862067019876600,2.305876708984375,-0.008177972693368792,-0.02261339834630489,0.05359305849969387
1733862067029827600,2.31582763671875,0.018338278310373424,-0.01721767678260803,0.04556465034484863
1733862067039778800,2.32577880859375,0.04004851727187633,-0.034388591814041136,0.045831776848435396
1733862067049729500,2.3357294921875,0.041684667106345295,-0.024048984107375142,0.04613865084052086
1733862067059680800,2.3456806640625,0.03644552434384823,-0.01500350786447525,0.04878653500080108
1733862067069631500,2.355631591796875,0.019819968235492706,-0.013965981510281562,0.056627311629056924
1733862067079582700,2.365582763671875,-0.004194675210863351,-0.020203999117016792,0.03570902676284313
1733862067089533700,2.37553369140625,0.006027151335030794,-0.04414017049968243,0.054880175700783726
1733862067099484700,2.385484619140625,-0.02215688675045967,-0.02522153501808643,0.04222527678906917
1733862067109436000,2.395435791015625,-0.051100657162070275,-0.020252514433860776,0.03474456564486027
1733862067119386600,2.40538671875,-0.07321370477080345,-0.02335457210242748,0.04069149135053157
1733862067129337900,2.415337890625,-0.07877265407219529,-0.030585692399740218,0.027608137893676755
1733862067139288600,2.42528857421875,-0.10154957241714001,-0.02478548168838024,0.03397358127236366
1733862067149239800,2.43523974609375,-0.08085165230333805,-0.01694412053823471,0.04080488859713077
1733862067159190500,2.4451904296875,-0.06032791971266269,-0.03170446729660034,0.02875438531935215
1733862067169141800,2.455141845703125,-0.04994637256041169,-0.02414543021917343,0.03517944993078709
1733862067179092700,2.4650927734375,-0.059439446440339085,-0.025130934125185012,0.033496026888489724
1733862067189043700,2.475043701171875,-0.061926587080955504,-0.0099906481385231,0.04638298099040985
1733862067198994700,2.48499462890625,-0.03518120349645614,-0.02043546978533268,0.05583586899042129
1733862067208945700,2.494945556640625,-0.01742006748691201,-0.02448620648086071,0.04873100542128086
1733862067218896600,2.504896728515625,-0.00916661840453744,-0.010199906975030898,0.031573534393310544
1733862067228847600,2.51484765625,0.02665244460403919,-0.02833352955877781,0.06254559576213359
1733862067238798600,2.524798583984375,0.03392740404307842,-0.026592238849401473,0.07454232302606105
1733862067248749800,2.534749755859375,0.022813962419703602,-0.030564065089821815,0.04393500331640243
1733862067258700500,2.544700439453125,-0.024865999578684565,-0.027681787651777267,0.04639057977497577
1733862067268651800,2.55465185546875,-0.061761751908063885,-0.03513561078906059,0.0496790999263525
1733862067278602500,2.5646025390625,-0.08758359090685844,-0.028099720802903173,0.05092530059516429
1733862067288554800,2.5745546875,-0.09647533789277077,-0.03602700667083263,0.05194762938022613
1733862067298505700,2.584505615234375,-0.09660334818661212,-0.031255554485321045,0.03775426885485649
1733862067308456700,2.594456787109375,-0.10726502745449543,-0.02719838804900646,0.04417757990062236
1733862067318407700,2.60440771484375,-0.11294029661193489,0.006408113476634025,0.01988075851202011
1733862067328358700,2.614358642578125,-0.10708031853735446,-0.03790098384916782,0.03254617881774902
1733862067338310000,2.624309814453125,-0.08930851500332355,-0.019732874473929404,0.019962007054686544
1733862067348260600,2.634260498046875,-0.10544555694237351,-0.016856442254781723,0.021674071669578552
1733862067358211800,2.6442119140625,-0.10037482954934239,-0.042590602970123285,0.0358539881914854
1733862067368162600,2.65416259765625,-0.09876315656900406,-0.05571954913437366,0.018406594306230543
1733862067378113800,2.66411376953125,-0.09115268156528472,-0.024974866780638694,0.06046352879106998
1733862067388064500,2.674064453125,-0.054129211203008884,-0.12678747404813764,-0.013667875346541404
1733862067398015700,2.684015625,-0.07587678650021552,0.05929799214303493,0.07049801607131957
1733862067407966700,2.693966796875,-0.12356734295785426,0.17096680751442908,0.08413783436715602
1733862067417917700,2.703917724609375,-0.18920812825635075,-0.06562602612078189,-0.0943909328341484
1733862067427868700,2.71386865234375,-0.20675649829804896,-0.16949848852753638,0.005278817185759544
1733862067437819600,2.723819580078125,0.10497384777739643,-0.26986849577128885,0.16496493675112722
1733862067447770600,2.7337705078125,0.30726255301162597,0.3935720323294401,0.05793956327140331
1733862067457721600,2.7437216796875,0.4724854100465774,-0.05940495964884757,0.3297849120736122
1733862067467672600,2.753672607421875,0.12185352477729319,-0.18110300160348414,-0.16708908929824828
1733862067477623800,2.763623779296875,-0.5501923345834017,0.00369651643037796,-0.5373328530102968
1733862067487574500,2.773574462890625,-0.3616263036228716,0.023100305080413816,0.32214871810674667
1733862067497525800,2.78352587890625,0.27461773612499235,-0.09793664261698723,0.31331366974413394
1733862067507476700,2.793476806640625,0.29928558278307316,-0.011693360403180121,-0.05741933878958225
1733862067517427700,2.803427734375,0.1893335082016885,-0.057301849889755244,0.07847557082176208
1733862067527378700,2.813378662109375,0.16386954272985457,-0.08430091597437858,-0.08634148189127444
1733862067537329700,2.82332958984375,0.01969780316054821,0.041807343637943264,0.2042968301862478
1733862067547281000,2.833281005859375,-0.018502382830902935,-0.012121814948320387,0.22794132514595983
1733862067557231600,2.843231689453125,-0.04532850350141525,-0.07455050633251667,0.010364742147922516
1733862067567182800,2.853182861328125,-0.059832756606861943,-0.08667933554351329,0.0016413374662399291
1733862067577133600,2.863133544921875,-0.0890219531469047,0.03472060024738312,-0.012652560824155806
1733862067587084800,2.873084716796875,-0.18814064515531062,-0.03599076631367206,-0.04120820870101451
1733862067597035500,2.883035400390625,-0.18430559703707694,-0.042349195429682726,0.12187807469666004
1733862067606986800,2.89298681640625,-0.05729658919274807,0.015021043521165846,0.13203238896429537
1733862067616937700,2.902937744140625,-0.029086393752694128,0.005671615895628929,0.03280979818999767
1733862067626888700,2.912888671875,-0.12837167449966072,-0.003750292444229126,-0.010347206491231917
1733862067636839700,2.922839599609375,-0.17644567731693386,-0.0405640655785799,-0.04271978230774402
1733862067646790700,2.932790771484375,-0.21415186924636362,-0.007694061633944511,0.02987666734755039
1733862067656741600,2.94274169921875,-0.1611725587308407,-0.012555530190467833,0.052313540083169935
1733862067666692600,2.952692626953125,-0.07749357404708862,0.03277998757362365,0.06378419764637946
1733862067676643600,2.9626435546875,-0.032222280625626445,-0.013333528825640678,0.028878303959965705
1733862067686594800,2.9725947265625,-0.04675174123756587,-0.04549509223997593,-0.01561784037053585
1733862067696545500,2.982545654296875,-0.11324760899543762,-0.0405512060970068,-0.009110942694544792
1733862067706496800,2.992496826171875,-0.11257358219139277,-0.05119008901119232,0.08574760765135288
1733862067716447500,3.002447509765625,-0.005187777901440859,-0.04400514594316482,0.10764145955145359
1733862067726398700,3.012398681640625,0.08994915099442005,-0.027899229794740674,0.11901391743719578
1733862067736349700,3.022349609375,0.17135609909296035,-0.01629413219690323,0.03866086230576038
1733862067746300700,3.03230078125,0.001344473411515355,-0.04397825793623924,-0.019298574709892272
1733862067756251600,3.042251708984375,-0.22949206171929834,-0.04819382980465889,-0.05750584802925587
1733862067766202600,3.05220263671875,-0.27962533515393734,-0.021923077994585035,0.08633096049726009
1733862067776153900,3.06215380859375,-0.19606150128245353,-0.03310965791940689,0.12304010421335697
1733862067786104600,3.0721044921875,-0.07853519205451011,-0.06632219169139862,0.0946130511522293
1733862067796055800,3.082055908203125,-0.02544482237994671,-0.010133271479606628,0.024855039793252945
1733862067806006800,3.0920068359375,0.028861352825164794,-0.045939913398027415,0.007188450199365615
1733862067815957800,3.101957763671875,0.00844590291455388,-0.02519289344549179,0.04493044409453869
1733862067825908700,3.11190869140625,0.00281681098639965,-0.010866261929273605,0.06487491549253463
1733862067835859700,3.121859619140625,0.026595161458849905,-0.047803369182348246,0.024154782569408416
1733862067845810700,3.131810791015625,0.031720980039983984,-0.026129297512769697,0.00670855772793293
1733862067855761700,3.14176171875,0.05553893187046051,-0.009870821151137351,-0.0018394903868436813
1733862067865712600,3.151712646484375,0.07029343340992927,0.026498130825161934,-0.010087678772211074
1733862067875664000,3.161663818359375,0.06330182095691561,0.04430792828202247,0.032952421531081195
1733862067885614600,3.171614501953125,0.10543722750544547,0.006911386823654175,0.05469137513041496
1733862067895565800,3.18156591796875,0.1203068798571825,0.001997311297059059,0.0491734884917736
1733862067905516500,3.1915166015625,0.08933079990036785,-0.022629764959216116,0.0339893633633852
1733862067915467800,3.2014677734375,0.02899520833790302,-0.029464579415321348,0.032331074762344356
1733862067925418500,3.21141845703125,-0.017030045256018637,-0.0326169059664011,0.046644846796989436
1733862067935369700,3.22136962890625,-0.025310382345318794,-0.04225391836166382,0.062357379713654515
1733862067945320700,3.23132080078125,-0.011352584141492842,-0.04219663521647453,0.06502747570574283
1733862067955271700,3.241271728515625,0.012982085039466618,-0.04316986416280269,0.05999065058231354
1733862067965222700,3.25122265625,0.013646248036623,-0.04536065220534801,0.06413900243341922
1733862067975173600,3.261173583984375,-0.00835807850062847,-0.040617841592431064,0.06085398941338062
1733862067985124600,3.27112451171875,-0.03949614408612251,-0.01970832455456257,0.06277706643044949
1733862067995076600,3.28107666015625,-0.07618263757899403,-0.03625672377347946,0.06684300069510936
1733862068005027800,3.29102783203125,-0.1257980246193707,-0.0483107341825962,0.03191021900177002
1733862068014978600,3.300978515625,-0.14027823926210403,-0.03325637291371822,0.02042494839131832
1733862068024929800,3.3109296875,-0.12461889783740043,-0.03468728249967098,0.04892565121054649
1733862068034880500,3.320880615234375,-0.08499591250121594,-0.03642681964337825,0.024913491982221602
1733862068044831700,3.330831787109375,-0.056651788483187554,-0.03259118700325489,0.010496844094991683
1733862068054782700,3.34078271484375,-0.06036942076683044,-0.0346995574593544,0.04463701410591602
1733862068064733700,3.350733642578125,-0.059192778202891344,-0.01006605146229267,0.040865094351768494
1733862068074684700,3.3606845703125,-0.06531915212869643,-0.018337620723247527,0.04325637340247631
1733862068084635600,3.3706357421875,-0.05708557679057121,-0.021422142735123634,0.04215396511852741
1733862068094586600,3.380586669921875,-0.07307341951727866,-0.01142681842148304,0.03105038730204105
1733862068104537600,3.39053759765625,-0.05825418217852711,-0.0268698867470026,0.046263738524913785
1733862068114488600,3.400488525390625,-0.04304002723805606,-0.014773790761828422,0.04693886130750179
1733862068124439800,3.410439697265625,-0.055709539197012777,-0.011230419066548347,0.03261047622561455
1733862068134390500,3.420390625,-0.055217371765896674,-0.019737550649046896,0.04411562058031559
1733862068144341800,3.430341796875,-0.05730937560908496,-0.020988427492976188,0.03935410526692867
1733862068154292500,3.44029248046875,-0.10175057488195598,-0.021664719319343564,0.05573182409405708
1733862068164243700,3.45024365234375,-0.1296960549712181,-0.03557926290333271,0.05800035354793071
1733862068174194700,3.460194580078125,-0.14783084659874438,-0.0229267020791769,0.04586860172748566
1733862068184145700,3.470145751953125,-0.12037051967792212,-0.02753916431069374,0.02972819878757
1733862068194097000,3.480096923828125,-0.08095620865635574,-0.017246318355202673,0.029379239219427106
1733862068204047600,3.490047607421875,-0.007936638218164444,-0.03217968359291553,0.027698738786578178
1733862068213998800,3.499998779296875,0.020569398363307116,0.0086661215364933,0.013214286360144614
1733862068223949600,3.509949462890625,0.03376147289164364,-0.008446925827860831,0.020899580165743826
1733862068233900800,3.51990087890625,0.022897549049928783,-0.0464373415261507,0.029061259311437604
1733862068243851800,3.529851806640625,0.007344590609148144,-0.05121230084300041,0.013159341302514076
1733862068253802800,3.539802734375,0.025150880934670567,0.011817863565683364,0.08902151475548743
1733862068263753700,3.549753662109375,0.04200564268901944,-0.014759762236475944,0.0726800362855196
1733862068273704700,3.55970458984375,-0.015346622213721274,-0.03005319295823574,0.021716741767525673
1733862068283655700,3.56965576171875,-0.06983166111707687,-0.04738426698744297,0.047203065201640124
1733862068293606700,3.579606689453125,-0.02424063422195613,-0.008653846576809883,0.07348083127439022
1733862068303557600,3.5895576171875,-0.007448562440276145,-0.02176116543114185,0.038002690657973286
1733862068313508900,3.5995087890625,0.021867986806482075,-0.03479717261493206,0.036060908940434455
1733862068323459600,3.60945947265625,-0.007419847802445292,-0.023115502649545667,0.04058101671338081
1733862068333410800,3.619410888671875,-0.01863280427753925,-0.030824177330732342,0.027333412605524063
1733862068343361500,3.629361572265625,-0.037974633607268334,-0.02400163783431053,0.04314063806831837
1733862068353312800,3.639312744140625,-0.04004676370620727,-0.03417991749942303,0.042536242434382435
1733862068363263500,3.649263427734375,-0.05392579758539796,-0.007285480833053588,0.05027063607871532
1733862068373214700,3.659214599609375,-0.06776026167050003,-0.024754502028226853,0.05024433259367943
1733862068383165700,3.669165771484375,-0.08449088558852672,-0.02207622272968292,0.052231707018613814
1733862068393116700,3.67911669921875,-0.07853161185793578,-0.022142273703217506,0.052476621690392494
1733862068403067600,3.689067626953125,-0.0476741167794913,-0.03120996177792549,0.05417056612670421
1733862068413018600,3.6990185546875,-0.04033895158581435,-0.028643326160311698,0.05149754752516746
1733862068422969600,3.708969482421875,-0.034237785166502,-0.029222587352991103,0.05869418103098869
1733862068432920600,3.718920654296875,-0.04153261834979057,-0.003914543095231056,0.04956920981109142
1733862068442871600,3.72887158203125,-0.04474164352416992,-0.026937106764316557,0.047346857586503026
1733862068452822800,3.73882275390625,-0.08313304123878479,-0.024500819528102874,0.028965982243418693
1733862068462773800,3.748773681640625,-0.11332535040676593,-0.026412790629267692,0.041620881155133245
1733862068472724700,3.758724853515625,-0.11078735636174677,-0.018363924208283422,0.052502925175428386
1733862068482675700,3.76867578125,-0.09833134102299809,-0.022816811963915825,0.042857729473710054
1733862068492626700,3.778626708984375,-0.1008218426644802,-0.02040098299384117,0.018480244064331054
1733862068502577700,3.78857763671875,-0.09429624028801918,-0.03006663696169853,0.037920273071527476
1733862068512528600,3.798528564453125,-0.05313479333817959,-0.029921675533056257,0.009292144480347634
1733862068522479900,3.80847998046875,-0.04399601278863847,-0.031189503511786457,0.012362637966871261
1733862068532430600,3.8184306640625,-0.026996143475174903,-0.034310265880823136,0.023674305576086043
1733862068542381800,3.8283818359375,-0.02088847424983978,-0.02809504462778568,0.046420974913239474
1733862068552332500,3.83833251953125,-0.02778042572066188,-0.03585866436660289,0.038023733446002
1733862068562283800,3.84828369140625,-0.008632803788781165,-0.03270575329363346,0.053154082560539245
1733862068572234800,3.85823486328125,-0.0019967267751693726,-0.035195816543698306,0.0568377395093441
1733862068582185700,3.868185791015625,0.013695347875356673,-0.02393967851400375,0.05648644185364246
1733862068592136700,3.87813671875,0.022505919383838772,-0.008119009047746657,0.05823883847892284
1733862068602087700,3.888087646484375,0.005824176108837127,-0.018247019830346108,0.044859132423996924
1733862068612038700,3.89803857421875,-0.012153963652253151,-0.023321838876605033,0.03748714235126972
1733862068621989600,3.90798974609375,-0.02643675602674484,-0.018334113591909406,0.03703764501810074
1733862068631940600,3.917940673828125,-0.04906067576706409,-0.03374269512593746,0.05896890631914138
1733862068641891800,3.927891845703125,-0.05435469052195549,-0.022857728496193885,0.05554126995801925
1733862068651843800,3.93784375,-0.0715290396194905,-0.030360066950321195,0.05731587841510773
1733862068661794600,3.947794677734375,-0.06974222926795483,-0.03188274647295475,0.05457213266491889
1733862068671745800,3.957745849609375,-0.05364025864228606,-0.018569091391563413,0.03582534661889076
1733862068681696800,3.96769677734375,-0.042052258309721945,-0.01791734948456287,0.04543488648533821
1733862068691647700,3.977647705078125,-0.0027536826223134993,-0.02420680501759052,0.052474868124723434
1733862068701598700,3.9875986328125,-0.004984218153357506,-0.018512977290153502,0.05102350027263164
1733862068711549700,3.9975498046875,-0.033325931018590924,-0.009369301369786262,0.047942485392093656
1733862068721500700,4.007500732421875,-0.05629406108669936,-0.010458265650272369,0.03791793498396873
1733862068731451600,4.01745166015625,-0.050528994753956794,-0.02155658276975155,0.036864626538753505
1733862068741402600,4.027402587890625,-0.05450476651713252,-0.01665828933417797,0.04789864625036716
1733862068751353900,4.037353759765625,-0.05857128530368209,-0.010794365736842155,0.04450198954939842
1733862068761305000,4.04730517578125,-0.0736561878412962,-0.023574352332949636,0.04261047671437263
1733862068771256000,4.057256103515625,-0.06154657478742301,-0.017409984484314918,0.0468687186807394
1733862068781207000,4.06720703125,-0.040513723630830646,-0.0317062208622694,0.04687631746530532
1733862068791158000,4.077157958984375,-0.025732918606325983,-0.02533960843980312,0.04306581926643848
1733862068801109000,4.08710888671875,-0.024880174234509465,-0.01502045899927616,0.03873801919519901
1733862068811060000,4.09706005859375,-0.039915757737681266,-0.020220365729928014,0.03727846803665161
1733862068821011000,4.107010986328125,-0.024824060133099554,-0.020028642550110817,0.057098436272144316
1733862068830962200,4.116962158203125,-0.04654993505515158,-0.03143032653033733,0.048907531031966205
1733862068840913200,4.1269130859375,-0.03917699513435364,-0.03477612982690334,0.05013794960975647
1733862068850864000,4.136864013671875,-0.046339653305336834,-0.033062311646342275,0.04012333607375622
1733862068860815000,4.146815185546875,-0.05755838193409145,-0.037945992034673685,0.04833294601440429
1733862068870766000,4.15676611328125,-0.06715966542884708,-0.03845569512248039,0.0441805025100708
1733862068880717000,4.166717041015625,-0.08619286720082163,-0.032923195436596865,0.05332184034287929
1733862068890668000,4.17666796875,-0.07407697053663433,-0.028712299743294714,0.043888241565227505
1733862068900619000,4.186618896484375,-0.06772139096483588,-0.031790392014384265,0.03446165705025196
1733862068910570200,4.1965703125,-0.07790975363254547,-0.02796703433394432,0.025036826100945472
1733862068920521000,4.20652099609375,-0.06894494141042232,-0.020740590211749076,0.018985855498909947
1733862068930472200,4.21647216796875,-0.07978482678942382,-0.021312837141752243,0.03429506831169128
1733862068940423000,4.2264228515625,-0.07844685618393123,-0.018442250141501425,0.04448503841459751
1733862068950374100,4.2363740234375,-0.06554609275236725,-0.02439034489095211,0.04314589876532554
1733862068960325000,4.2463251953125,-0.05662380449771881,-0.03644377077817917,0.039358781442046166
1733862068970276000,4.256276123046875,-0.06531272238790989,-0.026330957564711568,0.03871639188528061
1733862068980227000,4.26622705078125,-0.03128185797035694,-0.032788755401968954,0.04409399327039718
1733862068990178000,4.276177978515625,0.004404445504024625,-0.021443770045042037,0.04325578888058662
1733862069000129000,4.28612890625,0.040406244668364524,-0.024973113214969634,0.041542555221915245
1733862069010080000,4.296080078125,0.05032733470201492,-0.011894435933232307,0.052122985947132106
1733862069020031000,4.306031005859375,0.027493571603298187,-0.01733925733566284,0.048719899505376814
1733862069029982200,4.315982177734375,0.01239990123733878,-0.012301847690343856,0.043861353558301924
1733862069039933000,4.325932861328125,-0.008013795107603073,-0.025301614516973495,0.05852876133620739
1733862069049884200,4.33588427734375,-0.0019074410565197467,-0.019696634116768835,0.04662088139951229
1733862069059835000,4.3458349609375,-0.011945435468107462,-0.006177811852097511,0.04804010054767131
1733862069069786000,4.3557861328125,0.0065488371215760705,-0.01789922930598259,0.038003859701752664
1733862069079736800,4.36573681640625,0.0003115501672029495,-0.011471242085099219,0.03929273046851158
1733862069089688000,4.37568798828125,0.015951017847657203,-0.031900282129645345,0.020497429105639457
1733862069099639300,4.385639404296875,-0.012732055801153183,0.013623451682925223,0.04104804970324039
1733862069109590000,4.395590087890625,-0.0141734867811203,-0.033765491479635236,0.030483401069045065
1733862069119541200,4.405541259765625,-0.04499759104661643,-0.018824527457356452,0.051718496799468994
1733862069129492000,4.415491943359375,-0.06451236579045654,-0.01974047325849533,0.04597381566762924
1733862069139443200,4.425443115234375,-0.08917575546912848,0.012057517540454863,0.036361937713623046
1733862069149394000,4.435393798828125,-0.12619886050522328,0.060005848151445385,0.14542144736945628
1733862069159345200,4.44534521484375,-0.11503156980276107,0.12017770051956177,0.09252396991848945
1733862069169296100,4.455296142578125,-0.03442717025876045,-0.1020201125383377,0.0549509028494358
1733862069179247000,4.4652470703125,-0.19180793549120426,-0.40938218040168284,-0.19688918427824972
1733862069189198000,4.475197998046875,-0.3644244099088013,-0.36312779422700403,-0.41798283548653126
1733862069199149000,4.485149169921875,-0.33301614907979965,0.2984089460790157,0.44820378622710705
1733862069209100000,4.49510009765625,0.3495406559664756,0.31341303846538066,0.3497796523541212
1733862069219051000,4.505051025390625,0.5087023863315582,-0.21279636298418045,0.03048457011282444
1733862069229002000,4.515001953125,0.2788395916037261,-0.17115093190968036,-0.07116144841611385
1733862069238953200,4.524953125,-0.23937924948334693,0.05851765542030334,-0.2888976058900356
1733862069248904000,4.534904052734375,-0.2783229473184794,0.07059972288012505,0.18442659306824205
1733862069258855200,4.544855224609375,0.14694646497964858,-0.1656026501327753,0.4003858039975166
1733862069268807200,4.55480712890625,0.17424831340312957,0.027792846810817718,-0.05982815349698067
1733862069278758100,4.564758056640625,0.08864508265852927,0.018172201028466225,0.10373509976267814
1733862069288709000,4.574709228515625,-0.00497661936879158,-0.02007774238884449,-0.04076397206485271
1733862069298660000,4.58466015625,-0.1889816990893334,0.011546645408868789,-0.05327858572304248
1733862069308611000,4.594611083984375,-0.23536453394927084,-0.013808745121955871,0.1206073241084814
1733862069318562000,4.60456201171875,-0.23238836768269538,0.004319032242894172,0.021187164935469627
1733862069328513000,4.614512939453125,-0.168617029517889,-0.024604279902577398,0.04652735789716243
1733862069338464000,4.624464111328125,-0.01717208407521248,-0.028062311401963233,0.037010757011175156
1733862069348415200,4.634415283203125,-0.057999330634623765,-0.02115384718775749,-0.026276597028970717
1733862069358366000,4.644365966796875,-0.1605570571810007,-0.020164251628518103,0.016451953107118604
1733862069368317200,4.654317138671875,-0.12471432103589176,-0.011607435685396194,0.09618658407926559
1733862069378268000,4.664267822265625,-0.0023223054677248,-0.027801030117273327,0.07930383833944797
1733862069388219100,4.67421923828125,0.05489712683558464,-0.030763971576094624,0.046022330984473225
1733862069398170000,4.684170166015625,0.05739369289167225,-0.03547638705074787,0.020619009658694266
1733862069408121000,4.69412109375,0.036221652460098265,-0.023150573962926864,0.047610476958751674
1733862069418072000,4.704072021484375,-0.009420739296078682,-0.00953062941133976,0.05621230108737945
1733862069428023000,4.71402294921875,-0.015288170024752615,-0.01692892296910286,0.06669862378835678
1733862069437974000,4.72397412109375,0.03597439970076084,-0.0442196654766798,0.06353928297460079
1733862069447925000,4.733925048828125,0.021769348737597463,-0.01727437540590763,0.047346857586503026
1733862069457876000,4.7438759765625,0.012039981883764267,-0.025559388670325277,0.04474631969928741
1733862069467827200,4.7538271484375,-0.019351766201853752,-0.02719838804900646,0.03369125719964504
1733862069477778000,4.76377783203125,-0.06501125522330403,-0.032487142106890673,0.03866320039331913
1733862069487729200,4.773729248046875,-0.04808057868853211,-0.018507132071256635,0.03596563187241554
1733862069497680000,4.783679931640625,-0.03578209199905395,-0.026386487144231793,0.04250760086178779
1733862069507631000,4.793631103515625,-0.02073357594907284,-0.006433247917890549,0.043562662872672075
1733862069517582000,4.80358203125,-0.01959485424272716,-0.0163999306589365,0.044323125851154326
1733862069527533000,4.813532958984375,-0.02497837391197681,-0.005050269126892089,0.04260287792980671
1733862069537484300,4.823484375,-0.060250689757987856,-0.02027589530944824,0.05467617756128311
1733862069547435000,4.83343505859375,-0.05408171879947185,-0.019698387682437896,0.04980009595751762
1733862069557386200,4.84338623046875,-0.035680969712138175,-0.014756255105137825,0.04181318885684013
1733862069567337000,4.8533369140625,-0.06007131460309028,-0.02147884135842323,0.043966567498445505
1733862069577288200,4.8632880859375,-0.06513846179954708,-0.02712999898791313,0.056872226300835604
1733862069587239000,4.873239013671875,-0.03256707547530532,-0.03752572079598904,0.058923898133635515
1733862069597190100,4.883190185546875,-0.038841479569673536,-0.0425812506198883,0.04477145414054393
1733862069607141000,4.89314111328125,-0.06665551529899238,-0.012740239107608794,0.04501636881232261
1733862069617092000,4.903092041015625,-0.06822992500886321,-0.03231587719321251,0.05764145710766315
1733862069627043000,4.91304296875,-0.07596022699996828,-0.03043956192731857,0.04706745612323284
1733862069636994000,4.922994140625,-0.06681370153538882,-0.030146131938695905,0.03711889356076717
1733862069646945000,4.932945068359375,-0.07542480494901538,-0.03338847486078739,0.05056640415489674
1733862069656896000,4.94289599609375,-0.06478723720908165,-0.035733576682209965,0.038079847547411914
1733862069666847000,4.952846923828125,-0.05344860852770507,-0.035064883640408516,0.04214928894340992
1733862069676798200,4.962798095703125,-0.061373190981894726,-0.023130115696787832,0.03925298298001289
1733862069686749000,4.9727490234375,-0.05790324984900653,-0.05539455496370792,0.017595862445235252
1733862069696700200,4.9827001953125,-0.1099538281470537,0.03806464997828007,0.07726034981310367
1733862069706651000,4.99265087890625,-0.0789057789325714,0.044208559560775754,-0.03431318849027157
1733862069716602000,5.00260205078125,-0.13977671948075293,-0.04461655583977699,0.06644260320067405
1733862069726553000,5.012552978515625,0.09059972385764122,-0.04002279830873012,-0.025509119787812232
1733862069736504000,5.022504150390625,0.1124900686264038,0.11999532968997954,0.23238895220458505
1733862069746455000,5.032455078125,-0.07205942016914486,-0.2846504698395729,-0.06541618276238441
1733862069756405800,5.04240576171875,-0.10503858357667922,-0.08152092986702919,-0.011343231791257858
1733862069766356700,5.052356689453125,0.2899579285979271,0.13982289671003817,0.28641631046831606
1733862069776307700,5.0623076171875,0.46139060005843635,-0.1558171691775322,0.2794739439845085
1733862069786258700,5.0722587890625,-0.13103972466513514,0.05559796858131885,-0.5883107605755329
1733862069796210000,5.0822099609375,-0.4782680851012468,-0.17875030099749564,-0.32971769205629825
1733862069806161000,5.092160888671875,-0.21691256613135337,0.05218319170176983,0.337517552152276
1733862069816112600,5.102112548828125,0.11869696044251322,0.11463351039588451,0.1432329974144697
1733862069826064000,5.11206396484375,0.30840251682698727,-0.06867372325360775,0.20700550462305545
1733862069836014800,5.122014892578125,0.22692425705790517,-0.13956862968802453,0.03201251033246517
1733862069845965800,5.1319658203125,-0.14495207629203796,-0.040921208453178405,-0.27081132957935333
1733862069855916800,5.141916748046875,-0.34983920052163303,0.10624152962565421,0.24201953485906122
1733862069865867800,5.15186767578125,-0.16315993315577507,-0.026772856113314626,0.2750935369431972
1733862069875818800,5.16181884765625,-0.11251578758955001,-0.14176117129623889,-0.060573418906331056
1733862069885769700,5.171769775390625,-0.15545125847458838,-0.07218202363550663,-0.07821487405896187
1733862069895720700,5.181720703125,-0.04910875269249081,-0.03980126451253891,0.047160979625582695
1733862069905672000,5.191671875,-0.014985972207784653,0.04462999984323978,0.06918927156031131
1733862069915622700,5.20162255859375,0.031246056004613637,-0.00556523291170597,0.1576595821738243
1733862069925574000,5.211573974609375,0.002386749006062746,0.02863572737574577,0.04033785560727119
1733862069935524600,5.221524658203125,-0.04847885729111731,0.002209492743015289,-0.05451601856350898
1733862069945475800,5.231475830078125,-0.03463401794247329,0.037703999972343444,0.03744797938466072
1733862069955426800,5.2414267578125,0.01643565955944359,0.01572422335445881,0.0695820702701807
1733862069965377800,5.251377685546875,-0.006733034582063555,-0.007500584888458252,0.05381693038344383
1733862069975329000,5.2613291015625,-0.039779052680730814,-0.013220131579041481,0.0326648367613554
1733862069985279700,5.27127978515625,-0.047257937194034455,-0.010649404308199882,0.0350917716473341
1733862069995231000,5.28123095703125,-0.024376827822253106,-0.034217326900362964,0.016710311782360075
1733862070005181700,5.291181640625,0.0012415244936943054,-0.035787352696061134,0.062250996729731556
1733862070015133000,5.3011328125,0.035600159560889,-0.026920155629515646,0.08104688261449336
1733862070025084000,5.311083984375,0.04689546055719256,-0.006411036086082458,0.09136778562068938
1733862070035035000,5.321034912109375,0.02678571559488773,-0.01559212140738964,0.09133271430730819
1733862070044985900,5.33098583984375,-0.00020049100816249847,-0.033433483046293254,0.04662672661840916
1733862070054936800,5.340936767578125,-0.0199259128279984,-0.03726210142374038,0.02226619234383106
1733862070064887800,5.3508876953125,-0.03993278193771839,-0.07096855619251728,0.009231938725709914
1733862070074838800,5.3608388671875,-0.03394026352465153,-0.05065174435079097,0.005185878205299377
1733862070084789800,5.370789794921875,-0.007622749963402748,-0.076086629858613,0.08371464051902294
1733862070094741000,5.380740966796875,0.06568798544108867,-0.016262568014860153,0.08682020531892776
1733862070104691700,5.390691650390625,0.09755977212861179,0.002781155151128769,0.03720540280044079
1733862070114643000,5.400642822265625,0.0004712707735598087,-0.10584405474066734,-0.03504150276482105
1733862070124593700,5.41059375,-0.15186404763758182,-0.05718786812126636,-0.0840951642692089
1733862070134545000,5.420544921875,-0.20989713441133498,0.006751812347769737,0.03658580959737301
1733862070144495600,5.43049560546875,-0.14320201775431632,-0.038840310525894164,0.08722177185714244
1733862070154446800,5.44044677734375,-0.08232581650912761,0.012503507742285728,0.10267594609856605
1733862070164397800,5.450397705078125,-0.09910795141868292,-0.03656242872178554,-0.027308862686157225
1733862070174348800,5.460348876953125,-0.14631160114221273,-0.04578969127237797,-0.026367197921872136
1733862070184299800,5.4702998046875,-0.13020181253626942,0.006327449455857276,0.08562719614207744
1733862070194250800,5.480250732421875,-0.06457556721977889,-0.012065116325020789,0.07716039656996726
1733862070204201700,5.49020166015625,-0.055040919220447536,-0.03359247300028801,0.04181786503195763
1733862070214152700,5.500152587890625,-0.06262494460865854,-0.03582943827211857,0.03827624690234661
1733862070224104000,5.51010400390625,-0.0320890096347779,0.0037520460098981853,0.061355509194731706
1733862070234055000,5.520054931640625,0.002444616673141718,-0.01254091714322567,0.09773556708693504
1733862070244006000,5.530005859375,0.005393383476138115,0.0026776947766542435,0.05834171433150768
1733862070253956900,5.539956787109375,-0.01930558897256851,-0.014370470657944678,0.0019990648627281186
1733862070263907800,5.549907958984375,-0.040219197663664816,-0.010867430973052978,0.046027591681480406
1733862070273858800,5.55985888671875,-0.03729439625814557,-0.0015156652599573135,0.08898761248588562
1733862070283809800,5.569809814453125,0.035586131035536525,-0.017940730360150335,0.0963426514238119
1733862070293760800,5.5797607421875,0.0475795703638345,-0.013329437172412872,0.058448681837320327
1733862070303712000,5.5897119140625,0.04309745651371777,-0.027089666977524757,0.029667408511042593
1733862070313662700,5.599662841796875,0.03609247312247753,-0.01578384458720684,0.05405541531443596
1733862070323614000,5.609614013671875,0.06989011330604553,-0.026432664373517035,0.06881283946335315
1733862070333564700,5.619564697265625,0.05473565266355872,-0.024160043266415594,0.0711287151902914
1733862070343517000,5.629516845703125,0.029321371552348135,-0.02857084544599056,0.05842822357118129
1733862070353467600,5.639467529296875,-0.0035667525708675384,-0.032871172988414764,0.03779167825579643
1733862070363419000,5.6494189453125,-0.0379946534819901,-0.04193360036611557,0.03660217621028423
1733862070373369600,5.65936962890625,-0.04373568135201931,-0.03353928150832653,0.036570027506351466
1733862070383320800,5.66932080078125,-0.05248538951873779,-0.028058219748735427,0.03793722420632839
1733862070393271800,5.679271728515625,-0.03512333582937717,-0.03533785536289215,0.043756724140048026
1733862070403222800,5.689222900390625,-0.03978153689876199,-0.028757892450690267,0.032328152152895924
1733862070413174000,5.699174072265625,-0.06952946330010891,-0.04598375253975391,0.036250878554582595
1733862070423124700,5.709124755859375,-0.08089666048884392,-0.020427286478877066,0.0350175373673439
1733862070433076000,5.719075927734375,-0.09202303465902804,-0.037919688549637794,0.03960603420138359
1733862070443026700,5.729026611328125,-0.10017945310771464,-0.025448329511284826,0.02947451628744602
1733862070452978000,5.73897802734375,-0.1126993274629116,-0.020700842723250387,0.020978490620851515
1733862070462929000,5.748928955078125,-0.09233516934812068,-0.015000585255026816,0.04454758225679397
1733862070472879900,5.7588798828125,-0.06811484726183116,0.01272562606036663,0.0401198289424181
1733862070482830800,5.768830810546875,-0.05663542187027633,-0.039135494080185886,0.026643676775693893
1733862070492781800,5.77878173828125,-0.0693890319161117,-0.01495031637251377,0.028693595042824743
1733862070502732800,5.78873291015625,-0.04548376712836325,-0.029019758257269858,0.0350000017106533
1733862070512683800,5.798683837890625,-0.017227540589496493,-0.028684827214479444,0.0691162063241005
1733862070522634800,5.808634765625,-0.015564064356684684,0.011258476117253302,0.07047580423951148
1733862070532586000,5.8185859375,-0.0236281283468008,-0.04509703283309936,0.02075344969332218
1733862070542536700,5.82853662109375,-0.06385200218558311,-0.022404724031686783,0.005738251391053199
1733862070552488000,5.838488037109375,-0.06106967799067497,-0.027449147939682006,0.041083705538511275
1733862070562438700,5.848438720703125,-0.04662555757462978,-0.00914016878902912,0.02958031474947929
1733862070572390000,5.858389892578125,-0.021052140378952026,-0.020710195073485375,0.06108019938468933
1733862070582340600,5.868340576171875,-0.017752514311671255,-0.03005260843634605,0.04532558089196682
1733862070592291800,5.878291748046875,-0.024322540351748464,-0.02968845129907131,0.04483984320163727
1733862070602242800,5.888242919921875,-0.02531564304232597,-0.01293254680931568,0.05907762739062309
1733862070612193800,5.89819384765625,-0.002992752075195312,-0.02264262444078922,0.05600596486032009
1733862070622144800,5.908144775390625,-0.0007510375630110502,-0.03215688723921776,0.07202069559395313
1733862070632095700,5.918095703125,0.012359715357422828,-0.022801029872894285,0.05697101050019264
1733862070642047000,5.928046875,0.001958586721867323,-0.02888940987586975,0.05048457109034061
1733862070651997700,5.937997802734375,-0.003866612300276756,-0.028737434184551238,0.041134558942914005
1733862070661949000,5.947948974609375,0.0022819734573364257,-0.035872108370065686,0.05396247633397579
1733862070671900000,5.95789990234375,-0.03428410852625966,-0.021056232032179833,0.06106617085933685
1733862070681851000,5.967850830078125,-0.018253376505896448,-0.038730420410633085,0.06711714146137238
1733862070691801900,5.9778017578125,-0.027398732926696538,-0.03376490695774555,0.047474867880344385
1733862070701752800,5.9877529296875,-0.032201310902833936,-0.01941314100027084,0.039759178936481475
1733862070711703800,5.997703857421875,-0.06386186599247157,-0.032361469900608064,0.04192717062532902
1733862070721654800,6.00765478515625,-0.03720591425709426,-0.02356909163594246,0.05327858572304248
1733862070731605800,6.017605712890625,-0.037423940921947355,-0.01595803211033344,0.04042494936883449
1733862070741557000,6.027556884765625,-0.03960011591725051,-0.020789105528593064,0.026656536257266997
1733862070751507000,6.0375068359375,-0.04323701111488044,-0.0192798700094223,0.042596448189020156
1733862070761458200,6.047458251953125,-0.034029110851883884,-0.021375965505838392,0.051772272813320155
1733862070771409200,6.0574091796875,-0.04006415323242545,-0.03408347138762474,0.05424304684102535
1733862070781360000,6.067360107421875,-0.058261488702148194,-0.01914659901857376,0.04244856415092945
1733862070791311000,6.07731103515625,-0.06432590330764651,-0.03139876234829426,0.03053600803911686
1733862070801262000,6.087261962890625,-0.06968421547040343,-0.03612579087018966,0.03817454009354114
1733862070811213000,6.097213134765625,-0.08365560380816459,-0.03161269735991955,0.0285690918803215
1733862070821164000,6.1071640625,-0.0781961693584919,-0.032438042268157004,0.012608137160539627
1733862070831115000,6.117114990234375,-0.06534034104719758,-0.022300094613432884,0.02417816344499588
1733862070841066200,6.127066162109375,-0.0680833561450243,-0.023834464573860167,0.048125440743565555
1733862070851018200,6.137018310546875,-0.044983489456027745,-0.022652561312913894,0.05476151775717735
1733862070860969000,6.146968994140625,-0.029355785278603434,-0.02891805144846439,0.05297989503741264
1733862070870920200,6.156920166015625,-0.03544116960689425,-0.03410100704431534,0.06405892293453216
1733862070880871200,6.16687109375,-0.026412206107378003,-0.01023556281030178,0.04167991786599159
1733862070890822100,6.176822265625,-0.0193844994276762,-0.035141456007957456,0.05356909310221672
1733862070900773000,6.186773193359375,-0.028422961407899856,-0.02719137378633022,0.05697802476286888
1733862070910724000,6.19672412109375,-0.013265870416909456,-0.021491700839996335,0.043780689537525175
1733862070920675000,6.206675048828125,-0.026835911412164567,-0.013230068451166152,0.05289046318829059
1733862070930626000,6.2166259765625,-0.037568317828699946,-0.015690905606746672,0.05034487035870552
1733862070940577000,6.226576904296875,-0.017779256188124416,-0.02010463039577007,0.05211421811878681
1733862070950528300,6.2365283203125,-0.02729600320458412,-0.03253916455507278,0.05976210252344608
1733862070960479000,6.24647900390625,-0.011100582141801714,-0.01593114410340786,0.04663490992486476
1733862070970430200,6.25643017578125,-0.023853096209093927,-0.01019289271235466,0.029101006799936293
1733862070980381000,6.266380859375,0.007378492878749966,-0.013365093007683753,0.04209434388577938
1733862070990332200,6.276332275390625,0.027187136002629994,-0.025197569620609282,0.03523030333518982
1733862071000283000,6.286282958984375,0.005981997019052505,-0.025244915893673895,0.04427519505620003
1733862071010234000,6.296234130859375,0.008597805540636182,-0.01981061588525772,0.05509001905918121
1733862071020185000,6.30618505859375,0.010287658323720097,-0.022869418933987615,0.041085459104180336
1733862071030136000,6.316135986328125,-0.018583119916915893,-0.015271218889951706,0.03431903370916843
1733862071040087300,6.32608740234375,-0.051169557679817075,-0.024363456884026528,0.029340660774707792
1733862071050038000,6.3360380859375,-0.03509454812631011,-0.03118891898989677,0.049801265001296995
1733862071059989200,6.3459892578125,-0.03805756265036762,-0.03288870864510536,0.052937809461355206
1733862071069940000,6.35593994140625,-0.02917348751425743,-0.024224925196170807,0.04504793299436569
1733862071079891200,6.36589111328125,-0.015349544823169707,-0.03172609460651874,0.02999298720359802
1733862071089842200,6.37584228515625,-0.026742387909814713,-0.025417934373021124,0.04268821812570095
1733862071099793200,6.385793212890625,-0.049218350546807045,-0.017888123390078545,0.0429606053262949
1733862071109744000,6.395744140625,-0.055847486362978815,-0.03666179744303226,0.04964928930997848
1733862071119695000,6.405695068359375,-0.05735270329415798,-0.02823065370619297,0.048803486135601995
1733862071129646000,6.41564599609375,-0.07764788782596588,-0.016074351966381073,0.03862169933915138
1733862071139597000,6.42559716796875,-0.051207624667882916,-0.02397767243683338,0.037080899637937544
1733862071149548000,6.435548095703125,-0.06126680799797177,-0.02736439226567745,0.03196282597184181
1733862071159499300,6.445499267578125,-0.06129895670190453,-0.019922259566187858,0.0343248789280653
1733862071169450000,6.455449951171875,-0.054723085442930454,-0.02414543021917343,0.044027357774972915
1733862071179401200,6.465401123046875,-0.029863807865977286,-0.01686228747367859,0.0589157148271799
1733862071189352000,6.47535205078125,-0.012828428847715258,-0.016054478222131727,0.06685761374235152
1733862071199303200,6.48530322265625,-0.015293942178413272,-0.013857260438799857,0.0604758037507534
1733862071209254100,6.495254150390625,-0.002744330272078514,-0.026222821015119552,0.04987900641262531
1733862071219205000,6.505205078125,-0.015185878694057464,-0.024684943923354147,0.041480595901608464
1733862071229156000,6.515156005859375,-0.009734554485604166,-0.018950784185528754,0.046563598254323005
1733862071239107000,6.525107177734375,0.019991233149170874,-0.023475568133592604,0.0524631776869297
1733862071249058000,6.53505810546875,0.01514203955233097,-0.02412321838736534,0.049130233871936796
1733862071259009000,6.545009033203125,0.014462313659861684,-0.021786299872398374,0.043432899013161656
1733862071268960000,6.5549599609375,0.009508563710004091,-0.013556816187500953,0.03780044608414173
1733862071278911200,6.5649111328125,-0.00378887088894844,-0.02912380315363407,0.04969605106115341
1733862071288862000,6.574862060546875,-0.015658099315688012,-0.025237901630997657,0.04976268655657768
1733862071298813200,6.584813232421875,-0.033734511819481845,-0.028801147070527076,0.03278291018307209
1733862071308764200,6.59476416015625,-0.04525017756819725,-0.032362638944387435,0.04541033656597137
1733862071318716200,6.604716064453125,-0.043199236387759445,-0.025986089649796484,0.027660160341858864
1733862071328667100,6.614667236328125,-0.06559037028551101,-0.02656535084247589,0.03285948255062103
1733862071338618000,6.6246181640625,-0.06858662949204444,-0.02465045713186264,0.047297757747769356
1733862071348569000,6.634569091796875,-0.03204407451450825,-0.013562661406397818,0.05157587345838546
1733862071358520000,6.64452001953125,-0.037179245445877314,-0.03427168743610382,0.04482172302305698
1733862071368471000,6.654470947265625,-0.056731867982074614,-0.03065583502650261,0.03874620250165462
1733862071378422000,6.664422119140625,-0.06382043800354004,-0.012078560328483581,0.03995148663818836
1733862071388373200,6.674373291015625,-0.05104330095164478,-0.026610359027981756,0.0478401940613985
1733862071398324000,6.684323974609375,-0.03572013267874718,-0.033658523973822595,0.045537762337923046
1733862071408275200,6.694275146484375,-0.038590062091872095,-0.02448445291519165,0.03512158226370811
1733862071418226000,6.704225830078125,-0.04303885819427669,-0.02348141335248947,0.02864507972598076
1733862071428177200,6.71417724609375,-0.03526303656101227,-0.01885550711750984,0.041536710003018375
1733862071438127900,6.7241279296875,-0.02781447412073612,-0.02933715364336967,0.04834989714920521
1733862071448079000,6.7340791015625,-0.02137823052816093,-0.01926116530895233,0.05329670590162277
1733862071458030000,6.744030029296875,-0.01876125296279788,-0.015159575209021567,0.0531166731595993
1733862071467981000,6.75398095703125,-0.01199606967680156,-0.01840191813111305,0.06600538082718849
1733862071477932300,6.763932373046875,-0.022196561173722148,0.0005126256972551345,0.05468436086773872
1733862071487883000,6.773883056640625,0.018594810354709623,-0.009107435563206673,0.043409518137574196
1733862071497834200,6.783834228515625,0.03289937616959214,-0.01970657098889351,0.04989186589419842
1733862071507785000,6.793784912109375,0.0321072028785944,-0.014035539615154266,0.04312368693351745
1733862071517736200,6.803736083984375,0.02596431620940566,-0.021425065344572065,0.033844986456632614
1733862071527687200,6.813687255859375,0.003861351603269577,-0.02515139239132404,0.04616612336933613
1733862071537638100,6.82363818359375,-0.002948328411579132,-0.02138648689985275,0.050119244909286494
1733862071547589000,6.833589111328125,0.0062730889201164245,-0.022049919244647026,0.05340367340743542
1733862071557540000,6.8435400390625,-0.0050829292874783275,-0.016432663884758947,0.03516483688354492
1733862071567491000,6.853490966796875,-0.006999065107107162,-0.027657822254300114,0.044935704791545864
1733862071577442000,6.863442138671875,-0.018092559920996426,-0.027685879305005073,0.053636313119530675
1733862071587393000,6.87339306640625,-0.014165303474664687,-0.014368132570385932,0.051290042254328726
1733862071597344300,6.88334423828125,-0.022451339652389286,-0.025503274568915366,0.04157587296962738
1733862071607295000,6.893294921875,-0.0259200386762619,-0.026724925318360328,0.038325931262969966
1733862071617246200,6.90324609375,-0.007433364871144294,-0.025993103912472722,0.03569324467182159
1733862071627197000,6.913197021484375,-0.007905658558011055,-0.021135727009177208,0.027736148187518118
1733862071637148200,6.923148193359375,-0.01897021953836083,-0.02515139239132404,0.04057341792881489
1733862071647099100,6.93309912109375,-0.023458032476902008,-0.021319266882538795,0.030756957313418386
1733862071657050000,6.943050048828125,-0.016601590710878373,-0.03399696214795112,0.03962824603319168
1733862071667001000,6.9530009765625,-0.017083748204633594,-0.02410977438390255,0.05790566100180149
1733862071676952000,6.9629521484375,-0.03462181604802608,-0.013801146337389944,0.04025251541137695
1733862071686903000,6.972903076171875,-0.030462358281016347,-0.011857611054182052,0.045185880160331725
1733862071696854000,6.98285400390625,-0.018977233801037073,-0.026696868267655372,0.03727846803665161
1733862071706805000,6.992804931640625,-0.005284077882766723,-0.024062428110837936,0.03749766374528408
1733862071716756200,7.002756103515625,-0.007249094345420599,-0.024470424389839172,0.026805589339137077
1733862071726707200,7.012707275390625,-0.04652092815637588,-0.03526128299534321,0.023333529314398763
1733862071736658200,7.022658203125,-0.04051087408661842,-0.02503331896960735,0.05906769051849842
1733862071746609200,7.032609130859375,-0.03596154021918774,-0.02321779398024082,0.050822424742579454
1733862071756560600,7.042560546875,-0.02730754751190543,-0.020606734699010847,0.05178220968544483
1733862071766511400,7.052511474609375,-0.008061652837321161,-0.03818330792188644,0.0551601616859436
1733862071776462600,7.062462646484375,0.0018809914410114288,-0.006853519156575202,0.06312602599859238
1733862071786414300,7.072414306640625,0.002286649632453918,-0.0396621483027935,0.054556935095787046
1733862071796365600,7.082365478515625,-0.008807575833797454,-0.028127193331718443,0.02477496029436588
1733862071806316300,7.09231640625,-0.04513868001773953,-0.030236732831597328,0.04724515077769756
1733862071816267500,7.102267578125,-0.04026785911098122,-0.040508535999059674,0.045049102038145064
1733862071826218200,7.11221826171875,-0.04781082183644175,-0.03527414247691631,0.04231003246307373
1733862071836169500,7.12216943359375,-0.060941594631597394,-0.02251461414694786,0.05330372016429901
1733862071846120700,7.13212060546875,-0.04392214383482933,-0.03268997120261192,0.054047232007980346
1733862071856071400,7.142071533203125,-0.05130640886723995,-0.01357961254119873,0.042750177446007724
1733862071866022700,7.152022705078125,-0.06759308841004967,-0.018947861576080322,0.04747779048979282
1733862071875973400,7.161973388671875,-0.06769932526350021,-0.03848082956373691,0.03431611109972
1733862071885924600,7.171924560546875,-0.039143092864751816,-0.028346389040350913,0.04285013068914413
1733862071895875300,7.181875244140625,-0.027027269265800714,-0.01688742191493511,0.054177580389380454
1733862071905826600,7.19182666015625,-0.052815205994993446,-0.02775602193176746,0.02623509597480297
1733862071915777500,7.201777587890625,-0.06396306134462357,-0.02557107910811901,0.03406885834038258
1733862071925728500,7.211728515625,-0.06358195307254791,-0.014607786545157432,0.05395370850563049
1733862071935679500,7.221679443359375,-0.0149316116720438,-0.0183867205619812,0.05551145934164524
1733862071945630500,7.23163037109375,0.009363529216125608,-0.01602349856197834,0.037083822247385975
1733862071955581400,7.24158154296875,0.018647417324781417,-0.02818739908635616,0.031387656432390214
1733862071965532400,7.251532470703125,0.01096979536898434,-0.012038228318095206,0.023368016105890274
1733862071975483400,7.2614833984375,-0.0034403497122228142,-0.01551321095228195,0.041838323298096655
1733862071985434600,7.2714345703125,0.004064326829463243,-0.021484686577320097,0.04854688102602958
1733862071995385300,7.28138525390625,0.03523790211975574,-0.01827858401238918,0.04578969127237797
1733862072005336600,7.291336669921875,0.038696079749614,-0.0160948102325201,0.05165010773837566
1733862072015287300,7.301287353515625,0.004916486679390072,-0.02688157718479633,0.03225742500424385
1733862072025238500,7.311238525390625,0.005471782474592328,-0.013633388555049895,0.05624854144454002
1733862072035189500,7.321189453125,0.017470336369425056,-0.020191724157333373,0.0417623354524374
1733862072045140500,7.331140380859375,0.039233839888125656,-0.031126959669589994,0.038086861810088156
1733862072055091500,7.341091552734375,0.0037743309069424866,-0.023118425258994102,0.04856909285783768
1733862072065042400,7.35104248046875,-0.03316343393325805,-0.017321137157082556,0.06402560518682003
1733862072074993400,7.360993408203125,-0.05346621724963188,-0.021014146456122398,0.06422375810742378
1733862072084944400,7.3709443359375,-0.06130633629076183,-0.03876373815834522,0.04221066374182701
1733862072094895400,7.380895263671875,-0.048196021761745214,-0.025457681861519813,0.04629997888207436
1733862072104846600,7.3908466796875,-0.044767873943969604,-0.02803893052637577,0.030457682105898855
1733862072114797600,7.400797607421875,-0.028259879800677297,-0.024565116935968398,0.03172843269407749
1733862072124748500,7.41074853515625,-0.0279749984446913,-0.01526186653971672,0.03375438556373119
1733862072134699500,7.420699462890625,-0.02420030221156776,-0.02238251219987869,0.04079845885634422
1733862072144650500,7.430650390625,-0.04315115946233272,-0.045618426358699796,0.04546177449226379
1733862072154601500,7.4406015625,-0.050095279511809344,-0.025643559822440147,0.03931435777842998
1733862072164552400,7.450552490234375,-0.05085705766454339,-0.030286417192220687,0.04744856439530849
1733862072174503700,7.460503662109375,-0.049556934851408004,-0.02441781741976738,0.03792553376853466
1733862072184454400,7.470454345703125,-0.030744536223262547,-0.011049801802635192,0.043508886858820914
1733862072194405600,7.480405517578125,-0.003162117292732,-0.0010831190615892409,0.053340545043349265
1733862072204356400,7.4903564453125,0.021695772044733167,-0.011374211451411247,0.04541968891620636
1733862072214307600,7.5003076171875,0.05955708147063851,-0.015906009662151336,0.03674421502947807
1733862072224258300,7.51025830078125,0.06131868431568145,-0.014864391654729843,0.06097498544454574
1733862072234209500,7.52020947265625,0.03280804462432861,-0.02427051790356636,0.03877893572747707
1733862072244161300,7.530161376953125,0.0262467864125967,-0.01483048938512802,0.05578618462979793
1733862072254112500,7.540112548828125,0.006592822393774986,-0.010768062251806258,0.04722410798966884
1733862072264063500,7.5500634765625,-0.04265475424751639,-0.026979776862263678,0.03887771992683411
1733862072274014500,7.560014404296875,-0.06654606357514858,-0.036868133670091625,0.03802139535844326
1733862072283965700,7.569965576171875,-0.09034662587940692,-0.05006371532976627,0.03632160570323467
1733862072293916400,7.57991650390625,-0.06329860608652234,-0.033871874463558195,0.04886486093401909
1733862072303867600,7.58986767578125,-0.05225567241609096,-0.04523264191150665,0.04100537960529327
1733862072313818400,7.599818359375,-0.04118935787007212,-0.0294710091561079,0.05604863495826721
1733862072323769600,7.60976953125,-0.043753801530599594,-0.027649638947844505,0.07567512644827365
1733862072333720300,7.61972021484375,-0.031017654076218603,-0.028097382715344427,0.039135494080185886
1733862072343671600,7.629671630859375,-0.0583715249478817,-0.036133974176645274,0.04882452892363071
1733862072353622500,7.63962255859375,-0.08197904889807105,-0.02755436187982559,0.04155015400648117
1733862072363573500,7.649573486328125,-0.06664601681828498,-0.026707974183559417,0.04336158734261989
1733862072373524500,7.6595244140625,-0.08541282273903489,-0.00889057794213295,0.05553250212967396
1733862072383475500,7.669475341796875,-0.04508768048286438,-0.03132102093696594,0.03376490695774555
1733862072393426400,7.679426513671875,-0.03149769267812371,-0.023773089775443075,0.041218730095028876
1733862072403377400,7.68937744140625,-0.014344167172908782,-0.015338438907265663,0.04181669598817825
1733862072413328400,7.699328369140625,-0.0009627075523138045,-0.03252572055160999,0.043106735798716544
1733862072423279600,7.709279541015625,-0.011367927841097115,-0.03150865246355533,0.06503390544652939
1733862072433230300,7.719230224609375,-0.0030231472134590147,-0.008608253869414328,0.06903320421576499
1733862072443181600,7.729181640625,-0.008174538627266883,-0.025237901630997657,0.048640989050269125
1733862072453132300,7.73913232421875,0.008300210833549499,-0.03737140701711177,0.03852876035869121
1733862072463083500,7.74908349609375,0.01258811728581786,-0.02736965296268463,0.059065352430939674
1733862072473034500,7.759034423828125,0.02249415588080883,-0.02474456515610218,0.04558510861098766
1733862072482985500,7.7689853515625,0.002806289592385292,-0.030085341662168502,0.04903554132580757
1733862072492936400,7.7789365234375,0.0019867899030447003,-0.02617372117638588,0.05638064339160919
1733862072502887400,7.788887451171875,0.0016020283691585062,-0.012525135052204131,0.04774082534015178
1733862072512838400,7.79883837890625,-0.012064677933603524,-0.028693010520935057,0.04925473703444004
1733862072522789400,7.808789306640625,-0.03630480069890618,-0.02122106720507145,0.04355097243487835
1733862072532740600,7.81874072265625,-0.043752632486820216,-0.028106150543689725,0.043484336939454075
1733862072542691600,7.828691650390625,-0.06927461175620556,-0.02570435009896755,0.029301497808098792
1733862072552642600,7.838642578125,-0.07570318349897862,-0.026199440139532088,0.030000585988163946
1733862072562593500,7.848593505859375,-0.07439027426950633,-0.03572247076630592,0.03537877189517021
1733862072572544500,7.85854443359375,-0.06422434262931347,-0.034010406151413916,0.04778232639431953
1733862072582495500,7.86849560546875,-0.025486250368878242,-0.03350947089195251,0.04072247101068496
1733862072592446500,7.878446533203125,-0.02511390992514789,-0.018540449818968772,0.04052665617763996
1733862072602397400,7.8883974609375,-0.03435293597877025,-0.027074469408392903,0.05380640898942947
1733862072612348700,7.8983486328125,-0.026052652079984546,-0.02428454642891884,0.025738252368569373
1733862072622299400,7.90829931640625,-0.020076573345065116,-0.024001053312420844,0.036461306434869764
1733862072632250600,7.918250732421875,-0.02656805425621569,-0.019503157371282578,0.04616553884744644
1733862072642201300,7.928201416015625,-0.03401917397975921,-0.03623392741978168,0.039136078602075575
1733862072652152600,7.938152587890625,-0.03501008471325039,-0.020035656812787055,0.04274082509577274
1733862072662103300,7.948103271484375,-0.02719035087302327,-0.025412089154124257,0.05573182409405708
1733862072672054500,7.958054443359375,-0.010511384076997638,-0.016170213556289673,0.04996083947718143
1733862072682006500,7.968006591796875,0.0044897856999188655,-0.02119008754491806,0.04028466411530971
1733862072691957500,7.97795751953125,0.000295256619527936,-0.02409749942421913,0.03948270008265972
1733862072701908500,7.987908447265625,-0.007854220631718634,-0.02830897963941097,0.03802314892411232
1733862072711859500,7.997859375,-0.021761092365905642,-0.03013677958846092,0.045543607556819916
1733862072721810700,8.007810791015626,-0.028546880048513412,-0.033469723403453826,0.050497430571913714
1733862072731761400,8.017761474609374,-0.04420563695132732,-0.017877017474174497,0.05346738629341125
1733862072741712600,8.027712646484375,-0.026305092471092938,-0.023316578179597855,0.04854571198225021
1733862072751663400,8.037663330078125,-0.03230886293053627,-0.02266366722881794,0.03561082708537578
1733862072761614300,8.0476142578125,-0.037105961013957856,-0.01881108345389366,0.04195873480737209
1733862072771565300,8.0575654296875,-0.03518880228102207,-0.027304771032929418,0.05553717830479145
1733862072781516300,8.067516357421875,-0.03146474025659263,-0.024977789390087126,0.04978314482271671
1733862072791467500,8.077467529296875,-0.02943812979981303,-0.03768587979376316,0.03909691563546657
1733862072801418200,8.087418212890626,-0.03571070726327598,-0.038006782311201096,0.04453998347222805
1733862072811369500,8.097369384765624,-0.05038870950043201,-0.03666998074948787,0.04622691364586353
1733862072821320200,8.1073203125,-0.03923194019198417,-0.020392799687385558,0.04660568383038044
1733862072831271400,8.117271484375,-0.01654657258801162,-0.01779459988772869,0.03353518985509872
1733862072841222400,8.127222412109376,-0.01773673222064972,-0.024760347247123716,0.04057341792881489
1733862072851173400,8.13717333984375,-0.03491173890531063,-0.013303133687376975,0.05089958163201808
1733862072861124400,8.147124267578125,-0.013702362138032912,-0.011382394757866858,0.05989537351429462
1733862072871075300,8.157075439453125,-0.016013561689853666,-0.007350947284698486,0.05867372276484966
1733862072881026300,8.1670263671875,-0.01761339810192585,-0.012803951993584632,0.04379237997531891
1733862072890977300,8.176977294921874,-0.01156535010933876,-0.018081600135564802,0.028908699098229407
1733862072900928300,8.18692822265625,0.011875804297998546,-0.018141221368312834,0.0256891525298357
1733862072910879500,8.19687939453125,0.013080503912642597,-0.034031448939442634,0.027995675906538963
1733862072920830200,8.206830322265626,0.0030938743621110915,-0.019659224715828896,0.0319762699753046
1733862072930781400,8.216781494140625,-0.0053955754332244395,-0.018092706051468847,0.0634516046911478
1733862072940732200,8.226732177734375,-0.008309343988075852,-0.01867372080981731,0.07014730293750762
1733862072950683400,8.236683349609375,-0.020310966622829437,-0.028100305324792862,0.07382394562363624
1733862072960634000,8.246634033203126,-0.034928105518221855,-0.03211363261938095,0.05863455979824066
1733862072970585300,8.25658544921875,-0.054800096201896666,-0.024358196187019347,0.0496527964413166
1733862072980536300,8.266536376953125,-0.06905088600292801,-0.024821137523651123,0.05318038604557514
1733862072990487300,8.2764873046875,-0.03235036398470401,-0.0447118329077959,0.055496846294403074
1733862073000438300,8.286438232421874,-0.019446604878455398,-0.04224456601142883,0.036955811953544616
1733862073010389200,8.29638916015625,-0.038461540341377255,-0.0034895956814289092,0.0431476523309946
1733862073020340200,8.30634033203125,-0.02013736362159252,-0.0863829829454422,-0.00500233833193779
1733862073030291200,8.316291259765626,-0.05646364549994468,-0.030472879675030706,0.056018824341893196
1733862073040242200,8.3262421875,-0.08340542843937873,0.017290742018818854,0.03617839784026146
1733862073050193400,8.336193359375,-0.1350980601452291,0.035110476347804065,0.014791910940408706
1733862073060144400,8.346144287109375,-0.11441307257823645,-0.06523615002036094,-0.060517889326810834
1733862073070095400,8.356095458984376,-0.22484745078384874,0.013689502656459808,-0.061871642023324964
1733862073080046300,8.36604638671875,-0.11852518407218157,0.009365209716558456,0.1782160479903221
1733862073089997300,8.375997314453125,0.17754216731674968,-0.14858195722699163,0.2175818436950445
1733862073099948300,8.3859482421875,0.2893471762884408,-0.07770692453682422,-0.04989829563498497
1733862073109899300,8.395899169921876,0.4457669875342399,0.09864917480051517,0.20431670393049717
1733862073119851300,8.405851318359375,0.24105098208785056,0.07524784094691277,0.05854220533967018
1733862073129802200,8.41580224609375,-0.39846272698044777,-0.08480302027761935,-0.4973346046209335
1733862073139753200,8.425753173828125,-0.43450836528651415,-0.15015315206646918,-0.002886369091272354
1733862073149704200,8.4357041015625,-0.08899462674856186,0.04519932416379451,0.34157296502292156
1733862073159655400,8.445655517578125,0.18183657657504082,-0.07646013934612274,0.02523088736832142
1733862073169606100,8.455606201171875,0.19098902032375334,-0.0431131655395031,0.15631401278376578
1733862073179557400,8.465557373046876,0.0667925856821239,-0.050555882760882374,-0.005177694898843765
1733862073189508000,8.475508056640624,-0.05194938294589519,0.028831542208790778,0.025176526832580565
1733862073199459300,8.485459228515625,-0.07416399123296141,-0.01648234824538231,0.2005892078399658
1733862073209410300,8.495410400390625,-0.07187456512153148,-0.07729483660459519,0.01644260075688362
1733862073219361300,8.505361328125,-0.15626666651070117,-0.05621288560926914,-0.05556991153061389
1733862073229312500,8.5153125,-0.04653627185598015,-0.053476738643646236,0.09316051425635814
1733862073239263200,8.52526318359375,0.03298851575776934,0.029371640434861183,0.1027741457760334
1733862073249214500,8.53521435546875,0.005244330394268036,0.009925766208767891,0.055664604076743125
1733862073259165200,8.545165283203126,-0.0461855587221682,-0.02088496711850166,0.05654021786749363
1733862073269116400,8.555116455078124,-0.07928352620378136,0.030536592561006545,-0.021926585125923156
1733862073279067400,8.5650673828125,-0.07833776978626847,0.015223872616887091,0.07459843712747097
1733862073289018400,8.575018310546875,-0.03965235756114125,-0.0158639240860939,0.03038695495724678
1733862073298969300,8.58496923828125,-0.02069032132923603,0.01390986740887165,0.026911387801170347
1733862073308920300,8.59492041015625,-0.03643924073353409,0.021277765828371046,0.029059505745768547
1733862073318871300,8.604871337890625,-0.0615660832054913,-0.0017453823626041411,0.029687282255291936
1733862073328822300,8.614822265625,-0.050824762830138204,-0.05915770688951015,0.007954758396744728
1733862073338773200,8.624773193359376,-0.05091024915650487,-0.029697803649306295,0.04497895941138267
1733862073348724500,8.634724365234375,-0.011851765835285187,-0.022320552879571912,0.05038286428153515
1733862073358675200,8.64467529296875,-0.014410364276915787,-0.02208499055802822,0.05462766224443912
1733862073368626400,8.65462646484375,0.030286855583637952,-0.12495792053341864,0.07356207981705665
1733862073378577200,8.6645771484375,0.03581643266007304,-0.021675825235247612,0.0910445450156927
1733862073388528400,8.6745283203125,0.07535078986473381,-0.030569910308718678,0.07471709507107734
1733862073398479000,8.68447900390625,-0.008310659162327646,-0.07898527390956878,-0.0006996727019548416
1733862073408430300,8.694430419921876,-0.17654891849569976,-0.05515782359838486,-0.0921644889563322
1733862073418381300,8.70438134765625,-0.19738193623125552,-0.0392307711482048,0.006259060394763946
1733862073428332300,8.714332275390625,-0.08693827874064446,-0.00890928264260292,0.10635317330658435
1733862073438283300,8.724283203125,0.04660217669904232,-0.001064998883008957,0.1622439873546362
1733862073448234200,8.734234130859376,0.08686053732931613,-0.032441549399495125,0.03762041334211826
1733862073458185200,8.744185302734374,0.033742768191173673,-0.026520927178859708,-0.014141922599077223
1733862073468136200,8.75413623046875,-0.010616086560487747,-0.010606149688363075,0.05448737699091434
1733862073478087400,8.76408740234375,-0.012703560359030962,-0.02416939561665058,0.04690495903789997
1733862073488038400,8.774038330078126,0.019488982715457678,-0.014684943434596061,0.0766232209533453
1733862073497989400,8.7839892578125,0.0549690960932523,-0.010893734458088875,0.0449473952293396
1733862073507940400,8.7939404296875,0.060064300340414045,-0.013635142120718955,0.030008184772729873
1733862073517891300,8.803891357421875,0.03664075465500354,-0.011357844838500022,0.04543313291966915
1733862073527842300,8.81384228515625,0.01661912636756897,-0.014774375283718109,0.057762453138828274
1733862073537793300,8.823793212890624,0.03601422025449574,-0.01975391726195812,0.06482464661002159
1733862073547745300,8.833745361328125,0.044675592550635336,0.003111410018801689,0.04790332242548465
1733862073557696300,8.8436962890625,0.0685188249528408,-0.02363923426270485,0.04714052135944366
1733862073567647200,8.853647216796874,0.021942367216944692,-0.017412322571873664,0.04178630084991455
1733862073577598200,8.86359814453125,-0.07410393160879611,-0.02608253576159477,0.02055880390405655
1733862073587549200,8.873549072265625,-0.12993030211851,-0.01996960583925247,0.043187399819493294
1733862073597500400,8.88350048828125,-0.13372107270359992,-0.01762158140838146,0.04098959751427173
1733862073607451100,8.893451171875,-0.15385251804105937,-0.03267477363348007,0.017975217151641843
1733862073617402400,8.90340234375,-0.14631569279544054,-0.04242284518778324,0.030983167284727095
1733862073627353300,8.913353271484375,-0.13666764754951,-0.03162380327582359,0.03183890733122825
1733862073637304300,8.92330419921875,-0.11612009569182992,-0.04964812026619911,0.019984803408384322
1733862073647255300,8.93325537109375,-0.09179054107740521,-0.04354337365031242,0.021683424019813536
1733862073657206300,8.943206298828125,-0.07280388186089694,-0.024428923335671423,0.04773498012125492
1733862073667157500,8.953157470703125,-0.05850947211384773,-0.038487259304523465,0.04042670293450355
1733862073677108200,8.963108154296876,-0.032498248022794725,-0.030853403425216672,0.04988075997829437
1733862073687059500,8.9730595703125,-0.010870938104391097,-0.03461012561023235,0.037060441371798515
1733862073697010200,8.98301025390625,0.0012443009726703165,-0.032923779958486554,0.03644610886573791
1733862073706961400,8.99296142578125,0.028973434897512196,-0.02416764205098152,0.05572013365626335
1733862073716912400,9.002912353515624,0.032907851736992594,-0.0050362406015396115,0.044427170747518535
1733862073726863400,9.01286328125,0.055932899624109265,-0.00705751729607582,0.05333586886823177
1733862073736814300,9.022814453125,0.061749915339797734,-0.005782090532779693,0.04064297603368759
1733862073746765300,9.032765380859376,0.036899186395481225,-0.02254851641654968,0.05488835900723934
1733862073756716800,9.042716796875,0.01748202680721879,-0.01373860249519348,0.06825403653681278
1733862073766667500,9.05266748046875,0.008078677037358284,-0.016684592819213865,0.05308101732432842
1733862073776618800,9.06261865234375,0.007225859600305556,-0.02090776347219944,0.05907353573739528
1733862073786569500,9.072569580078126,-0.0015098200410604476,-0.011760580420494078,0.06323123993873596
1733862073796520700,9.082520751953124,-0.0030780922710895537,-0.017895137652754783,0.045695583248138424
1733862073806471700,9.0924716796875,-0.01199322013258934,-0.01899403880536556,0.025129765081405638
1733862073816422700,9.102422607421875,-0.04455810365080833,-0.02459375850856304,0.039516017830371855
1733862073826373600,9.11237353515625,-0.07744798133969306,-0.016112930411100387,0.05923895543217659
1733862073836324600,9.12232470703125,-0.08287512095496058,-0.02553133161962032,0.045586277654767034
1733862073846275800,9.13227587890625,-0.07223689562790095,-0.03637596623897552,0.03691840255260467
1733862073856226600,9.1422265625,-0.07319258891753852,-0.03420622098445892,0.04241758449077606
1733862073866177800,9.152177734375,-0.07658741898760199,-0.021902035206556317,0.042160979381203646
1733862073876128800,9.162128662109374,-0.06918678734228015,-0.027077392017841338,0.035435470518469805
1733862073886079700,9.172079833984375,-0.046821226277202366,-0.023059388548135756,0.03851239374577999
1733862073896030700,9.18203076171875,-0.05746376245319843,-0.019659224715828896,0.03021218291223049
1733862073905981700,9.191981689453126,-0.038569603825733066,-0.021027590459585188,0.03272445799410343
1733862073915932700,9.2019326171875,-0.04138115411512554,-0.026902035450935363,0.03733925831317901
1733862073925883600,9.211883544921875,0.0002566051095724106,-0.028754969841241835,0.030669863551855085
1733862073935834600,9.221834716796875,0.0031055647999048233,-0.024442951861023902,0.05023907189667225
1733862073945785900,9.231785888671874,-0.03077756171002984,-0.016261983492970467,0.04528232627213001
1733862073955736600,9.241736572265625,-0.03308218539059162,-0.02323825224637985,0.03386193759143352
1733862073965687800,9.251687744140625,-0.03210544931292534,-0.028925650233030318,0.04376899909973144
1733862073975639600,9.2616396484375,-0.016648352462053297,-0.010220365241169928,0.0499491490393877
1733862073985590800,9.2715908203125,-0.006015826223418117,-0.03215571819543838,0.0443634578615427
1733862073995541500,9.28154150390625,-0.003561491873860359,-0.008670797711610794,0.055665773120522496
1733862074005492700,9.29149267578125,-0.014914587472006679,-0.02869417956471443,0.03423369351327419
1733862074015443700,9.301443603515626,0.0011369681406766176,-0.020450082832574844,0.04227379210591316
1733862074025394700,9.311394775390625,0.0010994856745004653,-0.009804185655713081,0.04422960234880447
1733862074035346000,9.321345947265625,-0.011708704102784394,-0.020398644906282425,0.04711830952763557
1733862074045296600,9.331296630859375,0.002639554723352194,-0.017119477105140685,0.05268061982989311
1733862074055248000,9.341247802734374,-0.00283273920789361,-0.021999065840244292,0.050288171735405916
1733862074065198600,9.351198486328125,-0.003101034755259752,-0.017297756281495092,0.03811784147024155
1733862074075149800,9.36114990234375,-0.021671149060130117,-0.027862989437580105,0.05215747273862362
1733862074085100500,9.3711005859375,-0.03693710725307464,-0.026156770041584967,0.04910919108390808
1733862074095051800,9.3810517578125,-0.04346497465185821,-0.03008183453083038,0.0478097989231348
1733862074105002800,9.391002685546875,-0.05392623597681522,-0.011523849055171013,0.045831776848435396
1733862074114953700,9.40095361328125,-0.06038987903296947,-0.024697803404927252,0.035762218254804606
1733862074124904700,9.41090478515625,-0.049506081447005267,-0.03515373096764087,0.041514498171210286
1733862074134855700,9.420855712890624,-0.031618104187399146,-0.016956980019807815,0.05105331088900566
1733862074144806700,9.430806640625,-0.016128127980232238,-0.022670681491494177,0.046780455875396726
1733862074154757600,9.440757568359375,-0.0023596418034285307,-0.02367839722931385,0.03274140912890434
1733862074164708600,9.45070849609375,0.017916764962673186,-0.021024083328247067,0.05115384865403175
1733862074174659800,9.460659912109374,0.04147891540117562,-0.025374095231294632,0.05918108776509762
1733862074184610600,9.470610595703125,0.04652567739672959,-0.014219079488515854,0.04593289913535118
1733862074194561800,9.480561767578125,0.03639532852657139,-0.015056699356436729,0.050691491839289664
1733862074204512500,9.490512451171876,0.00429039067029953,-0.02773965531885624,0.048722237592935556
1733862074214463700,9.500463623046874,-0.025939474029093978,-0.02362228312790394,0.03644903147518635
1733862074224414500,9.51041455078125,-0.034367110634595154,-0.030514380729198452,0.03845920225381851
1733862074234365700,9.52036572265625,-0.040998949864506716,-0.01561784037053585,0.04305588239431381
1733862074244316700,9.530316650390626,-0.04755655481442809,-0.021906711381673813,0.03290273717045784
1733862074254267600,9.540267578125,-0.05003916541039943,-0.03093991266489029,0.033027824854850764
1733862074264218600,9.550218505859375,-0.04715506134144962,-0.023632220000028608,0.046451370051503175
1733862074274169600,9.560169677734375,-0.06271393806636333,-0.030461773759126662,0.03569382919371128
1733862074284120800,9.570120849609374,-0.09021160132288933,-0.017126491367816923,0.03407002738416195
1733862074294071600,9.580071533203125,-0.07578384751975537,-0.03768061909675598,0.042671266990900035
1733862074304022800,9.590022705078125,-0.08134966495335101,-0.03004091799855232,0.0366688117057085
1733862074313973800,9.599973876953126,-0.06970949604213238,-0.021906711381673813,0.04085398843586445
1733862074323924700,9.6099248046875,-0.04935761288702488,-0.02709434315264225,0.03664192369878292
1733862074333875700,9.619875732421875,-0.02559796711504459,-0.028592472755908965,0.050665188354253765
1733862074343826700,9.62982666015625,-0.018849661898612976,-0.02225041025280952,0.0423071098536253
1733862074353777700,9.639777587890626,-0.019621376923471687,-0.017853636598587037,0.055959787631034846
1733862074363728600,9.649728759765624,-0.01852700581550598,-0.02230067913532257,0.053318333211541176
1733862074373679600,9.6596796875,-0.006186725810915231,-0.023901684591174123,0.05623743552863598
1733862074383630800,9.669630859375,-0.00021853812150657176,-0.0142214175760746,0.03953706061840057
1733862074393581600,9.67958154296875,0.016021233539655802,-0.022000234884023664,0.031580548655986786
1733862074403533800,9.689533935546875,0.011146832436323166,-0.02427344051301479,0.05082184022068977
1733862074413484500,9.699484619140625,0.006363178356364369,-0.02521685884296894,0.037030630755424496
1733862074423435800,9.709435791015625,-0.01565166957490146,-0.022205402067303655,0.03570025893449783
1733862074433386800,9.71938671875,-0.0457838460534811,-0.01055588080585003,0.037760698595643044
1733862074443337700,9.729337646484375,-0.04783434884250164,-0.04127250610888004,0.04649930084645748
1733862074453288700,9.739288818359375,-0.0341506914049387,-0.025723054799437522,0.06095861883163452
1733862074463239700,9.74923974609375,-0.038836803394556044,-0.034847441497445106,0.025864509096741675
1733862074473191000,9.75919091796875,-0.06111059452295303,-0.030934067445993422,0.041913726621866224
1733862074483141600,9.7691416015625,-0.06931779331080615,-0.016051555612683295,0.03733516665995121
1733862074493092900,9.7790927734375,-0.08411255379542708,-0.026778701332211493,0.046152679365873334
1733862074503043600,9.789043701171876,-0.06020210137590765,-0.017813304588198662,0.05543664053976535
1733862074512994800,9.798994873046874,-0.05337035565972328,-0.035781507477164264,0.05602116242945194
1733862074522945500,9.808945556640625,-0.05887202181592583,-0.02581073308289051,0.042353287082910536
1733862074532896800,9.818896728515625,-0.04980886378586292,-0.031438509836792944,0.05810907461941242
1733862074542847700,9.82884765625,-0.037296003693342204,-0.026812603601813315,0.05119184257686138
1733862074552798700,9.838798828125,-0.0131446551900357,-0.024587913289666176,0.039514848786592484
1733862074562749700,9.848749755859375,-0.0042540041826665395,-0.017769465446472166,0.036243864291906354
1733862074572700700,9.85870068359375,-0.006274769420549273,-0.020683891588449476,0.03809504511654377
1733862074582651600,9.868651611328126,-0.014294409747049212,-0.023586627292633056,0.03571253389418125
1733862074592602600,9.8786025390625,-0.012906170259043573,-0.026288871988654136,0.0424900652050972
1733862074602553600,9.8885537109375,-0.028342224321886895,-0.02368015079498291,0.03623977263867855
1733862074612504800,9.8985048828125,-0.03221241681873798,-0.03117722855210304,0.05261807598769665
1733862074622455600,9.90845556640625,-0.030834625659510492,-0.018860183292627335,0.04403086490631103
1733862074632406800,9.91840673828125,-0.029124972197413442,-0.023809330132603643,0.05005494750142097
1733862074642357500,9.928357421875,-0.019971943926811217,-0.03447217844426632,0.034246552994847294
1733862074652308700,9.938308837890625,-0.022377397633343933,-0.025835867524147033,0.03552665593326092
1733862074662259500,9.948259521484376,-0.011374211451411247,-0.0157288995295763,0.05281213725507259
1733862074672210700,9.958210693359375,-0.021581132689118383,-0.03995324020385742,0.04763210426867008
1733862074682161700,9.96816162109375,-0.03312836261987686,-0.02256780563890934,0.04158580984175205
1733862074692112600,9.978112548828125,-0.024614801296591757,-0.027944237980246544,0.03493102812767029
1733862074702063900,9.98806396484375,-0.02821370257139206,-0.031681670942902564,0.047856560674309725
1733862074712014600,9.9980146484375,-0.006641483841091394,-0.02381517535150051,0.0325602073431015
1733862074721965800,10.0079658203125,-0.008066986599564552,-0.027678280520439146,0.041402269968390464
1733862074731916500,10.01791650390625,-0.013987608820199966,-0.016375380739569664,0.05708206965923309
1733862074741867800,10.02786767578125,-0.012049480364471673,-0.024207974061369895,0.038080432069301604
1733862074751818800,10.03781884765625,-0.023370792584866285,-0.020415011519193647,0.04492927505075931
1733862074761773800,10.04777392578125,-0.02566694069802761,-0.022764789515733717,0.04820668928623199
1733862074771725000,10.05772509765625,-0.023926672901958226,-0.031335633984208106,0.04413783241212368
1733862074781675800,10.06767578125,-0.029526465670391914,-0.02057517051696777,0.050012861925363535
1733862074791627000,10.077626953125,-0.04011676020249724,-0.034310265880823136,0.033391397470235826
1733862074801577700,10.08757763671875,-0.06180317989699542,-0.026468320208787918,0.05327917024493217
1733862074811530000,10.097530029296875,-0.042216508960723875,-0.010070727637410163,0.041489363729953765
1733862074821480700,10.107480712890625,-0.03331124490611255,-0.02299041496515274,0.04243804275691509
1733862074831432000,10.117431884765624,-0.017055764219164847,-0.022326982620358465,0.05417816491127014
1733862074841382700,10.127382568359375,-0.018042437168955802,-0.011870470535755157,0.06642506754398346
1733862074851334000,10.137333984375,-0.024166326876729725,-0.0251531459569931,0.045481648236513135
1733862074861284900,10.147284912109376,-0.02890811457633972,-0.02072773073017597,0.05245908603370189
1733862074871235800,10.15723583984375,-0.03881824482455849,-0.0250268892288208,0.04095978689789772
1733862074881187000,10.16718701171875,-0.04285846012607217,-0.029285715717077252,0.03764087160825729
1733862074891137800,10.1771376953125,-0.03234298439584672,-0.020168927803635595,0.03658522507548332
1733862074901089000,10.187089111328126,-0.035680896646901966,-0.03077157036066055,0.037466099563241005
1733862074911039700,10.197039794921874,-0.014136077380180358,-0.019689619854092597,0.04175006049275398
1733862074920991000,10.206990966796875,-0.01739062219671905,-0.032736148431897164,0.04586451007425785
1733862074930941700,10.216941650390625,0.002127732743695378,-0.021230419555306433,0.03815583539307117
1733862074940893000,10.226892822265626,-0.012567220628261565,-0.011135141998529434,0.047339843323826784
1733862074950844000,10.236843994140624,-0.005190115988999605,-0.016460720935463906,0.05109013576805591
1733862074960795000,10.246794921875,-0.006266659179329872,-0.03723345985114574,0.04068506160974502
1733862074970745900,10.256745849609375,-0.0088834906142205,-0.03923252471387386,0.034841596278548236
1733862074980696800,10.26669677734375,-0.0031580987047404047,-0.03269464737772941,0.04190378974974155
1733862074990647800,10.276647705078124,0.007360372700169682,-0.021747136905789374,0.04767945054173469
1733862075000598800,10.286598876953125,0.017048823021724818,-0.024957915645837783,0.03722878367602825
1733862075010549800,10.2965498046875,0.0241411924354732,-0.030046763217449188,0.05109539646506309
1733862075020501000,10.3065009765625,0.027187282133102415,-0.021994974187016486,0.055120998719334596
1733862075030451700,10.31645166015625,0.024666823744773865,-0.04233692046999931,0.0659393298536539
1733862075040403000,10.32640283203125,0.01338423609957099,-0.02908113305568695,0.043918052181601525
1733862075050353700,10.336353759765625,0.0048871875196695325,-0.02932078703045845,0.0497398902028799
1733862075060305000,10.346304931640624,-0.008044920898228882,-0.02692833893597126,0.03979892642498016
1733862075070255900,10.356255859375,-0.007456307355314493,-0.02120002441704273,0.03312894714176655
1733862075080206800,10.366206787109375,-0.02793269367292523,-0.01871522186398506,0.04574409856498241
1733862075090157800,10.37615771484375,-0.032230098605901,-0.033200843334197996,0.061330959275364874
1733862075100108800,10.38610888671875,-0.013722235882282257,-0.019732874473929404,0.03931728038787841
1733862075110059800,10.396059814453125,-0.020703107745572925,-0.021095394998788833,0.031052725389599797
1733862075120010800,10.4060107421875,-0.03856690041199326,-0.026341478958725927,0.05495265641510486
1733862075129962000,10.4159619140625,-0.032685879549384116,-0.016221651482582092,0.0432002593010664
1733862075139913000,10.425912841796874,-0.03155322225764393,-0.0241729027479887,0.03132803519964218
1733862075149864000,10.435864013671875,-0.0668067603379488,-0.03172024938762188,0.02924187657535076
1733862075159815000,10.44581494140625,-0.07146247718930245,-0.034569793599843975,0.05203647670745849
1733862075169766000,10.455765869140626,-0.054034299461171026,-0.030165421161055563,0.038303134909272195
1733862075179716900,10.465716796875,-0.06396116164848208,-0.026283611291646955,0.045136195799708366
1733862075189667800,10.475667724609375,-0.05798705567494034,-0.01780336771607399,0.04936696523725986
1733862075199618800,10.485618896484375,-0.03760477738156914,-0.033035423639416694,0.05273848749697208
1733862075209570000,10.495570068359376,-0.026535540226101873,-0.03055295917391777,0.04119885635077953
1733862075219520800,10.505520751953124,-0.027303017467260358,-0.018209610429406164,0.03428688500523567
1733862075229472800,10.51547265625,-0.01616144572794437,-0.01837444560229778,0.02330488774180412
1733862075239423700,10.525423828125,-0.02150821358337998,-0.03490589368641376,0.02450315761566162
1733862075249375000,10.535375,-0.038076340416073794,-0.031188334468007086,0.03247895880043507
1733862075259325700,10.54532568359375,-0.048719314983487125,-0.037300679868459696,0.04619534946382046
1733862075269277000,10.55527685546875,-0.0482682102151215,-0.041615620458126064,0.04596154070794582
1733862075279228000,10.565227783203126,-0.03376366484872997,-0.016561843222379684,0.02012742674946785
1733862075289179000,10.575178955078124,-0.022118308305740356,-0.023774843341112135,0.045205753904581064
1733862075299129900,10.5851298828125,-0.002720364874601364,-0.014942133066058159,0.042059272572398186
1733862075309080800,10.595080810546875,-0.002384264788031578,-0.01479483354985714,0.038489012870192525
1733862075319032000,10.605031982421876,-0.009918167424201966,-0.019568623822927473,0.05171674323379993
1733862075328982800,10.614982666015624,0.0005535422295331955,-0.021622049221396444,0.06588555383980274
1733862075338934000,10.62493408203125,0.0034054245293140407,-0.011335633006691931,0.0675689768821001
1733862075348884700,10.634884765625,0.004500087898224592,-0.02578676768541336,0.03946808703541756
1733862075358836000,10.6448359375,-0.010559314871951936,-0.019341244807839393,0.0527811575949192
1733862075368786700,10.65478662109375,0.0025743805326521397,-0.022929040166735647,0.06011047756969928
1733862075378738000,10.664738037109375,-0.010880728846043347,-0.02050385884642601,0.038137130692601204
1733862075388689000,10.67468896484375,-0.003553746958822012,-0.03487959020137787,0.03947568581998348
1733862075398639900,10.684639892578126,-0.013363266376778482,-0.03479775713682175,0.0358843833297491
1733862075408590800,10.6945908203125,-0.018211363995075225,-0.03202303172647953,0.037814474609494206
1733862075418541800,10.704541748046875,-0.015499109361693263,-0.03032850276827812,0.03505494676828384
1733862075428492800,10.714492919921875,0.003816781809180975,-0.019517185896635054,0.044727030476927755
1733862075438443800,10.72444384765625,0.00858005068823695,-0.023460370564460754,0.037948914644122124
1733862075448394800,10.734394775390625,-0.016650690549612043,-0.03811667242646217,0.04480068023502826
1733862075458346000,10.744345947265625,-0.0025694851618260142,-0.023126608565449715,0.06571253536045552
1733862075468296700,10.754296630859375,0.009734627550840378,-0.027454408636689184,0.07340016725361347
1733862075478248000,10.764248046875,-0.0006417319696396589,-0.01945581109821796,0.053986441731452936
1733862075488198700,10.77419873046875,-0.03343056043684482,-0.018933248528838157,0.03552899402081966
1733862075498150000,10.78414990234375,-0.05183116339370608,-0.01348375095129013,0.032122984969615936
1733862075508100900,10.794100830078126,-0.04610993620269,-0.012830840000510215,0.04944003047347068
1733862075518051800,10.8040517578125,-0.045966801404953,-0.02481120065152645,0.047619244787096976
1733862075528002800,10.8140029296875,-0.03433350062593817,-0.02016951232552528,0.05255377857983112
1733862075537953800,10.823953857421875,-0.02967778377458453,-0.037652562046051025,0.04167991786599159
1733862075547905000,10.833905029296876,-0.04246193508915603,-0.02674655262827873,0.025610826596617696
1733862075557855700,10.843855712890624,-0.0595779050629586,-0.033278584745526314,0.0379021528929472
1733862075567807000,10.853806884765625,-0.05325922343544662,-0.027786417070031166,0.059499067673087117
1733862075577758000,10.863758056640625,-0.033811011121794576,-0.027968203377723693,0.029773791494965552
1733862075587709000,10.873708984375,-0.03294190013706684,-0.03593582125604153,0.035357729107141495
1733862075597660000,10.883659912109374,-0.04544306979179382,-0.0256803847014904,0.029521862560510634
1733862075607611000,10.89361083984375,-0.07870638390295207,-0.01702770716845989,0.032471944537758826
1733862075617563000,10.90356298828125,-0.05619001619033515,-0.02770458400547504,0.04106909249126911
1733862075627513900,10.913513916015624,-0.04456687147915363,-0.017538579300045966,0.03628828795552254
1733862075637464800,10.92346484375,-0.015270561302825808,-0.024616554862260817,0.03453296872079372
1733862075647415800,10.933415771484375,-0.04225501434020698,-0.036300562915205954,0.013806991556286811
1733862075657366800,10.94336669921875,-0.04382153300456702,-0.0038210195928812026,0.08108604558110237
1733862075667317800,10.95331787109375,-0.00938859059214592,-0.007787585136294364,0.05959083760976791
1733862075677268700,10.963268798828125,0.08384630407467485,-0.014449381113052367,0.05212064785957336
1733862075687220000,10.973219970703125,0.07887954851277172,-0.021965748092532156,0.0543453381717205
1733862075697171000,10.9831708984375,0.02467734513878822,-0.03458966734409332,0.06360708751380444
1733862075707122000,10.993121826171874,-0.04974398185610771,-0.03917290348112583,0.05467793112695217
1733862075717073000,11.003072998046875,-0.060628363963961596,-0.02539806062877178,0.0392003760099411
1733862075727023900,11.01302392578125,-0.0660020198263228,-0.0240858089864254,0.03755377784669399
1733862075736974800,11.022974853515626,-0.04306465022265911,-0.039454058510065074,0.039303836384415626
1733862075746925800,11.03292578125,-0.00838379746377468,-0.024209727627038956,0.05041735107302665
1733862075756872700,11.042872802734376,0.020505027890205384,-0.01760638383924961,0.0699783761113882
1733862075766823700,11.05282373046875,0.03776303668320179,-0.030014614513516426,0.05863865145146847
1733862075776774700,11.062774658203125,0.032841946893930433,-0.025574586239457128,0.04955401224195957
1733862075786725600,11.0727255859375,-0.007554945424199104,-0.030056115567684172,0.05397299772799015
1733862075796676600,11.082676513671874,-0.0313659560572356,-0.019341244807839393,0.056013563644886015
1733862075806627800,11.0926279296875,-0.030146643395349382,-0.03315583514869213,0.060473465663194656
1733862075816578600,11.10257861328125,-0.019797171881794928,-0.025698504880070683,0.042055180919170376
1733862075826529800,11.11252978515625,0.009116203391551971,-0.01787526390850544,0.05364624999165535
1733862075836480500,11.12248046875,0.011323431112244724,-0.019573299998044965,0.0343465062379837
1733862075846431700,11.132431640625,0.020934066957235334,-0.02217033075392246,0.04140986875295639
1733862075856382700,11.1423828125,0.014441782328486441,-0.020667524975538254,0.04692366373836994
1733862075866333700,11.152333740234376,-0.046108255702257156,-0.03090484135150909,0.04451894068419933
1733862075876285000,11.162284912109374,-0.04039104709923267,-0.02845452558994293,0.04878828856647014
1733862075886235600,11.172235595703125,-0.04568097020089626,-0.015943419063091276,0.024189269360899924
1733862075896187000,11.182186767578125,-0.057953591796755785,-0.03345627939999103,0.030152561679482458
1733862075906137600,11.1921376953125,-0.05570668965280055,-0.03256488351821899,0.054334232255816454
1733862075916088800,11.2020888671875,-0.032536680337041615,-0.020064298385381697,0.05896773727536201
1733862075926039800,11.212039794921875,-0.01889459701888263,-0.033310733449459076,0.04416705850660801
1733862075935990800,11.22199072265625,-0.02026698135063052,-0.027654899644851683,0.04128185845911503
1733862075945941800,11.231941650390626,-0.0001945727240294218,-0.022371406283974646,0.041483518511056895
1733862075955892700,11.241892822265624,-0.022766543081402777,-0.029856793603301048,0.03415244497060776
1733862075965843700,11.25184375,-0.05463986413888633,-0.03472469190061092,0.03818330792188644
1733862075975794700,11.261794677734375,-0.07076558096632361,-0.013915128105878829,0.042403555965423584
1733862075985745700,11.27174560546875,-0.06638108227178453,-0.006837152543663978,0.04943710786402225
1733862075995697000,11.28169677734375,-0.04331190298199653,-0.010935235512256622,0.043530514168739314
1733862076005647600,11.291647705078125,-0.0050496115397661925,-0.01968903533220291,0.04037117335498333
1733862076015598800,11.301598876953125,0.0073024319678544995,-0.01881108345389366,0.04326806384027004
1733862076025550800,11.31155078125,-0.0035169951450079676,-0.01636719743311405,0.05880231758058071
1733862076035501800,11.321501708984375,-0.017446151776239274,-0.03545183713138103,0.05847381627857685
1733862076045452800,11.331452880859375,-0.036737200766801835,-0.029608371800184247,0.059435939309000964
1733862076055403800,11.34140380859375,-0.04505845438838005,-0.03708148415982723,0.03945522755384445
1733862076065354800,11.351354736328124,-0.02338569789305329,-0.013029577443003653,0.044571547654271126
1733862076075305700,11.3613056640625,-0.007798837182670831,-0.02043722335100174,0.05612228471636772
1733862076085256700,11.371256591796875,0.015604980888962745,-0.0135112234801054,0.05206161114871501
1733862076095207700,11.381207763671876,0.020617256093025206,-0.017315876460075378,0.050913610157370566
1733862076105159000,11.391158935546875,0.02984378799125552,-0.01606967579126358,0.049181671798229215
1733862076115109600,11.401109619140625,0.015214374136179685,-0.026666473129391667,0.05060615164339542
1733862076125060900,11.411060791015625,0.004298573976755142,-0.017218845826387403,0.04440846604704857
1733862076135011600,11.421011474609376,-0.013812763709947466,-0.02752221317589283,0.04941606507599353
1733862076144962800,11.430962890625,-0.03185702750980854,-0.02139350116252899,0.050934068423509594
1733862076154913500,11.44091357421875,-0.04365677089691162,-0.030291677889227864,0.02508475689589977
1733862076164864800,11.45086474609375,-0.059791913139820095,-0.024342998617887496,0.03172317199707031
1733862076174815700,11.460815673828124,-0.04411211344897747,-0.019620061749219892,0.04879179569780826
1733862076184766700,11.4707666015625,-0.019268910223990677,-0.014516016608476639,0.04154781591892242
1733862076194717700,11.4807177734375,-0.012407207760959863,-0.018318916022777555,0.0362111310660839
1733862076204668700,11.490668701171876,-0.033386136773228645,-0.023439327776432036,0.051823710739612575
1733862076214619600,11.50061962890625,-0.022304113201424478,-0.027843700215220448,0.052905076235532755
1733862076224570600,11.510570556640625,-0.02078084915690124,-0.035301030483841894,0.03284954567849636
1733862076234521600,11.520521484375,-0.034195115068554875,-0.030006431207060813,0.024921675288677215
1733862076244472800,11.530472900390626,-0.037303602477908135,-0.030211598390340804,0.04093991315364837
1733862076254423600,11.540423583984374,-0.026056232276558875,-0.01708265222609043,0.05023322667777538
1733862076264374800,11.550374755859375,-0.016444938844442366,-0.030531916385889053,0.0378887088894844
1733862076274325800,11.56032568359375,-0.003786532801389694,-0.02308919916450977,0.05081891761124134
1733862076284276700,11.57027685546875,0.008833148666471242,-0.02865677016377449,0.05286299065947532
1733862076294227700,11.580227783203124,0.013206103053689001,-0.017788754668831824,0.05146422977745533
1733862076304178700,11.5901787109375,0.004450403537601232,-0.033431729480624194,0.05599076729118824
1733862076314130000,11.6001298828125,-0.011841244441270828,-0.030384616869688033,0.05978782148659229
1733862076324080600,11.61008056640625,-0.00971533832848072,-0.02201835506260395,0.05594692814946174
1733862076334032000,11.620031982421875,0.002501023035496473,-0.02125672304034233,0.0507680642068386
1733862076343982600,11.629982666015625,-0.03990194840803742,-0.026330957564711568,0.022506430840492246
1733862076353933800,11.639933837890625,-0.03858421687297523,-0.028327099817991256,0.02811784098148346
1733862076363884800,11.649884765625,-0.059640083578974004,-0.01646481258869171,0.041558921834826464
1733862076373835800,11.659835693359375,-0.05283259552121162,-0.016882745739817618,0.05826923361718654
1733862076383786800,11.669786865234375,-0.021685177585482596,-0.02311374908387661,0.043135377371311186
1733862076393737700,11.67973779296875,0.01094224977493286,-0.021276012262701986,0.04179389963448047
1733862076403688700,11.689688720703124,0.015532938566058873,-0.020817747101187705,0.05956570316851139
1733862076413639700,11.6996396484375,-0.0061596916735172265,-0.021317513316869735,0.05974456686675548
1733862076423591700,11.709591796875,-0.019904066322371364,-0.021682254976034165,0.04260813862681389
1733862076433542700,11.719542724609376,-0.042108372411131856,-0.02605564775466919,0.039082887110114095
1733862076443494000,11.729493896484374,-0.06249824948906898,-0.03317278628349304,0.03563829961419105
1733862076453444600,11.739444580078125,-0.055971039677411315,-0.027553777357935905,0.03279810775220394
1733862076463395800,11.749395751953125,-0.05528714906647801,-0.020021628287434576,0.052145197778940194
1733862076473346800,11.759346923828126,-0.04280219989418983,-0.041756490233540534,0.05207797776162624
1733862076483297800,11.7692978515625,0.010317395874857901,-0.01502571969628334,0.05367489156424999
1733862076493248800,11.779248779296875,0.040845074477046724,-0.014202712875604628,0.055929977014660834
1733862076503199700,11.78919970703125,0.013391834884136915,-0.01135492222905159,0.049154783791303634
1733862076513150700,11.799150634765626,-0.020386296881362793,-0.022416998991370198,0.03773965580761433
1733862076523101700,11.809101806640625,-0.03977832202836871,-0.006738952866196632,0.05873334399759769
1733862076533052700,11.819052734375,-0.03603928163051605,-0.01940671125948429,0.05270633879303932
1733862076543004000,11.82900390625,-0.04771437572464347,-0.021919570863246918,0.043970659151673315
1733862076552954600,11.83895458984375,-0.03685819679796695,-0.02841185549199581,0.034520693761110305
1733862076562905900,11.84890576171875,-0.032967180708795785,-0.02246317622065544,0.04707213229835033
1733862076572856600,11.858856689453125,-0.029651772550493477,-0.024306758260726927,0.06543722555041313
1733862076582807800,11.868807861328126,-0.03318272315561771,-0.02084229702055454,0.051363107490539545
1733862076592758500,11.878758544921874,-0.036986791613698,-0.015389292311668395,0.05188859266936779
1733862076602709800,11.888709716796875,-0.0063554334413260215,-0.015748773273825643,0.04586392555236816
1733862076612660700,11.89866064453125,-0.00014729951620101928,-0.02866846060156822,0.04177344136834144
1733862076622611700,11.90861181640625,0.018996961414813995,-0.022092004820704458,0.06277648190855979
1733862076632562700,11.918562744140624,0.013356982766464352,-0.013195581659674644,0.05412731150686741
1733862076642513700,11.928513671875,-0.015502543427795171,-0.017768296402692795,0.0390390479683876
1733862076652464600,11.938464599609375,-0.006327303325384855,-0.030856910556554793,0.04657587321400642
