time,seconds_elapsed,z,y,x
1733861858093624600,0.01762451171875,-0.1784146393023431,-0.05623802005052566,-0.01415478208065033
1733861858103575600,0.027575439453125,-0.1591637031264603,-0.049131987437605856,0.005083002352714539
1733861858113526500,0.037526611328125,-0.17567513133585452,-0.0522977579921484,0.06025543899834156
1733861858123477500,0.0474775390625,-0.16700827914699912,-0.042355040648579596,0.06678805563747882
1733861858133428500,0.057428466796875,-0.11150383406803012,-0.0483545733243227,0.06778115832805633
1733861858143379500,0.06737939453125,0.0005599719703197479,-0.06602174744009971,0.06005319442451
1733861858153330700,0.07733056640625,0.11481997287869453,-0.03985737861394882,0.04327916975617409
1733861858163281400,0.087281494140625,0.1251081426590681,-0.027478374034166333,0.03682371000647545
1733861858173232600,0.097232666015625,0.04707520103827119,-0.018567337825894356,0.03123392717540264
1733861858183183400,0.107183349609375,-0.0535642707966268,-0.022916180685162543,-0.0025298107385635375
1733861858193134600,0.117134521484375,-0.09555456978604197,-0.02380465395748615,-0.014675591084361075
1733861858203085300,0.127085205078125,-0.08231631802842021,-0.0038163434177637097,-0.012503507742285728
1733861858213036500,0.13703662109375,-0.05869067389965057,-0.005353635987639427,0.03599836509823799
1733861858222987500,0.146987548828125,-0.035060207465291024,0.02914776855111122,0.0694774408519268
1733861858232938500,0.1569384765625,-0.043577129789441824,0.06577917085587978,0.12188450443744658
1733861858242889500,0.166889404296875,-0.046410307388752695,0.02727379137277603,0.11779869642853737
1733861858252841500,0.176841552734375,-0.0658089814722538,-0.0018260463833808898,0.11552899793088435
1733861858262792700,0.186792724609375,-0.002920271360874176,-0.0009942717343568801,0.10805237843990326
1733861858272743400,0.196743408203125,0.03619885610640049,-0.008114332872629165,0.06319558410346508
1733861858282694700,0.206694580078125,-0.0022666297577321527,-0.02278524778187275,0.038486090260744094
1733861858292645400,0.216645263671875,-0.023462124130129814,0.02493570381402969,0.02362345217168331
1733861858302596600,0.2265966796875,-0.020769670175760983,0.1149865616172552,0.07631751600503921
1733861858312547300,0.23654736328125,-0.049303398481756446,-0.057604632228612895,0.04935118314623833
1733861858322498600,0.24649853515625,-0.03660685238540173,-0.13358078745007515,-0.04130699290037155
1733861858332449500,0.256449462890625,-0.013992869517207145,-0.044887773996591565,-0.014172317737340926
1733861858342400500,0.266400390625,-0.0022837270230054853,-0.0088099139213562,0.04197627046406269
1733861858352351500,0.2763515625,-0.023066987332701683,-0.010029811105132102,0.07961655755043029
1733861858362302500,0.286302490234375,-0.040501375605911015,0.00047813890576362607,0.08963935439288616
1733861858372253400,0.29625341796875,-0.03166004363298416,-0.013194997137784957,0.07569090853929519
1733861858382204400,0.306204345703125,-0.030427286967635154,-0.009161211577057838,0.0683054744631052
1733861858392155400,0.3161552734375,-0.039911885280162096,-0.03553834637105465,0.04762041383087635
1733861858402106600,0.326106689453125,-0.05128346638306975,-0.02698912921249866,0.007400631645321846
1733861858412057300,0.336057373046875,-0.09924246451854705,-0.022456746479868887,0.012719780841469764
1733861858422008600,0.346008544921875,-0.15775295954570173,-0.018449264404177664,0.03392740404307842
1733861858431959300,0.355959228515625,-0.09392667632326483,-0.07589724476635455,0.000986088427901268
1733861858441910500,0.36591064453125,0.012743892369419335,-0.05548515585660934,-0.048615854609012604
1733861858451862500,0.375862548828125,0.06593816080987452,-0.06731997055709361,-0.0850146172016859
1733861858461813500,0.3858134765625,0.06078735391795635,-0.08489420569241046,-0.08120119639337062
1733861858471764500,0.395764404296875,0.006463058534264564,-0.04844985039234161,-0.03853285201191902
1733861858481715500,0.405715576171875,-0.061713967243582,-0.04902794254124164,0.018324176719784736
1733861858491666400,0.41566650390625,-0.09733063954785466,-0.06710252841413021,0.031578795090317725
1733861858501617400,0.425617431640625,-0.11828092698752879,-0.08685469211041927,0.04052665617763996
1733861858511568600,0.435568603515625,-0.12322437473908066,-0.03625789281725883,0.07098433828353881
1733861858521519400,0.445519287109375,-0.07682838813662529,0.022082067948579788,0.043166357031464576
1733861858531470600,0.455470703125,-0.02359963290467858,-0.02415069091618061,0.009939210212230681
1733861858541421300,0.46542138671875,-0.035709611284732816,-0.04118307425975799,-0.058276832401752465
1733861858551372500,0.47537255859375,-0.1653670878112316,-0.05195990433990955,-0.06813187146186828
1733861858561323500,0.485323486328125,-0.262519155921787,-0.032818566018342966,0.012960603860020637
1733861858571274500,0.4952744140625,-0.2611088507324457,0.015878537133336066,0.1314601420342922
1733861858581225700,0.505225830078125,-0.17755612277686594,0.05997428396940231,0.24138532860875128
1733861858591176400,0.515176513671875,-0.015353051954507826,0.05041267489790916,0.22870646429955957
1733861858601127700,0.525127685546875,0.08991597937718034,0.03040507513582706,0.17461480862796305
1733861858611078400,0.535078369140625,0.12905658802390096,0.00893500160574913,0.11795710186064243
1733861858621029600,0.545029541015625,0.1093279513336718,0.009412555989623069,0.049340661752223965
1733861858630980600,0.554980712890625,0.033967882183939216,0.006625555619597435,-0.003555646654963493
1733861858640931600,0.564931640625,-0.07564429291859269,-0.03418284010887146,-0.011875731232762336
1733861858650882600,0.574882568359375,-0.10522153892815113,-0.02753390361368656,-0.0029600188493728637
1733861858660834600,0.58483447265625,-0.024771599293500184,-0.03484802601933479,0.0007218845337629318
1733861858670785500,0.59478564453125,0.08049041777551173,-0.0673293229073286,-0.03884557122290134
1733861858680736500,0.604736572265625,0.08539221834242343,-0.037133506608009334,0.0424900652050972
1733861858690687500,0.6146875,0.055746437141299246,0.01603577352166176,0.14334171848595142
1733861858700638500,0.624638427734375,0.009517039277404547,0.03565583527088165,0.19207915364801884
1733861858710589700,0.634589599609375,-0.015714140351861715,0.02631049929857254,0.14282149400413036
1733861858720540400,0.64454052734375,-0.011832915004342793,-0.0005675707548856735,0.06761398506760596
1733861858730491600,0.65449169921875,-0.019703063857555388,-0.006534954726696014,0.0429079983562231
1733861858740442600,0.664442626953125,-0.02873158896565437,-0.01907820995748043,0.008940846824645996
1733861858750393600,0.6743935546875,-0.051953912990540266,-0.01197451543211937,0.02852291465103626
1733861858760344600,0.684344482421875,-0.1003721992008388,-0.01870879212319851,0.04541676630675792
1733861858770295600,0.694295654296875,-0.10494739816188811,-0.030360651472210884,0.04527238940000534
1733861858780246500,0.70424658203125,-0.10164426496326923,-0.022700492107868193,0.05521276865601539
1733861858790197500,0.714197509765625,-0.06890168679058552,-0.03283668619692325,0.04540215325951576
1733861858800148500,0.7241484375,-0.051339726614952085,-0.023451018214225766,0.053479076731204986
1733861858810099700,0.734099609375,-0.04610007239580154,-0.023892916762828825,0.05178045611977577
1733861858820050400,0.744050537109375,-0.04148483368530869,-0.040489246776700016,0.028999884513020515
1733861858830001700,0.754001708984375,-0.0576512478493154,-0.013044190490245819,0.03426584221720695
1733861858839952400,0.763952392578125,-0.048351212323457,-0.021233926686644554,0.026744214540719985
1733861858849903600,0.773903564453125,-0.05729848888888955,-0.021940613651275632,0.030748774006962774
1733861858859855600,0.783855712890625,-0.08192556514516472,-0.011398761370778084,0.05996083996593952
1733861858869806600,0.793806640625,-0.1153875436335802,-0.014657470905780791,0.05738251391053199
1733861858879757600,0.803757568359375,-0.10781813129261135,-0.01523965470790863,0.04043722432851791
1733861858889708500,0.81370849609375,-0.10549801778197287,-0.023902269113063812,0.03375438556373119
1733861858899659500,0.823659423828125,-0.07811842794716357,-0.028528759869933126,0.016534370693564414
1733861858909610500,0.833610595703125,-0.04993906603679061,-0.03827449333667755,0.0037479543566703794
1733861858919561700,0.843561767578125,-0.034477293010801074,-0.024526538491249084,0.023386720806360242
1733861858929512400,0.853512451171875,-0.050378626497834915,0.003940846580266952,0.033978257447481154
1733861858939463700,0.863463623046875,-0.08028919611498712,-0.0081476506203413,0.02978080575764179
1733861858949414400,0.873414306640625,-0.10825228492617607,-0.007934884652495384,0.04018178826272487
1733861858959365600,0.88336572265625,-0.1152693240813911,-0.024441198295354842,0.04393558783829212
1733861858969316600,0.893316650390625,-0.0809391844563186,-0.030663433811068532,0.024344752183556556
1733861858979267600,0.903267578125,-0.06834741390869022,-0.04119359565377235,0.025583354067802426
1733861858989218600,0.913218505859375,-0.05185059874653816,-0.023212533283233642,0.04388005825877189
1733861858999169500,0.92316943359375,-0.02110240926146507,-0.00163432320356369,0.08644143513441085
1733861859009120500,0.93312060546875,-0.0015185878694057465,-0.0037836101919412612,0.06184124688506126
1733861859019071500,0.943071533203125,0.017805851934105155,-0.00755903707742691,0.045104047095775604
1733861859029022500,0.9530224609375,-0.03858180572018027,-0.025406243935227394,0.046020577418804165
1733861859038973700,0.9629736328125,-0.0983246190212667,-0.026384733578562736,0.027953590330481528
1733861859048924400,0.97292431640625,-0.0840904880940914,-0.019027941074967383,0.03850771757066249
1733861859058875600,0.982875732421875,-0.04833177697062492,-0.0298632233440876,0.05663023423850536
1733861859068827600,0.99282763671875,-0.010482815569639205,-0.018566753304004667,0.024971359649300574
1733861859078778600,1.002778564453125,-0.02004968533813953,-0.007135843229293823,0.047504678496718404
1733861859088729600,1.0127294921875,-0.03646262160912156,-0.023727497068047523,0.04097147733569145
1733861859098680600,1.0226806640625,-0.03511617543622851,-0.011480594435334205,0.0533867222726345
1733861859108631600,1.032631591796875,-0.06440159889236093,-0.025396891584992407,0.05233166026175022
1733861859118582500,1.04258251953125,-0.08423968730643391,-0.027968203377723693,0.031119945406913756
1733861859128533500,1.052533447265625,-0.10408639741837977,-0.01937748516499996,0.03066401833295822
1733861859138484500,1.062484375,-0.1319293669812381,-0.019508418068289755,-0.007674772411584854
1733861859148435700,1.072435791015625,-0.1480605637013912,-0.047963528180122374,-0.007845452803373336
1733861859158386400,1.082386474609375,-0.11471826606988907,-0.02745557768046856,0.03419102341532707
1733861859168337700,1.092337646484375,-0.033704116681218144,-0.024765607944130897,0.053581368061900135
1733861859178288400,1.102288330078125,0.008683218801766633,-0.023047113588452336,0.040864509829878805
1733861859188239600,1.112239501953125,-0.030772154882550237,-0.017765958315134046,0.037436873468756675
1733861859198190300,1.1221904296875,-0.09323226431831717,-0.026547815185785292,0.03218026811480522
1733861859208141600,1.1321416015625,-0.1482690918855369,-0.048452773001790045,0.005114566534757614
1733861859218092500,1.142092529296875,-0.19883330408334732,-0.04497428323626518,0.007923194214701652
1733861859228043500,1.15204345703125,-0.2004905697710812,-0.01760287670791149,0.06485270366072654
1733861859237994500,1.161994384765625,-0.15157923934683204,-0.012258008548617362,0.0656038142889738
1733861859247945500,1.171945556640625,-0.10554594857692717,-0.020866846939921378,0.036009471014142036
1733861859257896400,1.181896484375,-0.0012875555925071238,-0.020528993287682533,0.04365443280935287
1733861859267847400,1.191847412109375,0.05195639720857143,-0.016657120290398595,0.03630874622166157
1733861859277799700,1.201799560546875,-0.0012413783632218838,-0.0032820904105901718,0.04388005825877189
1733861859287750400,1.21175048828125,-0.054429947715252634,-0.03155716778039932,0.049876083803176874
1733861859297701600,1.22170166015625,-0.018943039270490406,-0.020619594180583952,0.05570142895579338
1733861859307652400,1.23165234375,0.0005839373677968978,-0.010978490132093429,0.054504328125715255
1733861859317603600,1.241603515625,0.030419834313541647,-0.012386018842458725,0.06803834795951842
1733861859327554600,1.251554443359375,0.06258022868409753,-0.0029366379737854,0.08196750459074974
1733861859337505500,1.261505615234375,0.06073664664402604,0.0009206219762563705,0.09425707732141017
1733861859347456500,1.27145654296875,0.019416063609719276,-0.002277297282218933,0.05694412249326706
1733861859357407500,1.281407470703125,-0.036800475261360405,-0.015500935992598533,0.035224458116292955
1733861859367358500,1.2913583984375,-0.06567571048140526,-0.0391261417299509,0.024606617990136144
1733861859377309400,1.301309326171875,-0.1003485260643065,-0.030995442244410514,0.03505085511505603
1733861859387260400,1.311260498046875,-0.0773942053258419,-0.03054769847691059,0.03907236571609974
1733861859397211600,1.321211669921875,-0.04782718844935298,-0.010505027401447296,0.03231996884644031
1733861859407162400,1.331162353515625,-0.05768865725025534,-0.01424012227654457,0.032926118046045304
1733861859417113600,1.341113525390625,-0.04766995206102729,-0.019900047734379766,0.030070728614926337
1733861859427064300,1.351064208984375,-0.07243029930815101,-0.02029460000991821,0.05981529401540756
1733861859437015600,1.361015625,-0.06359948872923851,-0.028322423642873764,0.055604398322105404
1733861859446966500,1.370966552734375,-0.032833032935112715,-0.04414017049968243,0.03604921850264072
1733861859456917500,1.38091748046875,-0.05287292753159999,-0.03240004834532738,0.021284780091047287
1733861859466868700,1.39086865234375,-0.11397943040132522,-0.023605331993103027,0.056196518996357914
1733861859476819500,1.4008193359375,-0.13134148409068583,-0.02072422359883785,0.0653776043176651
1733861859486770700,1.410770751953125,-0.08588190155550837,-0.029880759000778197,0.02575403445959091
1733861859496722400,1.420722412109375,-0.02857435257732868,-0.04287526513040066,0.017788170146942138
1733861859506673700,1.430673583984375,-0.016646452765911816,-0.02512567342817783,0.03426350412964821
1733861859516624400,1.440624267578125,-0.05128346638306975,-0.028813422030210492,0.04831248774826526
1733861859526575600,1.45057568359375,-0.0696077892333269,-0.03142974200844764,0.05219195953011512
1733861859536526300,1.4605263671875,-0.07549377853199839,-0.027160394126176834,0.04784603928029537
1733861859546477600,1.4704775390625,-0.03768529527187347,-0.01977963622510433,0.055742930009961125
1733861859556428500,1.480428466796875,0.00917480171099305,-0.01905249099433422,0.053770168632268904
1733861859566379300,1.490379150390625,0.013056465449929236,-0.0007487725406885147,0.05743395183682441
1733861859576330500,1.50033056640625,0.01798646919801831,-0.01295826577246189,0.05801964277029037
1733861859586281200,1.51028125,0.005212620081752538,-0.014400865796208381,0.03099719581007957
1733861859596232400,1.520232421875,-0.026371289575099943,-0.04305997404754162,0.028787118545174597
1733861859606183200,1.53018310546875,-0.03151917385756969,-0.030983167284727095,0.04592588487267494
1733861859616134400,1.540134521484375,-0.038717414798587556,-0.024280454775691032,0.07646130838990212
1733861859626085400,1.55008544921875,-0.06527282876893878,-0.030382278782129287,0.060707858940958974
1733861859636036400,1.560036376953125,-0.09070844492912292,-0.024271686947345734,0.037330490484833716
1733861859645987300,1.5699873046875,-0.06613207594677806,-0.018245850786566733,0.03537409572005272
1733861859655938300,1.579938232421875,-0.031205870124697683,0.009930442383885383,0.02390577624440193
1733861859665889300,1.58988916015625,-0.037695086013525725,0.001858195087313652,0.035894320201873775
1733861859675840300,1.59984033203125,-0.06405117801949381,-0.038301381343603134,0.015990180814266203
1733861859685791200,1.609791259765625,-0.09526303949356078,-0.028144144466519354,0.03969020535349846
1733861859695742500,1.619742431640625,-0.08768339801952242,-0.006562427255511283,0.06132569857835769
1733861859705693400,1.629693359375,-0.047679888933151955,-0.036627310651540755,0.05235328757166862
1733861859715645400,1.6396455078125,-0.02331365557014942,-0.031843583506345745,0.029404958182573316
1733861859725596400,1.649596435546875,-0.014461071550846099,-0.01943944448530674,0.05637362912893295
1733861859735547400,1.65954736328125,-0.02262742687165737,-0.03923603184521198,0.019033201771974564
1733861859745498400,1.669498291015625,-0.027566490709036585,-0.02984802577495575,0.0612730916082859
1733861859755449300,1.679449462890625,-0.03938566944897175,0.010378186151385306,0.04944003047347068
1733861859765400300,1.689400390625,-0.06032441258132457,-0.03146422879993915,0.03945055137872696
1733861859775351300,1.699351318359375,-0.08714753757715225,-0.016299392893910407,0.059230772125720976
1733861859785302500,1.709302490234375,-0.06711115011200308,-0.01420914261639118,0.041135143464803695
1733861859795253200,1.719253173828125,-0.05726794762015342,-0.019638766449689864,0.02764846990406513
1733861859805204500,1.72920458984375,-0.029517186385393142,-0.035413843208551406,0.04541267465353012
1733861859815155200,1.7391552734375,-0.01445405728816986,-0.013173369827866554,0.06113455992043018
1733861859825106400,1.7491064453125,-0.006267828223109245,-0.01756196017563343,0.04220364947915077
1733861859835057200,1.75905712890625,-0.02178498469814658,-0.02305003619790077,0.059494391497969625
1733861859845008400,1.76900830078125,-0.019667992544174194,-0.019150690671801567,0.056415130183100695
1733861859854959400,1.77895947265625,-0.05180310634300112,-0.005341945549845695,0.043214872348308564
1733861859864910300,1.788910400390625,-0.09128463738188147,-0.02344926464855671,0.025169512569904327
1733861859874861600,1.798861572265625,-0.10813479602634907,-0.04352174634039402,0.045998950108885765
1733861859884812300,1.808812255859375,-0.10211480508446692,-0.04989361945986748,0.05933072536885738
1733861859894763500,1.818763427734375,-0.09637903791144489,-0.022730887246131894,0.049264089384675025
1733861859904714200,1.82871435546875,-0.07953063283264636,-0.035628362742066384,0.03844575825035572
1733861859914665500,1.83866552734375,-0.04995148712694645,-0.014452888244390488,0.03406301312148571
1733861859924616400,1.848616455078125,-0.02966448590159416,-0.02173778455555439,0.02353402032256126
1733861859934568400,1.858568359375,-0.030554712739586827,-0.01390986740887165,0.04807517186105251
1733861859944519200,1.868519287109375,-0.012781740161776542,-0.0076543141454458235,0.08112462402582168
1733861859954470400,1.878470458984375,-0.028280922588706014,-0.003481412374973297,0.06100421153903007
1733861859964421400,1.88842138671875,-0.061953475087881085,-0.007588847693800926,0.0324292744398117
1733861859974372400,1.898372314453125,-0.0872106659412384,-0.0308913973480463,-0.014538228440284727
1733861859984323300,1.9083232421875,-0.09773673613071442,-0.03610182547271251,-0.0329611893594265
1733861859994274300,1.9182744140625,-0.10195099282488226,-0.029560441005229948,0.004871989950537681
1733861860004225300,1.928225341796875,-0.08065159968659281,-0.03576923251748085,0.03755553141236305
1733861860014176300,1.93817626953125,-0.022103549128025767,-0.0037970541954040525,0.07837327949106693
1733861860024127500,1.94812744140625,0.037074616027623415,-0.01579904215633869,0.08471125034093856
1733861860034078500,1.958078369140625,0.016353168907761572,-0.024360534274578093,0.06958850001096725
1733861860044029400,1.968029541015625,-0.03693243107795715,-0.02658405554294586,0.052717444708943365
1733861860053980400,1.97798046875,-0.08593655435219406,-0.017959435060620307,0.03318389219939708
1733861860063931400,1.987931396484375,-0.09062281247228383,-0.02126023017168045,0.02271802776455879
1733861860073882400,1.99788232421875,-0.0995223043732345,-0.027221768924593923,0.03520341532826424
1733861860083833300,2.007833251953125,-0.08925342381522058,-0.02524433137178421,0.034893618726730344
1733861860093784300,2.017784423828125,-0.0577241669550538,-0.019292729490995406,0.03356090881824493
1733861860103735600,2.027735595703125,-0.08011383954808116,-0.013183306699991225,0.028700024783611295
1733861860113686300,2.037686279296875,-0.09705912913009523,-0.03305412833988666,0.020917700344324112
1733861860123637500,2.047637451171875,-0.06221665606871247,-0.02819967404603958,0.04443944570720196
1733861860133588200,2.057588134765625,-0.06918225729763508,-0.02713350611925125,0.04349894998669624
1733861860143539500,2.06753955078125,-0.11335983719825744,-0.023346973317861557,0.03482113801240921
1733861860153490400,2.077490478515625,-0.12299202728793024,-0.023522914406657217,0.0517009611427784
1733861860163442400,2.0874423828125,-0.0692674513630569,-0.014150690427422523,0.044607203489542
1733861860173393200,2.09739306640625,-0.0485058183632791,-0.026942367461323738,0.04002279830873012
1733861860183344400,2.107344482421875,-0.026526772397756575,-0.017929039922356605,0.049292730957269666
1733861860193295400,2.11729541015625,0.0031470658540725706,-0.00602057546377182,0.053607087025046345
1733861860203246300,2.127246337890625,-0.002307546290010214,-0.011666472396254539,0.05780336967110634
1733861860213197600,2.137197509765625,-0.010388561414927243,-0.011582885766029357,0.04701075749993324
1733861860223148300,2.147148193359375,-0.020040186857432127,-0.016801497197151183,0.05990823299586773
1733861860233099500,2.157099609375,-0.038272739771008486,-0.026194179442524907,0.04956862528920173
1733861860243050200,2.16705029296875,-0.05227861490026116,-0.019026187509298322,0.05165127678215503
1733861860253001500,2.17700146484375,-0.04315525111556053,-0.029148353073000906,0.0309480959713459
1733861860262952400,2.186952392578125,-0.030449498799443243,-0.021993220621347426,0.03520575341582298
1733861860272903400,2.1969033203125,-0.02391995090022683,-0.04600947150290012,0.060251931867003436
1733861860282854400,2.2068544921875,-0.02397138882651925,-0.025136779344081876,0.02459901920557022
1733861860292805400,2.216805419921875,-0.015706541567295788,-0.008835048362612724,0.039112697726488115
1733861860302756400,2.22675634765625,-0.01190890285000205,-0.04182371025085449,0.04050093721449375
1733861860312707300,2.236707275390625,-0.016204115825891492,-0.007264438045024872,0.025752280893921852
1733861860322658300,2.246658203125,0.003386865959316492,-0.026976269730925557,0.05143032750785351
1733861860332609500,2.256609619140625,-0.010039601846784353,-0.032603461962938306,0.0666886869162321
1733861860342560300,2.266560302734375,-0.022486410965770483,-0.0013935001850128173,0.04863631287515163
1733861860352511500,2.276511474609375,-0.021999650362133978,-0.022118308305740356,0.06453004757761954
1733861860362462200,2.286462158203125,-0.028856092128157613,-0.024981296521425247,0.05295183798670768
1733861860372413400,2.296413330078125,-0.055659343379735944,-0.01610883875787258,0.028359833043813704
1733861860382365400,2.306365478515625,-0.059886167294532056,-0.048183892932534216,0.053102644634246826
1733861860392316400,2.31631640625,-0.04355389504432678,-0.028027240088582036,0.0454354710072279
1733861860402267400,2.326267333984375,-0.020634937880188227,-0.02660977450609207,0.04258534227311611
1733861860412218400,2.33621826171875,-0.019333646023273466,-0.025495091262459753,0.046156186497211454
1733861860422169300,2.34616943359375,-0.017242811223864556,-0.03540156824886798,0.034412557211518285
1733861860432120300,2.356120361328125,-0.008116232568770646,-0.020837036323547362,0.03200198893845081
1733861860442071600,2.366071533203125,-0.03057794748470187,-0.02609831785261631,0.05116378552615642
1733861860452022300,2.376022216796875,-0.03336377881094813,-0.03686228845119476,0.0442804557532072
1733861860461973500,2.385973388671875,-0.04302651016935706,-0.03305763547122478,0.06394669473171234
1733861860471924200,2.39592431640625,-0.03998874990865588,-0.02825578814744949,0.03969838865995407
1733861860481875500,2.40587548828125,-0.03717047761753201,-0.024813538739085195,0.036702713975310323
1733861860491826200,2.415826171875,-0.04494578779414296,-0.030577509093284605,0.030163083073496817
1733861860501777400,2.42577734375,-0.07156257656291126,-0.022582418686151504,0.04354629625976086
1733861860511728400,2.435728271484375,-0.07149637945890426,-0.023038930281996727,0.028527006304264066
1733861860521679400,2.445679443359375,-0.04845335752367973,-0.029619477716088295,0.04752513676285743
1733861860531630300,2.45563037109375,-0.02418970775231719,-0.01913257049322128,0.05416647447347641
1733861860541581300,2.465581298828125,0.002673603123426437,-0.03799275378584861,0.04454699773490429
1733861860551533000,2.475532958984375,-0.013135960426926612,-0.029617724150419234,0.05143558820486068
1733861860561484000,2.485484130859375,-0.010155483311414719,-0.02073649855852127,0.04825052842795849
1733861860571435000,2.49543505859375,-0.01809095248579979,-0.02539455349743366,0.031231004565954207
1733861860581386000,2.505385986328125,-0.021651275315880774,-0.03378244261443615,0.04063245463967323
1733861860591337000,2.5153369140625,-0.014613047242164612,-0.014015665870904921,0.05785363855361938
1733861860601289000,2.5252890625,-0.03552081071436405,-0.005389876344799995,0.03547814061641693
1733861860611240000,2.535239990234375,-0.03553849250152707,-0.04150573034286499,0.03563420796096325
1733861860621191000,2.54519091796875,-0.05551438195109367,-0.023173954838514327,0.04659165530502796
1733861860631142000,2.555141845703125,-0.037258740422874685,-0.012706921359896659,0.02802548652291298
1733861860641093000,2.565093017578125,-0.02215864031612873,-0.05821078142821789,0.0742442168623209
1733861860651043800,2.5750439453125,-0.015127280374616383,-0.0014864391654729843,0.02716214769184589
1733861860660995000,2.5849951171875,-0.01819660481736064,-0.03533960892856121,0.0340805487781763
1733861860670945800,2.59494580078125,-0.02907937949001789,-0.022981062614917752,0.04508768048286438
1733861860680897000,2.60489697265625,-0.05068038592338562,-0.019259996265172958,0.02451660161912441
1733861860690848000,2.614847900390625,-0.040434301719069476,-0.045028059250116347,0.060147886970639226
1733861860700799000,2.624799072265625,-0.03927563320323825,-0.022190204498171804,0.048557402420043944
1733861860710750200,2.634750244140625,-0.02327551551684737,-0.019383330383896828,0.03067278616130352
1733861860720701000,2.644700927734375,-0.022308277919888497,-0.01415302851498127,0.05212240142524242
1733861860730652200,2.654652099609375,-0.027211978182941673,-0.013532266268134117,0.03348024479746818
1733861860740603000,2.664602783203125,-0.035374534111469985,-0.011791560080647467,0.041434418672323226
1733861860750554000,2.67455419921875,-0.017068623700737952,-0.022377836024761198,0.048100306302309034
1733861860760505000,2.684505126953125,-0.02087517637684941,-0.026301146948337552,0.031166707158088683
1733861860770456000,2.6944560546875,-0.040014468871802086,-0.04023147262334823,0.051509237962961196
1733861860780407000,2.704406982421875,-0.046868572550266975,-0.02353285127878189,0.03727671447098255
1733861860790358000,2.71435791015625,-0.04185235182344913,-0.022913842597603797,0.03926818054914474
1733861860800309000,2.72430908203125,-0.03431494205594063,-0.02902794156372547,0.05122457580268383
1733861860810260000,2.734260009765625,-0.04013049646690488,-0.02641103706359863,0.03687514793276787
1733861860820211000,2.7442109375,-0.03545987430736423,-0.04360708653628826,0.058547466036677355
1733861860830163000,2.754162841796875,-0.010015198057889937,-0.024835750570893288,0.04700783489048481
1733861860840114000,2.764114013671875,0.0055360068172216415,-0.030659342157840726,0.040970892813801764
1733861860850065000,2.77406494140625,-0.03922492592930794,-0.02661094354987144,0.0400894338041544
1733861860860016000,2.78401611328125,-0.03491524603664875,-0.038299043256044385,0.04233165977299213
1733861860869967000,2.793967041015625,-0.03056362669840455,-0.018791209709644315,0.049991819137334824
1733861860879918000,2.80391796875,0.008157587492465972,-0.027387188619375228,0.05324994415044784
1733861860889869000,2.813869140625,0.019041969600319862,-0.017436287969350813,0.041565351575613016
1733861860899820000,2.823820068359375,0.017468582803756,-0.008008534410595894,0.04536357481479644
1733861860909771000,2.83377099609375,-0.013918050715327262,-0.022672435057163237,0.041700960654020305
1733861860919722000,2.843721923828125,-0.024223756152391432,-0.03310205913484096,0.04063479272723198
1733861860929673000,2.8536728515625,-0.017235943091660738,-0.03205401138663292,0.03733633570373058
1733861860939624200,2.863624267578125,0.0027379005312919615,-0.015976736810803412,0.051609775727987285
1733861860949575000,2.873574951171875,0.021490531796216964,-0.022197218760848045,0.052312955561280246
1733861860959526100,2.883526123046875,0.0356885684967041,-0.008067571121454238,0.011933014377951622
1733861860969476900,2.893476806640625,0.011372457885742187,-0.005596797093749046,0.016568272963166236
1733861860979428000,2.903427978515625,0.006705635118484497,-0.0044780221968889235,0.03006312983036041
1733861860989378800,2.91337890625,0.004127162932604551,-0.02261047573685646,0.041972763332724566
1733861860999330000,2.923330078125,0.004404372438788414,-0.025645897909998893,0.05175941333174705
1733861861009281000,2.933281005859375,0.004036708170175552,-0.03782265791594982,0.06726619454324245
1733861861019232000,2.94323193359375,0.0016617957323789595,-0.01700724890232086,0.05146189168989658
1733861861029183000,2.953182861328125,0.004312017980217933,-0.01401274326145649,0.04276712858080864
1733861861039134000,2.963134033203125,-0.041064562446624035,-0.051098903596401214,0.020097616133093833
1733861861049085000,2.9730849609375,-0.09045403177663683,-0.04629997888207436,0.012054010409116744
1733861861059037000,2.983036865234375,-0.11972644962072372,-0.06125906308293342,0.020365911680459974
1733861861068988200,2.99298828125,-0.05625453279390931,-0.026807342904806134,0.045427872222661966
1733861861078939000,3.00293896484375,-0.03634264849126339,-0.027034137398004532,0.043998131680488585
1733861861088890000,3.01289013671875,-0.0254886615216732,-0.05083996039927006,0.06053074880838394
1733861861098840800,3.0228408203125,-0.012046265494078397,-0.018760230049490928,0.06085457393527031
1733861861108792000,3.0327919921875,0.014495558342337608,-0.022310031485557553,0.05333119269311428
1733861861118743000,3.042742919921875,0.035482670661062,-0.012212415841221808,0.04461129514276981
1733861861128694000,3.052694091796875,0.031369390123337504,-0.011738953110575675,0.03594517360627651
1733861861138645000,3.06264501953125,0.008632803788781165,-0.023739772027730942,0.04369534934163093
1733861861148596000,3.072595947265625,-0.013927987587451934,-0.02794306893646717,0.06281038417816162
1733861861158547000,3.082546875,-0.034731998424232004,-0.009780804780125617,0.061840077841281885
1733861861168498000,3.092497802734375,-0.05178323259875178,-0.016127543458342553,0.05769932477474212
1733861861178449000,3.102448974609375,-0.03766732122376561,-0.01906301238834858,0.06794073280394076
1733861861188400000,3.112400146484375,-0.022335312057286498,-0.018475567889213562,0.06435118387937545
1733861861198350800,3.122350830078125,-0.005908347260951996,-0.026019991919398307,0.056395256438851356
1733861861208302000,3.132302001953125,-0.00015241408273577688,-0.04379471806287765,0.03315758871436119
1733861861218252800,3.142252685546875,-0.012585925328731536,-0.03682487905025482,0.03450374262630939
1733861861228204000,3.1522041015625,-0.03597600713595748,-0.03286766585707664,0.04497720584571361
1733861861238155000,3.162155029296875,-0.058535044946521515,-0.03218494428992271,0.02000701524019241
1733861861248106000,3.17210595703125,-0.07975684280395508,-0.032865327769517894,0.030510873597860335
1733861861258057000,3.182056884765625,-0.07063888584673404,-0.039598435416817665,0.057197804993391034
1733861861268008000,3.192008056640625,-0.026309914776682854,-0.017797522497177122,0.06077098730504513
1733861861277960000,3.2019599609375,-0.00376841262280941,-0.008206687331199645,0.06591945610940456
1733861861287911000,3.211910888671875,0.007634586531668901,-0.026074936977028847,0.05529986241757869
1733861861297862100,3.221862060546875,0.017916911093145606,-0.033091537740826606,0.04901099140644073
1733861861307812900,3.231812744140625,0.020107553005218503,-0.026930677023530004,0.05327507859170436
1733861861317764000,3.24176416015625,0.012711597535014153,-0.024974866780638694,0.037106034079194064
1733861861327714800,3.25171484375,0.006261398482322693,-0.019635843840241432,0.01679857458770275
1733861861337666000,3.261666015625,-0.0029196868389844894,-0.0058902270823717115,0.04169277734756469
1733861861347617000,3.271616943359375,-0.0023749124377965927,-0.02270750637054443,0.057062195914983745
1733861861357568000,3.281568115234375,0.017784224624186752,-0.017419336834549902,0.06914017172157765
1733861861367519000,3.29151904296875,0.010509703576564788,-0.019890695384144782,0.06673778675496578
1733861861377470000,3.301469970703125,-0.026617957812547683,-0.024008652096986768,0.058280924054980275
1733861861387421000,3.3114208984375,-0.05162862655892968,-0.029083471143245696,0.03381459131836891
1733861861397372000,3.321371826171875,-0.07621171754300594,-0.014482698860764502,0.03404781555235386
1733861861407323000,3.331322998046875,-0.0627934330433607,-0.01985971572399139,0.03285422185361385
1733861861417274000,3.341274169921875,-0.031157939329743384,-0.006487023931741714,0.02452887657880783
1733861861427224800,3.351224853515625,-0.010872691670060157,-0.009060673812031746,0.03498538866341114
1733861861437176000,3.361176025390625,-0.02458835168108344,-0.033899346992373465,0.04243687371313572
1733861861447127000,3.371126953125,-0.05773541900143027,-0.032630934491753576,0.04434124602973461
1733861861457078000,3.381078125,-0.07733093083128333,-0.06178454826176166,0.038788288077712056
1733861861467029000,3.391029052734375,-0.05594912010654807,-0.04298749333322048,0.039431846678256985
1733861861476980000,3.40097998046875,-0.0314841025441885,-0.01719780303835869,0.03440495842695236
1733861861486931200,3.41093115234375,0.004368862733989954,-0.005502689069509506,0.05151508318185806
1733861861496882000,3.4208818359375,0.007819879970699549,0.0026776947766542435,0.06318097105622292
1733861861506834000,3.430833984375,-0.000457534509152174,-0.013885317489504813,0.061463645744323725
1733861861516785000,3.440784912109375,0.0038797640427947044,-0.019647534278035162,0.057555532389879226
1733861861526736100,3.450736083984375,0.0014994447775185107,-0.026014731222391126,0.038410102415084836
1733861861536686800,3.460686767578125,-0.03987549879252911,-0.04706219542622566,0.02282090361714363
1733861861546638000,3.47063818359375,-0.07431143687963486,-0.028269232150912284,0.03286825037896633
1733861861556588300,3.48058837890625,-0.07523892698809503,-0.03507715860009193,0.03197393188774585
1733861861566539500,3.49053955078125,0.00045168929025530814,-0.03513327270150184,0.03593640577793121
1733861861576490500,3.500490478515625,0.04125204784274101,-0.0020779753178358077,0.05783727194070816
1733861861586441500,3.51044140625,0.04276946666836738,-0.007734978166222572,0.06353402227759361
1733861861596392400,3.520392333984375,0.04923500942066312,-0.007352116328477859,0.061897360986471174
1733861861606343400,3.530343505859375,0.01563552215769887,-0.004983049109578132,0.045808980494737625
1733861861616294400,3.54029443359375,-0.02984802577495575,-0.023815759873390196,0.04768997193574905
1733861861626245400,3.550245361328125,-0.08138634370192885,-0.03410509869754314,0.03928279359638691
1733861861636196400,3.5601962890625,-0.0843348182439804,-0.02885492308437824,0.04030044620633125
1733861861646147600,3.570147705078125,-0.07024608713686466,-0.01737842030227184,0.04690554355978965
1733861861656098600,3.5800986328125,-0.05420315322205424,-0.009667992055416106,0.04763210426867008
1733861861666049500,3.590049560546875,-0.027611498894542456,-0.027125322812795637,0.046855274677276605
1733861861676000500,3.60000048828125,0.007163461888581514,-0.03829670516848564,0.04088905974924564
1733861861685951500,3.609951416015625,0.031554829692840576,-0.03356850760281086,0.06342471668422221
1733861861695902500,3.61990234375,0.03698050800338387,-0.02097439896762371,0.05876958435475826
1733861861705853400,3.629853515625,0.014729513228684663,-0.023479075264930725,0.045324411848187446
1733861861715804700,3.6398046875,-0.04607596086785197,-0.005980243453383445,0.026264322069287298
1733861861725755400,3.64975537109375,-0.11028861305937171,-0.01117839661836624,0.016057985353469847
1733861861735707600,3.659707763671875,-0.09038447367176412,-0.01469546482861042,0.042104865279793735
1733861861745658400,3.669658447265625,-0.03268704859316349,-0.016442016234993934,0.03448094627261162
1733861861755609600,3.679609619140625,0.006603489918261766,-0.027257424759864805,0.037677696487307545
1733861861765560300,3.689560302734375,0.02689575184062123,-0.014698387438058852,0.05157645798027515
1733861861775511600,3.699511474609375,0.00851239227950573,-0.024577976417541503,0.05354278961718082
1733861861785462300,3.709462158203125,-0.04240048722550273,-0.014008651608228683,0.04337093969285488
1733861861795413500,3.71941357421875,-0.06318374753519893,-0.036943536993861194,0.036326281878352164
1733861861805364700,3.72936474609375,-0.08306567509099841,-0.030891981869935987,0.030947511449456212
1733861861815315500,3.7393154296875,-0.07820493718683719,-0.019651041409373283,0.04910626847445965
1733861861825266700,3.7492666015625,-0.05011398421227932,-0.022862404671311377,0.05196984121203422
1733861861835217400,3.759217529296875,-0.028357348825782537,-0.027671850779652594,0.04917173492610454
1733861861845168600,3.769168701171875,-0.01851195437684655,-0.03736205466687679,0.04322656278610229
1733861861855119400,3.779119384765625,-0.0033510639935731886,-0.023836218139529228,0.03295008344352245
1733861861865070600,3.789070556640625,0.00697846071049571,-0.016672902381420135,0.04930500591695308
1733861861875021600,3.799021484375,-0.006714987468719482,-0.02049216840863228,0.04633329662978649
1733861861884972500,3.80897265625,-0.006219166775792837,-0.02492109076678753,0.04158230271041393
1733861861894923500,3.818923583984375,-0.01241582945883274,-0.02649988439083099,0.03729308108389377
1733861861904874500,3.82887451171875,-0.025241993284225463,-0.02637713479399681,0.030290508845448493
1733861861914825500,3.838825439453125,-0.012386164972931145,-0.02376198385953903,0.040431963631510734
1733861861924776400,3.8487763671875,-0.0225270352371037,-0.029848610296845435,0.04996785373985767
1733861861934727400,3.8587275390625,-0.006498714369535446,-0.022607553127408028,0.0666886869162321
1733861861944678700,3.8686787109375,0.017122984236478806,-0.02000935332775116,0.04918810153901577
1733861861954630400,3.87863037109375,0.03992752124071121,-0.030989012503623962,0.04263035045862198
1733861861964581400,3.888581298828125,0.03227452226951718,-0.00992927334010601,0.04390402365624904
1733861861974532600,3.89853271484375,-0.0410595940105617,-0.004178162467479705,0.02208499055802822
1733861861984483600,3.908483642578125,-0.06829495306909084,0.005907762739062309,0.05138648836612701
1733861861994434600,3.9184345703125,-0.0885609115064144,-0.02273205628991127,0.05916472115218639
1733861862004385500,3.928385498046875,-0.058938072789460415,-0.033573768299818035,0.05729015945196152
1733861862014336500,3.93833642578125,-0.02372998128607869,-0.0261900877892971,0.06303425606191158
1733861862024287500,3.94828759765625,0.01063245317339897,-0.023593641555309294,0.06180851365923881
1733861862034238500,3.958238525390625,0.019079379001259802,-0.029113281759619712,0.033225393253564835
1733861862044189400,3.968189453125,-0.01658887735977769,-0.019856208592653274,0.03809329155087471
1733861862054140700,3.978140625,-0.03784033970311284,-0.01567921516895294,0.026710896793007848
1733861862064091400,3.98809130859375,-0.038867198532819745,-0.03629354865252971,0.02780629081428051
1733861862074042600,3.998042724609375,-0.033024171593040226,-0.024589082333445547,0.030046763217449188
1733861862083993300,4.007993408203125,-0.01682239385470748,-0.033468554359674454,0.050343701314926145
1733861862093944600,4.017944580078125,-0.008079846081137657,-0.03594692717194557,0.05279460159838199
1733861862103895600,4.0278955078125,0.003809329155087471,-0.01933013889193535,0.04296235889196395
1733861862113846500,4.037846435546875,-0.019544658425450324,-0.023857260927557945,0.05612871445715427
1733861862123797500,4.047797607421875,-0.04214052111506462,-0.013542203140258788,0.050838206833601
1733861862133748500,4.05774853515625,-0.035191140368580814,-0.020585107389092444,0.045157238587737084
1733861862143699500,4.067699462890625,-0.012986907345056533,-0.031472996628284455,0.03818681505322456
1733861862153650400,4.077650390625,-0.010461772781610488,-0.021056232032179833,0.03249123376011848
1733861862163601400,4.087601318359375,-0.014810469510406255,-0.02204524306952953,0.059518356895446774
1733861862173553400,4.097553466796875,-0.04611337026879191,-0.008669044145941733,0.050099955686926836
1733861862183504600,4.107504638671875,-0.05652896582111716,-0.024496143352985382,0.05344049828648567
1733861862193455400,4.117455322265625,-0.03287994081676006,-0.031955227187275885,0.040085926672816276
1733861862203406600,4.127406494140625,0.008456716569513082,-0.021297055050730703,0.04365852446258068
1733861862213357600,4.137357666015625,0.024414456418901682,-0.01537818639576435,0.035956279522180556
1733861862223308500,4.14730859375,-0.02084288154244423,-0.027905659535527226,0.04994388834238052
1733861862233259500,4.157259521484375,-0.06962400971576571,-0.04499123437106609,0.051966334080696105
1733861862243210500,4.16721044921875,-0.03949263695478439,-0.008759060516953467,0.04162964898347855
1733861862253161500,4.177161376953125,-0.021868571328371764,-0.016531448084115982,0.024441198295354842
1733861862263112400,4.187112548828125,-0.02080591053292155,-0.028850831431150435,0.036952889344096185
1733861862273063400,4.1970634765625,-0.04328779145404696,-0.01794189940392971,0.05286591326892376
1733861862283014700,4.2070146484375,-0.017583441355079412,-0.02344868012666702,0.051875148665904994
1733861862292965400,4.21696533203125,-0.003134206372499466,-0.017924363747239113,0.0395312153995037
1733861862302916600,4.22691650390625,-0.0026416005499660966,-0.03178220870792865,0.03721241706311702
1733861862312867300,4.236867431640625,0.011257891595363617,-0.03696341073811054,0.06110124217271804
1733861862322818600,4.246818603515625,0.004588496834039688,-0.020456512573361396,0.05823299326002598
1733861862332769300,4.256769287109375,-0.031189941903203722,-0.037383681976795195,0.05629939484894275
1733861862342720500,4.266720458984375,-0.03142565035521984,-0.037249826464056966,0.0673468585640192
1733861862352671500,4.27667138671875,-0.018597148442268372,-0.03604688041508198,0.048992286705970764
1733861862362622500,4.28662255859375,0.0006144786365330219,-0.02551262691915035,0.029092238971590995
1733861862372573400,4.296573486328125,0.0029835458554327487,-0.013709960922598838,0.04998246678709983
1733861862382524400,4.3065244140625,0.013577274453639984,-0.0074836337536573405,0.04701017297804355
1733861862392475600,4.3164755859375,0.01534369960427284,-0.014061843100190163,0.03665536770224571
1733861862402427400,4.326427490234375,-0.008590133690834044,-0.030665187376737593,0.05424421588480472
1733861862412378600,4.336378662109375,-0.030850919207185506,-0.014253566280007362,0.057713937821984286
1733861862422329300,4.346329345703125,-0.029991818159818648,-0.016816110244393348,0.05624620335698127
1733861862432280600,4.356280517578125,-0.02694251359179616,-0.028647417813539505,0.037416415202617646
1733861862442231300,4.366231201171875,-0.010868015494942665,-0.02978080575764179,0.015991934379935263
1733861862452182500,4.3761826171875,-0.01333016782477498,-0.030844635596871374,0.04611351639926433
1733861862462133500,4.386133544921875,-0.024289953256398437,-0.018311901760101317,0.04657178156077862
1733861862472084500,4.39608447265625,-0.022361615542322397,-0.020834698235988616,0.06871639335155487
1733861862482035500,4.406035400390625,-0.03562821661159396,-0.032144027757644654,0.04526186800599098
1733861862491986400,4.415986328125,-0.05850698789581656,-0.037353286838531494,0.0539227288454771
1733861862501937400,4.4259375,-0.02358531211838126,-0.03622632863521576,0.05496785398423672
1733861862511888400,4.435888427734375,-0.0024602526336908338,-0.02928980737030506,0.049309682092070574
1733861862521839400,4.44583935546875,0.016442016234993934,-0.020151392146945,0.05769990929663181
1733861862531790600,4.45579052734375,0.005734159737825394,-0.026520342656970022,0.029273440757393836
1733861862541741600,4.465741455078125,-0.011820055522769688,-0.02832593077421188,0.03329962753355503
1733861862551692500,4.475692626953125,-0.031509090854972596,-0.017597616010904312,0.02634440156817436
1733861862561644000,4.48564404296875,-0.03238148977532983,-0.02016658971607685,0.052289574685692786
1733861862571595000,4.495594970703125,-0.055849312993884084,-0.02318155362308025,0.046429742741584776
1733861862581546000,4.5055458984375,-0.06309563086032867,-0.029051322439312934,0.04924655372798443
1733861862591497000,4.5154970703125,-0.052425183764100075,-0.011488777741789817,0.06380699400007725
1733861862601448000,4.525447998046875,-0.029320202508568764,-0.02369534836411476,0.04812251813411712
1733861862611399000,4.53539892578125,-0.033657354930043216,-0.017779986840486525,0.04336217186450958
1733861862621351000,4.545350830078125,-0.04484992620423436,-0.017153379374742508,0.03390577673316002
1733861862631302100,4.55530224609375,-0.04086348691657185,-0.025316812086105346,0.029771453407406806
1733861862641253000,4.565253173828125,-0.040041356878727674,-0.03828735281825065,0.04414660024046898
1733861862651204000,4.5752041015625,-0.04002104474306106,-0.028127193331718443,0.04300970516502857
1733861862661155000,4.585155029296875,-0.01718392064347863,-0.0277805718511343,0.05360241084992885
1733861862671106000,4.59510595703125,-0.013841039956361054,-0.029411972445249557,0.04268938716948032
1733861862681057000,4.60505712890625,-0.006191401986032724,-0.026692192092537877,0.0432826768875122
1733861862691008000,4.615008056640625,-0.011584785462170838,-0.03854980314671993,0.04361000914573669
1733861862700959000,4.624958984375,-0.003199672824144363,-0.024196283623576162,0.039644028124213214
1733861862710910200,4.63491015625,-0.015172288560122251,-0.02173252385854721,0.04101765456497669
1733861862720861000,4.64486083984375,-0.02712999898791313,-0.03737082249522209,0.03922784853875637
1733861862730812200,4.654812255859375,-0.02122384368404746,-0.035354221975803374,0.04759294130206108
1733861862740763000,4.664762939453125,-0.03337444633543491,-0.03558277003467083,0.053369186615943906
1733861862750714000,4.674714111328125,-0.024213234758377073,-0.024178747966885565,0.04107259962260723
1733861862760664800,4.684664794921875,-0.026524872701615094,-0.01786123538315296,0.04192483253777027
1733861862770616000,4.694615966796875,-0.025350568225234744,-0.012740823629498481,0.02757832727730274
1733861862780567000,4.704567138671875,-0.0331003055691719,-0.024051906716823578,0.021931261301040648
1733861862790518000,4.71451806640625,-0.03063581515178084,-0.03169277685880661,0.04153203382790088
1733861862800469000,4.724468994140625,-0.020516718327999114,-0.02868774982392788,0.053801148292422295
1733861862810420000,4.734419921875,-0.024721038150042295,-0.03452303184866905,0.059035541814565655
1733861862820371200,4.74437109375,-0.0072894263558089725,-0.026314006429910657,0.04427577957808971
1733861862830322000,4.754322021484375,-0.01812660832107067,-0.028330022427439688,0.028885318222641943
1733861862840274200,4.764274169921875,-0.018268501009792087,-0.029499066206812856,0.04112696015834808
1733861862850225000,4.774224853515625,-0.013455693900585174,-0.023942601123452187,0.04568973802924156
1733861862860176100,4.784176025390625,-0.010799626433849335,-0.01833703620135784,0.05060147546827793
1733861862870126800,4.794126953125,-0.02540960493609309,-0.02496317634284496,0.04282791885733604
1733861862880078000,4.804078125,-0.01595510950088501,-0.024741642546653748,0.044697804382443425
1733861862890029000,4.814029052734375,-0.019652794975042343,-0.03147884184718132,0.0385685078471899
1733861862899980000,4.82397998046875,-0.016419073750823736,-0.02586860074996948,0.04431318897902965
1733861862909931000,4.833930908203125,-0.02992795914337039,-0.027409400451183317,0.0409825832515955
1733861862919882000,4.843882080078125,-0.04038680931553244,-0.03248012784421444,0.03510638469457626
1733861862929833000,4.8538330078125,-0.05496010906919837,-0.027120646637678145,0.037388942673802376
1733861862939784000,4.863783935546875,-0.020485008015483617,-0.02999298720359802,0.05986497837603092
1733861862949735000,4.87373486328125,-0.0015407997012138366,-0.03349953401982784,0.05819032316207885
1733861862959686100,4.88368603515625,-0.018607085314393042,-0.023635142609477043,0.047258010259270664
1733861862969636900,4.893636962890625,-0.0183563254237175,-0.02685585822165012,0.04457739287316799
1733861862979588000,4.903588134765625,-0.04669204693958163,-0.012212415841221808,0.035492169141769406
1733861862989539000,4.9135390625,-0.04385477768704295,-0.027208909443020818,0.030270635101199147
1733861862999490000,4.923489990234375,-0.02989171878620982,-0.02418810031712055,0.057124155235290526
1733861863009441000,4.93344091796875,-0.029611294409632682,-0.03319675168097019,0.03806815710961819
1733861863019392000,4.94339208984375,-0.015621932023763656,-0.02212415352463722,0.04951309570968151
1733861863029343200,4.95334326171875,0.006751958478242158,-0.03583002279400825,0.057531566992402076
1733861863039294000,4.9632939453125,0.030254268488287925,-0.03114683341383934,0.057528059861063956
1733861863049245200,4.9732451171875,0.03439735964238643,-0.028057050704956052,0.04725333408415317
1733861863059196000,4.98319580078125,-0.014634090030193328,-0.019662147325277327,0.0496311691313982
1733861863069148200,4.993148193359375,-0.01665025215819478,-0.0224649297863245,0.046646015840768815
1733861863079099000,5.003098876953125,0.008710399069637059,-0.02259878529906273,0.04826163434386253
1733861863089050000,5.013050048828125,0.008331775015592575,-0.022924363991618155,0.042569560182094575
1733861863099000800,5.023000732421875,-0.00712137631252408,-0.034815292793512344,0.05394201806783676
1733861863108952000,5.0329521484375,-0.004647533544898033,-0.020360650983452796,0.05244447298645973
1733861863118903000,5.042903076171875,-0.004008651119470596,-0.03204933521151542,0.03795300629734993
1733861863128854000,5.05285400390625,-0.027498832300305365,-0.031873978644609446,0.057573652568459505
1733861863138805200,5.06280517578125,-0.03562134847939014,-0.018989947152137754,0.07069909160137176
1733861863148756000,5.072755859375,-0.001263590195029974,-0.01665653576850891,0.04788169511556625
1733861863158707200,5.082707275390625,-0.010072627333551645,-0.02118131971657276,0.036143326526880265
1733861863168658000,5.092657958984375,-0.035649405530095095,-0.02690729614794254,0.04000818526148796
1733861863178609200,5.102609130859375,-0.021219898161292074,-0.024368717581033705,0.03328209187686443
1733861863188560100,5.11256005859375,-0.044283232232183216,-0.03234042711257935,0.029155367335677144
1733861863198511000,5.122510986328125,-0.06440393697991967,-0.034278701698780056,0.03863455882072449
1733861863208462000,5.132462158203125,-0.059033788248896595,-0.023764321947097777,0.04836275663077831
1733861863218413000,5.1424130859375,-0.028689503389596936,-0.019392682734131812,0.048507133537530896
1733861863228364000,5.152364013671875,-0.0010455635301768779,-0.023025486278533933,0.05818272437751293
1733861863238315000,5.16231494140625,0.01946340988278389,-0.021574118426442145,0.07171615968942642
1733861863248266000,5.172265869140625,0.04964695122241974,-0.023460370564460754,0.04898351887762546
1733861863258217200,5.18221728515625,0.02483867318034172,-0.02042845552265644,0.04331599463522434
1733861863268168000,5.19216796875,0.005146715238690376,-0.03551145836412906,0.06398527317643166
1733861863278119200,5.202119140625,-0.018119009536504745,-0.02530044547319412,0.05003916541039943
1733861863288071000,5.21207080078125,-0.06407514341697096,-0.029829321074485778,0.034922844821214674
1733861863298022100,5.222022216796875,-0.07502280001938343,-0.035061961030960084,0.03367021441161632
1733861863307973000,5.23197314453125,-0.062209349545091386,-0.04236673108637333,0.06412322034239769
1733861863317924000,5.241924072265625,-0.009196867412328719,-0.03308043182492256,0.05674947670400143
1733861863327875000,5.251875,0.01836991555765271,-0.009003975188732147,0.04058452384471893
1733861863337826000,5.261825927734375,0.00021466566398739814,-0.0013438158243894577,0.03810615103244781
1733861863347777000,5.271777099609375,-0.008370937982201575,-0.014835165560245512,0.04335223499238491
1733861863357728000,5.28172802734375,-0.014497750299423932,-0.02654430805444717,0.04827390930354595
1733861863367679200,5.29167919921875,-0.0196099787466228,-0.026925416326522827,0.04433072463572025
1733861863377630000,5.3016298828125,-0.03144786218702793,-0.026937106764316557,0.02248012735545635
1733861863387581200,5.311581298828125,-0.025030980882048606,-0.039753333717584605,0.02882569698989391
1733861863397532000,5.321531982421875,-0.01452493056729436,-0.030123335584998127,0.0440279422968626
1733861863407483100,5.331483154296875,-0.01597103772237897,-0.03812602477669716,0.0502455016374588
1733861863417433900,5.341433837890625,-0.024010844054073093,-0.030714287215471266,0.056284197279810905
1733861863427385000,5.351385009765625,-0.026418635848164555,-0.03457797690629959,0.048511225190758706
1733861863437336000,5.361336181640625,-0.01282952482625842,-0.03216448602378368,0.042376083436608314
1733861863447287000,5.371287109375,-0.009760784905403852,-0.02785188352167606,0.04994856451749801
1733861863457238000,5.381238037109375,-0.03563888413608074,-0.030644729110598564,0.048235915380716324
1733861863467189000,5.39118896484375,-0.031699060469120736,-0.027481296643614768,0.054094578281044955
1733861863477140000,5.401139892578125,-0.021591654083132742,-0.03295709770619869,0.049477439874410625
1733861863487091000,5.411091064453125,-0.012788608293980359,-0.02483165891766548,0.057575990656018254
1733861863497042000,5.4210419921875,-0.011611965730041265,-0.020360650983452796,0.04994739547371864
1733861863506993200,5.4309931640625,0.007579495343565941,-0.018620529317855832,0.04111585424244404
1733861863516945200,5.440945068359375,-0.002471212419122457,-0.021937106519937515,0.03468611345589161
1733861863526895900,5.450895751953125,-0.007428688696026801,-0.018071663263440133,0.030952187624573704
1733861863536847000,5.46084716796875,-0.02678103941977024,-0.013318331256508827,0.026239187628030774
1733861863546798000,5.470798095703125,-0.02856558474898338,-0.028008535388112068,0.02942132479548454
1733861863556748800,5.480748779296875,-0.022574673771113156,-0.014442366850376129,0.052280806857347484
1733861863566700000,5.490699951171875,-0.01591696944758296,-0.02676759541630745,0.045319151151180265
1733861863576650800,5.500650634765625,-0.023965835868567226,-0.030023382341861724,0.04863397478759288
1733861863586602000,5.51060205078125,-0.03993979620039463,-0.02114332579374313,0.048586043992638585
1733861863596553000,5.520552978515625,-0.03919686887860298,-0.032228783431649206,0.04218260669112205
1733861863606504000,5.53050390625,-0.0244604875177145,-0.01866904463469982,0.03992459863126278
1733861863616455000,5.540454833984375,-0.018113894969969988,-0.01690145044028759,0.04190320522785187
1733861863626406000,5.550406005859375,-0.02460004211887717,-0.029140169766545293,0.05138298123478889
1733861863636356900,5.56035693359375,0.007282558223605156,-0.02744330272078514,0.05392798954248428
1733861863646307800,5.570307861328125,0.025037264492362737,-0.028766660279035565,0.0387953023403883
1733861863656258800,5.5802587890625,0.046669396716356275,-0.02000409263074398,0.053287353551387785
1733861863666210000,5.5902099609375,0.04251680708155036,-0.02206803942322731,0.05707037922143936
1733861863676160800,5.600160888671875,0.03499722523167729,-0.015083002841472624,0.045828854238986964
1733861863686112000,5.610112060546875,0.011330372309684754,-0.0240682733297348,0.0677168609201908
1733861863696062700,5.620062744140625,0.0265573136664927,-0.044165889462828636,0.04890051676928997
1733861863706014000,5.630013916015625,0.04223346009552478,-0.03244213392138481,0.04514963980317115
1733861863715964700,5.639964599609375,0.09651756959930062,-0.036600422644615174,0.04457096313238144
1733861863725916000,5.649916015625,0.1103162317186594,-0.0162561382740736,0.05763970354199409
1733861863735868000,5.659867919921875,0.10361308081820607,-0.021978023052215575,0.06920914530456065
1733861863745819000,5.66981884765625,0.052028439531475304,-0.025284663382172584,0.0489817653119564
1733861863755769900,5.679769775390625,-0.020114567267894744,-0.00533259319961071,0.04100654864907265
1733861863765720800,5.689720947265625,-0.09243497646078466,-0.027892215532064436,0.028915713360905645
1733861863775672000,5.699672119140625,-0.13671250960454345,-0.032198388293385505,0.019306173494458196
1733861863785622800,5.709622802734375,-0.14077026056274772,-0.0282423441439867,0.024454057776927947
1733861863795574000,5.719573974609375,-0.09133665983006357,-0.04068564613163471,0.04362988288998604
1733861863805524700,5.729524658203125,-0.029308950462192295,-0.03661152856051922,0.04416355137526989
1733861863815476000,5.73947607421875,-0.011914748068898915,-0.03369067267775536,0.03434767528176307
1733861863825427000,5.749427001953125,0.008323591709136963,-0.01789747574031353,0.014835165560245512
1733861863835378000,5.7593779296875,-0.018459347406774757,-0.03501227667033672,0.013479659298062325
1733861863845329000,5.769328857421875,-0.06155716924667358,-0.041217561051249504,0.01703939760625362
1733861863855279900,5.77927978515625,-0.07090367426276206,-0.0364946241825819,0.03274959243535995
1733861863865230800,5.78923095703125,-0.08806348337829112,-0.035626609176397324,0.016969254979491234
1733861863875181800,5.799181884765625,-0.06158230368793011,-0.019177578678727148,0.03844166659712791
1733861863885132800,5.8091328125,-0.05158858680948615,-0.03549333818554878,0.011448445731401443
1733861863895084000,5.819083984375,-0.07718070870563387,-0.03741992233395576,-0.0106225163012743
1733861863905035000,5.829034912109375,-0.13788053047060966,-0.04125964662730693,-0.02441197220087051
1733861863914986000,5.838986083984375,-0.27294293478056786,-0.0463590155929327,-0.061764089995622634
1733861863924937000,5.84893701171875,-0.4145809180885553,-0.05058218624591827,-0.14373393267393111
1733861863934888000,5.858887939453125,-0.4904495212823152,-0.07666472200751304,-0.23373861324787137
1733861863944839000,5.8688388671875,-0.4594020565897226,-0.10727847145795821,-0.3729103525727987
1733861863954790000,5.878789794921875,-0.22667232812345026,-0.15828794320523737,-0.47966158528625963
1733861863964742000,5.888741943359375,0.18543153232708573,-0.07415770762264728,-0.33586101711690425
1733861863974692900,5.89869287109375,0.714769148799777,0.06666413699686527,0.06191080498993396
1733861863984643800,5.908643798828125,1.1181646560072898,0.1580132179170847,0.5004600431650876
1733861863994594800,5.9185947265625,1.0986404558479785,0.06239595815837383,0.8578355574756861
1733861864004546000,5.928546142578125,0.7289917354196309,-0.11597732622027397,1.0519015010267496
1733861864014496800,5.938496826171875,0.0875644478149712,0.21400340068638324,0.49318917537927626
1733861864024448000,5.948447998046875,-0.28945480138137936,0.0015559972703456878,-0.0835983206629753
1733861864034398700,5.958398681640625,-0.5232036437623202,-0.08554711664319038,-0.17553718416988848
1733861864044350000,5.968349853515625,-0.45949134230837224,-0.047535073634982106,-0.18709376645088194
1733861864054301000,5.978301025390625,-0.25385259599387644,-0.053963645377755165,-0.09269815744161605
1733861864064252000,5.988251953125,-0.005678191766887903,-0.04248772711753845,0.023657938963174818
1733861864074203100,5.998203125,0.17816022614985702,-0.057519292032718654,-0.00517009611427784
1733861864084153900,6.00815380859375,0.1660334427654743,-0.10032207644879818,-0.04643441891670227
1733861864094105000,6.01810498046875,-0.003326514074206352,-0.08783961149454117,0.03189151430130005
1733861864104055800,6.028055908203125,-0.1307587157666683,-0.04186111965179443,0.08970423632264136
1733861864114007000,6.038007080078125,-0.23184417780339717,0.02306055759191513,0.16975334007143975
1733861864123957800,6.047957763671875,-0.22440452932193874,-0.0012514613658189773,0.1514461144864559
1733861864133909000,6.057908935546875,-0.08375321896374226,-0.03245674696862697,0.07639467289447784
1733861864143860000,6.06785986328125,0.004525952991843224,-0.029445874714851376,0.02201952410638332
1733861864153811000,6.07781103515625,-0.04765270866528153,-0.029449966368079183,-0.007039397117495536
1733861864163762000,6.087761962890625,-0.09693009592294692,-0.011722586497664451,0.02878478045761585
1733861864173713000,6.097712890625,-0.16861469143033025,-0.0007937807261943817,0.006603343787789344
1733861864183665000,6.107664794921875,-0.23509996472895145,-0.029181086298823353,-0.021499299624562263
1733861864193616000,6.117615966796875,-0.24307357395663856,-0.04652560433149337,0.014984218642115592
1733861864203566800,6.12756689453125,-0.15439911907315254,-0.03731763100326061,0.01728080514669418
1733861864213517800,6.137517822265625,-0.08165025533512234,-0.023194413104653356,0.031048049214482305
1733861864223469000,6.147468994140625,-0.03633315001055598,-0.04199146803319454,0.04509177213609218
1733861864233419800,6.157419677734375,-0.0638701223641634,-0.04362754480242729,0.0009364040672779082
1733861864243371000,6.16737109375,-0.15705694010555743,0.0460363595098257,0.08107026349008083
1733861864253322000,6.177322021484375,-0.11997370238006114,-0.019328969848155974,0.08660685482919216
1733861864263273000,6.18727294921875,-0.09617080198824406,-0.03641279111802578,0.02374853985607624
1733861864273224000,6.197223876953125,-0.0902769216440618,-0.0236065010368824,0.06731295629441737
1733861864283175000,6.2071748046875,-0.041271921586990355,-0.07831716538965701,0.020094109001755713
1733861864293126000,6.2171259765625,-0.044537645384669304,-0.061576458469033236,-0.00365033920109272
1733861864303076900,6.227076904296875,-0.010767477729916573,-0.02169336089193821,0.06193360134363174
1733861864313027800,6.23702783203125,-0.0130798463255167,-0.0031429742008447646,0.03904197057783603
1733861864322979000,6.24697900390625,-0.00802066323980689,-0.0017746084570884704,0.05450315908193588
1733861864332929800,6.2569296875,0.0027642040163278576,0.014771452674269676,0.0908142433911562
1733861864342881000,6.266881103515625,0.07809446254968642,-0.017112462842464447,0.12190905435681343
1733861864352831700,6.276831787109375,0.16946400173604487,-0.037698154753446574,0.09668108959794044
1733861864362783000,6.286782958984375,0.23689780793115495,-0.042454409369826314,0.04989595754742622
1733861864372734000,6.29673388671875,0.2082007057569921,-0.0260550632327795,0.046238604083657264
1733861864382685000,6.306684814453125,0.15739581667110322,-0.026833646389842033,0.0374444722533226
1733861864392636000,6.316635986328125,0.10166866875216364,-0.007169745498895644,0.028610592934489247
1733861864402587000,6.3265869140625,0.09448694055452943,0.012564882540702819,0.09659224227070808
1733861864412539000,6.336538818359375,0.10852043434306978,-0.006201192727684974,0.1312643272012472
1733861864422489900,6.34648974609375,0.1220918635778129,-0.032388357907533645,0.11705752267241477
1733861864432441000,6.356441162109375,0.07235270402729511,-0.05013327343463898,0.05785889925062656
1733861864442391800,6.366391845703125,0.028943185889720915,-0.0455137969404459,0.020662264278531073
1733861864452343000,6.376343017578125,-0.03322320129647851,-0.053203182399272915,-0.0035562311768531796
1733861864462293800,6.386293701171875,-0.061017801672965284,-0.04317863199114799,-0.00061608607172966
1733861864472245000,6.396244873046875,-0.061350833019614213,-0.030312136155366896,0.03111585375368595
1733861864482196000,6.406196044921875,-0.09131284056305884,-0.018463292929530143,0.03722703011035919
1733861864492147000,6.41614697265625,-0.13198153555989264,-0.025000585743784904,0.06509177311360835
1733861864502098000,6.426097900390625,-0.1693804151058197,-0.032030045989155764,0.08940028494000435
1733861864512049000,6.436048828125,-0.15246961231529713,-0.0423199693351984,0.07568681688606739
1733861864522000000,6.445999755859375,-0.1418954652003944,-0.040113399201631546,0.03996785325109958
1733861864531950800,6.455950927734375,-0.0865592162951827,-0.025205168405175206,0.015551789397001265
1733861864541901800,6.46590185546875,-0.02528334820792079,-0.02104980229139328,0.00022445640563964844
1733861864551853000,6.47585302734375,0.007560352251678705,-0.023238836768269537,-0.002734393399953842
1733861864561803500,6.485803466796875,0.03699088326692581,-0.0024409634113311766,-0.001821370208263397
1733861864571754800,6.495754638671875,-0.010582184290885924,-0.0251923089236021,-0.022514029625058173
1733861864581705500,6.50570556640625,-0.06516235413178802,-0.023766075512766837,0.01351297704577446
1733861864591656700,6.51565673828125,-0.06339943611249327,-0.018019640815258024,0.044045477953553194
1733861864601607700,6.525607666015625,-0.039555619188398124,-0.009224924463033676,0.07228373044431209
1733861864611558700,6.53555859375,-0.008279752567410469,-0.014907646274566649,0.10343640907704829
1733861864621509600,6.545509521484375,0.014797756159305571,-0.00927402430176735,0.07545709978342056
1733861864631461600,6.555461669921875,0.03745090199410915,-0.02119008754491806,0.0644236645936966
1733861864641412600,6.56541259765625,0.011866963404417038,-0.04214695085585117,0.04803308628499508
1733861864651363600,6.575363525390625,-0.03878609612062573,-0.031438509836792944,0.030590953096747395
1733861864661314800,6.585314697265625,-0.06170373811051249,-0.04568330828845501,0.02100187149643898
1733861864671265500,6.595265625,-0.08130641033351421,-0.04065174386203289,0.03301613441705704
1733861864681216800,6.605216796875,-0.03477437626123428,-0.014369886136054992,0.05942366434931755
1733861864691167500,6.61516748046875,0.02524257780611515,-0.02520166127383709,0.06256897663772105
1733861864701118700,6.62511865234375,0.04589329777732491,-0.011267828467488288,0.05016074596345425
1733861864711069700,6.635069580078125,0.007988222274929284,-0.00440846409201622,0.03272971869111061
1733861864721020700,6.645020751953125,-0.0833200882434845,-0.024397943675518036,0.044995910546183585
1733861864730971600,6.6549716796875,-0.15656243458688257,-0.040785599374771116,0.011554828715324402
1733861864740922600,6.664922607421875,-0.17253201100453733,-0.043050037175416944,-0.0018494272589683531
1733861864750873600,6.67487353515625,-0.15928630659282206,-0.04125438593029976,0.01766951220333576
1733861864760824600,6.684824462890625,-0.10254954323992133,-0.03259469413459301,0.03439560607671738
1733861864770775600,6.694775634765625,-0.04299114659503102,-0.02435410453379154,0.04667991811037063
1733861864780726800,6.704726806640625,0.008086860343813895,-0.019546411991119384,0.06559738454818725
1733861864790677500,6.714677490234375,-0.0009556932896375655,-0.005595043528079986,0.0758341164022684
1733861864800628700,6.724628662109375,-0.039503304479271174,-0.0027729718446731564,0.06270984641313553
1733861864810579500,6.734579345703125,-0.0497398902028799,-0.024067688807845114,0.05652911195158958
1733861864820530700,6.74453076171875,-0.05864741927981376,-0.03889876271486282,0.02447860769629478
1733861864830481400,6.7544814453125,-0.08843582382202148,-0.04292436496913433,0.0056026423126459115
1733861864840432600,6.7644326171875,-0.06650222443342209,-0.025580431458353994,0.024632336953282354
1733861864850383600,6.774383544921875,-0.05958440786898136,-0.011019991186261176,0.030953941190242765
1733861864860335600,6.784335693359375,-0.05509133423343301,-0.0089057755112648,0.02825578814744949
1733861864870286600,6.79428662109375,-0.055555298483371734,-0.031209377256035804,0.039057168146967886
1733861864880237600,6.804237548828125,-0.059576809084415434,-0.028704700958728787,0.0349871422290802
1733861864890188800,6.814188720703125,-0.009868483063578605,-0.0343465062379837,0.025169512569904327
1733861864900139500,6.824139404296875,0.07475099734067917,-0.06164484753012657,-0.0029617724150419232
1733861864910090800,6.8340908203125,0.12655848759785293,-0.07093290035724639,-0.014874913048744201
1733861864920041500,6.84404150390625,0.12300751711800693,-0.04291910427212715,0.03741349259316921
1733861864929992700,6.85399267578125,0.07561272873654962,-0.020701427245140073,0.08197568789720534
1733861864939943700,6.863943603515625,-0.0007552022814750671,-0.0005558803170919418,0.08541618373990058
1733861864949894700,6.873894775390625,-0.05652209768891334,0.002302431723475456,0.10386018744707107
1733861864959845600,6.883845703125,-0.04201645634397864,-0.015016367346048354,0.08081541194617747
1733861864969796600,6.893796630859375,-0.009308511093258857,-0.01730886219739914,0.052642041385173796
1733861864979747600,6.90374755859375,0.014652210208773612,-0.03061901014745235,0.02835866400003433
1733861864989698600,6.913698486328125,-0.01995192405208945,-0.03885024739801884,0.020644728621840476
1733861864999649500,6.9236494140625,-0.003384235610812902,-0.055790860804915424,0.0249789584338665
1733861865009600500,6.9336005859375,0.004576368004828691,-0.04018237278461456,0.01585924791097641
1733861865019551500,6.943551513671875,0.0067940440542995926,-0.0019435352832078933,0.07099895133078098
1733861865029502700,6.953502685546875,0.03990472488701343,-0.005981997019052505,0.08552081315815448
1733861865039453400,6.963453369140625,0.07714636804461479,0.011458382603526114,0.09764613523781299
1733861865049404700,6.97340478515625,0.08382686872184276,-0.0009305588483810425,0.08616203367114067
1733861865059355600,6.983355712890625,0.04842939212620258,-0.024224925196170807,0.043835634595155715
1733861865069306600,6.993306640625,0.008678981018066407,-0.02390636076629162,0.03714870417714119
1733861865079257600,7.003257568359375,-0.009038461980223655,-0.02937865469753742,0.043917467659711835
1733861865089209600,7.013209716796875,-0.03691255733370781,-0.03993921167850494,0.032008418679237365
1733861865099160600,7.02316064453125,-0.0364933090083301,-0.057364978253841396,0.003701777127385139
1733861865109111600,7.033111572265625,-0.0003863689690828323,-0.051416298982501024,0.02408522446453571
1733861865119062800,7.043062744140625,-0.00570011133775115,-0.029151860204339027,0.059390346601605415
1733861865129013500,7.053013427734375,-0.02112520561516285,-0.00630114597082138,0.06332593248486519
1733861865138964700,7.06296484375,-0.02686798705086112,-0.026440263158082962,0.06241290929317474
1733861865148915500,7.07291552734375,-0.014243483277410268,-0.015405074402689933,0.03753624219000339
1733861865158866700,7.08286669921875,0.0076005381315946575,-0.01648351728916168,0.024303835651278496
1733861865168817400,7.0928173828125,0.008431874389201403,-0.027158056038618088,0.034741643035411836
1733861865178768600,7.1027685546875,-0.021914164035767316,-0.025373510709404943,0.04060907376408577
1733861865188719600,7.1127197265625,-0.06891966083869337,-0.03964110551476478,0.04394610923230648
1733861865198670600,7.122670654296875,-0.08659910991415382,-0.026432664373517035,0.028486089771986006
1733861865208621600,7.13262158203125,-0.10133037670850753,-0.030865093863010406,0.020236147820949554
1733861865218572500,7.142572509765625,-0.10415011030435561,-0.02837619965672493,0.030180034208297728
1733861865228523800,7.152523681640625,-0.08440890639349818,-0.01703939760625362,0.03182487880587578
1733861865238474500,7.162474609375,-0.07610109677538275,-0.02614917125701904,0.025438392639160156
1733861865248425700,7.17242578125,-0.07981807147189975,-0.04878770404458046,0.008800561571121215
1733861865258376700,7.182376708984375,-0.06432078874111175,-0.046079029607772826,0.008071662774682044
1733861865268327700,7.19232763671875,-0.0789145467609167,-0.046729602470993996,0.010661094745993614
1733861865278278700,7.202278564453125,-0.09990063616633414,-0.02684416778385639,0.03679857556521892
1733861865288229600,7.212229736328125,-0.11140271178111433,-0.017336919248104096,0.0363987625926733
1733861865298180600,7.2221806640625,-0.07249459671601653,-0.016427987709641455,0.06877250745296477
1733861865308131600,7.232131591796875,-0.01772372660860419,-0.0023076924204826353,0.06603694500923156
1733861865318083600,7.24208349609375,-0.0070588324703276155,-0.018368600383400917,0.03453589133024215
1733861865328034600,7.25203466796875,-0.009348843103647232,-0.03851239374577999,0.03850479496121406
1733861865337985500,7.261985595703125,-0.012661913174390792,-0.03448737601339817,0.04841711716651916
1733861865347936500,7.2719365234375,-0.024183278011530637,-0.03879004164338112,0.03609481121003628
1733861865357887500,7.281887451171875,-0.009974281525611877,-0.04484393485486507,0.0373182155251503
1733861865367838700,7.291838623046875,0.009360533541440964,-0.023365678018331525,0.05997253040373325
1733861865377789700,7.301789794921875,0.06881167041957378,-0.017566051828861236,0.0761918437987566
1733861865387740700,7.31174072265625,0.07930427673086524,-0.005556465083360672,0.06864215907156467
1733861865397691600,7.321691650390625,0.027974048596620556,-0.019117957445979116,0.03919979148805141
1733861865407642600,7.331642578125,-0.04662541144415736,-0.034954993525147436,0.011817863565683364
1733861865417593600,7.341593505859375,-0.07525368616580963,-0.0366121130824089,-0.0020388123512268064
1733861865427544600,7.351544677734375,-0.07154957095086574,-0.04046703494489193,0.026333880174160003
1733861865437495800,7.361495849609375,-0.0178149120233953,-0.0309305603146553,0.08287175995409488
1733861865447446500,7.371446533203125,0.027480712121725082,-0.01624269427061081,0.09517653025388717
1733861865457397800,7.381397705078125,0.05017009831368923,-0.01542436362504959,0.07229542088210582
1733861865467348500,7.391348388671875,0.030979514022916554,-0.007428688696026801,0.04559796809256077
1733861865477299700,7.4012998046875,0.0003232406049966812,-0.03945464303195476,0.010233224722743033
1733861865487250700,7.411250732421875,-0.04002279830873012,-0.04625555521845817,0.016306407156586645
1733861865497201700,7.42120166015625,-0.05689560717642307,-0.04385609286129474,0.012099603116512299
1733861865507152600,7.431152587890625,-0.07475552738532423,-0.04546235901415348,0.04461246418654918
1733861865517103600,7.441103515625,-0.06191168177276849,-0.024320786786079407,0.060597968825697894
1733861865527054600,7.4510546875,-0.06465630430579185,-0.013074001106619835,0.06077975513339042
1733861865537005600,7.461005615234375,-0.0541360793352127,-0.021238602861762046,0.054223173096776
1733861865546957800,7.470957763671875,-0.05460881141349673,-0.01925590461194515,0.05259937128722667
1733861865556908800,7.48090869140625,-0.028131869506835935,-0.0184521870136261,0.04685001398026943
1733861865566860000,7.490860107421875,-0.020046178206801414,-0.02029284644424915,0.03874094180464745
1733861865576810800,7.500810791015625,-0.059790159574151035,-0.010489829832315445,0.03528875552415848
1733861865586762000,7.510761962890625,-0.060112231135368344,-0.020821254232525826,0.03463467552959919
1733861865596712700,7.520712646484375,-0.057425330138951534,-0.032631519013643265,0.02756137614250183
1733861865606664000,7.530663818359375,-0.01668576186299324,-0.031309915021061896,0.02635433844029903
1733861865616615000,7.540614990234375,-0.009580313771963118,-0.02794949867725372,0.05108019889593124
1733861865626566000,7.55056591796875,-0.002871025391668081,-0.020376433074474332,0.0423112015068531
1733861865636516900,7.560516845703125,-0.008845569756627081,-0.01380523799061775,0.04881809918284416
1733861865646467800,7.5704677734375,-0.034767361998558045,-0.03337210824787617,0.036868133670091625
1733861865656418800,7.580418701171875,-0.028396073400974272,-0.02576104872226715,0.039164720174670216
1733861865666369800,7.590369873046875,0.0223069627456367,-0.013695347875356673,0.058503626894950866
1733861865676320800,7.60032080078125,0.046806174838542935,-0.021659458622336387,0.060820087143778796
1733861865686272000,7.61027197265625,0.032684125983715055,-0.027617490243911743,0.048882396590709684
1733861865696222700,7.62022265625,0.0062369946934282775,-0.03317629341483116,0.0432610495775938
1733861865706174000,7.630174072265625,-0.04250102499052882,-0.03358721230328083,0.0345382294178009
1733861865716124700,7.640124755859375,-0.06782134420797228,-0.024468670824170112,0.028864275434613226
1733861865726076000,7.650075927734375,-0.06573416267037391,-0.011318681871891022,0.03675648998916149
1733861865736027000,7.66002685546875,-0.04877002225741744,-0.02529927642941475,0.04874561846852302
1733861865745977900,7.669977783203125,-0.016507628817111254,-0.0180599728256464,0.05964928979873657
1733861865755928800,7.6799287109375,-0.0022882570676505563,-0.011966916647553442,0.06717910078167914
1733861865765879800,7.6898798828125,0.025608634639531374,-0.03166998050510883,0.043778351449966425
1733861865775832000,7.69983203125,0.025479309171438216,-0.04296235889196395,0.04520400033891201
1733861865785782800,7.70978271484375,-0.0032094635657966136,-0.03579495148062706,0.04926116677522659
1733861865795734000,7.719734130859375,0.014124971464276314,-0.038139468780159946,0.05237842201292515
1733861865805684700,7.729684814453125,0.03404255485534668,-0.02770341496169567,0.06319909123480319
1733861865815636000,7.739635986328125,0.0001958148330450058,-0.022542671197652814,0.04755027120411396
1733861865825586700,7.749586669921875,-0.02424129180908203,-0.020918869388103483,0.012656067955493927
1733861865835538000,7.759537841796875,-0.08333470129072666,-0.031547815430164335,0.013623451682925223
1733861865845489000,7.769489013671875,-0.127247492775321,-0.04200841916799545,-0.0011205284625291825
1733861865855440000,7.77943994140625,-0.13196122342422603,-0.024438860207796096,0.02577098559439182
1733861865865390800,7.789390869140625,-0.13008067037463186,-0.013259294545650481,0.025460604470968245
1733861865875341800,7.799341796875,-0.11557517516016959,-0.029477438896894453,0.026100655940175056
1733861865885292800,7.809292724609375,-0.08231397994086145,-0.04608429030478001,0.016591069316864014
1733861865895243800,7.819243896484375,-0.08616612532436847,-0.03910159181058406,0.04019289417862892
1733861865905194800,7.82919482421875,-0.07316226684451103,-0.0416401703774929,0.041129298245906824
1733861865915146000,7.83914599609375,-0.03024316257238388,-0.031245617613196372,0.0500625462859869
1733861865925096700,7.8490966796875,-0.00430734180510044,-0.026762334719300267,0.05354746579229831
1733861865935048000,7.8590478515625,-0.020583499953895808,-0.02964402763545513,0.040974399945139885
1733861865944999000,7.8689990234375,-0.037893385064601895,-0.015582184535264968,0.05429156215786934
1733861865954950000,7.878949951171875,-0.05062997091040015,-0.03558335455656052,0.04853051441311836
1733861865964900900,7.88890087890625,-0.019644465538114306,-0.01984510267674923,0.026150340300798415
1733861865974851800,7.898851806640625,-0.016943536016345025,-0.025984336084127424,0.05505202513635158
1733861865984803000,7.908802978515625,-0.0012238427065312861,-0.013584288716316222,0.05807867948114872
1733861865994753800,7.91875390625,0.007421089911460876,-0.015431962409615516,0.053744449669122694
1733861866004705000,7.928705078125,-0.013420184195786713,-0.021355507239699364,0.042377252480387685
1733861866014656800,7.93865673828125,-0.04986673145294189,-0.03879179520905018,0.03938859205842018
1733861866024608000,7.94860791015625,-0.028588381102681158,-0.041945875325798986,0.0324731135815382
1733861866034558700,7.958558837890625,0.007208762335032224,-0.044994156980514524,0.04941723411977291
1733861866044510000,7.968510009765625,0.058160074154287575,-0.02905541409254074,0.07866963208913802
1733861866054460700,7.978460693359375,0.09353475439622998,-0.024424831682443617,0.0917459712833166
1733861866064412000,7.988411865234375,0.09065174630582332,-0.015457681372761725,0.05648644185364246
1733861866074363000,7.99836279296875,0.014438859719038008,-0.02806932566463947,0.033545126727223394
1733861866084313900,8.00831396484375,-0.00741524469256401,-0.054796004548668856,0.0234235456854105
1733861866094265000,8.01826513671875,-0.05470131200253963,-0.03649287061691284,0.031952889099717136
1733861866104215800,8.0282158203125,-0.04438216256201267,-0.049153614747524256,0.04335749568939209
1733861866114167000,8.0381669921875,-0.03194529031515121,-0.06381167017519473,0.03572656241953373
1733861866124117800,8.04811767578125,-0.034824499013274904,-0.03372515946924686,0.055848728471994395
1733861866134069000,8.058069091796876,-0.028993893163651228,-0.016568272963166236,0.052669513913989066
1733861866144020000,8.06802001953125,-0.027895722663402556,-0.0068108490586280815,0.045263621571660036
1733861866153971000,8.077970947265625,0.0069527417473495,-0.025531916141510007,0.025789690294861792
1733861866163922000,8.087921875,0.03728898943066597,-0.023685411491990088,0.020612579917907714
1733861866173873000,8.097872802734376,0.04132920473217964,-0.015829437294602393,0.03847206173539162
1733861866183824000,8.107823974609374,0.0013331482999026775,-0.044675592550635336,0.05722060134708881
1733861866193774800,8.11777490234375,-0.04726034834682941,-0.024667992788553236,0.06658522654175758
1733861866203725800,8.127725830078125,-0.09094926794767379,-0.02223229007422924,0.04809913725852966
1733861866213677000,8.137677001953126,-0.10991875683367251,-0.019433599266409873,0.02944178306162357
1733861866223627800,8.147627685546874,-0.1254160395644605,-0.022146365356445312,-0.0025350714355707165
1733861866233579000,8.1575791015625,-0.08476020404919982,-0.026985622081160544,0.01902151133418083
1733861866243529700,8.16752978515625,-0.0709627109736204,-0.03687456341087818,0.01530453663766384
1733861866253482000,8.17748193359375,-0.05508461223170161,-0.04555938964784145,0.0275713130146265
1733861866263433000,8.187432861328125,0.01885448420420289,-0.032955928662419316,0.04604162020683288
1733861866273384000,8.197384033203125,0.046735009298473594,-0.03421265072524547,0.07305237672924995
1733861866283335000,8.2073349609375,0.04980711022019386,-0.03298457023501396,0.07787643588483333
1733861866293286000,8.217285888671874,0.10722308800891041,-0.04329904350042343,0.09442308153808117
1733861866303236900,8.22723681640625,0.2863701332390308,-0.07652151414453982,0.05219546666145324
1733861866313187800,8.237187744140625,0.4431194687001407,-0.09912848275005817,-0.01919920598864555
1733861866323139000,8.24713916015625,0.44555750950202344,-0.10465689078271388,-0.04510755422711372
1733861866333089800,8.25708984375,0.36527123599648476,-0.11098200215101242,-0.04905716863572597
1733861866343041000,8.267041015625,0.19825345836877822,-0.05549041655361652,-0.0005488660544157028
1733861866352991700,8.27699169921875,-0.014321955341100692,0.06585398965775967,0.1902016693383455
1733861866362943000,8.28694287109375,-0.1671621545344591,0.12036124039292335,0.21555822891294954
1733861866372893700,8.296893798828124,-0.2824205188304186,0.08903262067139148,0.1669704313546419
1733861866382845000,8.306844970703125,-0.3432575571089983,0.04344342040717602,0.09201777396202086
1733861866392796000,8.3167958984375,-0.35568566152751446,0.023210195195674896,-0.010217442631721496
1733861866402747000,8.326746826171876,-0.3500497014671564,-0.00715513245165348,-0.06565525221526622
1733861866412697900,8.33669775390625,-0.30025545072853566,-0.026424481067061422,-0.08297755841612815
1733861866422648800,8.34664892578125,-0.2728296836644411,-0.025676293048262595,-0.08260872510373592
1733861866432599800,8.356599853515625,-0.25025617893710733,-0.04710661908984184,-0.042868835389614106
1733861866442550800,8.36655078125,-0.19838614483773706,-0.04755845451056957,0.06244681156277656
1733861866452501800,8.376501708984375,-0.18013897887691854,-0.01905073742866516,0.11128244640231132
1733861866462453000,8.386452880859375,-0.16921557993292807,-0.005489245066046714,0.1057978775113821
1733861866472403700,8.39640380859375,-0.0980599767357111,-0.01799333733022213,0.0963905822187662
1733861866482355000,8.40635498046875,-0.0030839374899864196,-0.023484335961937903,0.0768845022380352
1733861866492307000,8.416306884765625,0.07809723902866243,-0.04724398173391819,0.07147884380221367
1733861866502258000,8.4262578125,0.10753843756839632,-0.044451136144995684,0.029529461345076558
1733861866512209000,8.436208984375,0.07638809702321886,-0.04708440725803375,0.03225391787290573
1733861866522159900,8.446159912109374,-0.003591156359761953,-0.04526011444032192,0.07475333542823791
1733861866532110800,8.45611083984375,-0.0441879551641643,-0.011413958939909935,0.08064239346683025
1733861866542061800,8.466061767578125,-0.06754369631037116,-0.012375497448444366,0.05884148054718971
1733861866552012800,8.4760126953125,-0.02284662258028984,-0.018719898039102553,0.07645020247399807
1733861866561963800,8.4859638671875,0.10414850286915897,-0.006418050348758697,0.05669979234337806
1733861866571914800,8.495914794921875,0.19180048283711074,-0.01326806237399578,0.03794365394711494
1733861866581865700,8.50586572265625,0.16753098784685133,-0.03846446295082569,0.025973814690113065
1733861866591816700,8.515816650390626,0.045616672793030735,-0.03783317930996418,0.014301497074961662
1733861866601767700,8.525767578125,-0.08346548806354404,-0.03591770107746124,0.02792027258276939
1733861866611718700,8.53571875,-0.12078311906680464,-0.022065116813778877,0.04211363310813904
1733861866621670000,8.545669921875,-0.0864005186021328,-0.036056817287206645,0.04420388338565826
1733861866631620600,8.55562060546875,-0.024370471146702766,-0.027080899149179456,0.054197454133629794
1733861866641571800,8.56557177734375,0.04975581842437386,-0.02004851629436016,0.055169514036178584
1733861866651522600,8.5755224609375,0.06430792925953864,-0.027416414713859555,0.044403205350041386
1733861866661473800,8.585473876953126,0.02227569082453847,-0.020567571732401847,0.043862522602081296
1733861866671424500,8.595424560546874,-0.047441404002159834,-0.027587679627537727,0.03629004152119159
1733861866681375700,8.605375732421875,-0.12801657745167613,-0.04166004412174225,0.008380290332436561
1733861866691327000,8.615326904296875,-0.16001038308367133,-0.01859013417959213,0.023964812955260276
1733861866701277700,8.625277587890626,-0.1666086123049259,-0.017490648505091667,0.050720133411884305
1733861866711229000,8.63522900390625,-0.12973565632924436,-0.026800328642129896,0.05033785609602928
1733861866721179600,8.6451796875,-0.09187281253337859,-0.025390461844205854,0.030228549525141715
1733861866731132000,8.6551318359375,-0.0550514406144619,-0.04223404461741447,0.026706805139780042
1733861866741082600,8.66508251953125,-0.004780804535746574,-0.05929740762114524,0.00336450799703598
1733861866751033900,8.675033935546875,0.030194062733650207,-0.04519464798867702,0.020082418563961982
1733861866760984600,8.684984619140625,0.04433963859453797,-0.01581248615980148,0.04314648328721523
1733861866770935800,8.694935791015626,0.01745923045352101,-0.01040682772397995,0.07152092937827109
1733861866780886500,8.704886474609374,-0.01462532220184803,-0.01388414844572544,0.06639350336194039
1733861866790837800,8.714837646484375,-0.03943491541817784,-0.025369419056177137,0.06656593731939792
1733861866800788700,8.724788818359375,-0.036710897281765936,-0.02443476855456829,0.025138532909750936
1733861866810739700,8.73473974609375,-0.023020225581526756,-0.028412440013885498,0.007903904992341995
1733861866820690700,8.744690673828124,-0.0028986440509557723,-0.02774608505964279,0.039030280140042305
1733861866830641700,8.7546416015625,-0.018219108910113573,-0.011121697995066642,0.04049743008315563
1733861866840592600,8.764592529296875,-0.035790859827399255,-0.018892331996560097,0.05445347472131252
1733861866850543600,8.774543701171876,-0.0253765794493258,-0.03214811941087246,0.05313187072873115
1733861866860494800,8.784494873046874,-0.04229585780724883,-0.014184008175134658,0.04898527244329452
1733861866870445800,8.79444580078125,-0.04577157109379768,-0.02156476607620716,0.055423196536302566
1733861866880396800,8.804396728515625,-0.026341478958725927,-0.02067278567254543,0.03717909931540489
1733861866890347800,8.81434765625,0.0007657236754894256,-0.02638064192533493,0.04160509906411171
1733861866900298800,8.824298828125,0.0319675021469593,-0.045052609169483185,0.04361176271140575
1733861866910249700,8.834249755859375,0.021660189274698493,-0.022229951986670493,0.05332242486476898
1733861866920200700,8.84420068359375,-0.035887159808725116,-0.033360417810082435,0.04249824851155281
1733861866930151700,8.854151611328126,-0.07108370700478553,-0.02818915265202522,0.027930209454894064
1733861866940103000,8.86410302734375,-0.09985139019712805,-0.04075929588973522,0.03863748143017292
1733861866950053600,8.8740537109375,-0.07556465181112289,-0.030144378373026845,0.011643091520667075
1733861866960004900,8.8840048828125,-0.030385785913467404,-0.028414193579554554,0.0284732302904129
1733861866969955600,8.89395556640625,0.03122223673760891,-0.025296353819966314,0.05488309831023216
1733861866979907800,8.903907958984375,0.02797054146528244,-0.04387596660554409,0.043377369433641434
1733861866989858600,8.913858642578125,-0.02915653637945652,-0.04190495879352092,0.04833879123330116
1733861866999809800,8.923809814453126,-0.05761734557971358,-0.03127016753256321,0.05235504113733768
1733861867009760800,8.9337607421875,-0.05077785494849085,-0.03353986603021621,0.03544423834681511
1733861867019711700,8.943711669921875,-0.04513429610356688,-0.025269465813040733,0.03458849830031395
1733861867029662700,8.953662841796875,-0.05075871185660362,-0.01855798547565937,0.03061608753800392
1733861867039613700,8.96361376953125,-0.046427404654026026,-0.01640460683405399,0.044615971317887304
1733861867049565000,8.97356494140625,-0.03673953885436058,-0.017843115204572678,0.0603536386758089
1733861867059515600,8.983515625,-0.04582593162953853,-0.027649054425954816,0.0467073906391859
1733861867069467000,8.993466796875,-0.03354088894352317,-0.02270633732676506,0.04727963756918907
1733861867079417600,9.00341748046875,-0.00635433746278286,-0.03760872290432453,0.03733341309428215
1733861867089368800,9.013368896484375,-0.0008498948276042938,-0.029924013620615003,0.015191139391064644
1733861867099319800,9.02331982421875,0.009286883783340454,-0.03661971186697483,0.026432664373517035
1733861867109270800,9.033270751953125,-0.026845482958108183,-0.03347615314424038,0.043780689537525175
1733861867119221800,9.0432216796875,-0.05003346632197499,-0.01959843443930149,0.06447744060754776
1733861867129172700,9.0531728515625,-0.044511926421523094,-0.03114800245761871,0.05013619604408741
1733861867139123700,9.063123779296875,-0.034951486393809315,-0.027816812208294867,0.05028057295083999
1733861867149074700,9.07307470703125,-0.01965177206173539,-0.03993687359094619,0.04986030171215534
1733861867159025700,9.083025634765624,-0.016990443897992372,-0.024026187753677368,0.04616670789122581
1733861867168977000,9.092976806640625,-0.0059459027923643585,-0.0235977332085371,0.0396621483027935
1733861867178927600,9.102927734375,0.013129384555667638,-0.014607786545157432,0.031003625550866123
1733861867188878800,9.11287890625,-0.004993570503592491,-0.027570143970847127,0.05475742610394954
1733861867198829600,9.12282958984375,-0.02842763758301735,-0.028265725019574164,0.07061842758059501
1733861867208780800,9.13278076171875,-0.0008446341305971145,-0.032281390401721,0.06042553486824035
1733861867218731500,9.1427314453125,0.029788989064097403,-0.026035189488530158,0.04369359577596187
1733861867228683800,9.152683837890624,0.008807721964269877,-0.037944822990894314,0.0409954427331686
1733861867238634800,9.162634765625,-0.031174890464544296,-0.03358662778139114,0.032680618852376934
1733861867248585700,9.172585693359375,-0.07324936060607433,-0.032732056778669354,0.033173370805382726
1733861867258536700,9.18253662109375,-0.08657236803770064,-0.0255932909399271,0.02087327668070793
1733861867268487700,9.19248779296875,-0.05269274865910411,-0.01457388427555561,0.03698211543858051
1733861867278439000,9.20243896484375,-0.02810746571794152,-0.025396891584992407,0.040051439881324764
1733861867288389600,9.2123896484375,0.009655132573843001,-0.0279722950309515,0.052360886356234544
1733861867298340900,9.2223408203125,-0.013283406073600052,-0.034599604216217994,0.04324877461791038
1733861867308291600,9.23229150390625,-0.05163447177782655,-0.03068739920854568,0.04103694378733635
1733861867318242800,9.242242919921875,-0.05559504597187042,-0.03064356006681919,0.04180208294093608
1733861867328193800,9.25219384765625,-0.03773673319816589,-0.03712883043289184,0.047862405893206596
1733861867338144800,9.262144775390626,-0.023130554088205097,-0.025426117679476737,0.04657879582345485
1733861867348095700,9.272095703125,-0.05053235575482249,-0.018863105902075766,0.03653612523674965
1733861867358046700,9.282046630859375,-0.05338847583830356,-0.026330957564711568,0.0467903927475214
1733861867367997700,9.291997802734375,-0.05217208578586578,-0.0497357985496521,0.052256256937980645
1733861867377948700,9.30194873046875,-0.06174655433893203,-0.03450841880142688,0.05339782818853855
1733861867387899600,9.311899658203124,-0.015523878476768732,-0.03205225782096386,0.04263502663373947
1733861867397850600,9.3218505859375,0.006297638839483261,-0.03463233744204044,0.037543840974569316
1733861867407801600,9.331801513671875,0.015353636476397514,-0.030285248148441312,0.0433265160292387
1733861867417752800,9.3417529296875,0.011403437545895576,-0.020980244186520575,0.0557090277403593
1733861867427703800,9.351703857421874,-0.02782221903577447,-0.04001695308983326,0.045586277654767034
1733861867437654800,9.36165478515625,-0.07509586525559425,-0.03653320262730121,0.021996143230795857
1733861867447605800,9.371605712890625,-0.06403481140658258,-0.030019290688633918,0.03089665804505348
1733861867457556700,9.381556640625,-0.025152415304630995,-0.02158171721100807,0.0467640892624855
1733861867467507700,9.3915078125,-0.020164105498045683,-0.025792612904310223,0.05655716900229454
1733861867477459700,9.401459716796875,0.010923106683045625,-0.01837444560229778,0.0516442625194788
1733861867487410700,9.41141064453125,-0.014120733680576085,-0.02129413244128227,0.04495031783878803
1733861867497361700,9.421361572265624,-0.031022184120863674,-0.019835750326514242,0.0388169296503067
1733861867507313000,9.43131298828125,-0.027248510801047086,-0.033389643904566765,0.03402794180810451
1733861867517263600,9.441263671875,-0.01574015157595277,-0.029860300734639165,0.04216857816576958
1733861867527214800,9.45121484375,-0.007682371196150779,-0.03132335902452469,0.05096913973689079
1733861867537165600,9.46116552734375,-0.03107961339652538,-0.03521569028794765,0.036248540467023846
1733861867547116800,9.47111669921875,-0.03615618600845337,-0.03198737589120865,0.04124912523329258
1733861867557067500,9.481067626953125,-0.031212299865484235,-0.01730827767550945,0.04849427405595779
1733861867567019000,9.49101904296875,-0.03955868792831897,-0.027736148187518118,0.05202537079155445
1733861867576970000,9.500969970703125,-0.04625321713089943,-0.031417467048764226,0.05060205999016761
1733861867586921000,9.5109208984375,-0.036986060961335894,-0.03490823177397251,0.05059270763993263
1733861867596872000,9.520871826171875,-0.0440029539860785,-0.035275311520695685,0.034140170010924335
1733861867606823000,9.530822998046874,-0.04174713788330555,-0.023226561808586118,0.03022445787191391
1733861867616774000,9.54077392578125,-0.02094181187227368,-0.02193652199804783,0.04597849184274673
1733861867626724900,9.550724853515625,-0.025161329263448714,-0.016852350601553916,0.040810149294137954
1733861867636675800,9.56067578125,-0.031968232799321414,-0.02637362766265869,0.03737199153900146
1733861867646627000,9.570626953125,-0.02873670353218913,-0.023305472263693807,0.028885318222641943
1733861867656577800,9.580577880859375,-0.04700725036859512,-0.02496200729906559,0.03376899861097336
1733861867666529000,9.590529052734375,-0.05428966246172785,-0.022279051825404166,0.03404313937723637
1733861867676479700,9.600479736328126,-0.03745893917009234,-0.03952887731194496,0.043455110844969745
1733861867686431000,9.610430908203124,-0.001496376037597656,-0.03545826687216758,0.05792378118038177
1733861867696381700,9.620381591796875,0.018163433200120926,-0.03153378690481186,0.04131809881627559
1733861867706333000,9.6303330078125,0.003209755826741457,-0.023933833295106885,0.046184828069806096
1733861867716284000,9.640283935546876,0.02485387074947357,-0.018906945043802262,0.07037526647448539
1733861867726236000,9.65023583984375,0.028021833261102438,-0.012397709280252456,0.040705519875884055
1733861867736187000,9.660186767578125,-0.01451879308745265,-0.006853519156575202,0.018659692284464836
1733861867746137900,9.670137939453125,-0.046675534196197986,-0.040683308044075966,0.030853403425216672
1733861867756089000,9.680089111328124,-0.03967953782901168,-0.03174421478509903,0.038354572835564614
1733861867766039800,9.690039794921875,-0.01918751555085182,-0.0362158072412014,0.055150809335708616
1733861867775991000,9.699990966796875,-0.03145414579734206,-0.046802667707204815,0.07395487852692603
1733861867785941800,9.709941650390626,-0.06172478089854121,-0.02962181580364704,0.05025719207525253
1733861867795893000,9.71989306640625,-0.09510054240822792,-0.02776654332578182,0.030406828701496122
1733861867805843700,9.72984375,-0.1006098073489964,-0.0267827929854393,0.013369769182801246
1733861867815795000,9.739794921875,-0.0819030610524118,-0.039899464190006256,0.015556465572118759
1733861867825746000,9.749745849609376,-0.018817513194680214,-0.04234335021078586,0.03714695061147213
1733861867835697000,9.75969677734375,0.024698241796344517,-0.026270167288184165,0.04400748403072357
1733861867845648000,9.76964794921875,0.060425096476823086,-0.022151041531562804,0.06140577807724475
1733861867855598800,9.779598876953125,0.047736879817396397,-0.027898060750961302,0.05176525855064392
1733861867865549800,9.7895498046875,0.008128799789398908,-0.025925883895158767,0.05647767402529716
1733861867875500800,9.799500732421874,0.0021915186949074267,-0.04454465964734554,0.040053777968883514
1733861867885451800,9.80945166015625,0.0014420155018568038,-0.03410802130699157,0.017407646396756172
1733861867895403000,9.819403076171875,0.020527824243903158,-0.02960778727829456,0.043215456870198246
1733861867905353700,9.829353759765626,0.0013993454039096832,-0.005629530319571495,0.029005145210027693
1733861867915305000,9.839304931640624,0.02336860062777996,-0.018834464329481125,0.03531505900919437
1733861867925255700,9.849255615234375,0.052571752627938985,-0.017877601996064186,0.05292378093600273
1733861867935207000,9.85920703125,0.05602116242945194,-0.014846855998039244,0.05158873293995857
1733861867945158000,9.869157958984376,0.006827946323901414,-0.03296937266588211,0.04655716851353645
1733861867955108900,9.87910888671875,-0.049304859786480665,-0.030865093863010406,0.04995908591151237
1733861867965059800,9.889059814453125,-0.09471417343914508,-0.030022797819972035,0.04719371285140514
1733861867975010800,9.8990107421875,-0.07467895501777529,-0.045187049204111096,0.029170564904808998
1733861867984962800,9.908962890625,-0.08353796877786517,-0.009099836778640747,0.027003742259740827
1733861867994913800,9.918913818359375,-0.11344561578556894,-0.06327274099290371,0.0015776245802640915
1733861868004865000,9.928864990234375,-0.12654299776777625,-0.05123860432803631,0.018173954594135282
1733861868014815700,9.938815673828126,-0.08423311143517494,-0.049341830796003336,0.035923546296358105
1733861868024767000,9.94876708984375,-0.04419686912298202,-0.045695583248138424,0.055983753028511996
1733861868034717700,9.9587177734375,0.021528525719046593,-0.027909166666865347,0.07032733567953109
1733861868044669000,9.9686689453125,0.042483050942420955,-0.036191841843724246,0.04544365431368351
1733861868054620000,9.978619873046876,0.0247251298032701,-0.030632454150915145,0.03496142326593399
1733861868064571000,9.98857080078125,0.017355623948574064,-0.02603986566364765,0.051204117536544795
1733861868074521900,9.99852197265625,-0.006837737065553665,-0.020901918253302572,0.05645312410593033
1733861868084472800,10.008472900390625,-0.0016245324619114398,-0.017465514063835143,0.040108723026514054
1733861868094423800,10.018423828125,-0.013729104014486074,-0.008109656697511673,0.03898936360776424
1733861868104374800,10.028374755859375,-0.016506898164749144,-0.013691840744018554,0.039569209322333335
1733861868114325800,10.03832568359375,-0.0030272388666868206,-0.046609190961718554,0.01989770964682102
1733861868124277000,10.048277099609376,0.025806641429662703,0.011309329521656036,0.03860650177001953
1733861868134227700,10.058227783203124,0.07371405550837516,-0.018724574214220045,0.03782850313484668
1733861868144179000,10.068178955078125,0.09920388607382774,0.005066635739803314,0.032571313259005544
1733861868154130000,10.0781298828125,0.07431392109766602,0.004758008182048797,0.05450900430083275
1733861868164081000,10.088080810546876,0.04327390905916691,-0.02285539040863514,0.05724924291968345
1733861868174032000,10.098031982421874,0.007791676789522171,-0.01411503459215164,0.06166004509925842
1733861868183982800,10.10798291015625,-0.07915580817088484,-0.0013759645283222197,0.06132745214402675
1733861868193934000,10.11793408203125,-0.1663816716812551,-0.028650340422987936,0.02129120983183384
1733861868203884800,10.127884765625,-0.20517887371778487,-0.020468203011155126,0.019608371311426162
1733861868213836000,10.1378359375,-0.1488956993512809,-0.021856442499160765,0.020899580165743826
1733861868223786800,10.147786865234375,-0.06798384129330516,-0.021171382844448087,0.03433540032207966
1733861868233738000,10.157738037109375,-0.015441168629378079,-0.018632219755649566,0.05508242027461528
1733861868243689700,10.167689697265626,0.019703209988027808,-0.03463876718282699,0.03949322147667408
1733861868253641000,10.177640869140625,-0.02508826402723789,-0.020862755286693572,0.06716624130010604
1733861868263591700,10.187591796875,-0.07913491151332855,-0.037305356043577195,0.0561842440366745
1733861868273543000,10.19754296875,-0.16957579154744742,-0.054506666213274,0.03418167106509209
1733861868283493600,10.20749365234375,-0.17234861726164816,-0.0550076014727354,0.02158171721100807
1733861868293444900,10.21744482421875,-0.09851765737533569,-0.053934419283270835,0.023550386935472487
1733861868303395800,10.227395751953125,-0.03284706146046519,-0.042245735055208206,0.03904664675295353
1733861868313346800,10.237346923828126,0.04480827901959419,-0.02988017447888851,0.07400923906266689
1733861868323298000,10.247298095703124,0.07936711283400655,-0.03393617187142372,0.07802782705426216
1733861868333248800,10.257248779296875,0.06322115693613886,-0.050907180416584014,0.04837853872179985
1733861868343200000,10.267199951171875,0.012048019059747457,-0.04649053301811218,0.01208732815682888
1733861868353150700,10.277150634765626,-0.02790039883852005,-0.04112111493945122,0.02284311544895172
1733861868363102000,10.28710205078125,-0.00833762023448944,-0.023266309297084807,0.06897709011435509
1733861868373053000,10.297052978515625,0.04988324419632554,-0.019054244560003278,0.06258183611929416
1733861868383004000,10.30700390625,0.07812164281755685,-0.01709434266388416,0.040786183896660805
1733861868392955000,10.316954833984376,0.05214169064760208,-0.029071196183562277,0.03318506124317646
1733861868402905900,10.32690576171875,0.04952990071401,-0.03839548936784267,0.03147358115017414
1733861868412856800,10.33685693359375,0.043831542941927905,-0.025707272708415982,0.0659177025437355
1733861868422807800,10.346807861328125,0.04239595718085765,-0.012246902632713318,0.07395721661448479
1733861868432758800,10.3567587890625,0.0044223464868962765,-0.01773673222064972,0.051178983095288275
1733861868442710000,10.3667099609375,-0.07597308648154139,-0.023653262788057326,0.04568272376656532
1733861868452660700,10.37666064453125,-0.09845672096833587,-0.027832594299316404,0.037653731089830396
1733861868462612000,10.386612060546875,-0.08031374603435397,-0.060899582120776174,0.015191139391064644
1733861868472562700,10.396562744140626,-0.07317585697844624,-0.03218377524614334,0.04250760086178779
1733861868482514000,10.406513916015625,-0.08555354638397693,-0.034845103409886356,0.035648236486315724
1733861868492465000,10.41646484375,-0.14865838346406818,-0.03000876929461956,0.024184008663892746
1733861868502417000,10.4264169921875,-0.13404606687426565,-0.030472879675030706,0.019967267751693725
1733861868512367900,10.436367919921874,-0.010430793121457099,-0.012255085939168929,-0.012882862448692321
1733861868522318800,10.44631884765625,0.1408627611517906,-0.0020417349606752394,-0.06605857231914997
1733861868532270000,10.45627001953125,0.29255013704821464,-0.014757424148917198,-0.043347558817267415
1733861868542220800,10.466220703125,0.3417746250748634,-0.03090542587339878,0.009933364993333816
1733861868552172000,10.476172119140625,0.2926332852870226,-0.04767126723527908,-0.0023076924204826353
1733861868562122800,10.486122802734375,0.11799728774055838,-0.016332126119732854,-0.04963175365328788
1733861868572073700,10.49607373046875,-0.06693111736997961,0.0018318916022777557,0.031787469404935834
1733861868582024700,10.506024658203126,-0.29588088890612124,0.10507716202139854,-0.03680500530600547
1733861868591975700,10.5159755859375,-0.6759288382738828,0.6180062261372804,0.08405658582448959
1733861868601927000,10.525927001953125,-0.6944071826420724,0.5939531503766775,0.30712007580101486
1733861868611877600,10.535877685546875,-0.14984437837824224,-0.8628934253871441,0.3106108405262232
1733861868621828900,10.545828857421874,0.1120754964761436,-0.782851335901022,0.06338847632706165
1733861868631779600,10.555779541015625,0.033315555755048985,0.08340309035181999,-0.0392570746332407
1733861868641730800,10.565730712890625,-0.00843801186904311,-0.02162321826517582,-0.005810732105374336
1733861868651681500,10.575681640625,-0.11480024526491761,-0.036545477586984634,0.015316227075457572
1733861868661632800,10.5856328125,-0.15732450500056147,0.006645429363846779,0.0054500820994377135
1733861868671583700,10.595583740234375,-0.05712020971253514,0.01571662456989288,0.013842062869668006
1733861868681534700,10.60553466796875,-0.028173516691476105,0.012881693404912948,0.027067455145716665
1733861868691485700,10.615485595703126,0.010276625473052263,0.008449848437309265,0.0789496180742979
1733861868701436700,10.625436767578124,0.04796396657153964,-0.005586275699734688,0.06365443378686904
1733861868711387600,10.6353876953125,0.05263721907958388,-0.021364275068044662,0.019648118799924848
1733861868721338600,10.645338623046875,0.06037818859517574,-0.031409283742308614,-0.0005985504150390625
1733861868731289600,10.65528955078125,0.09708265613615512,-0.048832712230086325,0.005171849679946899
1733861868741240800,10.66524072265625,0.10464227773547172,0.010712532672286033,0.04542962578833103
1733861868751191800,10.67519189453125,-0.17512918789088724,0.8332914833277464,0.04327390905916691
1733861868761143800,10.685143798828125,0.1267730071313679,-0.18246435308456418,0.009854454538226127
1733861868771094800,10.6950947265625,0.39729368320107455,-0.8086457023710012,0.11126432622373103
1733861868781045800,10.705045654296875,0.22415523073598742,0.00810147339105606,0.1902338180422783
1733861868790996700,10.714996826171875,0.155260850469023,0.07305354577302932,0.1674059001624584
1733861868800947700,10.72494775390625,0.02548690795600414,-0.07676876690387725,0.11585399210155009
1733861868810898700,10.734898681640624,-0.12599208588674662,-0.03161737353503704,0.006469488275051116
1733861868820849700,10.744849609375,-0.12786065623760223,-0.05656418326497078,0.017396540480852127
1733861868830801000,10.75480078125,-0.052755000240355725,-0.01654196947813034,0.02014613144993782
1733861868840751600,10.764751708984376,-0.032352848202735186,-0.029652210941910742,0.012449147206544876
1733861868850702800,10.774702880859374,-0.018786533534526823,-0.021637246790528294,0.024781390035152433
1733861868860653600,10.784653564453125,-0.06694120037257671,-0.02549567578434944,0.05135960035920143
1733861868870604800,10.794604736328125,-0.09092866355106234,-0.029687866777181625,0.049749827075004575
1733861868880555500,10.804555419921876,-0.11611527338624,-0.020259528696537018,0.0628109687000513
1733861868890506800,10.8145068359375,-0.09093684685751795,-0.04350421068370342,0.04462707723379135
1733861868900458000,10.8244580078125,-0.05389934796988964,-0.03111760731935501,0.015562895312905311
1733861868910408700,10.83440869140625,-0.024830489873886107,-0.01963409027457237,0.011850596791505814
1733861868920360000,10.84435986328125,-0.0019885434687137602,-0.029126141241192817,-0.0016968670457601547
1733861868930310700,10.854310546875,-0.04679799153208732,-0.03536708145737648,0.02632394330203533
1733861868940262000,10.864261962890625,-0.08410612405464053,-0.02720364874601364,-0.011094225466251372
1733861868950212600,10.874212646484375,-0.09026128568351269,-0.03400280736684799,-0.07639058124125003
1733861868960163800,10.884163818359376,-0.11809841002747416,-0.0296235693693161,0.041623219242691994
1733861868970114800,10.89411474609375,-0.1600156437806785,-0.0083481416285038,0.14170564171671868
1733861868980065800,10.904065673828125,-0.1271807111494243,-0.019345920982956885,0.11271101790070533
1733861868990016800,10.914016845703125,-0.14876140544712543,-0.04538929377794265,0.10119067597687244
1733861868999967700,10.9239677734375,-0.1928654817201197,-0.05500643242895603,0.03286123611629009
1733861869009918700,10.933918701171875,-0.21316241981759665,-0.04460544992387294,-0.03273030321300029
1733861869019869700,10.94386962890625,-0.20190949665829538,-0.05181085125803947,-0.0258241770863533
1733861869029820700,10.953820556640625,-0.13521277256608008,-0.02678454655110836,0.012525719574093819
1733861869039772700,10.963772705078124,-0.04544423883557319,-0.009012743017077446,0.051093058377504344
1733861869049723600,10.9737236328125,0.02013809427395463,-0.0020791443616151807,0.06145546243786811
1733861869059674600,10.983674560546875,0.0750571406804025,0.0024690204620361326,0.043705286213755606
1733861869069625900,10.9936259765625,0.1264461132645607,-0.007546177595853805,0.02132861923277378
1733861869079576800,11.003576904296875,0.13023323058784006,0.019115034836530684,0.023030162453651425
1733861869089527800,11.01352783203125,-0.17819734328985212,0.728055331352353,-0.0011737199544906616
1733861869099478800,11.023478759765625,-0.08933299185745418,0.2640069102615118,-0.014753332495689392
1733861869109429800,11.0334296875,0.3317816388487816,-0.852022487282753,0.0615431407213211
1733861869119380700,11.043380615234375,0.3294049728453159,-0.3656079206049442,0.18715806385874748
1733861869129331700,11.053331787109375,0.23247487692236898,0.16092179884016514,0.16861936760544777
1733861869139282700,11.06328271484375,0.17328977056927977,-0.08560147717893123,0.11236205833256244
1733861869149234000,11.07323388671875,0.019431845700740812,-0.037974049085378644,0.033736849907040595
1733861869159184600,11.0831845703125,-0.03541552370898425,-0.04244856415092945,0.051209962755441665
1733861869169135900,11.093135986328125,-0.04492869052886963,-0.014182839131355285,0.062035308152437206
1733861869179086600,11.103086669921876,-0.02207797629535198,-0.022684125494956967,0.03580956452786922
1733861869189037800,11.113037841796874,-0.016727262917160986,-0.03146481332182884,0.011235679763555526
1733861869198988800,11.12298876953125,-0.035282325783371926,-0.04440963509082794,0.00035071313381195067
1733861869208939800,11.132939697265625,-0.09443141097500919,-0.04587736955583095,0.02171907985508442
1733861869218890800,11.142890869140626,-0.15395838956832886,-0.029681437036395072,0.07147884380221367
1733861869228841700,11.152841796875,-0.14371946575716138,-0.023750877943634986,0.09234919787347316
1733861869238792700,11.162792724609375,-0.07713760021626949,-0.01920680477321148,0.06148819566369056
1733861869248743700,11.17274365234375,-0.07775310176610946,-0.020665771409869194,0.029821137768030165
1733861869258694700,11.182694580078126,-0.11354746872484683,-0.033245266997814174,0.007455576702952385
1733861869268646000,11.19264599609375,-0.08849478746764361,-0.022125322568416594,0.01857318304479122
1733861869278596600,11.2025966796875,-0.08680749196782708,-0.014554010531306266,0.0274058933198452
1733861869288547800,11.2125478515625,-0.058112143359333276,-0.03196399501562119,0.022937807995080946
1733861869298498600,11.22249853515625,-0.034845687931776045,-0.02264262444078922,0.04460954157710075
1733861869308450800,11.232450927734375,-0.0014554595053195953,-0.022698738542199132,0.06333762292265892
1733861869318401800,11.24240185546875,0.036433833906054494,-0.009373393023014069,0.08797054439783096
1733861869328352800,11.252352783203126,0.049400867506861686,-0.018129530930519104,0.07439502350986003
1733861869338303700,11.2623037109375,0.04716156414747238,-0.014717676660418509,0.038353988313674925
1733861869348254700,11.272254638671875,0.021393939553946254,-0.02717266908586025,0.050855742490291594
1733861869358205700,11.282205810546875,0.046223844905942675,-0.027409400451183317,0.057577744221687314
1733861869368156700,11.29215673828125,0.07113499880060553,-0.02581365569233894,0.061707975894212716
1733861869378108000,11.30210791015625,0.03897365458197891,-0.0017921441137790678,0.05993921265602112
1733861869388058600,11.31205859375,0.022203721566870806,-0.005938742399215698,0.040999534386396405
1733861869398009900,11.322009765625,-0.0074240125209093085,-0.03693009299039841,0.025535423272848128
1733861869407960600,11.331960693359376,-0.06645078650712967,-0.04230944794118404,0.016641922721266744
1733861869417911800,11.341911865234374,-0.12652341628447175,-0.03410743678510189,0.028587212058901783
1733861869427862500,11.351862548828125,-0.11591025233343243,-0.046188335201144216,0.04825812721252441
1733861869437813800,11.361813720703125,-0.07443491712883114,-0.03164133893251419,0.050903088763356204
1733861869447764700,11.3717646484375,-0.004962590843439102,-0.010720131456851958,0.04457622382938862
1733861869457715700,11.3817158203125,0.04933876205608249,-0.015285831937193869,0.049289808347821235
1733861869467666700,11.391666748046875,0.0761425978295505,-0.019312018713355063,0.043052375262975694
1733861869477617700,11.40161767578125,0.06573080166950822,-0.010474047741293907,0.040970892813801764
1733861869487569000,11.41156884765625,0.028683950431644914,-0.017082067704200742,0.03415127592682838
1733861869497519600,11.42151953125,-0.04584726667851209,-0.03979892642498016,0.008229483684897423
1733861869507470800,11.431470947265625,-0.08608619195595384,-0.027048165923357008,0.023675474619865414
1733861869517421800,11.441421875,-0.10669614152535796,-0.040622517767548556,0.03115852385163307
1733861869527372800,11.451372802734374,-0.04637772029340267,-0.03540624442398548,0.028546880048513412
1733861869537323800,11.46132373046875,-0.009048252721875906,-0.01931084966957569,0.03371989877223968
1733861869547274800,11.471274658203125,-0.006199293031543493,-0.032960020315647126,0.05062485634386539
1733861869557225700,11.481225830078126,-0.008439180912822485,-0.03512859652638435,0.0578004470616579
1733861869567176700,11.4911767578125,-0.008305471530556678,-0.03682955522537231,0.048825113445520395
1733861869577127400,11.50112744140625,-0.02821852487698197,-0.027457915768027304,0.05132803617715835
1733861869587079400,11.511079345703125,-0.03115954676494002,-0.00509469279050827,0.05342763880491257
1733861869597030400,11.521030517578126,-0.05232873765230178,-0.03393324926197529,0.02796002007126808
1733861869606981600,11.530981689453125,-0.0552769199334085,-0.02776829689145088,0.017615736189484595
1733861869616932400,11.540932373046875,-0.07399097275361419,-0.044809448063373565,0.010226210460066795
1733861869626883600,11.550883544921875,-0.1137403609484434,-0.044320203241705894,0.02217208431959152
1733861869636834300,11.560834228515626,-0.12625395169332623,-0.03710194242596626,0.03093231388032436
1733861869646785500,11.57078564453125,-0.12063538115918636,-0.04580430431962013,0.04592471582889557
1733861869656736300,11.580736328125,-0.0978068787574768,-0.04028875576853752,0.0487029483705759
1733861869666687500,11.5906875,-0.0471650712788105,-0.029874329259991644,0.03272328895032406
1733861869676638700,11.600638671875,-0.02487082188427448,-0.02288227841556072,0.04520166225135326
1733861869686589400,11.61058935546875,-0.0011585223853588103,-0.021401684468984602,0.04937573306560516
1733861869696540700,11.620540771484375,0.009703647890686989,-0.011854688444733618,0.05326631076335907
1733861869706491400,11.630491455078126,0.023872458496689796,-0.023603578427433967,0.03597381517887115
1733861869716442600,11.640442626953124,0.013285744161158798,-0.02902969512939453,0.03662263447642326
1733861869726393300,11.650393310546875,-0.019447043269872663,-0.03206394825875759,0.031135727497935292
1733861869736344600,11.660344482421875,-0.01527516441270709,-0.030712533649802205,0.036892683589458464
1733861869746295600,11.670295654296876,-0.021508505844324826,-0.04221884704828262,0.04878010526001453
1733861869756246500,11.68024658203125,-0.03887421279549599,-0.03740180215537548,0.046373628640174865
1733861869766197500,11.690197509765625,-0.013962328248471021,-0.02207096203267574,0.04565232862830162
1733861869776148500,11.7001484375,0.005955547403544187,-0.01137888762652874,0.05240472549796104
1733861869786099500,11.710099365234376,-0.0017566344089806078,-0.031496962025761605,0.04755027120411396
1733861869796050400,11.720050537109374,-0.011262129379063844,-0.00987608184814453,0.03166413528621197
1733861869806001400,11.73000146484375,0.028770898062735795,-0.024127310040593146,0.05186228918433189
1733861869815952600,11.73995263671875,0.024882658452540635,-0.014146598774194717,0.04602992976903915
1733861869825903400,11.7499033203125,-0.02217033075392246,-0.042860067561268804,0.04876023151576519
1733861869835854600,11.7598544921875,-0.08244739706218242,-0.029739304703474044,0.03455810316205025
1733861869845805300,11.769805419921875,-0.1010818087749183,-0.03185995011925697,0.03464811953306198
1733861869855756500,11.779756591796875,-0.08876081799268722,-0.0439057772219181,0.02442950785756111
1733861869865708500,11.78970849609375,-0.045346039158105846,-0.010955693778395652,0.024777298381924627
1733861869875659500,11.799659423828125,-0.04513341932073235,-0.0099906481385231,0.03939560632109642
1733861869885610500,11.809610595703125,-0.01258008010983467,-0.032193127596378324,0.04508066622018814
1733861869895561500,11.8195615234375,-0.011051701498776673,-0.014399696752429008,0.03584814297258854
1733861869905512400,11.829512451171874,0.013231968147307633,-0.005192307946085929,0.06742810710668563
1733861869915463400,11.83946337890625,-0.015185148041695356,-0.026578210324048994,0.04975274968445301
1733861869925414700,11.84941455078125,-0.035808980005979534,-0.014329554125666617,0.031360768425464626
1733861869935365400,11.859365478515626,-0.02371931376159191,-0.028762568625807762,0.03554828324317932
1733861869945316600,11.869316650390624,-0.01910232148543,-0.015723054310679434,0.03572890050709247
1733861869955267300,11.879267333984375,0.004697802427411079,-0.016002455773949622,0.02987374473810196
1733861869965218600,11.889218505859375,-0.010651157873868942,-0.02682838569283485,0.038346389529109
1733861869975169500,11.89916943359375,-0.02192322412505746,-0.040078912410140034,0.05648235020041466
1733861869985120500,11.90912060546875,-0.05694762962460517,-0.04163958585560321,0.03563362343907356
1733861869995071500,11.919071533203125,-0.08977028729617595,-0.03058919953107834,0.03942307884991169
1733861870005022500,11.9290224609375,-0.09302899683117866,-0.04973112237453461,0.049587914511561394
