time,seconds_elapsed,z,y,x
1733704483131025700,0.018025634765625,-0.008312271907925606,-0.049830321222543716,-0.0008035581558942795
1733704483140991500,0.027991455078125,-0.006899731699377298,-0.06057857722043991,0.001578106894157827
1733704483150958600,0.03795849609375,-0.004783499054610729,-0.07452835142612457,0.004603739827871323
1733704483160924400,0.04792431640625,-0.0039067864418029785,-0.08121740818023682,0.004742756951600313
1733704483170891500,0.0578916015625,-0.005842091981321573,-0.0818401426076889,0.005881384946405888
1733704483180857300,0.067857421875,-0.01043657772243023,-0.07370579242706299,0.007485140580683947
1733704483190824400,0.077824462890625,-0.013411922380328178,-0.05678119882941246,0.009317196905612946
1733704483200790500,0.08779052734375,-0.013503802008926868,-0.03969462588429451,0.0049043381586670876
1733704483210757400,0.09775732421875,-0.01290540024638176,-0.023528315126895905,0.0019698457326740026
1733704483220724500,0.107724365234375,-0.010006548836827278,-0.014967584982514381,-0.003288565669208765
1733704483230690600,0.117690673828125,-0.005401871632784605,-0.010832279920578003,-0.004854083526879549
1733704483240657700,0.12765771484375,-0.0021671962458640337,-0.011274099349975586,-0.0032442030496895313
1733704483250623500,0.13762353515625,0.0013030609115958214,-0.011962218210101128,0.0033772075548768044
1733704483260590600,0.147590576171875,-0.003433637320995331,-0.00914805755019188,0.0078004514798521996
1733704483270556400,0.157556396484375,-0.015655269846320152,-0.0008508181199431419,0.013789672404527664
1733704483280523500,0.1675234375,-0.017471544444561005,0.011707850731909275,0.020649710670113564
1733704483290489300,0.1774892578125,-0.011791316792368889,0.01799791492521763,0.014327287673950195
1733704483300456400,0.18745654296875,0.002800676040351391,0.0336567685008049,-0.00023780623450875282
1733704483310422300,0.19742236328125,0.002796462271362543,0.05093551427125931,-0.0025331114884465933
1733704483320389000,0.20738916015625,-0.011689269915223122,0.062113866209983826,-0.009076498448848724
1733704483330355200,0.217355224609375,-0.026948457583785057,0.0629379004240036,-0.017887720838189125
1733704483340322000,0.227322021484375,-0.02720998041331768,0.04955844581127167,-0.017570804804563522
1733704483350289200,0.2372890625,-0.016468176618218422,0.030802566558122635,-0.006785562727600336
1733704483360255000,0.2472548828125,-0.0023891092278063297,0.010090895928442478,0.004634338431060314
1733704483370222000,0.25722216796875,0.008474479429423809,-0.005625687539577484,0.008883229456841946
1733704483380188000,0.26718798828125,0.007333048619329929,-0.009383408352732658,0.0064232684671878815
1733704483390155000,0.277155029296875,0.003822749713435769,-0.010883653536438942,0.0006232955493032932
1733704483400121000,0.28712109375,0.0005475942743942142,-0.011452771723270416,-0.003108592238277197
1733704483410088000,0.297087890625,-0.0005005181301385164,-0.0030082305893301964,-0.007290721870958805
1733704483420054000,0.307053955078125,-0.0002419251250103116,0.012839442119002342,-0.009237492457032204
1733704483430021000,0.317021240234375,0.002854979131370783,0.02844543755054474,-0.010342452675104141
1733704483439987200,0.3269873046875,0.006325344555079937,0.03725011646747589,-0.007517371326684952
1733704483449954000,0.3369541015625,0.010411283932626247,0.02971704676747322,-0.0026682927273213863
1733704483459920100,0.346920166015625,0.009879451245069504,0.011350556276738644,0.0007368249353021383
1733704483469887000,0.356886962890625,0.008852663449943066,-0.00597735121846199,0.0027557783760130405
1733704483479854000,0.36685400390625,0.006383913103491068,-0.018349332734942436,0.005702832248061895
1733704483489820000,0.37681982421875,0.0021795793436467648,-0.02915879711508751,0.009998953901231289
1733704483499787000,0.386787109375,0.00028101186035200953,-0.03832859545946121,0.014346031472086906
1733704483509753000,0.396753173828125,0.0011781234061345458,-0.04245588183403015,0.017216553911566734
1733704483519720200,0.40672021484375,0.0006026142509654164,-0.046085238456726074,0.015848223119974136
1733704483529686000,0.41668603515625,0.001331578940153122,-0.04452911764383316,0.015408029779791832
1733704483539653000,0.426653076171875,0.0016029549296945333,-0.041493915021419525,0.0145582165569067
1733704483549619000,0.436618896484375,0.003215853590518236,-0.036273762583732605,0.01149781420826912
1733704483559586000,0.4465859375,-0.0004734234535135329,-0.022662082687020302,0.0073270369321107864
1733704483569552100,0.45655224609375,-0.003970760852098465,-0.0055373311042785645,0.005162443034350872
1733704483579519000,0.46651904296875,-0.004197395406663418,0.007658098824322224,0.002000738400965929
1733704483589485000,0.476485107421875,-0.004476006142795086,0.01692969724535942,-0.00274207117035985
1733704483599452000,0.486451904296875,-0.003981191199272871,0.02022961899638176,-0.003743153065443039
1733704483609419000,0.4964189453125,-0.0009184537339024246,0.01833661086857319,-0.0017801232170313597
1733704483619385000,0.506385009765625,0.00282195582985878,0.011165783740580082,-0.0022770690266042948
1733704483629352200,0.516352294921875,0.003717058105394244,0.005387435667216778,-0.00496513769030571
1733704483639318000,0.526318115234375,0.001663760980591178,0.0005516679957509041,-0.006231470499187708
1733704483649285000,0.53628515625,-0.00043642165837809443,-0.0010709092020988464,-0.005147957243025303
1733704483659251000,0.5462509765625,-0.0013762512244284153,0.00628021452575922,-0.003804658306762576
1733704483669218000,0.556218017578125,-0.003733959048986435,0.015525195747613907,-0.00626341812312603
1733704483679184000,0.566183837890625,-0.00040048023220151663,0.010993827134370804,-0.010828342288732529
1733704483689151000,0.57615087890625,0.0014498732052743435,0.01271195337176323,-0.010817378759384155
1733704483699117000,0.586116943359375,0.0016397566068917513,0.016376463696360588,-0.009228004142642021
1733704483709084200,0.596084228515625,-0.001492811948992312,0.02064436860382557,-0.005265920422971249
1733704483719050200,0.60605029296875,-0.0012685736874118447,0.013889793306589127,-0.0039897337555885315
1733704483729017000,0.61601708984375,-0.0008836602210067213,0.006021878682076931,-0.001993415178731084
1733704483738984200,0.625984130859375,-0.00000774656655266881,-0.004067772999405861,-0.0025401620659977198
1733704483748950000,0.635949951171875,-0.0003188224509358406,-0.015404384583234787,0.0017208077479153872
1733704483758917000,0.645917236328125,-0.001265576109290123,-0.023032477125525475,0.0047003524377942085
1733704483768883000,0.655883056640625,-0.002378244884312153,-0.02282235212624073,0.007699071429669857
1733704483778850000,0.66585009765625,0.0024189071264117956,-0.016310125589370728,0.009341442957520485
1733704483788816000,0.67581591796875,0.001102063455618918,-0.0022019045427441597,0.006841809954494238
1733704483798783000,0.685782958984375,0.003566020168364048,0.01260207500308752,0.004582916386425495
1733704483808749000,0.6957490234375,0.004218690097332001,0.020292960107326508,0.000985597027465701
1733704483818716200,0.705716064453125,0.003699107328429818,0.021280726417899132,-0.002490094630047679
1733704483828682200,0.71568212890625,-0.0023086718283593655,0.02018602006137371,-0.004113124683499336
1733704483838649000,0.725649169921875,-0.006723660044372082,0.017334572970867157,-0.0067320773378014565
1733704483848615200,0.735615234375,-0.007817449979484081,0.016321029514074326,-0.007447445765137672
1733704483858582000,0.74558203125,-0.009394307620823383,0.019144248217344284,-0.00839393399655819
1733704483868549000,0.755549072265625,-0.007974413223564625,0.01830717921257019,-0.010621537454426289
1733704483878515000,0.765514892578125,-0.005228694528341293,0.019006524235010147,-0.010854830034077168
1733704483888482000,0.77548193359375,-0.00033485674066469073,0.020663153380155563,-0.013981429859995842
1733704483898448000,0.78544775390625,-0.0020483345724642277,0.021534007042646408,-0.01601422019302845
1733704483908415000,0.7954150390625,-0.003072671126574278,0.02251049503684044,-0.014750655740499496
1733704483918381000,0.805381103515625,-0.004059638362377882,0.0240175798535347,-0.01369151659309864
1733704483928348200,0.81534814453125,-0.0038374229334294796,0.025788770988583565,-0.012255442328751087
1733704483938314000,0.82531396484375,-0.002324214670807123,0.024285148829221725,-0.010187764652073383
1733704483948281000,0.835281005859375,-0.00023564137518405914,0.01680949330329895,-0.006599463988095522
1733704483958247200,0.8452470703125,0.0016557355411350727,0.007533702999353409,-0.003890229854732752
1733704483968214000,0.855214111328125,0.0015737460926175117,-0.004640164785087109,-0.0007394999265670776
1733704483978180000,0.86518017578125,-0.0008601167355664074,-0.016275782138109207,-0.0008084757719188929
1733704483988147000,0.87514697265625,-0.001293886685743928,-0.02287905290722847,0.002661117585375905
1733704483998114000,0.885114013671875,0.0005346395773813128,-0.02847515419125557,0.006477427668869495
1733704484008080100,0.895080078125,0.002462939824908972,-0.03296152502298355,0.005678507965058088
1733704484018047000,0.905046875,0.004143927246332169,-0.033217720687389374,0.006414339412003756
1733704484028013000,0.915012939453125,0.004764264915138483,-0.031045254319906235,0.0036209621466696262
1733704484037980200,0.924980224609375,0.005237242206931114,-0.025681115686893463,0.003848396008834243
1733704484047946000,0.934946044921875,0.0003635698521975428,-0.019994061440229416,0.004428952932357788
1733704484057913000,0.9449130859375,0.0019641295075416565,-0.012235207483172417,0.0066721332259476185
1733704484067879000,0.95487890625,-0.0020481888204813004,-0.006682517006993294,0.006205813959240913
1733704484077846000,0.964845947265625,-0.0019270149059593678,-0.000775359570980072,0.002999634016305208
1733704484087812000,0.97481201171875,-0.004629021976143122,0.0021213348954916,-0.0004912931472063065
1733704484097779000,0.984779052734375,-0.004692671820521355,0.0031248140148818493,-0.0016087554395198822
1733704484107746000,0.99474609375,-0.004641842562705278,0.003177414182573557,-0.004590608179569244
1733704484117712100,1.004712158203125,-0.0033036042004823685,0.005039496347308159,-0.004504854325205088
1733704484127679200,1.01467919921875,-0.0029156424570828676,0.010176288895308971,-0.006029479205608368
1733704484137645000,1.02464501953125,-0.0034293662756681442,0.01639690063893795,-0.006724829785525799
1733704484147612200,1.034612060546875,-0.003029529470950365,0.022756148129701614,-0.010946829803287983
1733704484157578000,1.044577880859375,-0.0020217893179506063,0.03110329434275627,-0.01335912011563778
1733704484167545000,1.054545166015625,-0.002836361527442932,0.03584054484963417,-0.010573209263384342
1733704484177511000,1.064510986328125,-0.0024259681813418865,0.031662311404943466,-0.009817138314247131
1733704484187478000,1.07447802734375,0.0002748608239926398,0.022966627031564713,-0.010167554952204227
1733704484197443800,1.08444384765625,0.003465860616415739,0.016886096447706223,-0.009986726567149162
1733704484207411000,1.094410888671875,0.0064755589701235294,0.015669478103518486,-0.009139874950051308
1733704484217377000,1.104376953125,0.0051397173665463924,0.011539447121322155,-0.006067652255296707
1733704484227344100,1.11434423828125,0.003070959122851491,0.007484715897589922,-0.005453353747725487
1733704484237311200,1.124311279296875,0.0022038337774574757,-0.001370827667415142,-0.002927878638729453
1733704484247277000,1.134277099609375,0.0027332003228366375,-0.00974881649017334,0.00047681585419923067
1733704484257244200,1.144244140625,-0.0014029551530256867,-0.01372411847114563,0.004958915989845991
1733704484267210000,1.1542099609375,-0.0005306146922521293,-0.015404600650072098,0.005656537599861622
1733704484277177000,1.164177001953125,-0.0032206736505031586,-0.017836598679423332,0.005866394378244877
1733704484287143000,1.174142822265625,-0.0034738651011139154,-0.01931401714682579,0.0027412937488406897
1733704484297110000,1.184110107421875,-0.0050054495222866535,-0.016149915754795074,0.0005979817360639572
1733704484307075600,1.19407568359375,-0.006228881422430277,-0.014982594177126884,-0.0009481676388531923
1733704484317042400,1.20404248046875,-0.008647032082080841,-0.014604158699512482,0.0004071149742230773
1733704484327008500,1.214008544921875,-0.004706238396465778,-0.014151997864246368,0.0014476119540631771
1733704484336975400,1.223975341796875,-0.0057115815579891205,-0.011363135650753975,-0.0003015522379428148
1733704484346941400,1.23394140625,-0.004567931406199932,-0.01457664743065834,-0.0004903597291558981
1733704484356908300,1.243908203125,-0.006669964641332626,-0.013599000871181488,-0.0008743875660002232
1733704484366875400,1.25387548828125,-0.004857807420194149,-0.010702913627028465,-0.0024456079117953777
1733704484376841200,1.26384130859375,-0.004328903742134571,-0.007833890616893768,-0.0037593450397253036
1733704484386808300,1.273808349609375,-0.0016541127115488052,-0.003952458500862122,-0.0018328262958675623
1733704484396774400,1.2837744140625,0.001446339301764965,-0.0031897295266389847,-0.005923441611230373
1733704484406741500,1.293741455078125,0.0059418268501758575,-0.0022877687588334084,-0.003332830034196377
1733704484416707600,1.30370751953125,0.007376205176115036,-0.002579118125140667,-0.004159741569310427
1733704484426674400,1.31367431640625,0.010207519866526127,-0.0028031663969159126,-0.005323977209627628
1733704484436640500,1.323640625,0.0044409772381186485,0.0018879910930991173,0.0003434957470744848
1733704484446607400,1.333607421875,0.0011971392668783665,0.008992049843072891,-0.00047872052527964115
1733704484456573400,1.343573486328125,0.000782218761742115,0.012936191633343697,-0.003318715374916792
1733704484466540300,1.353540283203125,-0.0004948573186993599,0.013834460638463497,-0.005978124216198921
1733704484476507400,1.36350732421875,-0.0023742502089589834,0.01772267557680607,-0.008851142600178719
1733704484486473200,1.37347314453125,-0.003688910510390997,0.018307141959667206,-0.009784802794456482
1733704484496440300,1.3834404296875,-0.007211473770439625,0.02278977259993553,-0.007204466033726931
1733704484506406400,1.393406494140625,-0.008475977927446365,0.02013968676328659,-0.009285404346883297
1733704484516373500,1.40337353515625,-0.007936954498291016,0.018482666462659836,-0.007253678515553474
1733704484526339300,1.41333935546875,-0.006552554666996002,0.01779170334339142,-0.006745804101228714
1733704484536306400,1.423306396484375,-0.0045216279104352,0.013883513398468494,-0.004016063176095486
1733704484546272500,1.4332724609375,-0.0028432838153094053,0.009285204112529755,-0.003863878082484007
1733704484556239400,1.4432392578125,-0.0013870673719793558,0.0054190936498343945,-0.0014196287374943495
1733704484566205400,1.453205322265625,-0.0007349498919211328,-0.0003584912046790123,0.0013340715086087584
1733704484576172300,1.46317236328125,0.0006533559644594789,-0.001174483448266983,-0.0006728866137564182
1733704484586139400,1.473139404296875,0.004874893464148045,-0.003031165339052677,-0.002953186398372054
1733704484596105200,1.483105224609375,0.004694863688200712,0.0009830174967646599,-0.0013052222784608603
1733704484606072300,1.493072265625,0.004552602302283049,0.002511359751224518,-0.0014796995092183352
1733704484616038400,1.503038330078125,0.004916389938443899,0.002197905443608761,0.003679109737277031
1733704484626005500,1.513005615234375,0.0065108537673950195,0.00017563998699188232,0.0033519938588142395
1733704484635971300,1.522971435546875,0.007162796333432198,-0.002293908968567848,0.0035722374450415373
1733704484645938400,1.5329384765625,0.00538206472992897,-0.004880271852016449,0.0033157295547425747
1733704484655904300,1.542904296875,0.005093378014862537,-0.006357794627547264,0.0031535429880023003
1733704484665871400,1.552871337890625,0.0072450521402060986,-0.006824718788266182,0.0010518769267946482
1733704484675837400,1.56283740234375,0.006090038921684027,-0.005381019786000252,0.00030725705437362194
1733704484685804300,1.57280419921875,0.0051904781721532345,-0.0028431452810764313,-0.000870860880240798
1733704484695771400,1.582771484375,0.004539068788290024,-0.0024790912866592407,0.0011334342416375875
1733704484705737500,1.592737548828125,0.004517078399658203,-0.002701173536479473,0.0027101486921310425
1733704484715704300,1.602704345703125,0.005834810435771942,0.0006685247644782066,0.0010046602692455053
1733704484725670400,1.61267041015625,0.005557640455663204,0.0015401830896735191,-0.0011233733966946602
1733704484735637500,1.622637451171875,0.005720093380659819,0.004370856564491987,-0.0036618986632674932
1733704484745603300,1.632603271484375,0.001991488505154848,0.009423268027603626,-0.005834492854773998
1733704484755570400,1.6425703125,0.0023968215100467205,0.011815318837761879,-0.007425731047987938
1733704484765536300,1.652536376953125,-0.0002495052176527679,0.012369776144623756,-0.0064194947481155396
1733704484775503400,1.66250341796875,0.0010210889158770442,0.010934865102171898,-0.00723442155867815
1733704484785469200,1.67246923828125,-0.0015130133833736181,0.01032001432031393,-0.003972950391471386
1733704484795436300,1.682436279296875,-0.001690646167844534,0.008992427960038185,-0.004195325076580048
1733704484805403400,1.6924033203125,-0.005255946423858404,0.004394117277115583,-0.003425623057410121
1733704484815369500,1.702369384765625,-0.00353075098246336,-0.0022137174382805824,-0.001448492519557476
1733704484825336600,1.712336669921875,-0.0007827962399460375,-0.005648471415042877,-0.0007498436607420444
1733704484835302400,1.722302490234375,-0.0008291352423839271,-0.005917450413107872,-0.00031415047124028206
1733704484845269500,1.73226953125,0.0009224475361406803,-0.007289072498679161,-0.0032475057523697615
1733704484855235300,1.7422353515625,0.0009517423459328711,-0.0008181249722838402,-0.004119956865906715
1733704484865202400,1.752202392578125,0.00031465501524508,0.007470180280506611,-0.004698486998677254
1733704484875168300,1.762168212890625,0.0008550103520974517,0.011549610644578934,-0.0021351941395550966
1733704484885135400,1.77213525390625,0.00003971002297475934,0.013768365606665611,-0.003149425843730569
1733704484895101200,1.78210107421875,-0.0015081192832440138,0.012302562594413757,-0.0046613020822405815
1733704484905068300,1.792068359375,-0.0012976904399693012,0.006982710212469101,-0.0032844755332916975
1733704484915035400,1.802035400390625,0.0004866276285611093,-0.0024909526109695435,0.0003051990643143654
1733704484925001500,1.81200146484375,0.002409569686278701,-0.006231458857655525,0.0013204429997131228
1733704484934968600,1.821968505859375,0.0025312763173133135,-0.007592068985104561,0.004832886159420013
1733704484944934400,1.831934326171875,0.0035290727391839027,-0.007645722478628159,0.00457987654954195
1733704484954901500,1.841901611328125,0.002367934212088585,-0.009985309094190598,0.004621421918272972
1733704484964867300,1.851867431640625,-0.0007350203231908381,-0.004062098450958729,0.0054138777777552605
1733704484974834400,1.86183447265625,-0.0012492765672504902,-0.007343113422393799,0.006631208583712578
1733704484984800300,1.87180029296875,0.0008722678176127374,-0.01649538241326809,0.007853755727410316
1733704484994767400,1.881767333984375,0.004550626035779715,-0.019374527037143707,0.005826291628181934
1733704485004734500,1.891734375,0.005579390563070774,-0.015633385628461838,0.006974820047616959
1733704485014700300,1.9017001953125,0.007218033540993929,-0.008373608812689781,0.00821638572961092
1733704485024667400,1.91166748046875,0.005824933759868145,-0.0031074751168489456,0.009597500786185265
1733704485034633500,1.921633544921875,0.005883257370442152,-0.004567419178783894,0.010011089965701103
1733704485044600600,1.9316005859375,0.005267885979264975,-0.008054541423916817,0.012422298081219196
1733704485054566400,1.94156640625,0.0006550246034748852,-0.012177648022770882,0.011667557992041111
1733704485064533500,1.951533447265625,-0.0016321336152032018,-0.01367618516087532,0.011863889172673225
1733704485074499300,1.961499267578125,-0.002447859849780798,-0.013922793790698051,0.009280355647206306
1733704485084466400,1.971466552734375,-0.001182039501145482,-0.013683734461665154,0.008254891261458397
1733704485094432300,1.981432373046875,-0.0010976172052323818,-0.01390504278242588,0.009634409099817276
1733704485104399400,1.9913994140625,0.0005817169439978898,-0.013947537168860435,0.00944339670240879
1733704485114366200,2.0013662109375,0.002953528193756938,-0.013585081323981285,0.011413071304559708
1733704485124332500,2.01133251953125,0.0018760839011520147,-0.015610994771122932,0.012544004246592522
1733704485134299400,2.02129931640625,0.005688399076461792,-0.016774265095591545,0.012853996828198433
1733704485144265500,2.031265380859375,0.005229556001722813,-0.016944268718361855,0.014204870909452438
1733704485154232600,2.041232666015625,0.00371661433018744,-0.015267277136445045,0.01304719503968954
1733704485164198400,2.051198486328125,0.003952964674681425,-0.011062264442443848,0.010654231533408165
1733704485174165500,2.06116552734375,0.0028141967486590147,-0.00885077565908432,0.0077231572940945625
1733704485184131300,2.07113134765625,0.004596603102982044,-0.009566731750965118,0.008424123749136925
1733704485194098400,2.081098388671875,0.00705363554880023,-0.00836910866200924,0.009211886674165726
1733704485204064300,2.091064208984375,0.005656582769006491,-0.011005690321326256,0.008959168568253517
1733704485214031400,2.10103125,0.00810775626450777,-0.01655545085668564,0.0085911201313138
1733704485223998200,2.110998291015625,0.010283679701387882,-0.017245884984731674,0.008239995688199997
1733704485233964500,2.120964599609375,0.007916661910712719,-0.018330324441194534,0.008996332995593548
1733704485243931400,2.130931396484375,0.004797325003892183,-0.014547690749168396,0.008411429822444916
1733704485253897500,2.1408974609375,0.0034484341740608215,-0.014041690155863762,0.009107314050197601
1733704485263864600,2.150864501953125,0.0017971656052395701,-0.020833846181631088,0.005700735375285149
1733704485273830400,2.160830322265625,0.0017953013302758336,-0.015227625146508217,0.0021105280611664057
1733704485283797500,2.170797607421875,0.00030568885267712176,-0.007678553462028503,-0.003527217311784625
1733704485293763300,2.180763427734375,-0.0036528336349874735,-0.0031509138643741608,-0.004616450518369675
1733704485303730400,2.19073046875,-0.003533854614943266,0.004618476610630751,-0.006344174966216087
1733704485313698300,2.2006982421875,-0.0024115988053381443,0.004946844186633825,-0.005228044465184212
1733704485323664100,2.2106640625,-0.0021719741635024548,0.011781331151723862,-0.004915478639304638
1733704485333631200,2.22063134765625,-0.0027179222088307142,0.009937625378370285,-0.0034283697605133057
1733704485343597000,2.23059716796875,-0.006040215492248535,0.005338878370821476,-0.002819837536662817
1733704485353564200,2.240564208984375,-0.006531035993248224,-0.0014231540262699127,0.00011097127571702003
1733704485363530200,2.2505302734375,-0.004636901430785656,0.0005062650889158249,-0.002301550703123212
1733704485373497300,2.260497314453125,-0.0004331013769842684,0.0024674171581864357,-0.0027676040772348642
1733704485383463400,2.27046337890625,-0.00023578479886054993,0.005030966829508543,-0.0017645377665758133
1733704485393430300,2.28043017578125,0.0014979331754148006,0.0011022714897990227,-0.0019871783442795277
1733704485403396400,2.290396240234375,0.0005972537910565734,-0.005870046094059944,0.0019031973788514733
1733704485413363200,2.30036328125,-0.0030704515520483255,-0.015814289450645447,0.0067320410162210464
1733704485423330300,2.310330322265625,-0.006464732810854912,-0.026929015293717384,0.008571766316890717
1733704485433296100,2.320296142578125,-0.005636489950120449,-0.0354926735162735,0.009812799282371998
1733704485443263200,2.33026318359375,-0.0051797484047710896,-0.036390725523233414,0.01309068500995636
1733704485453229300,2.340229248046875,-0.0012872719671577215,-0.03413369506597519,0.013130899518728256
1733704485463196200,2.350196044921875,-0.00014126056339591742,-0.027917996048927307,0.009640626609325409
1733704485473162200,2.360162353515625,0.0002672683331184089,-0.01956605538725853,0.005533233284950256
1733704485483129300,2.37012939453125,0.0009021857404150069,-0.011038709431886673,0.00388165982440114
1733704485493095200,2.38009521484375,-0.0008805342367850244,-0.004234865307807922,0.002854744903743267
1733704485503062300,2.390062255859375,-0.0012175643350929022,0.0015030140057206154,0.0017625353066250682
1733704485513028400,2.4000283203125,-0.0022982750087976456,-0.0005670608952641487,0.0012125924695283175
1733704485522995200,2.4099951171875,-0.0036500105634331703,-0.0074470508843660355,0.0020059316884726286
1733704485532962300,2.41996240234375,-0.003194077406078577,-0.012676168233156204,0.0012471970403566957
1733704485542928100,2.42992822265625,-0.0028941878117620945,-0.010231850668787956,0.0007005395600572228
1733704485552895200,2.439895263671875,-0.0050002154894173145,-0.009464861825108528,-0.0005484828725457191
1733704485562861300,2.449861328125,-0.0023670243099331856,-0.0008278628811240196,-0.0023232577368617058
1733704485572828400,2.459828369140625,-0.005076523870229721,-0.0022835470736026764,-0.004649795591831207
1733704485582794200,2.469794189453125,-0.0038919502403587103,-0.009388061240315437,-0.0032582939602434635
1733704485592761300,2.47976123046875,-0.0042189862579107285,-0.007747022435069084,-0.003916094545274973
1733704485602727200,2.48972705078125,-0.0041001345962285995,-0.003716006875038147,-0.005335908383131027
1733704485612694300,2.4996943359375,-0.004468982573598623,-0.0006432514637708664,-0.0029843372758477926
1733704485622661400,2.509661376953125,-0.003015379421412945,0.0021070390939712524,-0.001762974075973034
1733704485632627200,2.519627197265625,0.00006776215741410851,0.0031528626568615437,0.00029112212359905243
1733704485642594300,2.52959423828125,0.0005197359714657068,0.0015416257083415985,0.00022608577273786068
1733704485652560100,2.53956005859375,-0.002057937439531088,0.0010420167818665504,-0.00130496546626091
1733704485662527200,2.54952734375,-0.00373975932598114,0.0020005125552415848,-0.0021129134111106396
1733704485672493300,2.559493408203125,-0.006499060429632664,0.006936149206012487,-0.00458272872492671
1733704485682460400,2.56946044921875,-0.003703132038936019,0.012940946035087109,-0.0032396516762673855
1733704485692426200,2.57942626953125,-0.0022333336528390646,0.01429835893213749,-0.0022303136065602303
1733704485702393300,2.589393310546875,-0.0012214741436764598,0.016498494893312454,0.0002128251362591982
1733704485712360400,2.5993603515625,-0.0006441008299589157,0.013699779286980629,-0.0024215737357735634
1733704485722326300,2.609326171875,0.0008728778338991106,0.0108569310978055,-0.0030354636255651712
1733704485732293400,2.61929345703125,-0.00046136591117829084,0.016402963548898697,-0.0037851433735340834
1733704485742259200,2.62925927734375,0.0007811732357367873,0.01822391152381897,-0.006048570387065411
1733704485752226300,2.639226318359375,-0.0009940899908542633,0.01756185106933117,-0.006207028403878212
1733704485762192100,2.649192138671875,0.000104996666777879,0.016891267150640488,-0.006980677135288715
1733704485772159200,2.6591591796875,-0.000018574006389826536,0.012053368613123894,-0.0041944775730371475
1733704485782125300,2.669125244140625,-0.003071783110499382,0.00973581150174141,-0.0016633076593279839
1733704485792092400,2.679092529296875,-0.0029753767885267735,0.005883815232664347,-0.002417248673737049
1733704485802058200,2.689058349609375,-0.004050333518534899,0.002695020753890276,0.00010492932051420212
1733704485812025300,2.699025390625,-0.007000849582254887,-0.0007013082504272461,-0.00009294343180954456
1733704485821992200,2.7089921875,-0.010041856206953526,0.004726092796772718,-0.004427710082381964
1733704485831958300,2.718958251953125,-0.00898138526827097,0.010905425064265728,-0.008204339072108269
1733704485841925400,2.72892529296875,-0.007832694798707962,0.014754177071154118,-0.00980580598115921
1733704485851891200,2.73889111328125,-0.007945346646010876,0.01659335568547249,-0.009548544883728027
1733704485861858300,2.7488583984375,-0.008085324428975582,0.018239382654428482,-0.009613157249987125
1733704485871824400,2.758824462890625,-0.005515906028449535,0.016858534887433052,-0.0067513249814510345
1733704485881791200,2.768791259765625,-0.004384167026728392,0.015810919925570488,-0.00385630433447659
1733704485891757300,2.77875732421875,-0.0041735111735761166,0.010610031895339489,-0.004003843292593956
1733704485901724400,2.788724365234375,-0.0025915454607456923,0.006859709043055773,-0.0036102200392633677
1733704485911691300,2.798691162109375,-0.0007917811744846404,0.004935308825224638,-0.0010607759468257427
1733704485921657300,2.8086572265625,0.0019241273403167725,0.003333326429128647,0.0015391246415674686
1733704485931624200,2.818624267578125,0.0037798178382217884,0.0026028212159872055,-0.00022708391770720482
1733704485941590300,2.82859033203125,0.004495981615036726,0.0031155580654740334,-0.00036080298013985157
1733704485951557000,2.83855712890625,0.006057392805814743,0.001283835619688034,-0.00039755459874868393
1733704485961523200,2.848523193359375,0.006622565444558859,-0.0007028374820947647,-0.0011679683811962605
1733704485971490300,2.858490234375,0.007622582372277975,-0.0023918142542243004,-0.0029831789433956146
1733704485981456400,2.868456298828125,0.007820754311978817,-0.0006762063130736351,-0.001031746156513691
1733704485991423500,2.878423583984375,0.010094295255839825,0.005935623776167631,-0.0024711848236620426
1733704486001389300,2.888389404296875,0.005535251926630735,0.01278755348175764,-0.003419341519474983
1733704486011356400,2.8983564453125,0.005132315680384636,0.005308598279953003,-0.0032718023285269737
1733704486021323300,2.9083232421875,0.0027401738334447145,0.004858135245740414,-0.0036976500414311886
1733704486031289300,2.918289306640625,0.0005260217003524303,0.010872618295252323,-0.006454820744693279
1733704486041256200,2.928256103515625,-0.005406183656305075,0.018921952694654465,-0.0077910227701067924
1733704486051222300,2.93822216796875,-0.005142264533787966,0.02297475002706051,-0.009658165276050568
1733704486061189000,2.948189208984375,-0.0032790126278996468,0.026334255933761597,-0.010540900751948357
1733704486071155200,2.9581552734375,-0.004313117824494839,0.02485300600528717,-0.012109235860407352
1733704486081122000,2.9681220703125,-0.00384814222343266,0.022813748568296432,-0.010083198547363281
1733704486091088400,2.97808837890625,-0.0047765206545591354,0.02135833352804184,-0.006783542223274708
1733704486101055500,2.988055419921875,-0.003814895637333393,0.019414149224758148,-0.0072301216423511505
1733704486111022300,2.998022216796875,-0.005476708058267832,0.020427215844392776,-0.006058597005903721
1733704486120988400,3.007988525390625,-0.0032948695588856936,0.020296864211559296,-0.006014132872223854
1733704486130955300,3.017955322265625,-0.0009654025197960436,0.019085392355918884,-0.0075643593445420265
1733704486140921300,3.02792138671875,-0.0009330116445198655,0.018077826127409935,-0.006387583911418915
1733704486150888200,3.03788818359375,-0.0015860188286751509,0.013726221397519112,-0.006082918494939804
1733704486160854300,3.047854248046875,0.0001746803754940629,0.011903841979801655,-0.0018327946309000254
1733704486170821000,3.057821044921875,0.0002601678133942187,0.013019440695643425,0.001762206549756229
1733704486180787200,3.067787109375,0.0022234853822737932,0.008211611770093441,0.0012462970335036516
1733704486190754000,3.077754150390625,0.004048815928399563,0.0064443377777934074,0.0021568317897617817
1733704486200721200,3.08772119140625,0.003655348438769579,0.002921510487794876,0.0037811635993421078
1733704486210687200,3.097687255859375,0.0030867636669427156,-0.002384837716817856,0.00279259798116982
1733704486220654300,3.107654296875,0.0008270845864899457,-0.010438432916998863,0.0038853881414979696
1733704486230620400,3.117620361328125,-0.0012842693831771612,-0.01697622612118721,0.004859039559960365
1733704486240587300,3.127587158203125,-0.0004967573331668973,-0.02004145458340645,0.005758215207606554
1733704486250553300,3.13755322265625,0.001021510805003345,-0.019481392577290535,0.006384057924151421
1733704486260520200,3.147520263671875,0.0035468805581331253,-0.014929443597793579,0.005981287453323603
1733704486270486300,3.157486328125,0.0032912171445786953,-0.011285440996289253,0.003523190040141344
1733704486280453000,3.167453125,0.0030561962630599737,-0.004061686806380749,0.0017843844834715128
1733704486290420200,3.177420166015625,0.000026850379072129726,0.002412191592156887,-0.00012403680011630058
1733704486300386300,3.18738623046875,-0.0024395270738750696,0.007712246850132942,-0.0031588224228471518
1733704486310353200,3.197353271484375,-0.002618491416797042,0.011288339272141457,-0.0027012915816158056
1733704486320319200,3.2073193359375,-0.00480986712500453,0.011346831917762756,-0.004079962149262428
1733704486330286300,3.217286376953125,-0.004472711123526096,0.008258364163339138,-0.005555353127419949
1733704486340252200,3.227252197265625,-0.0028595770709216595,0.009669984690845013,-0.0055917780846357346
1733704486350219300,3.23721923828125,-0.0022712848149240017,0.01115602906793356,-0.005332918372005224
1733704486360185000,3.24718505859375,-0.001290338346734643,0.009186548180878162,-0.006852414924651384
1733704486370152200,3.257152099609375,-0.0004357299767434597,0.008584674447774887,-0.006292352918535471
1733704486380118000,3.267117919921875,-0.00035246473271399736,0.00565241277217865,-0.00706893764436245
1733704486390085000,3.277085205078125,-0.0011594025418162346,0.003747187089174986,-0.005588485859334469
1733704486400052000,3.287052001953125,0.0007072291919030249,-0.0020580682903528214,-0.0059473635628819466
1733704486410018300,3.297018310546875,0.000981002114713192,-0.004614169709384441,-0.003813905408605933
1733704486419985200,3.306985107421875,-0.0002736351452767849,-0.004583447240293026,-0.0026938961818814278
1733704486429951200,3.316951171875,-0.0003814931260421872,-0.00037884805351495743,-0.0022134617902338505
1733704486439918000,3.32691796875,0.0015648258849978447,0.00477388221770525,-0.0018226008396595716
1733704486449884200,3.33688427734375,0.0013624256243929267,0.01196202076971531,-0.0006185858510434628
1733704486459851300,3.346851318359375,-0.0007827620720490813,0.017915047705173492,-0.0025776566471904516
1733704486469817000,3.356817138671875,0.000043616804759949446,0.011952496133744717,-0.0012511361856013536
1733704486479784200,3.3667841796875,0.004579103551805019,0.004690689034759998,-0.0024791634641587734
1733704486489751000,3.3767509765625,0.003126082941889763,0.0005260379984974861,0.0006010484648868442
1733704486499717000,3.386717041015625,0.0042921691201627254,-0.004516554996371269,0.0005409545265138149
1733704486509684000,3.39668408203125,0.0023110436741262674,-0.00698450580239296,0.0028128973208367825
1733704486519650300,3.406650390625,-0.004089390393346548,-0.006163064390420914,0.003498602192848921
1733704486529617200,3.4166171875,-0.005966119933873415,-0.01354241743683815,0.005297301337122917
1733704486539583200,3.426583251953125,-0.003094450570642948,-0.030122879892587662,0.008978120982646942
1733704486549550000,3.436550048828125,-0.0014267791993916035,-0.03359457850456238,0.008161063306033611
1733704486559516200,3.44651611328125,-0.0015238136984407902,-0.03208654373884201,0.008110727183520794
1733704486569483000,3.45648291015625,-0.003951285500079393,-0.031869761645793915,0.0051122745499014854
1733704486579450000,3.4664501953125,-0.006253622006624937,-0.02233615517616272,0.003030801424756646
1733704486589416200,3.476416259765625,-0.007888803258538246,-0.01192719116806984,0.0011892254697158933
1733704486599383000,3.486383056640625,-0.008365430869162083,0.0004346994683146477,0.0006102460902184248
1733704486609349400,3.496349365234375,-0.008610174991190434,0.011247931979596615,-0.001067012781277299
1733704486619316200,3.506316162109375,-0.009049423038959503,0.02003038302063942,-0.003491027746349573
1733704486629282300,3.5162822265625,-0.007385746575891972,0.024268271401524544,-0.0005490337498486042
1733704486639249200,3.526249267578125,-0.00667901337146759,0.027479026466608047,0.00033870688639581203
1733704486649215200,3.53621533203125,-0.0022246099542826414,0.022168416529893875,0.00005774339661002159
1733704486659182000,3.54618212890625,-0.0008986088796518743,0.013145433738827705,-0.00048784329555928707
1733704486669148200,3.556148193359375,-0.0012488143984228373,-0.0020391112193465233,-0.0001613397616893053
1733704486679115000,3.566114990234375,0.002682826481759548,-0.012843756005167961,-0.0009554028511047363
1733704486689082000,3.57608203125,0.002095333067700267,-0.022372545674443245,-0.0019484956283122301
1733704486699048000,3.5860478515625,0.0030516949482262135,-0.028531445190310478,-0.0004160741809755564
1733704486709015000,3.59601513671875,0.004820832516998053,-0.028674988076090813,0.0012992678675800562
1733704486718981400,3.6059814453125,0.005889301188290119,-0.021576521918177605,0.003947616089135408
1733704486728948200,3.6159482421875,0.007726349867880344,-0.009978456422686577,0.007875245995819569
1733704486738914300,3.625914306640625,0.00836766418069601,0.004744196310639381,0.008205323480069637
1733704486748881200,3.635881103515625,0.010790342465043068,0.015826407819986343,0.007332338951528072
1733704486758848300,3.64584814453125,0.008719195611774921,0.014113117009401321,0.008584986440837383
1733704486768814000,3.65581396484375,0.009470207616686821,0.01464095525443554,0.0112388264387846
1733704486778781200,3.66578125,0.008199779316782951,0.0045583597384393215,0.012089522555470467
1733704486788747000,3.6757470703125,0.009131619706749916,0.0001524258404970169,0.012458902783691883
1733704486798714000,3.685714111328125,0.009680808521807194,-0.011482052505016327,0.01379630621522665
1733704486808680000,3.695679931640625,0.0069428132846951485,-0.021400462836027145,0.01814844459295273
1733704486818647000,3.70564697265625,0.007663602940738201,-0.032345086336135864,0.022654296830296516
1733704486828613000,3.715613037109375,0.004561286885291338,-0.041789986193180084,0.024618644267320633
1733704486838580200,3.725580322265625,0.008058063685894012,-0.046120770275592804,0.02745787985622883
1733704486848546300,3.73554638671875,0.004125374369323254,-0.04791627451777458,0.027693303301930428
1733704486858513200,3.74551318359375,0.0038107153959572315,-0.04399174079298973,0.02512463927268982
1733704486868480300,3.755480224609375,0.0045955488458275795,-0.03311619162559509,0.02169528603553772
1733704486878446000,3.765446044921875,0.006037916988134384,-0.02401404082775116,0.016191862523555756
1733704486888413200,3.7754130859375,0.004143344238400459,-0.016520969569683075,0.013326567597687244
1733704486898379000,3.78537890625,0.004407564643770456,-0.012827189639210701,0.013500683940947056
1733704486908346000,3.79534619140625,0.0023577294778078794,-0.0032443366944789886,0.010496105067431927
1733704486918312200,3.805312255859375,-0.0021208259277045727,0.0053033893927931786,0.004684995394200087
1733704486928279000,3.815279052734375,-0.003073704894632101,0.01162626687437296,0.0007523054955527186
1733704486938245000,3.8252451171875,-0.005209024995565414,0.019505470991134644,-0.005675423424690962
1733704486948212200,3.835212158203125,-0.004546430427581072,0.02676231786608696,-0.008606499060988426
1733704486958179300,3.845179443359375,-0.005338319577276707,0.030750863254070282,-0.011138392612338066
1733704486968145200,3.855145263671875,-0.0031750337220728397,0.030122091993689537,-0.011598320677876472
1733704486978112300,3.8651123046875,-0.003055075416341424,0.034681424498558044,-0.011236729100346565
1733704486988078000,3.875078125,-0.0035597444511950016,0.034274227917194366,-0.011731810867786407
1733704486998045200,3.885045166015625,-0.002382395789027214,0.034254543483257294,-0.012229767628014088
1733704487008011000,3.895010986328125,-0.0016375097911804914,0.03181775286793709,-0.007923701778054237
1733704487017978000,3.90497802734375,0.0011927877785637975,0.02518884837627411,-0.006772545166313648
1733704487027944200,3.914944091796875,0.001003703335300088,0.016747692599892616,-0.006238581612706184
1733704487037911300,3.924911376953125,0.0037879319861531258,0.005487922113388777,-0.006200599018484354
1733704487047878100,3.934878173828125,0.00028001610189676285,-0.0027596214786171913,-0.0015070440713316202
1733704487057844200,3.94484423828125,0.0019362911116331816,-0.012331407517194748,0.0025671233888715506
1733704487067811300,3.954811279296875,0.0017765015363693237,-0.020977627485990524,0.0034789899364113808
1733704487077777200,3.964777099609375,0.004997546784579754,-0.02408531680703163,0.004116243217140436
1733704487087744300,3.974744140625,0.003347984980791807,-0.025203309953212738,0.006332792341709137
1733704487097710000,3.9847099609375,0.0052701858803629875,-0.024289529770612717,0.010641896165907383
1733704487107677200,3.99467724609375,0.0007353547844104469,-0.0217728428542614,0.012876288034021854
1733704487117643000,4.00464306640625,-0.0027663186192512512,-0.020510241389274597,0.012144383043050766
1733704487127610000,4.014610107421875,-0.0011287408415228128,-0.02348339557647705,0.011578993871808052
1733704487137576200,4.024576171875,-0.001992219826206565,-0.027042465284466743,0.011006960645318031
1733704487147543300,4.034543212890625,-0.0003967201919294894,-0.023667173460125923,0.010220528580248356
1733704487157510100,4.04451025390625,0.004044159781187773,-0.020198533311486244,0.008645327761769295
1733704487167476200,4.054476318359375,0.004077982157468796,-0.014909494668245316,0.006136897020041943
1733704487177443300,4.064443359375,0.0006102480692788959,-0.0071519725024700165,0.0047303456813097
1733704487187409200,4.0744091796875,-0.0013197447406128049,0.0002526799216866493,0.0026272470131516457
1733704487197376300,4.084376220703125,-0.004324569366872311,0.005323778372257948,-0.002048878464847803
1733704487207342000,4.094342041015625,-0.0023961744736880064,0.016856331378221512,-0.006115525960922241
1733704487217309200,4.10430908203125,-0.0009663865203037858,0.022569939494132996,-0.0067216381430625916
1733704487227275000,4.11427490234375,-0.0021847826428711414,0.019915033131837845,-0.008695839904248714
1733704487237242000,4.1242421875,0.0009514542180113494,0.012004824355244637,-0.007264201529324055
1733704487247209000,4.134208984375,0.0019458786118775606,0.010890025645494461,-0.007551823742687702
1733704487257175300,4.14417529296875,0.0025758075062185526,0.010483483783900738,-0.00971776433289051
1733704487267142100,4.15414208984375,-0.0002175820991396904,0.011611065827310085,-0.009111362509429455
1733704487277108200,4.164108154296875,-0.003477754071354866,0.010135626420378685,-0.005890645086765289
1733704487287075000,4.174074951171875,-0.004580302629619837,0.005008508451282978,-0.004344946704804897
1733704487297041200,4.184041259765625,-0.0047697345726192,-0.00268618855625391,-0.001384831266477704
1733704487307008000,4.194008056640625,-0.005861897021532059,-0.004027090035378933,0.00016752537339925766
1733704487316973800,4.203973876953125,-0.008761374279856682,-0.005241077393293381,0.000055933836847543716
1733704487326941000,4.21394091796875,-0.005944281816482544,-0.0021741818636655807,-0.0005435438361018896
1733704487336908000,4.223907958984375,-0.0036060363054275513,0.0019251452758908272,-0.0037277182564139366
1733704487346874000,4.2338740234375,-0.003693654201924801,0.007504201494157314,-0.006011378485709429
1733704487356841000,4.243841064453125,-0.0007067120750434697,0.00932060182094574,-0.003749881172552705
1733704487366807000,4.25380712890625,-0.002248149598017335,0.012707610614597797,-0.0039253830909729
1733704487376774100,4.263774169921875,-0.004850763827562332,0.012064043432474136,-0.00299247307702899
1733704487386740000,4.273739990234375,-0.006660914048552513,0.012256857007741928,-0.004382377024739981
1733704487396707000,4.28370703125,-0.007849493995308876,0.01377050019800663,-0.004655901808291674
1733704487406673000,4.2936728515625,-0.01124182902276516,0.014963597059249878,-0.006189882755279541
1733704487416640000,4.303639892578125,-0.008842355571687222,0.014806495979428291,-0.007414082996547222
1733704487426607000,4.313607177734375,-0.005606082733720541,0.01498199813067913,-0.009071634151041508
1733704487436573000,4.323572998046875,-0.006181023549288511,0.009117159061133862,-0.006174436770379543
1733704487446540000,4.3335400390625,-0.005262233316898346,0.0050909919664263725,-0.00463273236528039
1733704487456506000,4.343506103515625,-0.001615116372704506,-0.0012859692797064781,-0.006910520605742931
1733704487466473200,4.35347314453125,-0.002415662631392479,-0.004070304334163666,-0.007154200226068497
1733704487476439000,4.36343896484375,0.0008343805093318224,-0.0008029220625758171,-0.008875845931470394
1733704487486406100,4.37340625,0.0010967018315568566,0.0061617763713002205,-0.010731003247201443
1733704487496372000,4.3833720703125,0.003246883861720562,0.015544742345809937,-0.011607247404754162
1733704487506339000,4.393339111328125,0.0012785415165126324,0.019672110676765442,-0.013755886815488338
1733704487516306000,4.403305908203125,0.001571795903146267,0.01196899451315403,-0.01284191943705082
1733704487526272000,4.41327197265625,0.0013305135071277618,0.00995298195630312,-0.011830716393887997
1733704487536238800,4.42323876953125,-0.0002146526239812374,0.010059774853289127,-0.010574503801763058
1733704487546205000,4.433204833984375,0.0008072022465057671,0.011932775378227234,-0.009336666204035282
1733704487556172000,4.443172119140625,0.0011427394347265363,0.009751741774380207,-0.010276613757014275
1733704487566138000,4.45313818359375,0.00403360091149807,0.009385290555655956,-0.009337049908936024
1733704487576105200,4.463105224609375,0.003255795454606414,0.006744716316461563,-0.00796123780310154
1733704487586071000,4.473071044921875,0.003268578788265586,-0.0017867200076580048,-0.0041808802634477615
1733704487596038100,4.4830380859375,0.004217634908854961,-0.00836937502026558,-0.0017390318680554628
1733704487606004000,4.49300390625,0.003653045045211911,-0.010568346828222275,0.0026453305035829544
1733704487615971000,4.50297119140625,0.0011652485700324178,-0.011947769671678543,0.002692950889468193
1733704487625938000,4.51293798828125,0.002930125454440713,-0.007277915254235268,0.0028082658536732197
1733704487635904000,4.522904052734375,0.0037814348470419645,-0.005226944573223591,0.0021932371892035007
1733704487645870800,4.532870849609375,0.004670131951570511,-0.000414079986512661,0.002141039352864027
1733704487655837200,4.542837158203125,0.00754748098552227,0.0043076337315142155,0.0017314150463789701
1733704487665804000,4.552803955078125,0.004623596556484699,0.007798771373927593,0.000006485730409622192
1733704487675770000,4.56277001953125,0.001688029384240508,0.01319111604243517,-0.002517447341233492
1733704487685737200,4.5727373046875,-0.00044223316945135593,0.017778944224119186,-0.003306009341031313
1733704487695703000,4.582703125,-0.0009594543953426182,0.017728634178638458,-0.004985343664884567
1733704487705670100,4.592670166015625,-0.0010705082677304745,0.018412001430988312,-0.007005617022514343
1733704487715637000,4.602636962890625,-0.00009631563443690538,0.0193663127720356,-0.007857541553676128
1733704487725603000,4.61260302734375,-0.0024398972745984793,0.02116980403661728,-0.01168450340628624
1733704487735570000,4.62256982421875,-0.0030942088924348354,0.021076470613479614,-0.011078445240855217
1733704487745536000,4.632535888671875,-0.0008688715752214193,0.021682338789105415,-0.010832102969288826
1733704487755502800,4.6425029296875,0.00013947818661108613,0.019589144736528397,-0.010768539272248745
1733704487765469200,4.65246923828125,0.00020232878159731627,0.020648550242185593,-0.011130995117127895
1733704487775436000,4.66243603515625,0.002056259661912918,0.02214251272380352,-0.008943905122578144
1733704487785402000,4.672402099609375,0.0044906553812325,0.026072805747389793,-0.00903791468590498
1733704487795369000,4.682368896484375,0.00021844729781150818,0.025074094533920288,-0.010160757228732109
1733704487805336000,4.692336181640625,0.0029322083573788404,0.01943112351000309,-0.00908164493739605
1733704487815302100,4.70230224609375,0.003181606996804476,0.009707753546535969,-0.006537575274705887
1733704487825269000,4.71226904296875,0.0021554911509156227,0.0019145449623465538,-0.0004232234787195921
1733704487835235000,4.722235107421875,0.0012581332121044397,-0.008217887952923775,0.001321897143498063
1733704487845202000,4.732201904296875,0.004671240225434303,-0.016776220872998238,0.001767443958669901
1733704487855168000,4.74216796875,0.006077185273170471,-0.02191068045794964,0.004514362663030624
1733704487865134800,4.752134765625,0.005826848093420267,-0.021476583555340767,0.007048360537737608
1733704487875101200,4.76210107421875,0.004822409711778164,-0.0209613349288702,0.004726717714220285
1733704487885068000,4.772068115234375,0.0039542196318507195,-0.017675794661045074,0.0039147199131548405
1733704487895034000,4.7820341796875,0.004310195799916983,-0.015691332519054413,0.006001561880111694
1733704487905001000,4.7920009765625,0.005610084626823664,-0.013556808233261108,0.00543484091758728
1733704487914968000,4.801968017578125,0.0035352532286196947,-0.00909753143787384,0.0040510366670787334
1733704487924934000,4.811933837890625,0.003723805071786046,-0.00488121435046196,0.0007804087363183498
1733704487934901000,4.82190087890625,0.003135582897812128,-0.0031752418726682663,0.00030812062323093414
1733704487944867000,4.8318671875,0.0023246502969413996,-0.000531255267560482,-0.0003012106753885746
1733704487954834000,4.841833984375,-0.00041918823262676597,-0.0005045551806688309,-0.0028801248408854008
1733704487964800000,4.851800048828125,0.0003981359477620572,-0.001348244957625866,-0.003606102429330349
1733704487974766800,4.861766845703125,-0.0012935041449964046,-0.0013975128531455994,-0.0019392301328480244
1733704487984733200,4.871733154296875,-0.0004796418943442404,0.0038819373585283756,-0.002547495998442173
1733704487994700000,4.881699951171875,-0.0031475918367505074,0.006891411729156971,-0.00240472424775362
1733704488004667100,4.891667236328125,-0.0023180171847343445,0.006858388893306255,-0.0037608062848448753
1733704488014633000,4.901633056640625,-0.004548348486423492,0.008455866016447544,-0.0038333809934556484
1733704488024600000,4.91160009765625,-0.00573878176510334,0.008721649646759033,-0.005257106851786375
1733704488034566000,4.92156591796875,-0.003414915641769767,0.004330927971750498,-0.003506946610286832
1733704488044533000,4.931532958984375,0.0010405529756098986,0.00604600366204977,-0.003369260812178254
1733704488054498800,4.941498779296875,0.008118715137243271,0.005151520483195782,-0.002936933422461152
1733704488064466000,4.9514658203125,0.005451558623462915,0.004730741027742624,-0.0011757847387343645
1733704488074432300,4.961432373046875,0.006304122041910887,-0.00000300724059343338,-0.00020880834199488163
1733704488084399000,4.971399169921875,0.0024971331004053354,-0.006953058764338493,0.0010087889386340976
1733704488094366000,4.981365966796875,-0.0007543909014202654,-0.017246659845113754,0.002481095027178526
1733704488104332000,4.99133203125,-0.00680482666939497,-0.019234178587794304,0.0027684499509632587
1733704488114299100,5.001299072265625,-0.005874935071915388,-0.023376211524009705,0.0033860530238598585
1733704488124265000,5.011264892578125,-0.0054831840097904205,-0.02593950554728508,0.0013924106024205685
1733704488134232000,5.021232177734375,-0.0037094345316290855,-0.02564360573887825,0.001162830158136785
1733704488144198000,5.031197998046875,-0.0025624108966439962,-0.030258599668741226,-0.0007743530441075563
1733704488154165000,5.0411650390625,-0.003971840254962444,-0.03268769010901451,0.0018009394407272339
1733704488164130800,5.051130859375,-0.002446647733449936,-0.026072129607200623,0.004986080341041088
1733704488174098000,5.061097900390625,-0.0062719546258449554,-0.017848676070570946,0.00411022687330842
1733704488184064000,5.07106396484375,-0.004287100397050381,-0.00782640278339386,0.004094780422747135
1733704488194031000,5.081031005859375,-0.005164577625691891,-0.0003480035811662674,0.0020973552018404007
1733704488203998200,5.090998291015625,-0.004891870077699423,0.0054781935177743435,0.0037919245660305023
1733704488213964000,5.100964111328125,-0.0032026844564825296,0.006773409433662891,0.0021055503748357296
1733704488223931100,5.11093115234375,0.0005486441659741104,0.0030423211865127087,-0.00033523677848279476
1733704488233897000,5.12089697265625,0.0021539628505706787,-0.0006626443937420845,0.0007476593600586057
1733704488243864000,5.130864013671875,0.0025286695454269648,-0.0033713458105921745,0.0008171678055077791
1733704488253830000,5.140829833984375,0.004136876668781042,-0.00891689769923687,0.0013855709694325924
1733704488263797000,5.150796875,0.003372283186763525,-0.014253873378038406,0.0008175187977030873
1733704488273762800,5.1607626953125,-0.00006531889084726572,-0.01661572977900505,0.00037599122151732445
1733704488283730000,5.17072998046875,-0.002756176982074976,-0.017286580055952072,0.0036902951542288065
1733704488293697000,5.180697021484375,-0.002024942310526967,-0.016279591247439384,0.006622810382395983
1733704488303663000,5.1906630859375,-0.0041504111140966415,-0.01191386952996254,0.009233240969479084
1733704488313630500,5.20063037109375,-0.001445179688744247,-0.015222681686282158,0.00906171090900898
1733704488323596500,5.210596435546875,-0.00027258985210210085,-0.015635738149285316,0.008068883791565895
1733704488333563400,5.2205634765625,-0.0011652964167296886,-0.010570209473371506,0.008208873681724072
1733704488343529500,5.230529541015625,-0.0052801463752985,-0.008147796615958214,0.008146555162966251
1733704488353496600,5.24049658203125,-0.005116914864629507,-0.007453683763742447,0.006123766303062439
1733704488363462400,5.25046240234375,-0.002844439586624503,-0.007874464616179466,0.007336304057389498
1733704488373429500,5.260429443359375,-0.001336327288299799,-0.010978329926729202,0.011161644011735916
1733704488383395300,5.270395263671875,-0.0013310008216649294,-0.012638811022043228,0.01455637626349926
1733704488393362400,5.280362548828125,-0.0012563886120915413,-0.015854259952902794,0.01385680865496397
1733704488403329300,5.290329345703125,0.0017931971233338118,-0.0210061427205801,0.018676333129405975
1733704488413295600,5.300295654296875,0.0014677708968520164,-0.026132924482226372,0.022679423913359642
1733704488423262500,5.310262451171875,0.0038779317401349545,-0.029082106426358223,0.024799033999443054
1733704488433228500,5.320228515625,0.005422460380941629,-0.03339502587914467,0.024799197912216187
1733704488443195400,5.3301953125,0.006769753526896238,-0.0355180948972702,0.023729674518108368
1733704488453161500,5.340161376953125,0.0069169700145721436,-0.033184513449668884,0.021164987236261368
1733704488463128300,5.35012841796875,0.005144902504980564,-0.028871789574623108,0.020139936357736588
1733704488473094400,5.360094482421875,0.002315293066203594,-0.024058500304818153,0.01623225025832653
1733704488483061500,5.3700615234375,0.0025483197532594204,-0.015775270760059357,0.014597068540751934
1733704488493028400,5.3800283203125,0.0003981755580753088,-0.011281756684184074,0.014353161677718163
1733704488502994400,5.389994384765625,0.0030267154797911644,-0.010286001488566399,0.01289508119225502
1733704488512961300,5.399961181640625,0.002456743037328124,-0.012443309649825096,0.011740271933376789
1733704488522927600,5.409927734375,0.002570193726569414,-0.01493256539106369,0.008349801413714886
1733704488532894500,5.41989453125,0.0006687681307084858,-0.013662129640579224,0.006159741431474686
1733704488542860500,5.429860595703125,-0.0015003765001893044,-0.012409377843141556,0.0035301358439028263
1733704488552827400,5.439827392578125,-0.003341918345540762,-0.004872282966971397,0.001966306008398533
1733704488562793500,5.44979345703125,-0.0036926562897861004,0.001485215499997139,-0.0001282703597098589
1733704488572760300,5.45976025390625,-0.002187325619161129,0.009217998012900352,-0.0024022182915359735
1733704488582727400,5.4697275390625,-0.0020043666008859873,0.014041781425476074,-0.004192661494016647
1733704488592693200,5.479693359375,-0.0022744806483387947,0.019459232687950134,-0.008093019016087055
1733704488602660400,5.489660400390625,-0.002554645063355565,0.023020144551992416,-0.008121248334646225
1733704488612626400,5.49962646484375,-0.0027986515779048204,0.023668641224503517,-0.011295026168227196
1733704488622593300,5.50959326171875,-0.0028905305080115795,0.02628120221197605,-0.011421792209148407
1733704488632559600,5.5195595703125,-0.00010811223182827234,0.027089161798357964,-0.009776260703802109
1733704488642526500,5.5295263671875,-0.0012663209345191717,0.022778835147619247,-0.007347457110881805
1733704488652492500,5.539492431640625,0.00036203922354616225,0.014142953790724277,-0.003380920272320509
1733704488662459400,5.54945947265625,0.00026030646404251456,0.003532120957970619,-0.0016061901114881039
1733704488672425500,5.559425537109375,0.0005274789873510599,-0.0037845242768526077,-0.0007051024585962296
1733704488682392300,5.569392333984375,-0.0010954514145851135,-0.004700652323663235,0.0002709459513425827
1733704488692359400,5.579359375,-0.0001813052804209292,-0.0014718333259224892,0.002242019400000572
1733704488702325200,5.5893251953125,0.0018978245789185166,0.0032925615087151527,0.0021418845281004906
1733704488712292400,5.599292236328125,0.0036727983970195055,0.00399919506162405,0.004188674967736006
1733704488722258400,5.609258544921875,0.002499409718438983,0.0041635120287537575,0.004267504438757896
1733704488732225500,5.6192255859375,0.0027607236988842487,-0.00039114709943532944,0.005644419230520725
1733704488742191600,5.629191650390625,-0.002349616028368473,-0.010829141363501549,0.006059073843061924
1733704488752158500,5.639158447265625,-0.002453895751386881,-0.016748391091823578,0.007814263924956322
1733704488762124500,5.64912451171875,0.001999708591029048,-0.020885346457362175,0.008579390123486519
1733704488772091400,5.65909130859375,0.0023722308687865734,-0.02150030806660652,0.010875800624489784
1733704488782058500,5.66905859375,-0.00021023646695539355,-0.016528453677892685,0.009503473527729511
1733704488792024300,5.6790244140625,0.001172797754406929,-0.0100493673235178,0.004608914256095886
1733704488801991400,5.688991455078125,-0.0002743639633990824,-0.0022393809631466866,0.002814742736518383
1733704488811957200,5.698957275390625,-0.0009267734712921083,0.00848186295479536,-0.0007725625764578581
1733704488821924400,5.70892431640625,-0.0019472967833280563,0.011310406029224396,-0.0013861549086868763
1733704488831890400,5.718890380859375,-0.002216715132817626,0.005758326500654221,-0.0009399119298905134
1733704488841857500,5.728857421875,-0.0006441186997108161,0.0016101868823170662,0.0003919347655028105
1733704488851823400,5.7388232421875,0.0006688105640932918,-0.004918521270155907,0.0032784671057015657
1733704488861790500,5.74879052734375,0.0015676274197176099,-0.004702006466686726,0.003329866100102663
1733704488871756500,5.758756591796875,0.0012311914470046759,-0.0041627660393714905,0.0014596162363886833
1733704488881723400,5.768723388671875,0.00024022924480959773,-0.006115928292274475,0.0004971498856320977
1733704488891690500,5.7786904296875,-0.002125771949067712,-0.007967671379446983,0.0015679674688726664
1733704488901656300,5.78865625,-0.0028323086444288492,-0.0034251175820827484,0.003045222721993923
1733704488911623400,5.79862353515625,-0.006548290606588125,0.002556711435317993,-0.0007699718698859215
1733704488921589200,5.80858935546875,-0.006118456367403269,0.010285736992955208,-0.0066060228273272514
1733704488931556400,5.818556396484375,-0.004103111103177071,0.01533566601574421,-0.009427365846931934
1733704488941522400,5.8285224609375,-0.001606929930858314,0.027330543845891953,-0.010711807757616043
1733704488951489500,5.838489501953125,-0.003793037496507168,0.033422015607357025,-0.010102755390107632
1733704488961455400,5.848455322265625,-0.0014742230996489525,0.03748946264386177,-0.005844361148774624
1733704488971422500,5.85842236328125,-0.0027718921191990376,0.0344802625477314,-0.00559540931135416
1733704488981389600,5.8683896484375,-0.0027569783851504326,0.027892934158444405,-0.00482761999592185
1733704488991355400,5.87835546875,-0.005057078320533037,0.017486266791820526,-0.003508071880787611
1733704489001322500,5.888322509765625,-0.0068251509219408035,0.009563361294567585,-0.004821010399609804
1733704489011288300,5.898288330078125,-0.005907590035349131,0.0022293711081147194,-0.006822568830102682
1733704489021255400,5.90825537109375,-0.0036582844331860542,0.002905015368014574,-0.005790593568235636
1733704489031221500,5.918221435546875,0.0003089596575591713,0.0070602321065962315,-0.004072184674441814
1733704489041188400,5.928188232421875,0.0015241600340232253,0.007769165560603142,-0.000906751025468111
1733704489051154400,5.938154541015625,0.007291852962225676,0.004427185282111168,-0.00013232044875621796
1733704489061121500,5.94812158203125,0.006270264275372028,-0.0010999394580721855,-0.0031704544089734554
1733704489071087400,5.95808740234375,0.005865322891622782,-0.002259913831949234,-0.0029105760622769594
1733704489081054500,5.968054443359375,0.0025590085424482822,0.000738273374736309,-0.0017105552833527327
1733704489091021600,5.978021484375,-0.0006405679741874337,0.0002310601994395256,-0.0029721595346927643
1733704489100987400,5.9879873046875,0.00007422443013638258,-0.010356603190302849,-0.0033761607483029366
1733704489110954500,5.99795458984375,0.00012101040920242667,-0.009124644100666046,-0.003013686975464225
1733704489120920300,6.00792041015625,-0.0017714318819344044,-0.006817283108830452,-0.004100522957742214
1733704489130887400,6.017887451171875,-0.0002752352156676352,-0.006099158897995949,-0.0032782230991870165
1733704489140853500,6.027853515625,-0.00016684451838955283,-0.005645887926220894,-0.004385831765830517
1733704489150820600,6.037820556640625,0.0006978308083489537,-0.002864259295165539,-0.005064173135906458
1733704489160786400,6.047786376953125,0.002757785841822624,-0.00020722299814224243,-0.008114824071526527
1733704489170753500,6.05775341796875,0.0003142859786748886,-0.000822724774479866,-0.006618965417146683
1733704489180720400,6.067720458984375,-0.0007030414999462664,0.0012143272906541824,-0.005318543873727322
1733704489190686500,6.0776865234375,-0.0021987531799823046,0.004778676200658083,-0.005606153979897499
1733704489200653600,6.087653564453125,-0.0009308223961852491,0.010352672077715397,-0.006956643424928188
1733704489210619400,6.097619384765625,-0.0001782586914487183,0.015715673565864563,-0.007197090424597263
1733704489220586500,6.10758642578125,0.0006204232922755182,0.02051788568496704,-0.008872751146554947
1733704489230552300,6.11755224609375,0.005483619868755341,0.02313140779733658,-0.010319676250219345
1733704489240519400,6.12751953125,0.004051371943205595,0.021982785314321518,-0.01002406608313322
1733704489250485500,6.137485595703125,0.0033684305381029844,0.024925388395786285,-0.01023322343826294
1733704489260452600,6.14745263671875,0.0008759781485423446,0.027381088584661484,-0.011501154862344265
1733704489270418400,6.15741845703125,-0.0032088307198137045,0.030877510085701942,-0.012287088669836521
1733704489280385500,6.167385498046875,-0.005821391940116882,0.03172572702169418,-0.012796550989151001
1733704489290352400,6.177352294921875,-0.006006054114550352,0.030115384608507156,-0.014732771553099155
1733704489300318500,6.187318359375,-0.00633761752396822,0.03194870799779892,-0.014131695963442326
1733704489310284500,6.197284423828125,-0.003062391886487603,0.024052385240793228,-0.014889740385115147
1733704489320250600,6.207250732421875,-0.0038629379123449326,0.017726311460137367,-0.012512337416410446
1733704489330217500,6.217217529296875,-0.0008033378981053829,0.012338278815150261,-0.012642400339245796
1733704489340183800,6.227183837890625,-0.0005868228618055582,0.009843695908784866,-0.009191743098199368
1733704489350150700,6.237150634765625,0.00017709354870021343,0.0020981524139642715,-0.008953463286161423
1733704489360116700,6.24711669921875,0.000878037535585463,0.0012693768367171288,-0.00761469267308712
1733704489370083600,6.25708349609375,0.0009423863375559449,-0.0019986797124147415,-0.007421690039336681
1733704489380050700,6.26705078125,0.0004270646604709327,-0.004498056136071682,-0.006039508618414402
1733704489390016500,6.2770166015625,0.0000012030941434204578,-0.005450306460261345,-0.004259568639099598
1733704489399983600,6.286983642578125,-0.00005978334229439497,-0.004523259587585926,-0.0031223990954458714
1733704489409949400,6.296949462890625,0.001464199274778366,-0.0045325858518481255,-0.000304848188534379
1733704489419916500,6.30691650390625,0.0005041297408752143,-0.004065467976033688,0.0015175529988482594
1733704489429883000,6.3168828125,0.0016142776003107429,-0.004575030878186226,0.0019130768487229943
1733704489439849700,6.326849609375,-0.0027245443779975176,-0.004033343866467476,0.003404446877539158
1733704489449815800,6.33681591796875,-0.0026051108725368977,-0.0026563890278339386,0.003851547371596098
1733704489459782700,6.34678271484375,-0.003172097960487008,0.0003748210147023201,0.0034518069587647915
1733704489469748700,6.356748779296875,-0.003227988723665476,0.002207317389547825,0.0029508110601454973
1733704489479715600,6.366715576171875,-0.0029403672087937593,0.0006616190075874329,0.0004913818556815386
1733704489489682700,6.3766826171875,-0.0025807491037994623,-0.0005290675908327103,-0.00006950460374355316
1733704489499648500,6.3866484375,-0.0032023307867348194,0.004367420449852943,-0.0008873613551259041
1733704489509615600,6.39661572265625,-0.0032906970009207726,0.004662651568651199,-0.0022162101231515408
1733704489519581400,6.40658154296875,-0.005073150619864464,0.005295685026794672,-0.003443128429353237
1733704489529548500,6.416548583984375,-0.0038449186831712723,0.009003803133964539,-0.004094626754522324
1733704489539514600,6.4265146484375,-0.0032643494196236134,0.010940187610685825,-0.0065742963925004005
1733704489549481700,6.436481689453125,-0.0018550753593444824,0.009741014800965786,-0.0036034290678799152
1733704489559447800,6.44644775390625,0.000716472917702049,0.0066363015212118626,-0.0010585123673081398
1733704489569414700,6.45641455078125,0.0015451989602297544,0.003213029820472002,0.0010906197130680084
1733704489579381800,6.4663818359375,0.0026160560082644224,0.0021040895953774452,0.0002969978377223015
1733704489589347600,6.47634765625,0.003091143211349845,0.0011180154979228973,-0.001486372435465455
1733704489599314700,6.486314697265625,0.0027350785676389933,0.0032677194103598595,-0.0010354993864893913
1733704489609280500,6.496280517578125,0.0026296733412891626,0.006217584013938904,0.0005901573458686471
1733704489619247600,6.50624755859375,0.0023819992784410715,0.002108326181769371,-0.00011531403288245201
1733704489629213700,6.516213623046875,0.0031225497368723154,-0.002838016487658024,0.00010980595834553242
1733704489639180500,6.5261806640625,0.0053566754795610905,-0.005777347832918167,-0.00011203531175851822
1733704489649146600,6.536146728515625,0.0046864645555615425,-0.011472059413790703,0.002408746862784028
1733704489659113700,6.54611376953125,0.0013332783710211515,-0.009699992835521698,0.0021086083725094795
1733704489669079600,6.55607958984375,0.00037388483178801835,-0.006596604362130165,0.0010018741013482213
1733704489679046700,6.566046630859375,-0.0020021875388920307,-0.005622686818242073,0.0020109456963837147
1733704489689013800,6.576013671875,-0.001365958247333765,-0.006954533979296684,0.002741717267781496
1733704489698979600,6.5859794921875,-0.004895179066807032,-0.00488206185400486,0.003785942681133747
1733704489708946700,6.59594677734375,-0.006551504600793123,-0.003836696967482567,0.003707543946802616
1733704489718912500,6.60591259765625,-0.005201281979680061,-0.005080392584204674,-0.0006190275307744741
1733704489728879600,6.615879638671875,-0.006126199848949909,-0.007330870255827904,-0.0029708941001445055
1733704489738845700,6.625845703125,-0.006217812653630972,-0.005649084225296974,-0.003402326488867402
1733704489748812800,6.635812744140625,-0.0055181412026286125,-0.001057010143995285,-0.0029114147182554007
1733704489758778600,6.645778564453125,-0.004391890484839678,0.003421627916395664,-0.003332460531964898
1733704489768745700,6.655745849609375,-0.001141930464655161,0.007461836561560631,-0.002109967404976487
1733704489778711600,6.665711669921875,-0.00038399483310058713,0.008490083739161491,-0.0013368516229093075
1733704489788678700,6.6756787109375,0.0009155170409940183,0.008789661340415478,0.0002534613013267517
1733704489798645800,6.685645751953125,0.0012819679686799645,0.007960353046655655,0.0025014355778694153
1733704489808611600,6.695611572265625,0.0016089887358248234,0.008013544604182243,-0.00008032494224607944
1733704489818578700,6.70557861328125,0.0007131012971512973,0.0088425874710083,0.0010565784759819508
1733704489828544500,6.71554443359375,0.0005671949475072324,0.0064784768037498,0.002344428561627865
1733704489838511600,6.72551171875,0.000851620570756495,0.00019022077322006226,0.0015864928718656301
1733704489848477700,6.735477783203125,0.004402182064950466,-0.007360931485891342,0.0024634168948978186
1733704489858444800,6.74544482421875,0.0051446715369820595,-0.016595710068941116,0.004046399611979723
1733704489868410600,6.75541064453125,0.0051641338504850864,-0.02106858417391777,0.0072196731343865395
1733704489878377700,6.765377685546875,0.004266914911568165,-0.01884590834379196,0.008796797133982182
1733704489888344800,6.7753447265625,0.004459797870367765,-0.015561215579509735,0.008121577091515064
1733704489898310700,6.785310546875,0.0014381750952452421,-0.008030060678720474,0.008321314118802547
1733704489908277800,6.79527783203125,-0.0012533310800790787,-0.013535084202885628,0.00684518925845623
1733704489918243600,6.80524365234375,-0.0009819550905376673,-0.015072526410222054,0.003662179224193096
1733704489928210700,6.815210693359375,-0.0003344286233186722,-0.013409484177827835,0.004183266311883926
1733704489938176500,6.825176513671875,-0.0038929444272071123,-0.00640377402305603,0.003189108334481716
1733704489948143600,6.8351435546875,-0.0032916024792939425,-0.0055707357823848724,0.0019701796118170023
1733704489958109700,6.845109619140625,-0.0019509673584252596,-0.0027166269719600677,0.0035683424212038517
1733704489968076800,6.855076904296875,-0.003524752566590905,0.0027709822170436382,0.0033886232413351536
1733704489978042600,6.865042724609375,-0.004223566502332687,0.0006558997556567192,0.005417419131845236
1733704489988009700,6.875009765625,-0.0029137355741113424,-0.002031369134783745,0.005252314731478691
1733704489997976600,6.8849765625,-0.0016311572398990393,-0.002497688867151737,0.005206774920225143
1733704490007942700,6.894942626953125,0.0003687887510750443,-0.001957193948328495,0.002041862579062581
1733704490017909800,6.90490966796875,0.005955833941698074,0.004111617337912321,-0.0004410024266690016
1733704490027875600,6.91487548828125,0.007069053128361702,0.010895929299294949,-0.0032100349199026823
1733704490037842700,6.9248427734375,0.008938858285546303,0.010870362631976604,-0.003096584463492036
1733704490047808800,6.934808837890625,0.009349020197987556,0.006079311482608318,0.00021180510520935059
1733704490057775600,6.944775634765625,0.004971316084265709,0.003006556537002325,0.0017844017129391432
1733704490067741700,6.95474169921875,0.0026849405840039253,-0.00237946305423975,0.001336422050371766
1733704490077708800,6.964708740234375,0.000179172377102077,-0.005785912275314331,0.00298358709551394
1733704490087674600,6.974674560546875,-0.0008749894332140684,-0.0033326325938105583,0.0032171602360904217
1733704490097641700,6.984641845703125,0.0002677729935385287,-0.00241038016974926,0.003664837684482336
1733704490107608600,6.994608642578125,0.0019336279947310686,-0.000333334319293499,0.006123508792370558
1733704490117574700,7.00457470703125,0.0032060863450169563,0.00023844651877880096,0.00915738195180893
1733704490127541500,7.01454150390625,0.004123401362448931,-0.004483342170715332,0.009862779639661312
1733704490137507600,7.024507568359375,0.0035564142744988203,-0.005415715277194977,0.0094545166939497
1733704490147474700,7.034474609375,0.005925208795815706,-0.006531598046422005,0.01058771088719368
1733704490157440800,7.044440673828125,0.00629405677318573,-0.007744668051600456,0.011438590474426746
1733704490167407900,7.054407958984375,0.006674052681773901,-0.008297888562083244,0.014657578431069851
1733704490177373700,7.064373779296875,0.0063978829421103,-0.009609228000044823,0.015778768807649612
1733704490187340800,7.0743408203125,0.007566729094833136,-0.009357739239931107,0.016941381618380547
1733704490197306600,7.084306640625,0.008444507606327534,-0.009271718561649323,0.017180798575282097
1733704490207273700,7.094273681640625,0.0078065176494419575,-0.012868812307715416,0.02113918960094452
1733704490217240600,7.104240478515625,0.006992655340582132,-0.013514097779989243,0.021062757819890976
1733704490227206700,7.11420654296875,0.007776834536343813,-0.01534181833267212,0.019125115126371384
1733704490237173500,7.124173583984375,0.007940085604786873,-0.015486694872379303,0.019323255866765976
1733704490247139600,7.1341396484375,0.009910095483064651,-0.016257036477327347,0.019492225721478462
1733704490257106400,7.1441064453125,0.008438699878752232,-0.01965576410293579,0.016564080491662025
1733704490267072800,7.15407275390625,0.008917929604649544,-0.021176490932703018,0.014925154857337475
1733704490277039900,7.164039794921875,0.006350908428430557,-0.018678179010748863,0.014611167833209038
1733704490287005700,7.174005615234375,0.006228760816156864,-0.01938805542886257,0.01244495902210474
1733704490296972800,7.183972900390625,0.0067344955168664455,-0.014965077862143517,0.009448103606700897
1733704490306939600,7.193939697265625,0.0023792802821844816,-0.008097587153315544,0.006242386996746063
1733704490316906000,7.203906005859375,0.0005142685258761048,0.002626430243253708,0.0005658593727275729
1733704490326872800,7.213872802734375,-0.002951954025775194,0.014104923233389854,-0.0010815022978931665
1733704490336839000,7.2238388671875,1.5995465219020844e-7,0.022700540721416473,-0.006775872781872749
1733704490346805800,7.2338056640625,-0.0009976791916415095,0.027078984305262566,-0.007913033477962017
1733704490356771800,7.243771728515625,0.0014859847724437714,0.027082713320851326,-0.008580155670642853
1733704490366738700,7.25373876953125,-0.00011425145203247666,0.027061928063631058,-0.007412532344460487
1733704490376705000,7.263705078125,0.00014141201972961426,0.02309435047209263,-0.005942733958363533
1733704490386671900,7.273671875,0.00191075901966542,0.013015629723668098,-0.006499161943793297
1733704490396638000,7.283637939453125,0.0011711991392076015,0.004105758387595415,-0.003921487368643284
1733704490406605000,7.29360498046875,0.000958296179305762,-0.003747795708477497,-0.0026095157954841852
1733704490416572000,7.303572021484375,-0.0005852720350958407,-0.011653389781713486,0.0010225033620372415
1733704490426538000,7.3135380859375,0.0005959024420008063,-0.015859734266996384,0.004873301833868027
1733704490436504800,7.3235048828125,0.0018039122223854065,-0.013151565566658974,0.008401723578572273
1733704490446471000,7.333470947265625,0.0014677154831588268,-0.010126139968633652,0.007764062378555536
1733704490456437800,7.343437744140625,0.002230444923043251,-0.006558304652571678,0.006359245162457228
1733704490466403800,7.35340380859375,0.0027818428352475166,-0.0007177330553531647,0.0051988293416798115
1733704490476370700,7.36337060546875,0.0012739612720906734,-0.002163030207157135,0.005025723949074745
1733704490486337000,7.3733369140625,0.0033467013854533434,-0.00686979666352272,0.004484865814447403
1733704490496303900,7.383303955078125,0.007366476580500603,-0.007502563297748566,0.0029170629568398
1733704490506270000,7.39327001953125,0.00873290654271841,-0.006012072786688805,0.0020020264200866222
1733704490516236800,7.40323681640625,0.010665562935173512,-0.0033904574811458588,0.003392728976905346
1733704490526203000,7.413202880859375,0.00858945120126009,0.00015619955956935883,0.002056099707260728
1733704490536170000,7.423169921875,0.005897794850170612,0.0011530201882123947,0.0021623598877340555
1733704490546136800,7.43313671875,0.0018264248501509428,-0.003662289120256901,0.0010778099531307817
1733704490556103000,7.44310302734375,-0.002880179788917303,-0.005920384079217911,0.0032067408319562674
1733704490566069800,7.45306982421875,-0.0052598146721720695,-0.005034441128373146,0.002772037172690034
1733704490576036000,7.4630361328125,-0.003600931726396084,-0.0062831975519657135,-0.0005851436872035265
1733704490586003000,7.4730029296875,-0.0031137908808887005,-0.004030383192002773,-0.0039031358901411295
1733704490595969000,7.482968994140625,-0.0028954115696251392,0.0005574449896812439,-0.004164658486843109
1733704490605935900,7.492935791015625,-0.0018071567174047232,0.0028672227635979652,-0.004808897152543068
1733704490615902000,7.50290185546875,-0.0017714702989906073,0.00501985615119338,-0.004138845484703779
1733704490625868800,7.512868896484375,-0.0009399959235452116,0.001830429770052433,-0.0028536594472825527
1733704490635836000,7.5228359375,0.0006174207082949579,-0.0021126465871930122,-0.002245127223432064
1733704490645801700,7.5328017578125,-0.0017880341038107872,-0.002728387713432312,-0.0020267278887331486
1733704490655768800,7.542768798828125,-0.00007242587162181735,-0.0009555211290717125,-0.002158554270863533
1733704490665735000,7.55273486328125,0.0005449653253890574,0.002003466710448265,-0.00041615800000727177
1733704490675701800,7.56270166015625,0.002435809699818492,0.006731110159307718,-0.005649535916745663
1733704490685668000,7.572668212890625,0.004568896256387234,0.010811413638293743,-0.00663687102496624
1733704490695635000,7.582635009765625,0.0067271217703819275,0.014951031655073166,-0.0075247688218951225
1733704490705601000,7.59260107421875,0.007167358882725239,0.012473560869693756,-0.007172075100243092
1733704490715567900,7.60256787109375,0.005993970204144716,0.01051320880651474,-0.00764185655862093
1733704490725534000,7.612533935546875,0.005910950712859631,0.008816724643111229,-0.007905354723334312
1733704490735500800,7.622500732421875,0.004276568535715342,0.008454801514744759,-0.009404714219272137
1733704490745468000,7.632468017578125,0.0006395075470209122,0.011933861300349236,-0.01366431824862957
1733704490755433700,7.642433837890625,-0.0028516303282231092,0.019021065905690193,-0.014649422839283943
1733704490765400800,7.65240087890625,-0.003554719500243664,0.018446020781993866,-0.016272446140646935
1733704490775366700,7.66236669921875,-0.0010103352833539248,0.017700601369142532,-0.017295898869633675
1733704490785333800,7.672333740234375,0.0005640696035698056,0.02285553514957428,-0.01755375601351261
1733704490795300000,7.682300048828125,0.0007728614727966487,0.022771112620830536,-0.02150695212185383
1733704490805267000,7.692266845703125,0.002631930634379387,0.021088507026433945,-0.02413574419915676
1733704490815233000,7.70223291015625,0.000665718805976212,0.020254936069250107,-0.025615129619836807
1733704490825199900,7.712199951171875,-0.0019482308998703957,0.02111499197781086,-0.022397026419639587
1733704490835166000,7.722166015625,-0.0016608757432550192,0.019215360283851624,-0.020403385162353516
1733704490845132800,7.7321328125,0.0008119387202896178,0.01897871494293213,-0.02160966955125332
1733704490855100000,7.742099853515625,-0.0035495201591402292,0.014841759577393532,-0.01998487487435341
1733704490865065700,7.752065673828125,-0.004866596311330795,0.011613576672971249,-0.02165818400681019
1733704490875032800,7.76203271484375,-0.004281765781342983,0.008681169711053371,-0.021197989583015442
1733704490884999000,7.7719990234375,-0.00422107707709074,0.004821312613785267,-0.018477221950888634
1733704490894965800,7.7819658203125,-0.003129181219264865,0.004213845822960138,-0.018420230597257614
1733704490904931800,7.791931884765625,-0.005845112260431051,0.003844919614493847,-0.01760314404964447
1733704490914899000,7.80189892578125,-0.005259216763079166,0.004136003088206053,-0.017883043736219406
1733704490924865000,7.811864990234375,-0.0044298176653683186,0.008303596638143063,-0.016257205978035927
1733704490934831900,7.821831787109375,-0.004376021679490805,0.011464502662420273,-0.011364713311195374
1733704490944798000,7.8317978515625,-0.005420178174972534,0.01617090217769146,-0.010204184800386429
1733704490954764800,7.841764892578125,-0.005168243311345577,0.01929425820708275,-0.007755408063530922
1733704490964732000,7.85173193359375,-0.0018723306711763144,0.021937375888228416,-0.008687872439622879
1733704490974697700,7.86169775390625,-0.0008158547570928931,0.019812706857919693,-0.00905592180788517
1733704490984664800,7.871664794921875,-0.00036001100670546293,0.017755981534719467,-0.009110825136303902
1733704490994631000,7.881630859375,0.003677074797451496,0.015876853838562965,-0.0057645621709525585
1733704491004598000,7.891597900390625,0.002516592387109995,0.01101242657750845,-0.005146219860762358
1733704491014563800,7.901563720703125,0.002950421068817377,0.010069667361676693,-0.0043893493711948395
1733704491024531000,7.911531005859375,0.0033858479000627995,0.00921319518238306,-0.0034175622276961803
1733704491034496800,7.921496826171875,0.0030652033165097237,0.006384118925780058,-0.002681997139006853
1733704491044463900,7.9314638671875,0.004007789306342602,0.006846454925835133,-0.0031901546753942966
1733704491054430000,7.941429931640625,0.0016072159633040428,0.005625129211694002,-0.0024359473027288914
1733704491064396800,7.951396728515625,-0.0019581380765885115,0.005601820070296526,-0.002427144907414913
1733704491074364000,7.961364013671875,-0.004002646543085575,0.002387651242315769,-0.0019009043462574482
1733704491084329700,7.971329833984375,-0.0044426871463656425,-0.004922053776681423,-0.0010329941287636757
1733704491094296800,7.981296875,-0.005955362692475319,-0.011341337114572525,-0.00015974370762705803
1733704491104263000,7.991262939453125,-0.0076118353754282,-0.01938832364976406,0.002548050135374069
1733704491114230000,8.00122998046875,-0.005033096298575401,-0.0213641244918108,0.004128369968384504
1733704491124195800,8.01119580078125,-0.006297700107097626,-0.025037012994289398,0.0022491265553981066
1733704491134163000,8.021162841796874,-0.006966153625398874,-0.02258743718266487,0.0023710993118584156
1733704491144128800,8.031128662109374,-0.007518216967582703,-0.023430567234754562,0.004226153716444969
1733704491154095900,8.041095947265624,-0.007729405537247658,-0.020007608458399773,0.004656520672142506
1733704491164061700,8.051061767578124,-0.0036904551088809967,-0.018450723960995674,0.004115100018680096
1733704491174028800,8.06102880859375,-0.003180193714797497,-0.01668877713382244,0.003919890150427818
1733704491183996000,8.070995849609375,-0.003147684969007969,-0.013547778129577637,0.0024999817833304405
1733704491193962000,8.0809619140625,0.00008512614294886589,-0.009043039754033089,0.0012030224315822124
1733704491203928800,8.0909287109375,-0.000133430992718786,-0.007858874276280403,0.0021756200585514307
1733704491213895000,8.10089501953125,-0.0005275788134895265,-0.005502508953213692,0.001239518984220922
1733704491223862000,8.110862060546875,-0.0007979334332048893,-0.0012672878801822662,0.0010513901943340898
1733704491233827800,8.120827880859375,-0.0026267264038324356,-0.00019296910613775253,0.0007382024778053164
1733704491243795000,8.130794921875,-0.0018319059163331985,-0.001500987447798252,0.00036761024966835976
1733704491253760800,8.1407607421875,-0.004510779399424791,-0.002190479077398777,0.0001729333307594061
1733704491263727900,8.150727783203125,-0.003553141141310334,-0.003482196480035782,-0.0015642251819372177
1733704491273693700,8.160693603515625,-0.002332081785425544,-0.0032036295160651207,-0.001063816947862506
1733704491283660800,8.170660888671875,-0.0028374248649924994,-0.0009352089837193489,-0.002433494199067354
1733704491293627000,8.180626953125,-0.002569511067122221,0.0010837335139513016,-0.0005564980674535036
1733704491303594000,8.190593994140626,0.000006801041308790445,0.006761395372450352,-0.000361037440598011
1733704491313561000,8.20056103515625,-0.0044710380025208,0.009928693063557148,-0.0009618466719985008
1733704491323527000,8.21052685546875,-0.004935909062623978,0.009276969358325005,-0.0032135527580976486
1733704491333494000,8.220493896484374,-0.005167338065803051,0.008689209818840027,-0.0013421494513750076
1733704491343459800,8.2304599609375,-0.005887066014111042,0.01309950277209282,-0.0029845661483705044
1733704491353427000,8.240427001953124,-0.004770668689161539,0.01274876482784748,-0.0026868246495723724
1733704491363392800,8.250392822265624,-0.0031681384425610304,0.0027991202659904957,-0.0012462199665606022
1733704491373359900,8.26035986328125,-0.0012101824395358562,-0.0034143002703785896,0.0007839077152311802
1733704491383325700,8.27032568359375,-0.0005070889019407332,-0.01234450563788414,0.0034317420795559883
1733704491393292800,8.280292724609374,-0.002588615519925952,-0.01734352484345436,0.005144687369465828
1733704491403260000,8.290260009765625,-0.004420981276780367,-0.02418604865670204,0.008113810792565346
1733704491413226000,8.30022607421875,-0.0037882141768932343,-0.028711561113595963,0.008241375908255577
1733704491423193000,8.310193115234375,-0.002659259596839547,-0.028556715697050095,0.010056198574602604
1733704491433159000,8.320158935546875,-0.007396490313112736,-0.025130826979875565,0.011592309921979904
1733704491443126000,8.3301259765625,-0.005202543456107378,-0.023010171949863434,0.009464389644563198
1733704491453091800,8.340091796875,-0.005163661204278469,-0.023999802768230438,0.006842241622507572
1733704491463059000,8.350058837890625,-0.004394203890115023,-0.02817382477223873,0.005165138281881809
1733704491473024800,8.360024658203125,-0.003831477602943778,-0.02780098281800747,0.004042616114020348
1733704491482991900,8.369991943359375,-0.002830502577126026,-0.024245696142315865,0.008176242932677269
1733704491492958000,8.3799580078125,-0.0033444929867982864,-0.02019502781331539,0.012374716810882092
1733704491502924800,8.3899248046875,-0.001883411081507802,-0.018847784027457237,0.014657733030617237
1733704491512891000,8.399890869140625,-0.00226956931874156,-0.02007203921675682,0.019965147599577904
1733704491522858000,8.40985791015625,-0.0006232898449525237,-0.01935577765107155,0.022834956645965576
1733704491532825000,8.4198251953125,-0.002581245731562376,-0.019173352047801018,0.024075191468000412
1733704491542791000,8.429791015625,-0.001617130357772112,-0.02085232175886631,0.026418043300509453
1733704491552758000,8.439758056640626,0.002638867124915123,-0.02199428714811802,0.025708843022584915
1733704491562723800,8.449723876953126,0.0031212475150823593,-0.022396594285964966,0.026342252269387245
1733704491572691000,8.45969091796875,0.00738230487331748,-0.02536788210272789,0.02890714257955551
1733704491582656800,8.46965673828125,0.009228343144059181,-0.030359899625182152,0.028883451595902443
1733704491592623900,8.479623779296874,0.012301631271839142,-0.033787116408348083,0.028773197904229164
1733704491602590000,8.48958984375,0.013013423420488834,-0.03291488438844681,0.027469690889120102
1733704491612557000,8.49955712890625,0.009971560910344124,-0.03274204581975937,0.02548377215862274
1733704491622523000,8.50952294921875,0.008113563060760498,-0.032848555594682693,0.02367013692855835
1733704491632490000,8.519489990234375,0.008915973827242851,-0.041932329535484314,0.020431999117136
1733704491642457000,8.52945703125,0.010732113383710384,-0.04714814946055412,0.019574377685785294
1733704491652423000,8.5394228515625,0.010529712773859501,-0.04323649778962135,0.015222772024571896
1733704491662390000,8.54939013671875,0.01173942070454359,-0.043852709233760834,0.01126758474856615
1733704491672355800,8.55935595703125,0.009681596420705318,-0.04447589069604874,0.00837459322065115
1733704491682323000,8.569322998046875,0.01015336625277996,-0.03721681237220764,0.0076448433101177216
1733704491692288800,8.579288818359375,0.0037109130062162876,-0.02902412973344326,0.011354359798133373
1733704491702255900,8.589255859375,0.0009399295086041093,-0.018537426367402077,0.007066881749778986
1733704491712222000,8.599221923828125,-0.0034987609833478928,-0.0022239666432142258,0.0014393561286851764
1733704491722189000,8.60918896484375,-0.0065711610950529575,0.010495415888726711,-0.0029567130841314793
1733704491732155000,8.61915478515625,-0.007255593314766884,0.022470586001873016,-0.006351711228489876
1733704491742122000,8.6291220703125,-0.008107855916023254,0.03232423961162567,-0.006269722245633602
1733704491752088800,8.6390888671875,-0.006639388855546713,0.036972519010305405,-0.00643670279532671
1733704491762055000,8.649054931640626,-0.0009033946553245187,0.038631923496723175,-0.008743982762098312
1733704491772022000,8.65902197265625,0.0023746902588754892,0.03379083052277565,-0.011784780770540237
1733704491781987800,8.66898779296875,0.001319554285146296,0.032689642161130905,-0.014077861793339252
1733704491791955000,8.678954833984376,0.0014601692091673613,0.03194715082645416,-0.015176682732999325
1733704491801920800,8.688920654296876,-0.0015621618367731571,0.03349686041474342,-0.01487630233168602
1733704491811887900,8.698887939453124,-0.001478272257372737,0.036519814282655716,-0.014001453295350075
1733704491821854000,8.70885400390625,-0.002205617493018508,0.035071879625320435,-0.012204296886920929
1733704491831821000,8.718821044921874,-0.003274344140663743,0.029408134520053864,-0.010359259322285652
1733704491841787000,8.728786865234374,-0.00004845741204917431,0.019714336842298508,-0.006302965804934502
1733704491851754000,8.73875390625,-0.0001808165106922388,0.009006565436720848,-0.002732998225837946
1733704491861720800,8.748720947265625,0.002315470017492771,0.0003621364012360573,0.0003947191871702671
1733704491871687000,8.75868701171875,0.0037447884678840637,-0.0061181336641311646,0.0013529245043173432
1733704491881653800,8.76865380859375,0.00009018619311973453,-0.005635259672999382,0.00029461830854415894
1733704491891619800,8.778619873046875,-0.0006475094705820084,-0.0038674529641866684,0.0032800217159092426
1733704491901587000,8.7885869140625,0.00022617046488448977,-0.0015343455597758293,0.005656554829329252
1733704491911553000,8.798552978515625,0.0016805226914584637,-0.004541054368019104,0.007198791950941086
1733704491921519900,8.808519775390625,0.0013227686285972595,-0.008127495646476746,0.007800626568496227
1733704491931486000,8.81848583984375,0.002297485712915659,-0.012507330626249313,0.006901009939610958
1733704491941453000,8.828453125,0.0013639405369758606,-0.016973644495010376,0.007016225717961788
1733704491951419000,8.8384189453125,0.00015939271543174982,-0.017437832430005074,0.007260438054800034
1733704491961386000,8.848385986328125,0.0031771634239703417,-0.016815710812807083,0.006373148411512375
1733704491971352800,8.858352783203125,0.0020727503579109907,-0.020397929474711418,0.007506323512643576
1733704491981319000,8.86831884765625,0.003994257189333439,-0.027148112654685974,0.008153383620083332
1733704491991285800,8.87828564453125,0.000871434691362083,-0.02705889567732811,0.0072204782627522945
1733704492001251800,8.888251953125,-0.00195700372569263,-0.02913559228181839,0.003684733062982559
1733704492011218700,8.89821875,-0.0023812453728169203,-0.0255722813308239,0.003465022426098585
1733704492021185000,8.90818505859375,-0.002463923767209053,-0.01997857540845871,0.0024357824586331844
1733704492031152000,8.918152099609374,0.0005595631082542241,-0.012185633182525635,0.002013937570154667
1733704492041118000,8.928117919921876,0.0016550596337765455,-0.0038757091388106346,0.0009169989498332143
1733704492051085000,8.9380849609375,0.0003578338655643165,0.00650396104902029,-0.001104074064642191
1733704492061051000,8.94805078125,-0.0003436068072915077,0.016355767846107483,-0.005808071233332157
1733704492071018000,8.95801806640625,0.0014215363189578056,0.023276522755622864,-0.009502940811216831
1733704492080984800,8.96798486328125,0.001109010772779584,0.03193524479866028,-0.013636782765388489
1733704492090951000,8.977950927734375,-0.0008196505368687212,0.03830605745315552,-0.014402974396944046
1733704492100917800,8.987917724609375,-0.0006642343942075968,0.036905959248542786,-0.014324470423161983
1733704492110883800,8.9978837890625,-0.0009148379322141409,0.028656816110014915,-0.012659196741878986
1733704492120850700,9.0078505859375,-0.00012036232510581613,0.02378540299832821,-0.010755004361271858
1733704492130817000,9.017817138671875,-0.00015205395175144076,0.013387090526521206,-0.00980292446911335
1733704492140783900,9.027783935546875,-0.0021929775830358267,0.010975432582199574,-0.00927805807441473
1733704492150750000,9.03775,-0.003986083436757326,0.010795136913657188,-0.008281770162284374
1733704492160717000,9.047717041015625,-0.005189848132431507,0.010344352573156357,-0.005948432721197605
1733704492170683000,9.057682861328125,-0.004510209430009127,0.0056611839681863785,-0.002939593279734254
1733704492180650000,9.06764990234375,-0.0022301541175693274,0.006157806143164635,-0.0014860511291772127
1733704492190615800,9.07761572265625,-0.005920496303588152,0.0043242196552455425,-0.0023457196075469255
1733704492200583000,9.0875830078125,-0.004511330276727676,0.005461141932755709,-0.00539106409996748
1733704492210549800,9.0975498046875,-0.003479089355096221,0.0030342028476297855,-0.008151164278388023
1733704492220515800,9.107515869140625,-0.003969909623265266,0.0012184595689177513,-0.007512005046010017
1733704492230483000,9.11748291015625,-0.00339892809279263,0.0024714767932891846,-0.007476053200662136
1733704492240449000,9.127448974609376,-0.0017750918632373214,0.0027768672443926334,-0.003517430741339922
1733704492250415900,9.137415771484376,0.001302457065321505,0.003426145762205124,-0.0011482825502753258
1733704492260382000,9.1473818359375,-0.00041561940452083945,0.0035937088541686535,0.00036477064713835716
1733704492270348800,9.157348876953124,0.000772683008108288,0.0017518671229481697,-0.00003390456549823284
1733704492280315000,9.16731494140625,-0.0004747932543978095,0.0016635637730360031,-0.0011487717274576426
1733704492290282000,9.177281982421874,0.001630435581319034,0.00086168572306633,0.002172989072278142
1733704492300247800,9.187247802734374,0.002416514325886965,-0.004085262306034565,-0.00004463898949325085
1733704492310215000,9.19721484375,0.00016880640760064125,-0.004683408886194229,-0.0014238902367651463
1733704492320181800,9.207181640625,0.0022710131015628576,-0.005927650257945061,-0.0019466422963887453
1733704492330148000,9.217148193359375,-0.0008358305203728378,-0.00886857882142067,-0.0006792440544813871
1733704492340115000,9.227114990234375,0.00009542540647089481,-0.009821610525250435,0.0012967530637979507
1733704492350081000,9.2370810546875,-0.0013370888773351908,-0.009139841422438622,-0.001326460624113679
1733704492360047900,9.2470478515625,-0.002546455478295684,-0.0024034706875681877,0.0009521509055048227
1733704492370014000,9.257013916015625,-0.005089507903903723,0.002353200688958168,0.0018142161425203085
1733704492379980800,9.266980712890625,-0.007669056765735149,0.00672916229814291,-0.0004283867310732603
1733704492389947000,9.27694677734375,-0.012483518570661545,-0.0021266471594572067,-0.004098222590982914
1733704492399913700,9.286913818359375,-0.013134906068444252,0.0032687122002243996,-0.0064987121149897575
1733704492409879800,9.2968798828125,-0.015727227553725243,0.007653872948139906,-0.007068894803524017
1733704492419847000,9.306846923828125,-0.01935674622654915,0.014802741818130016,-0.008627740666270256
1733704492429813800,9.316813720703125,-0.022293947637081146,0.01901346445083618,-0.008103630505502224
1733704492439780000,9.326780029296875,-0.018306059762835503,0.016192756593227386,-0.012783745303750038
1733704492449747000,9.336746826171876,-0.01007209811359644,0.014633210375905037,-0.013578698970377445
1733704492459713000,9.346713134765626,-0.00145414425060153,0.014883146621286869,-0.012558621354401112
1733704492469679900,9.356679931640626,0.005944649688899517,0.01594921015202999,-0.008359881117939949
1733704492479646000,9.36664599609375,0.009901969693601131,0.018731556832790375,-0.005870472639799118
1733704492489612800,9.37661279296875,0.010172014124691486,0.02411327324807644,-0.005842242389917374
1733704492499579000,9.386578857421876,0.013259625062346458,0.027358300983905792,-0.006009517703205347
1733704492509545700,9.396545654296874,0.011746949516236782,0.024962786585092545,-0.006684362422674894
1733704492519512000,9.406511962890624,0.007984169758856297,0.02030598372220993,-0.0017868094146251678
1733704492529479000,9.41647900390625,0.005911697633564472,0.010718603618443012,-0.0009034387767314911
1733704492539445000,9.426445068359374,0.0033785703126341105,-0.004373582080006599,0.003490665229037404
1733704492549412000,9.436412109375,0.0012421825667843223,-0.012689037248492241,0.005481111817061901
1733704492559379000,9.44637890625,-0.005432251840829849,-0.017100093886256218,0.008771892637014389
1733704492569345000,9.456344970703125,-0.008416855707764626,-0.026695461943745613,0.008828084915876389
1733704492579311900,9.466311767578125,-0.007961987517774105,-0.029515216127038002,0.010476582683622837
1733704492589278000,9.47627783203125,-0.010440858080983162,-0.030538668856024742,0.00714123947545886
1733704492599244800,9.486244873046875,-0.0038554652128368616,-0.026701007038354874,0.00317936553619802
1733704492609211000,9.4962109375,-0.0016365190967917442,-0.01475779339671135,0.0019132987363263965
1733704492619177700,9.506177734375,0.0002455994253978133,-0.007362745702266693,0.0014284236822277308
1733704492629144000,9.51614404296875,0.0012160553596913815,0.0022864192724227905,0.0012401381973177195
1733704492639111000,9.52611083984375,0.005992019083350897,0.010410922579467297,-0.00014450703747570515
1733704492649077000,9.536076904296875,0.006558740045875311,0.018546346575021744,-0.00383564829826355
1733704492659043800,9.5460439453125,0.005055280402302742,0.025190476328134537,-0.00799614004790783
1733704492669011000,9.556010986328126,0.0033162361942231655,0.0291878804564476,-0.010258495807647705
1733704492678977000,9.56597705078125,0.00022153701866045594,0.027224723249673843,-0.009633882902562618
1733704492688943900,9.57594384765625,0.002646877896040678,0.02172263339161873,-0.008667155168950558
1733704492698910000,9.585909912109376,0.00005666626384481788,0.013308311812579632,-0.005547081120312214
1733704492708876800,9.595876708984376,0.004506275989115238,0.004009884782135487,-0.001525441650301218
1733704492718843000,9.6058427734375,0.0033516224939376116,-0.0007638204842805862,-0.00024448824115097523
1733704492728809700,9.615809814453126,0.003668805118650198,-0.00027007050812244415,0.0007760350126773119
1733704492738776000,9.625776123046874,0.004445893689990044,0.00521331699565053,0.0013890102272853255
1733704492748743000,9.635742919921874,0.0055649541318416595,0.012342332862317562,-0.00030262977816164494
1733704492758709000,9.645708984375,0.003298905910924077,0.01578843593597412,0.0019386308267712593
1733704492768675800,9.65567578125,0.00018966547213494778,0.0125636151060462,0.0016597978537902236
1733704492778643000,9.665642822265625,0.0006496881833299994,0.004966425243765116,0.0031692488119006157
1733704492788608800,9.67560888671875,-0.0001404717331752181,-0.00034125521779060364,0.004030248615890741
1733704492798575900,9.685575927734375,-0.0013155334163457155,-0.006044674664735794,0.0067151617258787155
1733704492808542000,9.6955419921875,-0.00190648902207613,-0.015580123290419579,0.008555938489735126
1733704492818508800,9.7055087890625,-0.0006300039240159094,-0.02372819185256958,0.011926883831620216
1733704492828475000,9.715474853515625,0.001769237918779254,-0.02836635336279869,0.013539161533117294
1733704492838441700,9.725441650390625,-0.00012889865320175886,-0.03266100585460663,0.018069593235850334
1733704492848408000,9.735407958984375,0.0018777932273223996,-0.03368658944964409,0.019396645948290825
1733704492858375000,9.745375,0.005204326473176479,-0.026821449398994446,0.019461575895547867
1733704492868341000,9.755341064453125,0.008463769219815731,-0.018087079748511314,0.0171321090310812
1733704492878307800,9.765307861328125,0.009979231283068657,-0.008172668516635895,0.01645905151963234
1733704492888275000,9.77527490234375,0.011412011459469795,-0.00006254483014345169,0.018009809777140617
1733704492898240800,9.78524072265625,0.013762570917606354,-0.002249649725854397,0.01800827868282795
1733704492908207900,9.795207763671876,0.013056566938757896,-0.010078277438879013,0.017605874687433243
1733704492918173700,9.805173583984375,0.011433747597038746,-0.019581424072384834,0.015380600467324257
1733704492928140800,9.815140869140626,0.011692340485751629,-0.023066170513629913,0.013790959492325783
1733704492938107100,9.825107177734376,0.010318624787032604,-0.022171277552843094,0.010157077573239803
1733704492948074000,9.835073974609376,0.0074551948346197605,-0.017662812024354935,0.011628740467131138
1733704492958040000,9.8450400390625,0.006019520107656717,-0.017306772992014885,0.014856169931590557
1733704492968007000,9.8550068359375,0.0038234773091971874,-0.02305520698428154,0.017698561772704124
1733704492977973000,9.864972900390624,-0.0019855499267578125,-0.029406746849417686,0.020126251503825188
1733704492987939800,9.87493994140625,-0.00345934322103858,-0.031796932220458984,0.01936618611216545
1733704492997907000,9.884906982421874,-0.006817965302616358,-0.031276050955057144,0.016189705580472946
1733704493007872800,9.894872802734374,-0.006853917613625526,-0.024901505559682846,0.011588563211262226
1733704493017839900,9.90483984375,-0.007252770476043224,-0.014441020786762238,0.00611737510189414
1733704493027805700,9.9148056640625,-0.005099604371935129,-0.0017678355798125267,0.001924227923154831
1733704493037772800,9.924772705078125,-0.004398338962346315,0.010795509442687035,-0.003756231162697077
1733704493047739000,9.93473876953125,-0.005592233967036009,0.020070767030119896,-0.007924078032374382
1733704493057706000,9.9447060546875,0.00006325257709249854,0.02771047130227089,-0.009236246347427368
1733704493067672000,9.954672119140625,0.0006552733248099685,0.03474894165992737,-0.009805897250771523
1733704493077639000,9.964638916015625,0.0013132391031831503,0.03706052154302597,-0.009433992207050323
1733704493087605000,9.97460498046875,0.004378271289169788,0.03837985545396805,-0.009902175515890121
1733704493097571800,9.98457177734375,0.0036801486276090145,0.0305052287876606,-0.009856999851763248
1733704493107539000,9.9945390625,0.0030425875447690487,0.023636937141418457,-0.009090808220207691
1733704493117504800,10.0045048828125,0.005812346935272217,0.015233548358082771,-0.005996061023324728
1733704493127471900,10.014471923828125,0.00772689376026392,0.006364156026393175,-0.002547533717006445
1733704493137437700,10.024437744140625,0.008473231457173824,0.0003767833113670349,-0.004494045861065388
1733704493147404800,10.03440478515625,0.0070694792084395885,-0.0016528116539120674,-0.005169423297047615
1733704493157371000,10.044370849609376,0.004695255775004625,0.000586305744946003,-0.0013412220869213343
1733704493167338000,10.054337890625,0.0001135536003857851,0.00008350051939487457,0.0007339130388572812
1733704493177303800,10.0643037109375,-0.0003861294244416058,0.0033439546823501587,0.004784930031746626
1733704493187271000,10.07427099609375,-0.0029528841841965914,-0.0038532381877303123,0.00515404436737299
1733704493197237000,10.084237060546876,0.001770820003002882,-0.012990772724151611,0.0056576794013381
1733704493207203800,10.094203857421874,0.003959405701607466,-0.012124979868531227,0.005605215206742287
1733704493217171000,10.1041708984375,0.0044306423515081406,-0.0054296888411045074,0.004885585978627205
1733704493227136800,10.11413671875,0.002716631628572941,0.00204607006162405,0.0033763726241886616
1733704493237103900,10.124103759765624,0.0033421802800148726,0.006136858370155096,0.0028248457238078117
1733704493247070000,10.134070068359375,0.004216496367007494,0.004303804598748684,0.002646680222824216
1733704493257036800,10.144036865234375,0.006177660543471575,-0.0006689354777336121,0.004172799177467823
1733704493267003000,10.1540029296875,0.005591499153524637,-0.008891977369785309,0.004340844228863716
1733704493276970000,10.163969970703125,0.004693797789514065,-0.014618685469031334,0.007596361450850964
1733704493286935800,10.173935791015625,0.0034769997000694275,-0.020892824977636337,0.006903407163918018
1733704493296903000,10.18390283203125,0.0036706833634525537,-0.022710487246513367,0.004986618645489216
1733704493306868700,10.19386865234375,0.005281895399093628,-0.02171233296394348,0.002695767441764474
1733704493316836400,10.20383642578125,0.003417488420382142,-0.017236674204468727,0.0011795179452747107
1733704493326802400,10.213802490234375,0.002253687009215355,-0.011874932795763016,0.0008034795755520463
1733704493336769300,10.223769287109375,0.0007178044761531055,-0.007886182516813278,0.001017155358567834
1733704493346736400,10.233736328125,-0.0019597376231104136,-0.0020570550113916397,-0.0019139195792376995
1733704493356702200,10.2437021484375,-0.002612318145111203,0.00511507224291563,-0.0022477468010038137
1733704493366669300,10.25366943359375,-0.003087159711867571,0.010317823849618435,-0.004441392607986927
1733704493376635400,10.263635498046876,-0.002823009854182601,0.014930709265172482,-0.0045822178944945335
1733704493386602500,10.2736025390625,0.0015645481180399656,0.017922503873705864,-0.007657104171812534
1733704493396568300,10.283568359375,0.0009040125296451151,0.02223208174109459,-0.008471919223666191
1733704493406535400,10.293535400390626,0.00046858572750352323,0.022425692528486252,-0.011661054566502571
1733704493416501200,10.303501220703126,0.001206052489578724,0.023672133684158325,-0.010285025462508202
1733704493426468400,10.31346826171875,0.0016622518887743354,0.02833373099565506,-0.011051483452320099
1733704493436435500,10.323435546875,0.0012153182178735733,0.029691794887185097,-0.008225666359066963
1733704493446401300,10.3334013671875,0.0015101302415132523,0.032344572246074677,-0.009691737592220306
1733704493456368400,10.343368408203125,-0.0011471719481050968,0.030892347916960716,-0.010520245879888535
1733704493466334500,10.35333447265625,-0.002105643507093191,0.029568225145339966,-0.012570613995194435
1733704493476301300,10.36330126953125,-0.00252921087667346,0.02633265219628811,-0.013223043642938137
1733704493486267400,10.373267333984375,-0.004153472371399403,0.028834424912929535,-0.01365580689162016
1733704493496234500,10.383234375,-0.005126075819134712,0.029225202277302742,-0.012203175574541092
1733704493506200300,10.393200439453125,-0.0028445457573980093,0.03330117091536522,-0.012059365399181843
1733704493516167400,10.40316748046875,-0.0021815772633999586,0.03486516699194908,-0.012374050915241241
1733704493526133200,10.41313330078125,-0.0007048544357530773,0.033867813646793365,-0.011141007766127586
1733704493536100400,10.423100341796875,0.00034984436933882535,0.03018239326775074,-0.010447775013744831
1733704493546066200,10.433066162109375,0.0005684898933395743,0.02175029180943966,-0.010057088918983936
1733704493556033300,10.443033203125,0.0009579323814250529,0.01790667697787285,-0.011124206706881523
1733704493566000400,10.45300048828125,-0.0005355682806111872,0.010434911586344242,-0.010668539442121983
1733704493575966500,10.462966552734375,0.00014080345863476396,0.004938197322189808,-0.008032165467739105
1733704493585933600,10.47293359375,0.00034080687328241765,0.00045236852020025253,-0.0069578466936945915
1733704493595899400,10.4828994140625,-0.0018543656915426254,-0.002857724204659462,-0.0045275562442839146
1733704493605866500,10.492866455078126,0.0010825683129951358,-0.005378140136599541,-0.0021853060461580753
1733704493615832300,10.502832275390626,0.00210554338991642,-0.004778889939188957,-0.000043560052290558815
1733704493625799400,10.51279931640625,0.003923417069017887,-0.00828840397298336,0.0006235619075596333
1733704493635765200,10.52276513671875,0.003811226226389408,-0.013177381828427315,0.003161932108923793
1733704493645732400,10.532732421875,0.0029049525037407875,-0.01561497338116169,0.004370741080492735
1733704493655698200,10.5426982421875,0.0017489978345111012,-0.01752675697207451,0.001289153820835054
1733704493665665300,10.552665283203124,0.003954095300287008,-0.020933739840984344,0.0016854321584105492
1733704493675632400,10.56263232421875,0.0027061060536652803,-0.02071549743413925,0.003888215869665146
1733704493685598500,10.572598388671874,0.005277121905237436,-0.014783306047320366,0.004187821410596371
1733704493695565600,10.582565673828125,0.004256718792021275,-0.00591098889708519,0.003398920875042677
1733704493705531400,10.592531494140625,0.004957929253578186,-0.001746070571243763,-0.00018143304623663425
1733704493715498500,10.60249853515625,0.005131993908435106,0.007844577543437481,-0.0038689463399350643
1733704493725464300,10.61246435546875,0.0022046472877264023,0.012782877311110497,-0.006505209021270275
1733704493735431400,10.622431396484375,0.0002553737140260637,0.012611604295670986,-0.006507739424705505
1733704493745397200,10.632397216796875,-0.002540146466344595,0.01410909928381443,-0.006547953002154827
1733704493755364400,10.6423642578125,-0.0004109136643819511,0.017341727390885353,-0.009551489725708961
1733704493765330400,10.652330322265625,0.0010367806535214186,0.021439798176288605,-0.012428236193954945
1733704493775297300,10.66229736328125,0.0007545379921793938,0.024181298911571503,-0.01054108515381813
1733704493785264400,10.672264404296875,0.0006954158307053149,0.019139669835567474,-0.013472959399223328
1733704493795230500,10.68223046875,-0.0037958102766424417,0.013107926584780216,-0.011675747111439705
1733704493805197600,10.692197509765625,-0.007499201688915491,0.009168311953544617,-0.010368134826421738
1733704493815163400,10.702163330078125,-0.010386260226368904,0.005589077714830637,-0.009256081655621529
1733704493825130500,10.712130615234376,-0.009721801616251469,0.006535299122333527,-0.009062203578650951
1733704493835096300,10.722096435546876,-0.00839533656835556,0.004740979988127947,-0.008351203054189682
1733704493845063400,10.7320634765625,-0.006587849464267492,0.0033105965703725815,-0.00770645122975111
1733704493855029200,10.742029296875,-0.002077698241919279,0.005960193928331137,-0.008000217378139496
1733704493864996400,10.751996337890626,-0.0032625384628772736,0.006045148707926273,-0.00809289701282978
1733704493874962400,10.76196240234375,-0.0018397537060081959,0.0073613813146948814,-0.0044409483671188354
1733704493884929500,10.771929443359374,-0.00026689074002206326,0.00592354079708457,-0.003946399316191673
1733704493894895400,10.781895263671874,-0.0034775433596223593,0.0014481395483016968,-0.0023964070715010166
1733704493904862500,10.791862548828124,-0.004829630255699158,0.0004955269396305084,-0.002559924963861704
1733704493914829600,10.80182958984375,-0.0009673886233940721,-0.0009128116071224213,-0.003428662195801735
1733704493924795400,10.81179541015625,-0.0015575450379401445,-0.0022851387038826942,-0.0016912161372601986
1733704493934762500,10.821762451171875,-0.00032849633134901524,-0.0024672988802194595,-0.0012749640736728907
1733704493944728300,10.831728271484375,0.00392430555075407,-0.003191412426531315,0.0033552078530192375
1733704493954695400,10.8416953125,0.0026669239159673452,-0.007357275113463402,0.0031156218610703945
1733704493964661200,10.8516611328125,0.003258145647123456,-0.012555764988064766,0.004870645236223936
1733704493974628400,10.86162841796875,0.005648239515721798,-0.01663760282099247,0.003895156318321824
1733704493984594400,10.871594482421875,0.003014372894540429,-0.01597287878394127,0.005329268518835306
1733704493994561500,10.8815615234375,0.003437340259552002,-0.011108577251434326,0.004456846043467522
1733704494004527400,10.89152734375,0.00040160302887670696,-0.007709851488471031,0.005707466509193182
1733704494014494500,10.901494384765625,0.0006998407188802958,-0.009403595700860023,0.0018912127707153559
1733704494024461600,10.911461669921875,-0.0009499875013716519,-0.011357557028532028,0.0025801726151257753
1733704494034427400,10.921427490234375,-0.003362207906320691,-0.005449434742331505,-0.0017288688104599714
1733704494044394500,10.93139453125,-0.003450891235843301,-0.00026372727006673813,-0.0006295160856097937
1733704494054360300,10.9413603515625,-0.0023764334619045258,0.006253623869270086,-0.000809794757515192
1733704494064327400,10.951327392578126,-0.0022581894882023335,0.01128673180937767,-0.004069503862410784
1733704494074293200,10.961293212890626,-0.0011047893203794956,0.012676723301410675,-0.002705557504668832
1733704494084260400,10.97126025390625,-0.0029929704032838345,0.008728587068617344,-0.0027572226244956255
1733704494094226400,10.981226318359376,-0.0052725328132510185,0.0057954187504947186,-0.003068676684051752
1733704494104193500,10.991193603515624,-0.0038538670632988214,0.004641470964998007,-0.0016944855451583862
1733704494114159400,11.001159423828126,-0.0044777547009289265,0.0019138744100928307,-0.0005517469253391027
1733704494124126500,11.01112646484375,-0.0037254116032272577,-0.002554643899202347,0.0022815901320427656
1733704494134093300,11.02109326171875,-0.0010477825999259949,-0.00294599961489439,0.0021841309498995543
1733704494144059400,11.031059326171874,-0.001458708313293755,-0.004063994623720646,0.0036097210831940174
1733704494154026500,11.041026611328125,-0.0015314278425648808,-0.0030748089775443077,0.0028777597472071648
1733704494163992300,11.050992431640625,-0.0006315456703305244,-0.0013354988768696785,0.0040135979652404785
1733704494173959400,11.06095947265625,-0.0050126612186431885,0.0023840246722102165,0.005385727621614933
1733704494183925500,11.070925537109375,-0.005669662728905678,0.0071670617908239365,0.004536977969110012
1733704494193892400,11.080892333984375,-0.008774318732321262,0.008490907028317451,0.006524854805320501
1733704494203858400,11.0908583984375,-0.009433717466890812,0.005570217967033386,0.006025511771440506
1733704494213825500,11.100825439453125,-0.007020561024546623,0.0059855179861187935,0.00944514013826847
1733704494223791400,11.110791259765625,-0.0052764564752578735,-0.00019061844795942307,0.010030768811702728
1733704494233758500,11.120758544921875,-0.0035576578229665756,-0.007904496043920517,0.010387729853391647
1733704494243725300,11.130725341796875,-0.0019712126813828945,-0.011755960062146187,0.011676699854433537
1733704494253691400,11.14069140625,-0.0005029279855079949,-0.017124230042099953,0.014188078232109547
1733704494263658200,11.150658203125,0.0012126803630962968,-0.01974877528846264,0.014515646733343601
1733704494273624300,11.160624267578125,-0.0009229673887602985,-0.02001352794468403,0.015810981392860413
1733704494283591400,11.17059130859375,0.002605987247079611,-0.018318958580493927,0.01561124436557293
1733704494293557500,11.1805576171875,0.0018499639118090272,-0.021878954023122787,0.01679411716759205
1733704494303524600,11.190524658203126,0.004251069854944944,-0.024012945592403412,0.019740905612707138
1733704494313490400,11.200490478515626,0.0049962978810071945,-0.03200218081474304,0.021484004333615303
1733704494323457500,11.21045751953125,0.006729216314852238,-0.037798285484313965,0.02038704790174961
1733704494333423400,11.22042333984375,0.007801280356943607,-0.046731315553188324,0.0208092350512743
1733704494343390500,11.230390380859374,0.006332813296467066,-0.04975826293230057,0.01996501348912716
1733704494353357300,11.240357421875,0.004098386969417334,-0.046644847840070724,0.017086157575249672
1733704494363323400,11.250323486328124,0.003918889909982681,-0.043156903237104416,0.016923971474170685
1733704494373290200,11.260290283203124,0.0004953249590471387,-0.034688692539930344,0.014705435372889042
1733704494383256300,11.27025634765625,-0.001383268740028143,-0.028748512268066406,0.011126146651804447
1733704494393223200,11.28022314453125,-0.005550997331738472,-0.019876230508089066,0.005487457383424044
1733704494403189500,11.290189453125,-0.00992710329592228,-0.011711778119206429,0.00442911684513092
1733704494413156600,11.300156494140625,-0.011049939319491386,-0.0005769543349742889,-0.00014795595780014992
1733704494423122400,11.310122314453125,-0.010069630108773708,0.008541443385183811,-0.001970889512449503
1733704494433089500,11.320089599609375,-0.008297617547214031,0.012277819216251373,-0.007282596081495285
1733704494443055400,11.330055419921875,-0.007568710017949343,0.018490707501769066,-0.009643222205340862
1733704494453022500,11.3400224609375,-0.0052205463871359825,0.01945667527616024,-0.010078616440296173
1733704494462989300,11.3499892578125,-0.003925717435777187,0.019320588558912277,-0.009214688092470169
1733704494472955400,11.359955322265625,-0.000445605197455734,0.017115408554673195,-0.009470153599977493
1733704494482922200,11.369922119140625,-0.00005545211024582386,0.015527365729212761,-0.007777181454002857
1733704494492888600,11.379888671875,0.0008847846766002476,0.014573320746421814,-0.006241556257009506
1733704494502855400,11.38985546875,0.0008240645984187722,0.01864795759320259,-0.007785124704241753
1733704494512821500,11.399821533203125,-0.0010468402178958058,0.020337915048003197,-0.010951334610581398
1733704494522788400,11.409788330078126,-0.0034026724752038717,0.015371918678283691,-0.007159525994211435
1733704494532754400,11.41975439453125,-0.0013989820145070553,0.016186365857720375,-0.007517876103520393
1733704494542721500,11.429721435546876,-0.001214158721268177,0.014055304229259491,-0.004952719435095787
1733704494552687400,11.439687255859376,-0.0014532385393977165,0.004172261338680983,-0.006092930678278208
1733704494562654500,11.449654541015626,-0.0021904015447944403,-0.005419911816716194,-0.002526957541704178
1733704494572620300,11.459620361328126,-0.0016001579351723194,-0.012222830206155777,-0.00020307092927396297
1733704494582587400,11.46958740234375,-0.003197255777195096,-0.014129387214779854,0.004191943909972906
1733704494592554200,11.47955419921875,-0.004801721312105656,-0.02179650403559208,0.0066447267308831215
1733704494602520600,11.4895205078125,-0.0030080825090408325,-0.030264025554060936,0.007218104787170887
1733704494612487400,11.4994873046875,-0.0018259581411257386,-0.036228857934474945,0.009641248732805252
1733704494622453500,11.50945361328125,-0.0005950451595708728,-0.040067799389362335,0.012371255084872246
1733704494632420400,11.51942041015625,-0.00013461278285831213,-0.03973233699798584,0.010762187652289867
1733704494642386400,11.529386474609375,-0.00003154843579977751,-0.03964977711439133,0.0095107676461339
1733704494652353300,11.539353271484375,-0.0014212464448064566,-0.03778735548257828,0.006186084821820259
1733704494662319400,11.5493193359375,0.0009353847708553076,-0.035541243851184845,0.005383940413594246
1733704494672286500,11.559286376953125,0.0024706849362701178,-0.03040243312716484,0.006574478931725025
1733704494682252300,11.569252197265625,0.00068689975887537,-0.02637520059943199,0.008593954145908356
1733704494692219400,11.579219482421875,0.0009530585957691073,-0.024001069366931915,0.009269429370760918
1733704494702186200,11.589186279296875,0.0014159160200506449,-0.02288120985031128,0.008342116139829159
1733704494712152600,11.599152587890625,0.0003771510091610253,-0.01794518157839775,0.006142996251583099
1733704494722119400,11.609119384765625,0.0007827504305168986,-0.00945875234901905,0.0009072216926142573
1733704494732085500,11.61908544921875,-0.0011653867550194263,0.002184503711760044,-0.0008059670217335224
1733704494742052400,11.62905224609375,-0.0002194319386035204,0.01609073206782341,-0.0038030887953937054
1733704494752018400,11.639018310546875,0.0031937628518790007,0.024854257702827454,-0.006538941990584135
1733704494761985300,11.6489853515625,0.0027069367934018373,0.027761895209550858,-0.00958932563662529
1733704494771951400,11.658951416015626,0.003527314867824316,0.029428867623209953,-0.011631215922534466
1733704494781918200,11.668918212890626,0.00010035914601758122,0.026721764355897903,-0.012471177615225315
1733704494791884500,11.678884521484376,-0.0011172189842909575,0.02586173638701439,-0.011161315254867077
