time,seconds_elapsed,z,y,x
1733705142944049700,0.017049560546875,0.06908497214317322,-0.07112154364585876,-0.0292053185403347
1733705142954016800,0.027016845703125,0.05807768180966377,-0.0720432922244072,-0.015255588106811047
1733705142963984000,0.03698388671875,0.051231227815151215,-0.08014729619026184,-0.000515524297952652
1733705142973949700,0.04694970703125,0.046487461775541306,-0.08776815235614777,0.008946694433689117
1733705142983916800,0.056916748046875,0.050215352326631546,-0.08912236988544464,0.022159434854984283
1733705142993883600,0.066883544921875,0.045061200857162476,-0.0895671546459198,0.03913231939077377
1733705143003850800,0.076850830078125,0.04262866824865341,-0.09239862859249115,0.05963652953505516
1733705143013817900,0.08681787109375,0.0389392152428627,-0.10778746008872986,0.08264847099781036
1733705143023783700,0.09678369140625,0.020314665511250496,-0.1266240030527115,0.10063279420137405
1733705143033750800,0.106750732421875,-0.0014780557248741388,-0.13466832041740417,0.10477574169635773
1733705143043717600,0.116717529296875,-0.016875388100743294,-0.12674808502197266,0.09677054733037949
1733705143053684700,0.126684814453125,-0.025867925956845284,-0.11327458918094635,0.08069112151861191
1733705143063650600,0.136650634765625,-0.03224033862352371,-0.08531007170677185,0.05300676077604294
1733705143073617700,0.14661767578125,-0.03762262314558029,-0.04572536423802376,0.024503551423549652
1733705143083584800,0.156584716796875,-0.03924582153558731,-0.0003283219411969185,-0.0009887607302516699
1733705143093551600,0.166551513671875,-0.041407644748687744,0.04255706071853638,-0.018667861819267273
1733705143103517700,0.176517578125,-0.03982759267091751,0.0728052407503128,-0.027817152440547943
1733705143113484500,0.186484619140625,-0.03305722028017044,0.0824374109506607,-0.03092099167406559
1733705143123451600,0.19645166015625,-0.027348734438419342,0.07959555089473724,-0.029760653153061867
1733705143133418800,0.206418701171875,-0.01991160772740841,0.06498945504426956,-0.023474227637052536
1733705143143385600,0.216385498046875,-0.008926068432629108,0.0486869141459465,-0.016671448945999146
1733705143153351700,0.2263515625,0.005273819901049137,0.03258538991212845,-0.010029865428805351
1733705143163318500,0.236318603515625,0.017340870574116707,0.022411316633224487,-0.00797523558139801
1733705143173285600,0.24628564453125,0.02981218323111534,0.018661122769117355,-0.007384571246802807
1733705143183252700,0.256252685546875,0.031107544898986816,0.009799987077713013,-0.005659108981490135
1733705143193218800,0.26621875,0.024756332859396935,-0.002431153319776058,-0.006636526435613632
1733705143203186000,0.27618603515625,0.015927687287330627,-0.018980037420988083,-0.005478317849338055
1733705143213152800,0.28615283203125,0.007394689600914717,-0.033107247203588486,-0.008049428462982178
1733705143223119600,0.29611962890625,-0.004462768789380789,-0.04404831305146217,-0.011777853593230247
1733705143233085700,0.306085693359375,-0.014856141991913319,-0.045309294015169144,-0.014091908931732178
1733705143243052800,0.316052734375,-0.019845573231577873,-0.045023802667856216,-0.016040010377764702
1733705143253020000,0.32602001953125,-0.018605327233672142,-0.03587457537651062,-0.01898413710296154
1733705143262986800,0.33598681640625,-0.01979549415409565,-0.01782074198126793,-0.026131263002753258
1733705143272952800,0.345952880859375,-0.022850139066576958,-0.001602889969944954,-0.031761448830366135
1733705143282919700,0.355919677734375,-0.023129239678382874,0.012252205051481724,-0.0342501737177372
1733705143292886800,0.36588671875,-0.027899742126464844,0.027450060471892357,-0.031118066981434822
1733705143302853600,0.375853515625,-0.025267474353313446,0.04280345141887665,-0.03430294245481491
1733705143312820700,0.38582080078125,-0.018230954185128212,0.05124589055776596,-0.03990976884961128
1733705143322786800,0.395786865234375,-0.013259366154670715,0.060485195368528366,-0.037515051662921906
1733705143332753700,0.405753662109375,-0.005845814477652311,0.06122605502605438,-0.03029276616871357
1733705143342720800,0.415720703125,-0.0034977050963789225,0.05043226480484009,-0.02030591294169426
1733705143352687600,0.4256875,-0.004833764396607876,0.03131542354822159,-0.00911838747560978
1733705143362653700,0.43565380859375,-0.005750157870352268,0.01079869456589222,-0.0018407679162919521
1733705143372620500,0.44562060546875,-0.003080962458625436,-0.009084507822990417,0.004765667021274567
1733705143382587600,0.455587646484375,-0.002984023420140147,-0.020258866250514984,0.006762771401554346
1733705143392554800,0.4655546875,-0.0061331321485340595,-0.02818373031914234,0.010430358350276947
1733705143402520600,0.4755205078125,-0.006516893859952688,-0.03309806436300278,0.005585801787674427
1733705143412487700,0.48548779296875,-0.004527573939412832,-0.03395763784646988,0.002434834372252226
1733705143422454500,0.49545458984375,0.0002599908330012113,-0.028209205716848373,-0.0007375229615718126
1733705143432421600,0.505421630859375,0.008635029196739197,-0.02464454621076584,-0.0009424514137208462
1733705143442388700,0.515388671875,0.009363137185573578,-0.025711141526699066,0.0020914217457175255
1733705143452354600,0.5253544921875,0.010744022205471992,-0.029811887070536613,0.0030423689167946577
1733705143462321700,0.53532177734375,0.00711812824010849,-0.03630387783050537,0.004402977880090475
1733705143472288500,0.54528857421875,0.001055707922205329,-0.04189411550760269,0.00749943545088172
1733705143482255600,0.555255615234375,-0.00441921828314662,-0.03849165886640549,0.008172149769961834
1733705143492221700,0.5652216796875,-0.0019798686262220144,-0.02853274531662464,0.00892442837357521
1733705143502188800,0.575188720703125,0.002658825134858489,-0.017708593979477882,0.007164611481130123
1733705143512155600,0.58515576171875,0.0052358792163431644,-0.007225038483738899,0.004013991914689541
1733705143522122500,0.59512255859375,0.008661236613988876,-0.005868691951036453,0.0021186205558478832
1733705143532088800,0.6050888671875,0.006223466247320175,-0.011485051363706589,0.0009479944128543139
1733705143542055700,0.6150556640625,0.004178691189736128,-0.022591499611735344,0.006564334966242313
1733705143552022800,0.625022705078125,-0.001007425133138895,-0.029753303155303,0.010041922330856323
1733705143561990000,0.634989990234375,0.0006562515045516193,-0.03112083487212658,0.01067948155105114
1733705143571956700,0.644956787109375,0.00010536902118474245,-0.02315029315650463,0.005975036881864071
1733705143581922800,0.6549228515625,0.0017418814823031425,-0.013604724779725075,0.0027243823278695345
1733705143591889700,0.6648896484375,0.0033026523888111115,-0.007723905146121979,-0.0024992041289806366
1733705143601856800,0.674856689453125,0.005484314169734716,-0.008343355730175972,-0.005132804159075022
1733705143611823900,0.684823974609375,0.005938508082181215,-0.011924739927053452,-0.004321868531405926
1733705143621789700,0.694789794921875,0.0018833125941455364,-0.012783342972397804,0.005605064332485199
1733705143631756800,0.7047568359375,-0.0024827257730066776,-0.01825452782213688,0.015560060739517212
1733705143641723600,0.7147236328125,-0.007130474783480167,-0.022090811282396317,0.021911699324846268
1733705143651690800,0.724690673828125,-0.007387027144432068,-0.028394823893904686,0.019860729575157166
1733705143661656600,0.734656494140625,-0.003943826537579298,-0.02980549819767475,0.012459805235266685
1733705143671623700,0.744623779296875,0.0018957401625812054,-0.028537316247820854,0.00459352508187294
1733705143681590800,0.7545908203125,0.00273676635697484,-0.024208882823586464,-0.006871649529784918
1733705143691557600,0.7645576171875,-0.003187841735780239,-0.013563994318246841,-0.015109578147530556
1733705143701524700,0.774524658203125,-0.01706184446811676,-0.00392574816942215,-0.02495288848876953
1733705143711490600,0.784490478515625,-0.01816125400364399,0.007712281309068203,-0.03492365777492523
1733705143721457700,0.794457763671875,-0.018721316009759903,0.016180334612727165,-0.047165945172309875
1733705143731424800,0.8044248046875,-0.022459806874394417,0.02737331949174404,-0.055353935807943344
1733705143741391600,0.8143916015625,-0.024359971284866333,0.03898683190345764,-0.06534557789564133
1733705143751357700,0.824357666015625,-0.029835043475031853,0.049870409071445465,-0.0733955129981041
1733705143761324500,0.834324462890625,-0.031999923288822174,0.06152466684579849,-0.07764698565006256
1733705143771291600,0.844291748046875,-0.031348444521427155,0.07139858603477478,-0.07916033267974854
1733705143781258500,0.854258544921875,-0.030754026025533676,0.06957538425922394,-0.075614333152771
1733705143791224800,0.864224853515625,-0.019719256088137627,0.06160428747534752,-0.07063867896795273
1733705143801191700,0.874191650390625,-0.014635814353823662,0.058746449649333954,-0.06521595269441605
1733705143811158800,0.88415869140625,-0.009450550191104412,0.04976232349872589,-0.05722879245877266
1733705143821125600,0.894125732421875,-0.008969849906861782,0.03374128043651581,-0.046483203768730164
1733705143831092500,0.904092529296875,-0.010256421752274036,0.01931513100862503,-0.0320214182138443
1733705143841058800,0.914058837890625,-0.012011445127427578,0.012702235020697117,-0.024662569165229797
1733705143851025700,0.924025634765625,-0.009902610443532467,0.01028471626341343,-0.019374387338757515
1733705143860992800,0.93399267578125,-0.006202415097504854,0.020682495087385178,-0.021411439403891563
1733705143870959900,0.9439599609375,-0.0026290593668818474,0.03086397983133793,-0.027491003274917603
1733705143880925700,0.95392578125,-0.006266404874622822,0.03760683536529541,-0.03061622381210327
1733705143890892800,0.963892822265625,-0.01018439419567585,0.03734130784869194,-0.026977915316820145
1733705143900859600,0.973859619140625,-0.01072821207344532,0.034781210124492645,-0.023831656202673912
1733705143910827300,0.9838271484375,-0.011460065841674805,0.03938262537121773,-0.02216608263552189
1733705143920793300,0.99379345703125,-0.011412927880883217,0.03764890879392624,-0.021769804880023003
1733705143930760200,1.00376025390625,-0.011397674679756165,0.034192703664302826,-0.024009952321648598
1733705143940727300,1.013727294921875,-0.01124614104628563,0.03940104693174362,-0.0258877482265234
1733705143950694100,1.023694091796875,-0.00782021600753069,0.05150690674781799,-0.024389492347836494
1733705143960661200,1.0336611328125,-0.0028038863092660904,0.05785321444272995,-0.023974305018782616
1733705143970627300,1.04362744140625,-0.00014440075028687716,0.0615268349647522,-0.023511577397584915
1733705143980594200,1.05359423828125,0.0039004082791507244,0.0569070503115654,-0.020248670130968094
1733705143990561300,1.063561279296875,0.0016964292153716087,0.04449857026338577,-0.010941555723547935
1733705144000528100,1.073528076171875,0.0008514081127941608,0.022257979959249496,-0.0016308785416185856
1733705144010494200,1.083494140625,0.0007235764060169458,0.0009731985628604889,0.0042038410902023315
1733705144020461000,1.0934609375,0.004462121985852718,-0.01285499893128872,0.007567413616925478
1733705144030428200,1.10342822265625,0.005271351430565119,-0.018251070752739906,0.009647010825574398
1733705144040395300,1.113395263671875,0.0072135948576033115,-0.023646101355552673,0.010012396611273289
1733705144050361000,1.123361083984375,0.0044336081482470036,-0.026784393936395645,0.009529397822916508
1733705144060328200,1.133328125,0.004681548569351435,-0.030332788825035095,0.0077253724448382854
1733705144070295000,1.143294921875,0.005165074020624161,-0.03331363946199417,0.00910881906747818
1733705144080262100,1.15326220703125,-0.0002102504950016737,-0.03709399700164795,0.009261418133974075
1733705144090229200,1.163229248046875,0.000791346887126565,-0.03589557111263275,0.011797048151493073
1733705144100195000,1.173195068359375,0.003889402374625206,-0.03203212097287178,0.015489254146814346
1733705144110162200,1.183162109375,0.007218280341476202,-0.025737522169947624,0.013035846874117851
1733705144120129000,1.19312890625,0.00914747454226017,-0.020522519946098328,0.013857431709766388
1733705144130096000,1.20309619140625,0.011967780068516731,-0.01821196638047695,0.011175328865647316
1733705144140062200,1.213062255859375,0.013230384327471256,-0.020047949627041817,0.009856797754764557
1733705144150029000,1.223029052734375,0.01036832295358181,-0.02414729818701744,0.009404496289789677
1733705144159996200,1.23299609375,0.009614914655685425,-0.02654973417520523,0.011040476150810719
1733705144169963000,1.242962890625,0.01092378981411457,-0.02405407279729843,0.011611323803663254
1733705144179929300,1.252929443359375,0.011211943812668324,-0.027972113341093063,0.008786775171756744
1733705144189896200,1.262896240234375,0.013949244283139706,-0.029348190873861313,0.005543379113078117
1733705144199863300,1.27286328125,0.015295738354325294,-0.02789943292737007,0.006751655135303736
1733705144209830400,1.282830322265625,0.016705863177776337,-0.024745512753725052,0.003075489541515708
1733705144219797200,1.29279736328125,0.013124977238476276,-0.02238515391945839,0.0033212993294000626
1733705144229763300,1.302763427734375,0.012418355792760849,-0.019976239651441574,-0.0006658486090600491
1733705144239730200,1.312730224609375,0.010185827501118183,-0.020088091492652893,-0.0029543028213083744
1733705144249697300,1.322697265625,0.005302812438458204,-0.018384305760264397,-0.005123987328261137
1733705144259664400,1.332664306640625,0.001081701833754778,-0.008854983374476433,-0.0026299371384084225
1733705144269630200,1.342630126953125,0.0029367341194301844,-0.0018611010164022446,-0.0007860329933464527
1733705144279597300,1.352597412109375,-0.0000356198288500309,0.004735548514872789,-0.0026686214841902256
1733705144289564200,1.362564208984375,-0.0030435705557465553,0.005574831739068031,-0.003787278663367033
1733705144299531300,1.37253125,-0.003396173007786274,0.010521120391786098,-0.004173969849944115
1733705144309497000,1.3824970703125,-0.0010174917988479137,0.009642825461924076,-0.006927841808646917
1733705144319464200,1.392464111328125,-0.0016124419635161757,0.009799685329198837,-0.006682032253593206
1733705144329431300,1.402431396484375,-0.002778474474325776,0.008887107484042645,-0.006643248256295919
1733705144339398100,1.412398193359375,-0.003084738040342927,0.006042851600795984,-0.005785176996141672
1733705144349365200,1.422365234375,-0.0005730459233745933,0.007895268499851227,-0.00838665384799242
1733705144359331000,1.4323310546875,-0.0017538914689794183,0.007259571924805641,-0.011088164523243904
1733705144369298200,1.442298095703125,-0.006096704863011837,0.007802653592079878,-0.009305208921432495
1733705144379265300,1.452265380859375,-0.010594251565635204,0.009028506465256214,-0.008967787027359009
1733705144389232000,1.462232177734375,-0.013088620267808437,0.01180046796798706,-0.008388395421206951
1733705144399198200,1.4721982421875,-0.016402125358581543,0.01552942581474781,-0.008677614852786064
1733705144409165000,1.4821650390625,-0.015776002779603004,0.010900388471782207,-0.008219607174396515
1733705144419132200,1.492132080078125,-0.016680411994457245,0.0037210388109087944,-0.009314965456724167
1733705144429099000,1.50209912109375,-0.017301857471466064,-0.001712251454591751,-0.006986865308135748
1733705144439065300,1.5120654296875,-0.01775965467095375,-0.004863569512963295,0.0008745196973904967
1733705144449032200,1.5220322265625,-0.016415156424045563,-0.006353370845317841,0.000673455186188221
1733705144458999000,1.5319990234375,-0.017868442460894585,-0.008731840178370476,0.002108100103214383
1733705144468966100,1.541966064453125,-0.01893797516822815,-0.010748714208602905,-0.0010104295797646046
1733705144478933000,1.55193310546875,-0.020243989303708076,-0.018870290368795395,0.0004215522203594446
1733705144488899300,1.5618994140625,-0.019456278532743454,-0.023321483284235,0.003030485939234495
1733705144498866200,1.5718662109375,-0.0199739970266819,-0.022013071924448013,0.0069218967109918594
1733705144508833300,1.581833251953125,-0.013746993616223335,-0.014640377834439278,0.009794648736715317
1733705144518800400,1.59180029296875,-0.00781826488673687,-0.005679907277226448,0.008628983050584793
1733705144528766200,1.60176611328125,-0.00654546869918704,-0.008548147976398468,0.006028271745890379
1733705144538733300,1.6117333984375,-0.006601128727197647,-0.012980179861187935,0.004054336808621883
1733705144548700200,1.6217001953125,-0.0076232291758060455,-0.015102662146091461,0.004925924353301525
1733705144558667300,1.631667236328125,-0.005582980811595917,-0.021154161542654037,0.007841553539037704
1733705144568634400,1.64163427734375,0.0007265766616910696,-0.02632741630077362,0.012142855674028397
1733705144578600200,1.65160009765625,0.002640057820826769,-0.025769218802452087,0.011953238397836685
1733705144588567300,1.6615673828125,0.00918530859053135,-0.018880153074860573,0.005111045204102993
1733705144598534100,1.6715341796875,0.01168654952198267,-0.007495138794183731,-0.0035463590174913406
1733705144608501200,1.681501220703125,0.012261118739843369,0.0025196438655257225,-0.014095379039645195
1733705144618467000,1.691467041015625,0.01301985327154398,0.01255736406892538,-0.020997758954763412
1733705144628434200,1.70143408203125,0.01766052283346653,0.012811267748475075,-0.0242161825299263
1733705144638401300,1.7114013671875,0.020579613745212555,0.012806207872927189,-0.02601994015276432
1733705144648368000,1.7213681640625,0.01526147872209549,0.01282300055027008,-0.019446860998868942
1733705144658334200,1.731334228515625,0.010878980159759521,0.015273109078407288,-0.013020121492445469
1733705144668301000,1.741301025390625,0.002138889394700527,0.022181851789355278,-0.008955868892371655
1733705144678268200,1.75126806640625,-0.0022489349357783794,0.03042619861662388,-0.005211730487644672
1733705144688235300,1.7612353515625,-0.00153829762712121,0.036725278943777084,-0.007824467495083809
1733705144698202000,1.7712021484375,-0.0006549272802658379,0.03517132252454758,-0.0038550253957509995
1733705144708168200,1.781168212890625,-0.0031189550645649433,0.01904836855828762,0.00977168045938015
1733705144718135000,1.791135009765625,-0.005438568070530891,-0.004554695449769497,0.019527370110154152
1733705144728102100,1.80110205078125,-0.003979508299380541,-0.02351425215601921,0.018925663083791733
1733705144738069200,1.8110693359375,-0.003148335963487625,-0.032027844339609146,0.01848464272916317
1733705144748035000,1.82103515625,0.00011959316907450557,-0.03269357234239578,0.018045274540781975
1733705144758002200,1.831002197265625,0.007600146345794201,-0.02805701084434986,0.012167945504188538
1733705144767969000,1.840968994140625,0.015102925710380077,-0.0167024377733469,0.0059465812519192696
1733705144777936100,1.85093603515625,0.013202760368585587,-0.015590036287903786,0.00674473075196147
1733705144787903200,1.8609033203125,-0.0006933824624866247,-0.031869132071733475,0.012436505407094955
1733705144797869300,1.870869384765625,-0.007833583280444145,-0.04248476028442383,0.015686094760894775
1733705144807836400,1.88083642578125,-0.010199089534580708,-0.03251972049474716,0.010202545672655106
1733705144817803300,1.89080322265625,-0.00035311642568558455,-0.021418603137135506,-0.00011294311843812466
1733705144827770000,1.90077001953125,0.00971703790128231,-0.0007190350443124771,-0.008972857147455215
1733705144837736200,1.910736083984375,0.01567639410495758,0.014172828756272793,-0.012137491255998611
1733705144847703300,1.920703369140625,0.017423715442419052,0.020077716559171677,-0.01487877406179905
1733705144857670400,1.93067041015625,0.013720324262976646,0.016992976889014244,-0.0129581019282341
1733705144867637200,1.94063720703125,0.006869427859783173,0.004195668268948793,-0.007258836179971695
1733705144877604400,1.950604248046875,0.0006831708597019315,-0.014583079144358635,0.0032808901742100716
1733705144887570200,1.960570068359375,-0.004131401889026165,-0.02919934317469597,0.00965193659067154
1733705144897537300,1.970537353515625,-0.006245684809982777,-0.03906635567545891,0.016900528222322464
1733705144907504000,1.980504150390625,-0.004937866702675819,-0.04693352431058884,0.021164877340197563
1733705144917471500,1.990471435546875,-0.0004547013668343425,-0.055418357253074646,0.02331005409359932
1733705144927437300,2.000437255859375,0.005348155274987221,-0.061586588621139526,0.023711230605840683
1733705144937404400,2.010404296875,0.008610527962446213,-0.06790973246097565,0.02501431480050087
1733705144947371300,2.020371337890625,0.00810523796826601,-0.07182435691356659,0.02482355758547783
1733705144957338400,2.03033837890625,0.006425050087273121,-0.07378337532281876,0.022807013243436813
1733705144967304200,2.04030419921875,0.006308996118605137,-0.07175447046756744,0.018309839069843292
1733705144977271300,2.050271240234375,0.006326839327812195,-0.06075800955295563,0.011680697090923786
1733705144987238400,2.06023828125,0.003073255531489849,-0.04760971665382385,0.0029663019813597202
1733705144997205200,2.070205322265625,-0.0012844750890508294,-0.033174317330121994,-0.0010625282302498817
1733705145007172400,2.08017236328125,-0.008641389198601246,-0.016087224707007408,-0.005098680034279823
1733705145017138200,2.09013818359375,-0.009261906147003174,0.0022632861509919167,-0.008591948077082634
1733705145027105300,2.100105224609375,-0.00822039507329464,0.016889646649360657,-0.014440417289733887
1733705145037072400,2.110072265625,-0.003961999900639057,0.0228724367916584,-0.019301485270261765
1733705145047039200,2.120039306640625,-0.002234235405921936,0.022785577923059464,-0.017962247133255005
1733705145057005300,2.13000537109375,-0.002281906083226204,0.017024362459778786,-0.013435938395559788
1733705145066972200,2.13997216796875,-0.0021591077093034983,0.007517462596297264,-0.0073235216550529
1733705145076939300,2.149939208984375,0.00008966552559286356,-0.0007545817643404007,-0.003181773703545332
1733705145086906400,2.15990625,0.005402578040957451,-0.007957834750413895,0.0020347328390926123
1733705145096873200,2.169873291015625,0.009151243604719639,-0.006902957335114479,0.003890157211571932
1733705145106839300,2.17983935546875,0.007552209310233593,-0.004518396221101284,0.006131890695542097
1733705145116806100,2.18980615234375,0.009019345045089722,-0.004579115658998489,0.006648543756455183
1733705145126773200,2.199773193359375,0.005197659134864807,-0.003330136649310589,0.006449716631323099
1733705145136740000,2.209739990234375,0.006102334707975388,-0.0010872222483158112,0.0063431900925934315
1733705145146706400,2.21970654296875,0.00779256597161293,-0.005007170140743256,0.007851507514715195
1733705145156673500,2.229673583984375,0.01058275904506445,-0.007189096882939339,0.00532922800630331
1733705145166640400,2.239640380859375,0.012144935317337513,-0.00995425134897232,0.0044408636167645454
1733705145176607500,2.249607421875,0.012718579731881618,-0.01181180588901043,0.004521024879068136
1733705145186574300,2.25957421875,0.010646486654877663,-0.017771925777196884,0.008040156215429306
1733705145196540400,2.26954052734375,0.009315438568592072,-0.022947248071432114,0.010427946224808693
1733705145206507300,2.27950732421875,0.011555416509509087,-0.029225975275039673,0.012379813008010387
1733705145216474400,2.289474365234375,0.012047834694385529,-0.03150457516312599,0.011854371055960655
1733705145226441500,2.29944140625,0.013947964645922184,-0.030233440920710564,0.01012764498591423
1733705145236407300,2.3094072265625,0.009944168850779533,-0.02773779071867466,0.009630965068936348
1733705145246374400,2.31937451171875,0.006012920755892992,-0.025678865611553192,0.005816818214952946
1733705145256341200,2.32934130859375,0.005606256425380707,-0.0260905921459198,0.005025326739996672
1733705145266308400,2.339308349609375,0.004266859032213688,-0.026333509013056755,0.004562669433653355
1733705145276275500,2.349275390625,0.0038063987158238888,-0.020565902814269066,0.0067342109978199005
1733705145286241300,2.3592412109375,-0.0015730592422187328,-0.017598310485482216,0.007466313894838095
1733705145296208400,2.36920849609375,-0.0017573500517755747,-0.016582313925027847,0.008427182212471962
1733705145306175200,2.37917529296875,-0.0011588511988520622,-0.017954926937818527,0.004529214464128017
1733705145316142300,2.389142333984375,0.005647922400385141,-0.017471829429268837,-0.000465278048068285
1733705145326108200,2.399108154296875,0.008262932300567627,-0.020240463316440582,-0.0018909689970314503
1733705145336075300,2.4090751953125,0.01204621884971857,-0.023745981976389885,0.0014116172678768635
1733705145346042400,2.41904248046875,0.008599023334681988,-0.028253914788365364,0.008423986844718456
1733705145356009200,2.42900927734375,0.010186799801886082,-0.02709118090569973,0.012609411031007767
1733705145365976300,2.438976318359375,0.009733124636113644,-0.02653614431619644,0.009902307763695717
1733705145375942100,2.448942138671875,0.01118587888777256,-0.02357551082968712,0.006800789851695299
1733705145385909200,2.4589091796875,0.010838637128472328,-0.02245299518108368,0.009168807417154312
1733705145395876400,2.46887646484375,0.009321967139840126,-0.019608471542596817,0.007929904386401176
1733705145405843200,2.47884326171875,0.010891865938901901,-0.01827794872224331,0.006034065969288349
1733705145415809300,2.488809326171875,0.012103071436285973,-0.014658713713288307,0.0033035269007086754
1733705145425776000,2.498776123046875,0.009740377776324749,-0.012714294716715813,0.0025912586133927107
1733705145435743200,2.5087431640625,0.006189852021634579,-0.01721423864364624,0.0043697175569832325
1733705145445710300,2.51871044921875,0.006252054125070572,-0.023228967562317848,0.004648243542760611
1733705145455677200,2.52867724609375,0.004422462545335293,-0.020215334370732307,0.005028276704251766
1733705145465643500,2.5386435546875,0.008559299632906914,-0.02077995240688324,0.0023195508401840925
1733705145475610400,2.5486103515625,0.00985785759985447,-0.011927338317036629,-0.0016448306851089
1733705145485577500,2.558577392578125,0.007826516404747963,-0.009196024388074875,-0.004404360894113779
1733705145495544300,2.56854443359375,0.0068723056465387344,-0.007100649178028107,-0.0071921576745808125
1733705145505510400,2.578510498046875,0.004972492810338736,-0.007251137867569923,-0.005979519337415695
1733705145515477500,2.5884775390625,0.0006408612243831158,-0.00825541652739048,-0.0018859747797250748
1733705145525444400,2.5984443359375,0.0007787439972162247,-0.0029431935399770737,-0.0007939466740936041
1733705145535411500,2.608411376953125,0.0011111064814031124,-0.002163953147828579,-0.0021982314065098763
1733705145545378300,2.61837841796875,-0.0013314473908394575,-0.005006307736039162,-0.0036147055216133595
1733705145555344400,2.628344482421875,-0.0008100005215965211,-0.0066904909908771515,-0.0031441249884665012
1733705145565311500,2.6383115234375,-0.0009139268659055233,-0.007085748016834259,-0.001364994328469038
1733705145575278300,2.6482783203125,0.0009239206556230783,-0.007187215611338615,0.0011804549722000957
1733705145585245400,2.658245361328125,0.0008462079567834735,-0.010511117056012154,0.002994501031935215
1733705145595211300,2.668211181640625,-0.002777821384370327,-0.013109562918543816,0.001524702413007617
1733705145605178400,2.678178466796875,-0.000437804963439703,-0.015008905902504921,0.0002883952111005783
1733705145615145200,2.688145263671875,-0.00276753818616271,-0.014887997880578041,0.001182418316602707
1733705145625112300,2.6981123046875,-0.0030955919064581394,-0.013896726071834564,0.0011213230900466442
1733705145635079400,2.708079345703125,-0.0026966503355652094,-0.008978931233286858,0.0010299766436219215
1733705145645045200,2.718045166015625,-0.002221358008682728,-0.006229788064956665,-0.0002561556175351143
1733705145655012400,2.728012451171875,0.0009057257557287812,-0.006467076018452644,-0.000728600425645709
1733705145664979200,2.737979248046875,0.0031676969956606627,-0.011032242327928543,-0.0015805833972990513
1733705145674946300,2.7479462890625,0.0001623195712454617,-0.012071674689650536,-0.003930822946131229
1733705145684912000,2.757912109375,-0.0013819891028106213,-0.01276043988764286,-0.004265675786882639
1733705145694879200,2.767879150390625,-0.0034739021211862564,-0.010436832904815674,0.00034505478106439114
1733705145704846300,2.777846435546875,-0.004065781366080046,-0.006904330104589462,0.0016230626497417688
1733705145714813200,2.787813232421875,-0.005028514191508293,-0.0034699169918894768,0.0005668529774993658
1733705145724780300,2.7977802734375,-0.0059983376413583755,-0.0010589780285954475,-0.0013561439700424671
1733705145734746000,2.80774609375,-0.00669928127899766,0.0025701122358441353,-0.0023590903729200363
1733705145744713200,2.817713134765625,-0.008100733160972595,0.004187678452581167,-0.004871312063187361
1733705145754680300,2.827680419921875,-0.005582980811595917,0.0057296487502753735,-0.005013791378587484
1733705145764647200,2.837647216796875,-0.0031624850817024708,0.006819960195571184,-0.0025201747193932533
1733705145774613500,2.847613525390625,-0.0005762893706560135,0.011328425258398056,-0.0019838139414787292
1733705145784580400,2.857580322265625,0.00011620100121945143,0.008889219723641872,-0.004573604092001915
1733705145794547200,2.867547119140625,-0.00042388803558424115,0.0040124389342963696,-0.006980302277952433
1733705145804514300,2.877514404296875,-0.004590023774653673,0.0011658193543553352,-0.009869003668427467
1733705145814481200,2.887481201171875,-0.009120593778789043,0.0035647950135171413,-0.009078310802578926
1733705145824447500,2.897447509765625,-0.011065617203712463,0.008046653121709824,-0.00614354619756341
1733705145834414300,2.907414306640625,-0.01074790209531784,0.011817955411970615,-0.007402423303574324
1733705145844381400,2.91738134765625,-0.005988140124827623,0.01459287479519844,-0.009568928740918636
1733705145854348500,2.9273486328125,-0.00021280889632180333,0.010869508609175682,-0.00959556084126234
1733705145864314400,2.937314453125,0.00016629742458462715,0.005016501061618328,-0.012389256618916988
1733705145874281500,2.947281494140625,-0.0022505212109535933,0.0010404018685221672,-0.013825500383973122
1733705145884248300,2.957248291015625,-0.008295314386487007,0.003709944896399975,-0.008946951478719711
1733705145894215400,2.96721533203125,-0.012186724692583084,0.012927943840622902,-0.004872049205005169
1733705145904182500,2.9771826171875,-0.011177602224051952,0.01933496631681919,-0.002403663005679846
1733705145914148400,2.9871484375,-0.002958288649097085,0.021329142153263092,-0.005847130436450243
1733705145924115500,2.997115478515625,0.0009244189132004976,0.01752719283103943,-0.009620461612939835
1733705145934082600,3.00708251953125,0.0031995573081076145,0.01211564987897873,-0.010866820812225342
1733705145944049400,3.01704931640625,0.0008588881464675069,0.009327059611678123,-0.008345838636159897
1733705145954015500,3.027015380859375,0.0009326577419415116,0.0043429541401565075,0.0015946757048368454
1733705145963982300,3.036982421875,0.0030592603143304586,-0.0017634248360991478,0.00694802962243557
1733705145973949400,3.046949462890625,0.00769049720838666,-0.005917955189943314,0.007707563228905201
1733705145983916500,3.05691650390625,0.008421432226896286,-0.012001391500234604,0.004919165279716253
1733705145993883400,3.06688330078125,0.006008342374116182,-0.014820879325270653,0.0072547574527561665
1733705146003849500,3.076849365234375,0.006993843242526054,-0.019714144989848137,0.00759217469021678
1733705146013816300,3.08681640625,0.007654041051864624,-0.01786484569311142,0.007857691496610641
1733705146023783400,3.096783447265625,0.007239340804517269,-0.014882685616612434,0.006502249743789434
1733705146033750300,3.106750244140625,0.007230551913380623,-0.009948113933205605,0.010398720391094685
1733705146043716400,3.11671630859375,0.0077385385520756245,-0.014361266046762466,0.009372105821967125
1733705146053683500,3.126683349609375,0.007986478507518768,-0.014750886708498001,0.010862410068511963
1733705146063650300,3.136650390625,0.007137671113014221,-0.015261875465512276,0.00783608853816986
1733705146073617400,3.146617431640625,0.006577874533832073,-0.01131453737616539,0.006364691536873579
1733705146083584300,3.156584228515625,0.001050206134095788,-0.0059541817754507065,0.0028621419332921505
1733705146093550300,3.16655029296875,0.00018334720516577363,-0.005962971597909927,0.0027942312881350517
1733705146103517200,3.17651708984375,-0.00021376850781962276,-0.0010405853390693665,0.0014536529779434204
1733705146113484300,3.186484375,-0.0008430734742432833,0.00414405670017004,0.002374840434640646
1733705146123451400,3.196451416015625,-0.0021053904201835394,0.004938948899507523,0.0002546741161495447
1733705146133417500,3.20641748046875,-0.0009458501590415835,0.005333895795047283,-0.00026277825236320496
1733705146143384600,3.216384521484375,-0.0012870869832113385,0.004109394736588001,0.0017826948314905167
1733705146153351400,3.226351318359375,-0.0005885398713871837,0.0015708692371845245,-0.0009044345933943987
1733705146163318300,3.236318359375,0.0012531334068626165,-0.0017710980027914047,-0.0009714863263070583
1733705146173285400,3.246285400390625,0.00038414401933550835,-0.00403105653822422,0.0034070168621838093
1733705146183251500,3.25625146484375,-0.001387006719596684,-0.008099325001239777,-0.00004253746010363102
1733705146193218600,3.266218505859375,-0.0011185602052137256,-0.00787828303873539,-0.005254077259451151
1733705146203185400,3.276185302734375,-0.0022482217755168676,-0.008115047588944435,-0.0072957552038133144
1733705146213152500,3.286152587890625,-0.002550490666180849,-0.005216196179389954,-0.00479930778965354
1733705146223118300,3.296118408203125,-0.006368081085383892,-0.000013457611203193665,-0.0036332085728645325
1733705146233085400,3.30608544921875,-0.007719901390373707,0.004486219026148319,-0.0033583706244826317
1733705146243052500,3.316052490234375,-0.0056272405199706554,0.003385014832019806,-0.0037665339186787605
1733705146253019400,3.326019287109375,-0.0032628863118588924,0.000510132871568203,-0.004951906856149435
1733705146262986500,3.335986572265625,-0.004165433347225189,0.0005029942840337753,-0.003141236025840044
1733705146272952300,3.345952392578125,-0.005705539137125015,-0.005762891843914986,-0.002984376158565283
1733705146282919400,3.35591943359375,-0.006817842833697796,-0.012463422492146492,-0.0027411566115915775
1733705146292886500,3.365886474609375,-0.009420550428330898,-0.011897766962647438,-0.0004641539417207241
1733705146302853400,3.375853271484375,-0.008865113370120525,-0.011365916579961777,-0.0008732881397008896
1733705146312819500,3.3858193359375,-0.007312756963074207,-0.014296725392341614,-0.0022703823633491993
1733705146322786300,3.395786376953125,-0.008050098083913326,-0.01601363532245159,-0.0031584626995027065
1733705146332753400,3.40575341796875,-0.006265247240662575,-0.014666341245174408,-0.0035190549679100513
1733705146342720500,3.415720458984375,-0.004729617387056351,-0.017514439299702644,-0.0022429381497204304
1733705146352687400,3.425687255859375,-0.0008893392514437437,-0.02092887833714485,-0.0009433154482394457
1733705146362653400,3.4356533203125,0.0033512115478515625,-0.018547814339399338,-0.003255445510149002
1733705146372620300,3.445620361328125,0.001375146210193634,-0.012856107205152512,-0.00395239470526576
1733705146382587400,3.45558740234375,-0.0035738288424909115,-0.011865545064210892,-0.006530867423862219
1733705146392554500,3.465554443359375,-0.006404236424714327,-0.0178225040435791,-0.0075734942220151424
1733705146402521300,3.475521240234375,-0.01060326024889946,-0.020803911611437798,-0.0046245441772043705
1733705146412487400,3.4854873046875,-0.006774965673685074,-0.021043328568339348,-0.0009781441185623407
1733705146422454300,3.495454345703125,-0.0027326690033078194,-0.02263321541249752,-0.002614963334053755
1733705146432421400,3.50542138671875,-0.003522295970469713,-0.01968376338481903,-0.00946088507771492
1733705146442388200,3.51538818359375,-0.0059982528910040855,-0.01830029860138893,-0.01548677310347557
1733705146452354300,3.525354248046875,-0.007351139094680548,-0.01943240873515606,-0.014304064214229584
1733705146462321400,3.5353212890625,-0.01125683169811964,-0.02091176249086857,-0.006461261305958033
1733705146472288300,3.545288330078125,-0.011873886920511723,-0.018909597769379616,-0.0026023411191999912
1733705146482255400,3.55525537109375,-0.014381351880729198,-0.013070916756987572,-0.0037028188817203045
1733705146492222200,3.56522216796875,-0.01706821471452713,-0.0029170820489525795,-0.007889041677117348
1733705146502188500,3.5751884765625,-0.020496036857366562,0.0022542569786310196,-0.011377384886145592
1733705146512155400,3.5851552734375,-0.017794791609048843,0.0029149875044822693,-0.012732934206724167
1733705146522122500,3.59512255859375,-0.013967365026473999,0.0033685369417071342,-0.013414040207862854
1733705146532089300,3.60508935546875,-0.006671634502708912,0.00014664418995380402,-0.01263746339827776
1733705146542055400,3.615055419921875,-0.0023469277657568455,-0.003449687734246254,-0.010506135411560535
1733705146552022500,3.6250224609375,-0.0024481278378516436,-0.010556332767009735,-0.008172407746315002
1733705146561989400,3.6349892578125,-0.0026172215584665537,-0.014066914096474648,-0.0009938888251781464
1733705146571956500,3.64495654296875,-0.0017817879561334848,-0.012632003054022789,0.006087989080697298
1733705146581923600,3.654923583984375,-0.00039111863588914275,-0.010542215779423714,0.010231399908661842
1733705146591889400,3.664889404296875,0.004357031546533108,-0.0046547651290893555,0.006406301632523537
1733705146601856500,3.6748564453125,0.0056008282117545605,-0.002487771213054657,0.0034534595906734467
1733705146611823400,3.6848232421875,0.004051400814205408,-0.0006142370402812958,-0.0000355476513504982
1733705146621790500,3.69479052734375,0.0019303984008729458,0.0022832369431853294,0.0015747363213449717
1733705146631756300,3.70475634765625,0.003198595717549324,0.003297635354101658,0.0038469452410936356
1733705146641723400,3.714723388671875,0.004085857421159744,0.007318232208490372,0.006828020326793194
1733705146651690500,3.7246904296875,0.003934057429432869,0.0027937875129282475,0.007622973993420601
1733705146661657300,3.7346572265625,0.003027914324775338,0.004609294235706329,0.006601114757359028
1733705146671624400,3.74462451171875,-0.001844871323555708,0.003880653530359268,0.00305591500364244
1733705146681590300,3.75459033203125,-0.006507799960672855,0.010883435606956482,0.0008670628303661942
1733705146691557400,3.764557373046875,-0.007873736321926117,0.01587047055363655,0.0001530693843960762
1733705146701524500,3.7745244140625,-0.008003564551472664,0.017835909500718117,0.00410093180835247
1733705146711491300,3.7844912109375,-0.007155613973736763,0.0221350509673357,0.006953710224479437
1733705146721458400,3.79445849609375,-0.0046716006472706795,0.02559048682451248,0.003521266393363476
1733705146731424300,3.80442431640625,-0.007824517786502838,0.029208390042185783,0.0035636108368635178
1733705146741391400,3.814391357421875,-0.009081476368010044,0.03657366707921028,0.004785619676113129
1733705146751358500,3.8243583984375,-0.010398142971098423,0.04028238356113434,0.006021326407790184
1733705146761325300,3.8343251953125,-0.00964413769543171,0.03743753582239151,0.0033660423941910267
1733705146771291400,3.84429150390625,-0.0034834472462534904,0.0332326665520668,0.0010397711303085089
1733705146781258200,3.85425830078125,0.0012519692536443472,0.025359341874718666,-0.0020354916341602802
1733705146791225300,3.864225341796875,0.002785683609545231,0.019506512209773064,-0.001564644742757082
1733705146801192400,3.8741923828125,0.002010769909247756,0.01232528779655695,0.00026162201538681984
1733705146811159300,3.8841591796875,-0.00029126647859811783,0.005092142149806023,-0.001255314564332366
1733705146821125600,3.894125732421875,-0.0033656673040241003,0.0013647349551320076,-0.002501032780855894
1733705146831092500,3.904092529296875,-0.00833139754831791,-0.0005072001367807388,-0.0020853132009506226
1733705146841059300,3.914059326171875,-0.008409081026911736,-0.0020741652697324753,-0.0005448479205369949
1733705146851026200,3.924026123046875,-0.003692356636747718,-0.002185485325753689,-0.0013880045153200626
1733705146860992500,3.933992431640625,0.0008986881584860384,-0.003401440568268299,-0.003065581899136305
1733705146870959600,3.943959716796875,0.0025075036101043224,-0.0043298183009028435,-0.005645918659865856
1733705146880926500,3.953926513671875,0.0023076296783983707,-0.00806625559926033,-0.0038043311797082424
1733705146890893600,3.9638935546875,-0.0013374389382079244,-0.012984048575162888,-0.0006127988453954458
1733705146900860400,3.9738603515625,-0.003388806013390422,-0.012209612876176834,0.0016688690520823002
1733705146910826500,3.983826416015625,0.0003611911670304835,-0.008519269526004791,0.0045285713858902454
1733705146920792800,3.993792724609375,0.0035025570541620255,-0.006355753168463707,0.003971911501139402
1733705146930759700,4.003759765625,0.009169497527182102,-0.006644973531365395,0.0012794556096196175
1733705146940726800,4.013726806640625,0.009245680645108223,-0.003672088496387005,0.0009443974122405052
1733705146950694000,4.02369384765625,0.007612630724906921,-0.0012936191633343697,-0.004320139531046152
1733705146960659700,4.03365966796875,0.005726862233132124,-0.0026541799306869507,-0.0035215034149587154
1733705146970626800,4.043626708984375,0.002469017170369625,-0.0023106317967176437,-0.0027028475888073444
1733705146980593700,4.05359375,0.00215999037027359,0.0006505055353045464,-0.0010070037096738815
1733705146990560800,4.063560791015625,0.004337124526500702,-0.00015110615640878677,-0.004759397357702255
1733705147000526600,4.073526611328125,0.005140486638993025,-0.0017559602856636047,-0.005466495640575886
1733705147010493700,4.08349365234375,0.0019987556152045727,-0.0042771752923727036,-0.005109366029500961
1733705147020460800,4.093460693359375,0.0004785716300830245,-0.0002046581357717514,-0.005657079163938761
1733705147030427600,4.103427734375,0.00035073989420197904,0.003513114992529154,-0.0052592032589018345
1733705147040394800,4.113394775390625,0.0009542278712615371,0.0033608321100473404,-0.006494688801467419
1733705147050360600,4.123360595703125,0.003911402076482773,-0.0003801099956035614,-0.008982880041003227
1733705147060327700,4.13332763671875,0.00015591111150570214,-0.005824960768222809,-0.010712530463933945
1733705147070294800,4.143294677734375,0.0005207641515880823,-0.00396820530295372,-0.007392633706331253
1733705147080261600,4.15326171875,-0.0002232726546935737,-0.0011732270941138268,-0.004644349217414856
1733705147090228000,4.16322802734375,0.0029690584633499384,-0.00042088422924280167,-0.006146371830254793
1733705147100194800,4.17319482421875,0.01117886882275343,0.0032694414258003235,-0.013516567647457123
1733705147110161700,4.18316162109375,0.014892114326357841,0.00878937542438507,-0.020684465765953064
1733705147120128800,4.193128662109375,0.011675265617668629,0.015028364956378937,-0.01774217188358307
1733705147130095600,4.203095703125,0.0021182456985116005,0.02720353752374649,-0.00688712764531374
1733705147140062000,4.21306201171875,-0.006429021246731281,0.042455218732357025,0.003549229819327593
1733705147150028800,4.22302880859375,-0.006021823734045029,0.05736839026212692,0.007440374232828617
1733705147159996000,4.232995849609375,0.004461078438907862,0.06721358001232147,0.006803273689001799
1733705147169963000,4.242962890625,0.016879132017493248,0.06996409595012665,0.001270290114916861
1733705147179929900,4.252929931640625,0.02444535680115223,0.07138246297836304,-0.0033660968765616417
1733705147189896000,4.26289599609375,0.02679399773478508,0.07256436347961426,-0.008630899712443352
1733705147199862800,4.27286279296875,0.02813357673585415,0.06948809325695038,-0.006672941148281097
1733705147209830000,4.282829833984375,0.025274140760302544,0.05275731533765793,0.0030420045368373394
1733705147219797000,4.292796875,0.029342560097575188,0.040524162352085114,0.012609570287168026
1733705147229762800,4.3027626953125,0.033048346638679504,0.036448992788791656,0.022200411185622215
1733705147239730000,4.31272998046875,0.03372775763273239,0.0314585380256176,0.033126212656497955
1733705147249696800,4.32269677734375,0.03461405634880066,0.020841047167778015,0.04638928920030594
1733705147259664000,4.332663818359375,0.03158998489379883,0.0048410021699965,0.05943063646554947
1733705147269630700,4.342630615234375,0.02781575173139572,0.000044383108615875244,0.05527610331773758
1733705147279596800,4.3525966796875,0.024820148944854736,0.015401463955640793,0.03142580762505531
1733705147289564000,4.36256396484375,0.02129492163658142,0.045080795884132385,-0.00736073637381196
1733705147299530800,4.37253076171875,0.003113135462626815,0.08642373234033585,-0.05023260787129402
1733705147309497900,4.382497802734375,-0.018997225910425186,0.13655081391334534,-0.09201920032501221
1733705147319463700,4.392463623046875,-0.04431413486599922,0.19098851084709167,-0.1293511986732483
1733705147329430800,4.4024306640625,-0.05752607807517052,0.2528228461742401,-0.1664743274450302
1733705147339397600,4.412397705078125,-0.0655512809753418,0.29595667123794556,-0.19254419207572937
1733705147349364700,4.42236474609375,-0.061135221272706985,0.33232027292251587,-0.2063596248626709
1733705147359331800,4.432331787109375,-0.053773414343595505,0.35142791271209717,-0.20932379364967346
1733705147369297700,4.442297607421875,-0.04182327538728714,0.3497735559940338,-0.2027527093887329
1733705147379264800,4.4522646484375,-0.02175900712609291,0.34573495388031006,-0.19201594591140747
1733705147389231600,4.462231689453125,0.0020360699854791164,0.3280949592590332,-0.18482327461242676
1733705147399198700,4.47219873046875,0.021078970283269882,0.290415495634079,-0.17360198497772217
1733705147409165800,4.482165771484375,0.030835194513201714,0.2463178038597107,-0.16447827219963074
1733705147419131600,4.492131591796875,0.033779971301555634,0.1698092222213745,-0.15196377038955688
1733705147429098800,4.5020986328125,0.02664802595973015,0.11233127117156982,-0.14371436834335327
1733705147439065600,4.512065673828125,0.017510300502181053,0.09529288858175278,-0.15309424698352814
1733705147449032700,4.52203271484375,0.01009180024266243,0.10178674012422562,-0.16266325116157532
1733705147458998800,4.531998779296875,0.004177787806838751,0.10572148859500885,-0.17257378995418549
1733705147468966000,4.5419658203125,0.0034358312841504812,0.11770224571228027,-0.17649157345294952
1733705147478932700,4.5519326171875,0.003268732223659754,0.12911105155944824,-0.1796104460954666
1733705147488899600,4.561899658203125,0.0021014686208218336,0.1520874798297882,-0.17527028918266296
1733705147498866700,4.57186669921875,0.0006498598959296942,0.1725044697523117,-0.16814911365509033
1733705147508832800,4.581832763671875,-0.0027142451144754887,0.171621635556221,-0.15110647678375244
1733705147518800000,4.5917998046875,-0.006614692974835634,0.13363413512706757,-0.12360675632953644
1733705147528767000,4.60176708984375,-0.01231945026665926,0.07216013222932816,-0.08945092558860779
1733705147538733800,4.61173388671875,-0.018113618716597557,0.02911069616675377,-0.06388339400291443
1733705147548701000,4.621700927734375,-0.016901880502700806,-0.0033726776018738747,-0.04575205594301224
1733705147558666800,4.631666748046875,-0.01649784855544567,-0.02365989238023758,-0.026067081838846207
1733705147568633900,4.6416337890625,-0.018390025943517685,-0.03359321877360344,-0.01302851177752018
1733705147578601000,4.65160107421875,-0.01896686665713787,-0.019173000007867813,-0.005457145627588034
1733705147588567800,4.66156787109375,-0.026283368468284607,0.0007112259045243263,-0.0007079306524246931
1733705147598534000,4.671533935546875,-0.040612876415252686,0.014460081234574318,0.012532968074083328
1733705147608500700,4.681500732421875,-0.05115180090069771,0.021615728735923767,0.0357528030872345
1733705147618467800,4.6914677734375,-0.05553993955254555,0.02225276455283165,0.06117064505815506
1733705147628435000,4.70143505859375,-0.051424022763967514,0.014381259679794312,0.08404479920864105
1733705147638401800,4.71140185546875,-0.0364498533308506,-0.009290250018239021,0.10962016880512238
1733705147648367900,4.721367919921875,-0.0209174994379282,-0.04472440853714943,0.14050030708312988
1733705147658334700,4.731334716796875,-0.012025028467178345,-0.08957160264253616,0.16617952287197113
1733705147668301800,4.7413017578125,-0.012045534327626228,-0.13481710851192474,0.19062121212482452
1733705147678268700,4.7512685546875,-0.019223162904381752,-0.17444592714309692,0.20358841121196747
1733705147688234800,4.76123486328125,-0.01915684901177883,-0.20080482959747314,0.20162752270698547
1733705147698201900,4.771201904296875,-0.0173445176333189,-0.20551516115665436,0.178786039352417
1733705147708168700,4.781168701171875,-0.015922922641038895,-0.19036683440208435,0.14728723466396332
1733705147718135800,4.7911357421875,-0.01544240489602089,-0.15927952527999878,0.11912759393453598
1733705147728102700,4.8011025390625,-0.011515574529767036,-0.13282367587089539,0.08887913823127747
1733705147738068700,4.81106884765625,-0.0002414984628558159,-0.12172145396471024,0.062236905097961426
1733705147748035600,4.82103564453125,0.020572436973452568,-0.13090109825134277,0.041892752051353455
1733705147758002700,4.831002685546875,0.04781389608979225,-0.12604860961437225,0.032851364463567734
1733705147767969800,4.8409697265625,0.08019846677780151,-0.10030277073383331,0.028521331027150154
1733705147777936600,4.8509365234375,0.11677222698926926,-0.07490048557519913,0.01793093979358673
1733705147787902700,4.86090283203125,0.16182304918766022,-0.06895364075899124,-0.005396487656980753
1733705147797869600,4.87086962890625,0.2064000517129898,-0.08904632925987244,-0.04147078096866608
1733705147807836700,4.880836669921875,0.23853109776973724,-0.1147647351026535,-0.07469691336154938
1733705147817803800,4.8908037109375,0.23914039134979248,-0.12806588411331177,-0.09943278878927231
1733705147827769900,4.900769775390625,0.20443114638328552,-0.138133704662323,-0.10324004292488098
1733705147837737000,4.910737060546875,0.13647441565990448,-0.11889182031154633,-0.10768399387598038
1733705147847703800,4.920703857421875,0.05807096138596535,-0.05831582844257355,-0.13116562366485596
1733705147857670700,4.930670654296875,-0.00901932641863823,0.026745254173874855,-0.17826054990291595
1733705147867637800,4.9406376953125,-0.0605887770652771,0.14199115335941315,-0.233062282204628
1733705147877603800,4.950603759765625,-0.10006549209356308,0.22559228539466858,-0.26730117201805115
1733705147887571000,4.960571044921875,-0.11490648984909058,0.29049938917160034,-0.2819821238517761
1733705147897537800,4.970537841796875,-0.11834514141082764,0.33301135897636414,-0.2694399952888489
1733705147907505000,4.9805048828125,-0.11193358153104782,0.3536932170391083,-0.23157276213169098
1733705147917472000,4.990471923828125,-0.12422530353069305,0.3508272171020508,-0.17755556106567383
1733705147927438300,5.000438232421875,-0.15168356895446777,0.31232720613479614,-0.1057620570063591
1733705147937405200,5.0104052734375,-0.17148606479167938,0.254179984331131,-0.04190043732523918
1733705147947372300,5.020372314453125,-0.1774265170097351,0.20253461599349976,-0.004281159024685621
1733705147957339100,5.030339111328125,-0.16392646729946136,0.16779741644859314,0.010749554261565208
1733705147967305200,5.04030517578125,-0.1430334448814392,0.16135656833648682,0.014353075996041298
1733705147977272300,5.050272216796875,-0.11687572300434113,0.17246463894844055,0.005781919229775667
1733705147987239200,5.0602392578125,-0.09204068034887314,0.18204882740974426,-0.010906513780355453
1733705147997206300,5.070206298828125,-0.06996500492095947,0.17835171520709991,-0.01772242784500122
1733705148007173000,5.080173095703125,-0.04683785140514374,0.14554902911186218,-0.0010073655284941196
1733705148017139200,5.09013916015625,-0.02796981669962406,0.08307696878910065,0.039507392793893814
1733705148027106000,5.10010595703125,-0.011129849590361118,-0.006710445508360863,0.09071332216262817
1733705148037073200,5.1100732421875,0.0021596273873001337,-0.11007418483495712,0.13500376045703888
1733705148047040300,5.120040283203125,0.01455291360616684,-0.1937350034713745,0.1550981104373932
1733705148057006000,5.130006103515625,0.03035309724509716,-0.246636763215065,0.1561957597732544
1733705148066973200,5.13997314453125,0.05334043875336647,-0.26569297909736633,0.13957630097866058
1733705148076940000,5.14993994140625,0.08229612559080124,-0.2633683681488037,0.11078953742980957
1733705148086907100,5.1599072265625,0.12720102071762085,-0.26990509033203125,0.07417213916778564
1733705148096874200,5.169874267578125,0.1698303073644638,-0.3002818524837494,0.0415133498609066
1733705148106840000,5.179840087890625,0.20635609328746796,-0.35061827301979065,0.013202082365751266
1733705148116807200,5.18980712890625,0.23260635137557983,-0.40487244725227356,-0.016170985996723175
1733705148126774000,5.19977392578125,0.24822232127189636,-0.44714054465293884,-0.04701172187924385
1733705148136741000,5.2097412109375,0.25387904047966003,-0.4091513454914093,-0.08116071671247482
1733705148146708200,5.219708251953125,0.24421603977680206,-0.3292597234249115,-0.10257066786289215
1733705148156674000,5.229674072265625,0.20127063989639282,-0.23924335837364197,-0.09835286438465118
1733705148166641200,5.23964111328125,0.13460318744182587,-0.13537634909152985,-0.10271058976650238
1733705148176608000,5.24960791015625,0.06853470951318741,-0.02960587665438652,-0.12048192322254181
1733705148186575000,5.2595751953125,0.015908781439065933,0.017464961856603622,-0.12657471001148224
1733705148196541200,5.269541259765625,-0.017555881291627884,0.006140543147921562,-0.09224031120538712
1733705148206508000,5.279508056640625,-0.03714796155691147,-0.02883288823068142,-0.042992863804101944
1733705148216475100,5.28947509765625,-0.053226735442876816,-0.05827084183692932,0.006237650290131569
1733705148226442000,5.29944189453125,-0.07376983016729355,-0.07559762895107269,0.059655867516994476
1733705148236409000,5.3094091796875,-0.09813493490219116,-0.08378283679485321,0.11118665337562561
1733705148246375200,5.319375244140625,-0.11464466899633408,-0.08050448447465897,0.14955055713653564
1733705148256342300,5.32934228515625,-0.11841675639152527,-0.08257722854614258,0.1599634885787964
1733705148266309400,5.339309326171875,-0.12029162049293518,-0.07149368524551392,0.14581358432769775
1733705148276276200,5.349276123046875,-0.12599895894527435,-0.033665940165519714,0.11726275086402893
1733705148286243300,5.359243408203125,-0.13917069137096405,0.03116152621805668,0.08537885546684265
1733705148296209200,5.369209228515625,-0.14559005200862885,0.09959732741117477,0.060223862528800964
1733705148306176300,5.37917626953125,-0.13873107731342316,0.13475584983825684,0.046383947134017944
1733705148316143400,5.389143310546875,-0.12044228613376617,0.11564210802316666,0.047521237283945084
1733705148326110200,5.399110107421875,-0.09110970050096512,0.08416887372732162,0.05142569914460182
1733705148336076300,5.409076171875,-0.04630563035607338,0.06066965311765671,0.04795430973172188
1733705148346043100,5.419043212890625,0.0004629407194443047,0.055712975561618805,0.034814007580280304
1733705148356010200,5.42901025390625,0.047575511038303375,0.048238031566143036,0.005216594319790602
1733705148365977000,5.43897705078125,0.10438419133424759,-0.007020166143774986,-0.042834822088479996
1733705148375944200,5.448944091796875,0.15945965051651,-0.09958843886852264,-0.08326710760593414
1733705148385910300,5.45891015625,0.19758440554141998,-0.19436660408973694,-0.11016502976417542
1733705148395877000,5.468877197265625,0.22039149701595306,-0.23466850817203522,-0.15178902447223663
1733705148405844200,5.47884423828125,0.22107833623886108,-0.20075182616710663,-0.20143727958202362
1733705148415811000,5.48881103515625,0.20122425258159637,-0.10935059934854507,-0.2399064600467682
1733705148425777200,5.498777099609375,0.1531190425157547,-0.0030958009883761406,-0.24692869186401367
1733705148435744000,5.508743896484375,0.07150217145681381,0.10394031554460526,-0.2263101190328598
1733705148445711000,5.518711181640625,-0.019263679161667824,0.19332505762577057,-0.20593906939029694
1733705148455678200,5.52867822265625,-0.08912444859743118,0.2374068647623062,-0.19033285975456238
1733705148465645000,5.53864501953125,-0.14829562604427338,0.21569758653640747,-0.14191605150699615
1733705148475611100,5.548611083984375,-0.19753071665763855,0.15439373254776,-0.04615750163793564
1733705148485578000,5.558577880859375,-0.22042271494865417,0.09186775982379913,0.048209480941295624
1733705148495545000,5.568545166015625,-0.21457615494728088,0.037611208856105804,0.10397499799728394
1733705148505512200,5.57851220703125,-0.18856585025787354,-0.0054427869617938995,0.12656259536743164
1733705148515479000,5.58847900390625,-0.14591671526432037,-0.03448460251092911,0.130106583237648
1733705148525445000,5.598445068359375,-0.09357786923646927,-0.040425315499305725,0.11698171496391296
1733705148535412000,5.608411865234375,-0.042685069143772125,-0.026015128940343857,0.0781838595867157
1733705148545379000,5.618379150390625,-0.011041391640901566,-0.016918305307626724,0.03788091242313385
1733705148555346200,5.62834619140625,0.0073711806908249855,-0.020348235964775085,0.02040950208902359
1733705148565312300,5.638312255859375,0.024377593770623207,-0.04618808627128601,0.03472239524126053
1733705148575279400,5.648279296875,0.04471047967672348,-0.09375160187482834,0.06255844980478287
1733705148585246200,5.65824609375,0.06903951615095139,-0.14730989933013916,0.08378171175718307
1733705148595213000,5.668213134765625,0.08572811633348465,-0.19118498265743256,0.0887492448091507
1733705148605180200,5.67818017578125,0.09801328182220459,-0.21485595405101776,0.0795498862862587
1733705148615146200,5.688146240234375,0.10730081051588058,-0.22340282797813416,0.058881863951683044
1733705148625113300,5.69811328125,0.12254340946674347,-0.21293555200099945,0.023548107594251633
1733705148635080200,5.708080078125,0.12422146648168564,-0.19047391414642334,-0.013863446190953255
1733705148645047300,5.71804736328125,0.11069154739379883,-0.1531132310628891,-0.04397021606564522
1733705148655014100,5.72801416015625,0.0819045752286911,-0.11471975594758987,-0.061207130551338196
1733705148664980200,5.737980224609375,0.04329698905348778,-0.08424121141433716,-0.058375924825668335
1733705148674947300,5.747947265625,0.014074590057134628,-0.056327007710933685,-0.039998117834329605
1733705148684914200,5.7579140625,-0.01750277727842331,-0.025374948978424072,-0.017608124762773514
1733705148694881300,5.76788134765625,-0.04312337934970856,-0.0010932767763733864,-0.0031981756910681725
1733705148704847000,5.77784716796875,-0.058391015976667404,0.010859522968530655,0.006102115381509066
1733705148714814200,5.787814208984375,-0.055329181253910065,-0.00004718732088804245,0.010229748673737049
1733705148724781300,5.79778125,-0.03651048615574837,-0.023006297647953033,0.015938501805067062
1733705148734748200,5.807748046875,0.00015791013720445335,-0.05229741334915161,0.02861623838543892
1733705148744715300,5.81771533203125,0.044406067579984665,-0.08613154292106628,0.03749149292707443
1733705148754681000,5.82768115234375,0.08289561420679092,-0.12142854183912277,0.045858174562454224
1733705148764648200,5.837648193359375,0.10238782316446304,-0.1626497507095337,0.057727351784706116
1733705148774615000,5.847614990234375,0.10758182406425476,-0.21473899483680725,0.07327453792095184
1733705148784582100,5.85758203125,0.1057431772351265,-0.2639574110507965,0.09076404571533203
1733705148794548200,5.86754833984375,0.09336378425359726,-0.29643067717552185,0.10190608352422714
1733705148804515000,5.87751513671875,0.0786098763346672,-0.30054980516433716,0.09514725208282471
1733705148814482200,5.887482177734375,0.059092916548252106,-0.27981841564178467,0.07696528732776642
1733705148824449000,5.897448974609375,0.041326701641082764,-0.2385181039571762,0.05098215490579605
1733705148834416000,5.907416015625,0.020751850679516792,-0.1853710412979126,0.02039376273751259
1733705148844382000,5.9173818359375,0.004139052238315344,-0.12300993502140045,-0.006736925803124905
1733705148854349000,5.92734912109375,-0.010673817247152328,-0.06103948503732681,-0.025228921324014664
1733705148864316200,5.937316162109375,-0.012870391830801964,-0.004990062676370144,-0.033722538501024246
1733705148874283000,5.947282958984375,-0.015320348553359509,0.04441985487937927,-0.03822252154350281
1733705148884250000,5.95725,-0.013382100500166416,0.08816786855459213,-0.039411090314388275
1733705148894216000,5.9672158203125,-0.014603950083255768,0.11655400693416595,-0.037740517407655716
1733705148904183000,5.97718310546875,-0.008769496344029903,0.1271214336156845,-0.03786781430244446
1733705148914150100,5.987150146484375,-0.006190209649503231,0.1251767873764038,-0.0353223979473114
1733705148924116500,5.997116455078125,-0.006719113327562809,0.1141963079571724,-0.027768874540925026
1733705148934082600,6.00708251953125,-0.004242115654051304,0.10075423121452332,-0.020582308992743492
1733705148944049400,6.01704931640625,-0.006951882038265467,0.08651350438594818,-0.020477114245295525
1733705148954016500,6.0270166015625,-0.01476065069437027,0.07089674472808838,-0.01935250498354435
1733705148963983400,6.0369833984375,-0.018036071211099625,0.05985075607895851,-0.01815860904753208
1733705148973950500,6.046950439453125,-0.02212049812078476,0.04724328964948654,-0.021183274686336517
1733705148983916500,6.05691650390625,-0.018605656921863556,0.03993663936853409,-0.02932429127395153
1733705148993883400,6.06688330078125,-0.014001884497702122,0.036750759929418564,-0.03643514961004257
1733705149003850500,6.0768505859375,-0.014552892185747623,0.03132589906454086,-0.04034440219402313
1733705149013817300,6.0868173828125,-0.012373610399663448,0.026540197432041168,-0.04330667108297348
1733705149023784400,6.096784423828125,-0.011587711982429028,0.02781531773507595,-0.04263555258512497
1733705149033750300,6.106750244140625,-0.010138202458620071,0.03119860589504242,-0.04179735854268074
1733705149043717400,6.11671728515625,-0.00749474810436368,0.03431396931409836,-0.03939279168844223
1733705149053684500,6.1266845703125,-0.0075975628569722176,0.03561173379421234,-0.0387733057141304
1733705149063651300,6.1366513671875,-0.007246292196214199,0.039546553045511246,-0.033267222344875336
1733705149073617400,6.146617431640625,-0.011528491042554379,0.041400350630283356,-0.023339278995990753
1733705149083584300,6.156584228515625,-0.012636632658541203,0.037316661328077316,-0.008350208401679993
1733705149093551400,6.16655126953125,-0.013911553658545017,0.02630370296537876,0.00001996825449168682
1733705149103518500,6.1765185546875,-0.013818076811730862,0.015588207170367241,-0.001520404126495123
1733705149113485300,6.1864853515625,-0.016059909015893936,0.009209347888827324,-0.009349850937724113
1733705149123451400,6.196451416015625,-0.02197558805346489,0.0007271803915500641,-0.00915597379207611
1733705149133418200,6.206418212890625,-0.03168715536594391,-0.010653289034962654,-0.0004432776477187872
1733705149143385300,6.21638525390625,-0.03834079951047897,-0.026970211416482925,0.016315994784235954
1733705149153352400,6.2263525390625,-0.04379044100642204,-0.041288379579782486,0.0320236012339592
1733705149163319300,6.2363193359375,-0.04496675729751587,-0.07186679542064667,0.04682039096951485
1733705149173285400,6.246285400390625,-0.042151615023612976,-0.10172485560178757,0.06353217363357544
1733705149183252200,6.256252197265625,-0.040396593511104584,-0.11659461259841919,0.07307374477386475
1733705149193219300,6.26621923828125,-0.04633871838450432,-0.11572080850601196,0.07606463134288788
1733705149203186400,6.2761865234375,-0.05957329645752907,-0.10048407316207886,0.0791216790676117
1733705149213152500,6.286152587890625,-0.07035979628562927,-0.08385291695594788,0.07823491841554642
1733705149223119600,6.29611962890625,-0.0800800696015358,-0.07895829528570175,0.07931536436080933
1733705149233086500,6.30608642578125,-0.08614680171012878,-0.0829455628991127,0.08435682207345963
1733705149243053300,6.31605322265625,-0.08415742218494415,-0.08614908158779144,0.08659334480762482
1733705149253020400,6.3260205078125,-0.07008818536996841,-0.0764882043004036,0.0800722986459732
1733705149262986500,6.335986572265625,-0.04316230118274689,-0.06165972352027893,0.06556765735149384
1733705149272953600,6.34595361328125,-0.016319019719958305,-0.05266488716006279,0.049192775040864944
1733705149282920400,6.35592041015625,0.013797870837152004,-0.060637589544057846,0.040592629462480545
1733705149292887600,6.365887451171875,0.04339185357093811,-0.0822797566652298,0.040735095739364624
1733705149302854400,6.3758544921875,0.06874754279851913,-0.11589230597019196,0.050487861037254333
1733705149312820500,6.385820556640625,0.09484590590000153,-0.15092168748378754,0.06330263614654541
1733705149322787600,6.39578759765625,0.1107335239648819,-0.17741668224334717,0.07435689121484756
1733705149332754400,6.40575439453125,0.1239268034696579,-0.18631510436534882,0.08049816638231277
1733705149342721500,6.415721435546875,0.1328103095293045,-0.1756608635187149,0.07539422065019608
1733705149352687400,6.425687255859375,0.13376590609550476,-0.1471131145954132,0.060047127306461334
1733705149362654500,6.435654541015625,0.12894877791404724,-0.1173299178481102,0.043214350938797
1733705149372621300,6.445621337890625,0.11523500084877014,-0.10101617127656937,0.032900121062994
1733705149382588400,6.45558837890625,0.10153862833976746,-0.09560728818178177,0.03232354670763016
1733705149392555500,6.465555419921875,0.09167750924825668,-0.10241034626960754,0.03411738574504852
1733705149402521300,6.475521240234375,0.08230744302272797,-0.10484766960144043,0.03569025173783302
1733705149412488400,6.485488525390625,0.06652313470840454,-0.10287798941135406,0.03641306608915329
1733705149422455300,6.495455322265625,0.04923282936215401,-0.0929502546787262,0.03004438243806362
1733705149432422400,6.50542236328125,0.026164261624217033,-0.07082556933164597,0.01531924307346344
1733705149442388200,6.51538818359375,0.0048738871701061726,-0.04719560965895653,-0.00016011414118111134
1733705149452355300,6.525355224609375,-0.02092229202389717,-0.024173058569431305,-0.013881530612707138
1733705149462322400,6.535322509765625,-0.04577064886689186,-0.00047811586409807205,-0.025354960933327675
1733705149472289300,6.545289306640625,-0.06881657987833023,0.027807261794805527,-0.03931177780032158
1733705149482256400,6.55525634765625,-0.07941675931215286,0.05768366903066635,-0.057101961225271225
1733705149492222200,6.56522216796875,-0.07472172379493713,0.08525464683771133,-0.06697595119476318
1733705149502189300,6.575189208984375,-0.06391887366771698,0.09876087307929993,-0.06801591068506241
1733705149512156400,6.585156494140625,-0.04961168020963669,0.09105951339006424,-0.05775747075676918
1733705149522123300,6.595123291015625,-0.03824717178940773,0.06727215647697449,-0.042870935052633286
1733705149532090400,6.60509033203125,-0.02695026993751526,0.04048053175210953,-0.03234460949897766
1733705149542056400,6.615056396484375,-0.02136002853512764,0.021101508289575577,-0.021542295813560486
1733705149552023300,6.625023193359375,-0.016201920807361603,0.014268354512751102,-0.016896601766347885
1733705149561990400,6.634990478515625,-0.008475292474031448,0.017316075041890144,-0.02082689478993416
1733705149571957200,6.644957275390625,-0.001815976109355688,0.02303013950586319,-0.028124647215008736
1733705149581923600,6.654923583984375,0.0038512307219207287,0.02658519335091114,-0.031421907246112823
1733705149591890400,6.664890380859375,0.008830794133245945,0.024552352726459503,-0.03208179399371147
1733705149601857500,6.674857421875,0.0125877158716321,0.019867584109306335,-0.027824731543660164
1733705149611824600,6.68482470703125,0.017470719292759895,0.0091246934607625,-0.02024132013320923
1733705149621791500,6.69479150390625,0.023193320259451866,-0.0009862640872597694,-0.01299965288490057
1733705149631757600,6.704757568359375,0.024952858686447144,-0.0103561170399189,-0.0014822396915405989
1733705149641724400,6.714724365234375,0.020815905183553696,-0.021281205117702484,0.004008932039141655
1733705149651691500,6.72469140625,0.014200856909155846,-0.03162965178489685,0.008626610971987247
1733705149661658600,6.73465869140625,0.01035125833004713,-0.04264368861913681,0.014635501429438591
1733705149671625500,6.74462548828125,0.007792095188051462,-0.05305396392941475,0.020309356972575188
1733705149681591600,6.754591552734375,0.00675479369238019,-0.05660715326666832,0.02452860400080681
1733705149691558400,6.764558349609375,0.005235558375716209,-0.06116782873868942,0.026387829333543777
1733705149701525500,6.774525390625,0.0003390706260688603,-0.05977952480316162,0.026670925319194794
1733705149711492400,6.784492431640625,-0.0011712899431586266,-0.05197218805551529,0.025451622903347015
1733705149721458400,6.79445849609375,-0.00532875070348382,-0.04102766141295433,0.018410757184028625
1733705149731425500,6.804425537109375,-0.009305324405431747,-0.03065941110253334,0.010575349442660809
1733705149741392400,6.814392333984375,-0.016072949394583702,-0.023941054940223694,0.005135577172040939
1733705149751359500,6.824359375,-0.021695708855986595,-0.024524057283997536,0.0016048152465373278
1733705149761326300,6.834326416015625,-0.026265159249305725,-0.025166945531964302,-0.0031710313633084297
1733705149771292400,6.84429248046875,-0.02628944255411625,-0.018128201365470886,-0.010433109477162361
1733705149781259300,6.85425927734375,-0.026248697191476822,-0.009031642228364944,-0.0128342155367136
1733705149791226400,6.864226318359375,-0.022676067426800728,-0.0026395749300718307,-0.013089597225189209
1733705149801193500,6.874193359375,-0.026187710464000702,-0.003625743091106415,-0.007136633154004812
1733705149811160300,6.884160400390625,-0.026067601516842842,-0.005644101649522781,-0.0009740940295159817
1733705149821126400,6.89412646484375,-0.02419832907617092,-0.010895589366555214,0.00530697125941515
1733705149831093200,6.90409326171875,-0.016790131106972694,-0.016304749995470047,0.010197972878813744
1733705149841060400,6.914060302734375,-0.005243996623903513,-0.026046592742204666,0.015872903168201447
1733705149851027500,6.92402734375,0.00545573141425848,-0.026324843987822533,0.020195048302412033
1733705149860993300,6.9339931640625,0.012475823052227497,-0.029650332406163216,0.021280020475387573
1733705149870960400,6.94396044921875,0.020426928997039795,-0.03416389226913452,0.024678006768226624
1733705149880927200,6.95392724609375,0.019957413896918297,-0.041406359523534775,0.03301050513982773
1733705149890894300,6.963894287109375,0.019538581371307373,-0.047114063054323196,0.04292076453566551
1733705149900861400,6.973861328125,0.019776666536927223,-0.0590980164706707,0.05037708580493927
1733705149910827500,6.98382763671875,0.019903501495718956,-0.06788193434476852,0.05299590528011322
1733705149920794600,6.993794677734375,0.01829415187239647,-0.07278934121131897,0.05469314008951187
1733705149930761700,7.00376171875,0.01655862294137478,-0.0716654509305954,0.05206048861145973
1733705149940728600,7.013728515625,0.013661903329193592,-0.07234322279691696,0.04501695930957794
1733705149950695700,7.02369580078125,0.011237692087888718,-0.07452888786792755,0.04396408796310425
1733705149960662000,7.033662109375,0.010326358489692211,-0.0788341611623764,0.04262984171509743
1733705149970628900,7.04362890625,0.00983691867440939,-0.07847917079925537,0.042076073586940765
1733705149980595700,7.053595703125,0.00908990204334259,-0.07445459812879562,0.04076553136110306
1733705149990562600,7.0635625,0.006549399346113205,-0.06612794101238251,0.0388655923306942
1733705150000529000,7.07352880859375,0.005871891044080257,-0.058104366064071655,0.033666569739580154
1733705150010496000,7.08349609375,0.00523464335128665,-0.047668829560279846,0.022696396335959435
1733705150020462800,7.093462890625,0.003805324900895357,-0.038756828755140305,0.009178723208606243
1733705150030430000,7.103429931640625,0.0036566255148500204,-0.027045780792832375,-0.0021688323467969894
1733705150040396800,7.113396728515625,0.0003614964662119746,-0.0116718839854002,-0.0085745332762599
1733705150050363000,7.12336279296875,0.004020740743726492,0.000059283338487148285,-0.006349305156618357
1733705150060329700,7.133329833984375,0.006218381226062775,0.006620513275265694,-0.0013084735255688429
1733705150070296800,7.143296875,0.01315123587846756,0.004134631250053644,0.00817617867141962
1733705150080264000,7.153263916015625,0.020025387406349182,-0.0031334012746810913,0.015809597447514534
1733705150090229800,7.163229736328125,0.022439196705818176,-0.0212705135345459,0.022701457142829895
1733705150100196900,7.17319677734375,0.022028271108865738,-0.03868678957223892,0.02820301428437233
1733705150110163700,7.183163818359375,0.01747937686741352,-0.0563882440328598,0.031087104231119156
1733705150120130800,7.193130859375,0.008078683167696,-0.06865555793046951,0.030976053327322006
1733705150130098000,7.203097900390625,0.001830965280532837,-0.07052826881408691,0.028744468465447426
1733705150140063700,7.213063720703125,-0.007641898468136787,-0.06223464757204056,0.02299417182803154
1733705150150030800,7.22303076171875,-0.011198874562978745,-0.05100253224372864,0.010454531759023666
1733705150159997700,7.232997802734375,-0.01712174341082573,-0.027346206828951836,0.001477814745157957
1733705150169964800,7.24296484375,-0.01733114942908287,-0.005117054097354412,-0.006257443688809872
1733705150179932000,7.252931884765625,-0.01738867349922657,0.013086983934044838,-0.01322667021304369
1733705150189897700,7.262897705078125,-0.015563246794044971,0.028367385268211365,-0.025387121364474297
1733705150199864800,7.27286474609375,-0.014179201796650887,0.04437458515167236,-0.03405091539025307
1733705150209831700,7.282831787109375,-0.012613196857273579,0.05356647074222565,-0.036830317229032516
1733705150219798800,7.292798828125,-0.0064796702936291695,0.06258313357830048,-0.03703218698501587
1733705150229764600,7.3027646484375,-0.0033500054851174355,0.06898213922977448,-0.038389161229133606
1733705150239731700,7.312731689453125,-0.0012410483323037624,0.06789477169513702,-0.03989624232053757
1733705150249698800,7.32269873046875,-0.0030143323820084333,0.0669320672750473,-0.03870871290564537
1733705150259665700,7.332665771484375,-0.0030833082273602486,0.06290058046579361,-0.03300368785858154
1733705150269632800,7.3426328125,-0.0018147439695894718,0.06414185464382172,-0.030205965042114258
1733705150279598600,7.3525986328125,0.0009080719319172204,0.056669559329748154,-0.02570602297782898
1733705150289565700,7.362565673828125,0.0014685370260849595,0.04529809579253197,-0.020633496344089508
1733705150299532800,7.37253271484375,0.000848286843392998,0.03249628096818924,-0.014003823511302471
1733705150309499600,7.382499755859375,0.0017314208671450615,0.021638624370098114,-0.007375823333859444
1733705150319466800,7.392466796875,0.004328535404056311,0.015273669734597206,-0.0068565066903829575
1733705150329432800,7.402432861328125,0.00577485142275691,0.017506683245301247,-0.011547291651368141
1733705150339400000,7.41239990234375,0.004698135424405336,0.024914532899856567,-0.020948249846696854
1733705150349366800,7.42236669921875,0.0025995816104114056,0.028905276209115982,-0.023275621235370636
1733705150359333600,7.432333740234375,-0.0018715995829552412,0.02600669115781784,-0.020687825977802277
1733705150369300000,7.442300048828125,-0.005050450563430786,0.023517508059740067,-0.010470159351825714
1733705150379266800,7.452266845703125,-0.008587394841015339,0.01583721861243248,-0.002775221597403288
1733705150389234000,7.46223388671875,-0.009741955436766148,0.008665340952575207,0.0006151413545012474
1733705150399200800,7.47220068359375,-0.004436672665178776,0.0002859709784388542,0.00047399383038282394
1733705150409168000,7.48216796875,0.003598697716370225,-0.004796154797077179,-0.0019901213236153126
1733705150419133700,7.4921337890625,0.006091416347771883,-0.0035069184377789497,-0.0028335447423160076
1733705150429100800,7.502100830078125,0.002596816048026085,-0.0004765596240758896,-0.003161365631967783
1733705150439068000,7.51206787109375,0.00038293004035949707,-0.00442149955779314,-0.0019043534994125366
1733705150449034800,7.52203466796875,0.002730805892497301,-0.0056443773210048676,0.0007813659030944109
1733705150459000800,7.532000732421875,0.0047699883580207825,-0.006633741781115532,-0.00008895504288375378
1733705150468967700,7.5419677734375,0.007499946281313896,-0.0077903419733047485,-0.0017951466143131256
1733705150478934800,7.551934814453125,0.007030697073787451,-0.010594118386507034,-0.005453264340758324
1733705150488902000,7.56190185546875,0.0012309795711189508,-0.01115633174777031,-0.005488376598805189
1733705150498868700,7.57186865234375,-0.001071056816726923,-0.014723103493452072,-0.002104564104229212
1733705150508834800,7.581834716796875,-0.0005105760646983981,-0.013360610231757164,0.0021929373033344746
1733705150518801700,7.5918017578125,0.0025477982126176357,-0.006831072270870209,0.007137361913919449
1733705150528768800,7.601768798828125,0.003635614411905408,0.0021424153819680214,0.00721184303984046
1733705150538735900,7.61173583984375,0.006529937963932753,0.007136907894164324,0.0023819340858608484
1733705150548702700,7.62170263671875,0.0036334379110485315,0.0067296624183654785,-0.001582341268658638
1733705150558668800,7.631668701171875,0.0012139559257775545,-0.003023100085556507,-0.0004704715684056282
1733705150568635600,7.6416357421875,-0.0012438463745638728,-0.009893473237752914,0.0062267715111374855
1733705150578602800,7.651602783203125,0.0011689775856211782,-0.015193162485957146,0.004867494106292725
1733705150588569900,7.66156982421875,0.004881108179688454,-0.01669144630432129,0.005821269936859608
1733705150598535700,7.67153564453125,0.009181314148008823,-0.013934008777141571,0.005797834135591984
1733705150608502800,7.681502685546875,0.008330284617841244,-0.007364815101027489,0.006674585398286581
1733705150618469600,7.6914697265625,0.006410145666450262,-0.0027578119188547134,0.00617098156362772
1733705150628436700,7.701436767578125,0.004519570153206587,0.003768845461308956,0.002529358258470893
1733705150638403800,7.71140380859375,0.006078318227082491,0.0011062165722250938,0.0008973731892183423
1733705150648369700,7.72136962890625,0.005981743335723877,-0.0007055485621094704,-0.0025422913022339344
1733705150658336800,7.731336669921875,0.006554056890308857,0.0044817570596933365,-0.0048706927336752415
1733705150668303600,7.7413037109375,0.004413074813783169,0.008550494909286499,-0.006020501721650362
1733705150678270700,7.751270751953125,-0.000051980954594910145,0.013119947165250778,-0.0075528849847614765
1733705150688237600,7.761237548828125,-0.0039972830563783646,0.01829320564866066,-0.011020146310329437
1733705150698204000,7.771203857421875,-0.006251915358006954,0.02140910178422928,-0.012559186667203903
1733705150708171000,7.7811708984375,-0.006155878305435181,0.02363356202840805,-0.011587172746658325
1733705150718137900,7.791137939453125,-0.004994207061827183,0.027558794245123863,-0.011217525228857994
1733705150728104700,7.801104736328125,-0.002461393130943179,0.027462944388389587,-0.007526421453803778
1733705150738070800,7.81107080078125,-0.0012291485909372568,0.020705707371234894,-0.004446742590516806
1733705150748038000,7.821037841796875,-0.00338921369984746,0.01744806207716465,-0.002404925413429737
1733705150758004700,7.831004638671875,-0.0020331318955868483,0.014266650192439556,-0.0004666766617447138
1733705150767971800,7.840971923828125,-0.002895188517868519,0.011622987687587738,-0.0026654191315174103
1733705150777939000,7.85093896484375,0.0005259083118289709,0.009868230670690536,-0.0036840783432126045
1733705150787904800,7.86090478515625,0.0016959367785602808,0.006742456462234259,-0.004618512000888586
1733705150797871900,7.870871826171875,0.00215772888623178,0.004176767077296972,-0.005216125398874283
1733705150807838700,7.880838623046875,-0.002099107950925827,-0.0001589115709066391,-0.0032636625692248344
1733705150817805800,7.890805908203125,-0.004280237015336752,-0.0015892954543232918,0.0016490706475451589
1733705150827771600,7.900771728515625,-0.0067185889929533005,-0.0019721491262316704,0.005326518788933754
1733705150837738800,7.91073876953125,-0.0014836136251688004,0.0006119152531027794,0.0067401244305074215
1733705150847705900,7.920705810546875,0.002046979498118162,-0.004144452512264252,0.0031578196212649345
1733705150857672700,7.930672607421875,0.004166589118540287,-0.0074049606919288635,-0.00045955204404890537
1733705150867639800,7.940639892578125,0.00240649888291955,-0.0074342992156744,-0.0018180077895522118
1733705150877605600,7.950605712890625,-0.0007932891021482646,-0.007768791168928146,-0.00037244404666125774
1733705150887572700,7.96057275390625,0.0011583417654037476,-0.007452420890331268,0.0008604701142758131
1733705150897539800,7.970539794921875,0.004032158758491278,-0.007192762568593025,0.0009677954949438572
1733705150907506700,7.980506591796875,0.003599293064326048,-0.0037528565153479576,0.000904383254237473
1733705150917473300,7.990473388671875,0.0037950354162603617,-0.0024287328124046326,7.727649062871933e-7
1733705150927440100,8.000440185546875,0.0016256122617051005,0.0029898020438849926,0.0021121278405189514
1733705150937407200,8.0104072265625,0.00016673258505761623,0.007016767747700214,0.0028514214791357517
1733705150947374300,8.020374267578125,-0.0005221297033131123,0.007601897697895765,0.0024229788687080145
1733705150957341200,8.030341064453125,-0.0010265323799103498,0.007233049720525742,0.002947355154901743
1733705150967307300,8.040307373046875,0.0018056589178740978,0.005756287835538387,0.0018391207559034228
1733705150977274000,8.050274169921876,0.002957209711894393,0.005401821341365576,0.0009778544772416353
1733705150987241200,8.0602412109375,0.002477739006280899,0.0051328642293810844,0.0018318609800189734
1733705150997208300,8.070208251953124,0.00022097636247053742,0.0028105881065130234,0.00208885595202446
1733705151007175200,8.080175048828124,0.001388144213706255,0.0035913893952965736,0.0022826711647212505
1733705151017141200,8.090141357421874,-0.0015109728556126356,0.003553838934749365,0.0019519065972417593
1733705151027108000,8.100108154296874,-0.0032060923986136913,0.005276907701045275,0.00493281614035368
1733705151037075200,8.1100751953125,-0.004679619800299406,0.005660403054207563,0.004319489933550358
1733705151047042300,8.120042236328125,-0.0013574612094089389,0.006818427704274654,0.004656627774238586
1733705151057008400,8.13000830078125,-0.002098352648317814,0.00932206492871046,0.003127706702798605
1733705151066975200,8.139975341796875,0.0009830392664298415,0.010760950855910778,-0.0018710047006607056
1733705151076942000,8.149942138671875,-0.00016265257727354765,0.01014123298227787,-0.006370948161929846
1733705151086909200,8.1599091796875,-0.0004098759964108467,0.008708467707037926,-0.009552732110023499
1733705151096876300,8.169876220703125,-0.001675143837928772,0.004952345043420792,-0.00751488097012043
1733705151106842400,8.17984228515625,-0.000393232679925859,-0.0028203828260302544,-0.002079094760119915
1733705151116809500,8.1898095703125,0.001611328567378223,-0.007484909147024155,0.0021071280352771282
1733705151126776300,8.1997763671875,-0.0003280181554146111,-0.0018160976469516754,0.0035165376029908657
1733705151136743400,8.209743408203124,0.0003233910829294473,0.005501736421138048,-0.0008334696758538485
1733705151146709200,8.219709228515624,0.0035477972123771906,0.009598186239600182,-0.010310821235179901
1733705151156676400,8.22967626953125,0.0021877207327634096,0.010347067378461361,-0.01343231275677681
1733705151166643500,8.2396435546875,-0.00046378339175134897,0.00854699220508337,-0.009101077914237976
1733705151176610300,8.2496103515625,0.0005847031134180725,0.0012035919353365898,-0.0025558266788721085
1733705151186577400,8.259577392578125,-0.0002613309770822525,-0.0046913279220461845,-0.00014576571993529797
1733705151196543200,8.269543212890625,0.0022532257717102766,-0.0036684079095721245,0.0026697281282395124
1733705151206510300,8.27951025390625,0.004907125607132912,-0.00322014931589365,0.003175061196088791
1733705151216477400,8.2894775390625,0.00628264807164669,-0.001908808946609497,-0.0014804108068346977
1733705151226444300,8.2994443359375,0.004743639379739761,-0.0009758593514561653,0.0026849613059312105
1733705151236410400,8.309410400390625,0.004884786903858185,-0.006753586232662201,0.004843453411012888
1733705151246377200,8.319377197265625,0.00034912509727291763,-0.011300446465611458,0.006271251942962408
1733705151256344300,8.32934423828125,-0.000012265867553651333,-0.015544725582003593,0.006321585737168789
1733705151266311200,8.339311279296876,-0.0018878483679145575,-0.01753433607518673,0.004300870932638645
1733705151276278300,8.3492783203125,-0.0022159498184919357,-0.01591726578772068,0.0033144361805170774
1733705151286244400,8.359244384765624,-0.001985702197998762,-0.016325559467077255,0.00247444910928607
1733705151296211200,8.369211181640624,-0.001489289104938507,-0.011140918359160423,0.0031338478438556194
1733705151306178300,8.37917822265625,-0.001114814542233944,-0.007077738642692566,0.003364678006619215
1733705151316145200,8.389145263671875,-0.0013070948189124465,-0.003877151757478714,0.0009622405050322413
1733705151326112300,8.3991123046875,0.0017293570563197136,-0.0037037627771496773,0.000221246387809515
1733705151336078000,8.409078125,0.0024851621128618717,-0.002294152043759823,-0.0015753223560750484
1733705151346045200,8.419045166015625,0.0014949485193938017,-0.006419645622372627,-0.002148603554815054
1733705151356012300,8.42901220703125,0.0026273245457559824,-0.005624691024422646,-0.002165914047509432
1733705151365979100,8.438979248046875,0.0007354318513534963,-0.008164284750819206,-0.0002921458799391985
1733705151375945200,8.4489453125,0.0046851662918925285,-0.01305597834289074,0.0028706241864711046
1733705151385912000,8.458912109375,0.005331199150532484,-0.015108201652765274,0.0032185297459363937
1733705151395879200,8.468879150390626,0.00619459617882967,-0.012261547148227692,-0.00019777333363890648
1733705151405846300,8.47884619140625,0.005735136102885008,-0.006632998585700989,-0.0022083185613155365
1733705151415813000,8.488813232421874,0.0020687622018158436,0.0016299914568662643,-0.004627267364412546
1733705151425779500,8.498779541015624,-0.0028514277655631304,0.00768149271607399,-0.008016938343644142
1733705151435746300,8.508746337890624,-0.007513823918998241,0.009289775975048542,-0.003392093349248171
1733705151445713400,8.51871337890625,-0.004057492595165968,0.002011660486459732,-0.0008143270388245583
1733705151455680300,8.52868017578125,-0.0016851485706865788,0.0018699802458286285,0.0019457730231806636
1733705151465646300,8.538646240234375,-0.00007892929716035724,0.004459358286112547,0.001071859966032207
1733705151475613400,8.548613525390625,0.0011037804652005434,0.008876477368175983,-0.0018387087620794773
1733705151485580300,8.558580322265625,0.0007648785831406713,0.008784041740000248,-0.006128225009888411
1733705151495547400,8.56854736328125,0.0001648683683015406,0.00229631457477808,-0.005723691079765558
1733705151505514500,8.578514404296875,-0.0022443789057433605,-0.003118925727903843,-0.007301586214452982
1733705151515480300,8.588480224609375,-0.0021341240499168634,-0.0067520104348659515,-0.005012598820030689
1733705151525447400,8.598447509765625,-0.0023919811937958,-0.006687872111797333,0.0016414481215178967
1733705151535414300,8.608414306640626,0.0004176537040621042,-0.003413781523704529,0.0027836780063807964
1733705151545381400,8.61838134765625,0.00201603164896369,0.003114437684416771,0.0003397942055016756
1733705151555347200,8.62834716796875,0.007202537730336189,0.008449016138911247,-0.004991588182747364
1733705151565314300,8.638314208984376,0.004974286071956158,0.0075875334441661835,-0.005429190117865801
1733705151575281400,8.648281494140624,0.001924966461956501,0.0027299276553094387,-0.0007782455068081617
1733705151585248300,8.658248291015624,0.0003521399339661002,-0.0026481235399842262,0.002725620986893773
1733705151595215400,8.66821533203125,-0.0027171531692147255,-0.004332039505243301,0.0030116443522274494
1733705151605181200,8.67818115234375,-0.002270633354783058,-0.004849267192184925,0.0034363516606390476
1733705151615148300,8.688148193359375,-0.0012221469078212976,-0.0038537774235010147,0.0010863782372325659
1733705151625115400,8.698115478515625,-0.0013389377854764462,-0.0008206116035580635,0.000503671239130199
1733705151635082200,8.708082275390625,-0.0020209732465445995,-0.0005644159391522408,-0.0008691882248967886
1733705151645049300,8.71804931640625,-0.004438308067619801,-0.002476302906870842,-0.0012322096154093742
1733705151655015200,8.72801513671875,-0.007914531975984573,-0.0020107822492718697,-0.0014327457174658775
1733705151664982300,8.737982177734375,-0.004064117092639208,0.0007202876731753349,0.004664262756705284
1733705151674949000,8.74794921875,0.0034169687423855066,-0.0015868088230490685,0.005310079548507929
1733705151684916200,8.757916259765626,0.006279357708990574,-0.003997032530605793,0.006940173916518688
1733705151694882300,8.76788232421875,0.009219753555953503,-0.007367528975009918,0.005888758227229118
1733705151704849200,8.77784912109375,0.0068604424595832825,-0.012444309890270233,0.0023598363623023033
1733705151714816300,8.787816162109374,0.004155735485255718,-0.012854702770709991,0.003740951418876648
1733705151724783000,8.797783203125,0.002292881952598691,-0.008240457624197006,0.00569910230115056
1733705151734750200,8.807750244140625,-0.001431548735126853,-0.007568808272480965,0.004014386795461178
1733705151744716300,8.81771630859375,0.0006638162885792553,-0.0012704888358712196,0.0011403417447581887
1733705151754683100,8.82768310546875,0.00021933470270596445,0.002543424256145954,-0.003089024219661951
1733705151764650200,8.837650146484375,-0.0024536701384931803,0.002081155776977539,-0.0028094309382140636
1733705151774617000,8.8476171875,-0.00535997748374939,0.00024836789816617966,-0.001534043112769723
1733705151784583400,8.85758349609375,-0.0026169386692345142,-0.0005857301875948906,0.003557154443114996
1733705151794550300,8.86755029296875,0.0005295861628837883,-0.0031418325379490852,0.0031448970548808575
1733705151804517400,8.877517333984375,0.0026166392490267754,-0.0011503072455525398,0.001488274079747498
1733705151814484500,8.887484375,0.0012333932099863887,-0.0016973204910755157,-0.003250021953135729
1733705151824451300,8.897451416015626,-0.0015068561770021915,-0.00013706553727388382,-0.004002622794359922
1733705151834417400,8.90741748046875,-0.006104803644120693,0.0031079957261681557,-0.0031591993756592274
1733705151844384300,8.91738427734375,-0.010835684835910797,0.0033363481052219868,0.0004552884493023157
1733705151854351400,8.927351318359374,-0.010798666626214981,-0.003662705421447754,0.0025189719162881374
1733705151864318500,8.937318359375,-0.004994110204279423,-0.005215896293520927,0.0000013664830476045609
1733705151874284300,8.9472841796875,-0.0016960510984063148,-0.0008589653298258781,-0.0018247631378471851
1733705151884251400,8.95725146484375,-0.00001471338327974081,0.0008752690628170967,-0.00460393400862813
1733705151894218200,8.96721826171875,-0.0019747999031096697,0.0012286705896258354,-0.003619896247982979
1733705151904185300,8.977185302734375,-0.002815516199916601,0.0024861441925168037,-0.0030135582201182842
1733705151914152400,8.98715234375,-0.002439744072034955,0.005024935584515333,-0.0023208698257803917
1733705151924121000,8.99712109375,-0.0016295709647238255,0.004954467993229628,0.0008889255113899708
1733705151934088000,9.007087890625,-0.00008493760833516717,0.004315309226512909,0.0004857229068875313
1733705151944055000,9.017054931640626,0.0031220901291817427,-0.000529521144926548,0.0001476714387536049
1733705151954022100,9.027022216796874,0.0005651892861351371,-0.0021750880405306816,-0.0010281142313033342
1733705151963988000,9.036988037109374,-0.0008854013285599649,0.0019828975200653076,-0.002176001202315092
1733705151973955000,9.046955078125,-0.005161639302968979,0.0015125833451747894,-0.0037294230423867702
1733705151983922000,9.056921875,-0.004986767657101154,0.0018086917698383331,-0.0044008661061525345
1733705151993889000,9.066888916015625,-0.003990478813648224,0.0033040568232536316,-0.005041356664150953
1733705152003856100,9.076856201171875,-0.005351405590772629,0.0022180303931236267,-0.003158136736601591
1733705152013822000,9.086822021484375,-0.0054765734821558,0.001402837224304676,-0.002305924892425537
1733705152023789000,9.0967890625,-0.0059382980689406395,0.000653410330414772,-0.005088793579488993
1733705152033756000,9.106755859375,-0.0072190118953585625,0.001790313981473446,-0.0064960080198943615
1733705152043723000,9.116722900390625,-0.0125521719455719,0.006940847262740135,-0.007124146446585655
1733705152053689000,9.126689208984375,-0.014742089435458183,0.015494121238589287,-0.009828053414821625
1733705152063656200,9.13665625,-0.015656370669603348,0.017482174560427666,-0.010708196088671684
1733705152073623300,9.146623291015626,-0.012576957233250141,0.017949558794498444,-0.010173166170716286
1733705152083590100,9.156590087890624,-0.010580136440694332,0.01841854676604271,-0.01083865761756897
1733705152093557000,9.166556884765624,-0.008368114940822124,0.016447007656097412,-0.010085515677928925
1733705152103523000,9.176523193359374,-0.009069363586604595,0.016451748088002205,-0.008532261475920677
1733705152113490200,9.186490234375,-0.005075953900814056,0.016633108258247375,-0.006965790409594774
1733705152123457000,9.19645703125,-0.0022425318602472544,0.01600763201713562,-0.007309809327125549
1733705152133424000,9.206424072265625,-0.006392535753548145,0.010797690600156784,-0.0037978990003466606
1733705152143390200,9.21639013671875,-0.0048860181123018265,0.006608013529330492,0.0017348828259855509
1733705152153357000,9.226357177734375,-0.004818640183657408,0.0017983447760343552,0.0006131593836471438
1733705152163324200,9.23632421875,-0.00003073608968406916,-0.003978656604886055,0.000332072377204895
1733705152173291000,9.246291015625,0.0005791277508251369,-0.006467647850513458,0.0016910834237933159
1733705152183258000,9.256258056640625,-0.0024620438925921917,-0.0038940077647566795,0.001708358060568571
1733705152193224200,9.26622412109375,-0.0026521936524659395,-0.0005482779815793037,0.002925156382843852
1733705152203191000,9.27619091796875,-0.005644696764647961,0.005646543577313423,0.004195553250610828
1733705152213158100,9.286158203125,-0.004672909155488014,0.00683244876563549,0.00022318214178085327
1733705152223125000,9.296125,0.0005516623496077955,0.007856970652937889,-0.004613883793354034
1733705152233091000,9.306091064453126,-0.0032542613334953785,0.011253566481173038,-0.005763303954154253
1733705152243058000,9.316057861328124,-0.0028075873851776123,0.0029120580293238163,-0.0038571511395275593
1733705152253025000,9.32602490234375,-0.005830541718751192,0.0039027538150548935,-0.002571110613644123
1733705152262992100,9.3359921875,-0.008790758438408375,0.00927351787686348,-0.001861407421529293
1733705152272959000,9.345958984375,-0.007460243068635464,0.012879437766969204,-0.0020265234634280205
1733705152282925000,9.355925048828125,-0.003421362489461899,0.0157029889523983,-0.0026170937344431877
1733705152292892000,9.365891845703125,-0.0005158536368981004,0.01055936049669981,-0.0014988326001912355
1733705152302859000,9.37585888671875,0.0020238026045262814,0.006738245487213135,0.000059254467487335205
1733705152312826000,9.385826171875,-0.00057730678236112,0.00487483199685812,0.0021418463438749313
1733705152322792000,9.3957919921875,-0.0009302574908360839,0.0031890138052403927,0.00611838698387146
1733705152332759000,9.405759033203125,-0.0023063127882778645,0.00013729743659496307,0.006508539896458387
1733705152342726000,9.415725830078125,-0.0018221160862594843,-0.0066058337688446045,0.003270602785050869
1733705152352693000,9.42569287109375,0.0008852534228935838,-0.006387455388903618,0.0010748265776783228
1733705152362660000,9.43566015625,0.001534403651021421,-0.0068998783826828,0.0006846748292446136
1733705152372626200,9.445626220703126,0.0005801930092275143,-0.0033930279314517975,0.004098581150174141
1733705152382593300,9.45559326171875,0.00027439274708740413,-0.002269425429403782,0.0013197051594033837
1733705152392560000,9.46556005859375,-0.0009605150553397834,-0.0028742291033267975,0.00009438488632440567
1733705152402527000,9.47552685546875,-0.0002095891977660358,-0.004526169039309025,-0.00153823453001678
1733705152412493000,9.4854931640625,-0.0025755416136235,-0.01445390097796917,0.0012458341661840677
1733705152422460200,9.495460205078125,-0.006386393215507269,-0.01691409945487976,0.006644856184720993
1733705152432427300,9.50542724609375,-0.004840694833546877,-0.01816631853580475,0.010763701051473618
1733705152442394000,9.51539404296875,0.0015803370624780655,-0.016994239762425423,0.011454484425485134
1733705152452361200,9.525361328125,0.006245928816497326,-0.014727624133229256,0.009648328647017479
1733705152462327000,9.5353271484375,0.011301224119961262,-0.01623791828751564,0.005270197056233883
1733705152472294100,9.545294189453125,0.006083026062697172,-0.0204454455524683,0.0025820021983236074
1733705152482261200,9.55526123046875,0.0021773609332740307,-0.021517988294363022,0.006784244906157255
1733705152492228000,9.56522802734375,0.0029464815743267536,-0.019908107817173004,0.01152120903134346
1733705152502194200,9.575194091796876,0.003706621006131172,-0.015047205612063408,0.01558821089565754
1733705152512161000,9.5851611328125,0.008974353782832623,-0.009449506178498268,0.011173488572239876
1733705152522128100,9.595128173828124,0.012740186415612698,-0.0066948141902685165,0.005158519372344017
1733705152532095000,9.605094970703124,0.011224847286939621,-0.005416763946413994,-0.0003702032845467329
1733705152542062000,9.61506201171875,-0.0010109934955835342,-0.0022193854674696922,-0.0039352113381028175
1733705152552028200,9.625028076171875,-0.0044486019760370255,0.010496409609913826,-0.005886509083211422
1733705152561995000,9.6349951171875,-0.010415621101856232,0.018961314111948013,-0.005211266223341227
1733705152571962000,9.644962158203125,-0.008945556357502937,0.021999981254339218,-0.0008535357192158699
1733705152581929000,9.654928955078125,-0.0027898442931473255,0.01729554496705532,-0.0013035177253186703
1733705152591895000,9.66489501953125,0.00016546560800634325,0.01265764981508255,-0.005306781269609928
1733705152601862100,9.674862060546875,0.002666341606527567,0.00779228750616312,-0.01308087445795536
1733705152611829000,9.6848291015625,0.0021171977277845144,0.0021935245022177696,-0.014268910512328148
1733705152621796000,9.694796142578125,-0.001553771086037159,0.0006467727944254875,-0.01407383568584919
1733705152631763000,9.704762939453126,-0.003433430101722479,0.004102224949747324,-0.011960884556174278
1733705152641729000,9.71472900390625,-0.004419943783432245,0.006770138628780842,-0.010829135775566101
1733705152651695900,9.72469580078125,-0.003647626843303442,0.010718274861574173,-0.010949777439236641
1733705152661663000,9.7346630859375,-0.00370197300799191,0.01035129465162754,-0.008743049576878548
1733705152671630000,9.744630126953124,-0.0035717443097382784,0.008413845673203468,-0.004737921059131622
1733705152681596200,9.75459619140625,-0.0033209770917892456,0.005568015389144421,-0.006221369840204716
1733705152691563000,9.76456298828125,-0.0011347882682457566,0.0029709008522331715,-0.007058667950332165
1733705152701529900,9.77452978515625,-0.001621465664356947,-0.001920236274600029,-0.00608824985101819
1733705152711497000,9.7844970703125,0.0013697968097403646,-0.007450822740793228,-0.005940710660070181
1733705152721464000,9.794464111328125,-0.00033973221434280276,-0.013412890955805779,-0.005386666860431433
1733705152731430100,9.80443017578125,-0.0005005871062166989,-0.014545531943440437,-0.004593844059854746
1733705152741397200,9.814397216796875,0.001224637613631785,-0.010218910872936249,-0.006134290248155594
1733705152751364000,9.824364013671875,0.0036270753480494022,-0.005010300315916538,-0.0056139081716537476
1733705152761331200,9.834331298828126,0.0018936467822641134,0.0042134965769946575,-0.004173164255917072
1733705152771297000,9.844297119140625,0.0008827107958495617,0.007440981455147266,-0.002847176045179367
1733705152781264100,9.85426416015625,-0.0014627003110945225,0.009565109387040138,0.0006273833569139242
1733705152791231200,9.864231201171876,-0.003760475432500243,0.010850084945559502,0.0013206042349338531
1733705152801198000,9.874197998046874,-0.004658966325223446,0.01186186634004116,0.0011308512184768915
1733705152811165200,9.884165283203124,-0.0034903711639344692,0.012394231744110584,0.0007377687143161893
1733705152821131000,9.894131103515624,-0.004854016005992889,0.010857677087187767,0.00011487002484500408
1733705152831098000,9.90409814453125,-0.0008206585189327598,0.009577229619026184,0.002018231200054288
1733705152841065200,9.914065185546875,0.004555387422442436,0.01441667415201664,0.003128047101199627
1733705152851032000,9.924031982421875,0.004938882775604725,0.014519738033413887,-0.0008035777136683464
1733705152860998100,9.933998046875,0.004960354417562485,0.0099715581163764,-0.004145370330661535
1733705152870965000,9.943965087890625,0.0004055500903632492,0.00196902547031641,-0.0016699619591236115
1733705152880932000,9.95393212890625,0.000412199879065156,-0.004601051099598408,0.004167456179857254
1733705152890899200,9.963899169921875,-0.0018043490126729012,-0.0017328262329101562,0.008282572962343693
1733705152900866000,9.973865966796875,-0.0005782119696959853,-0.00285402312874794,0.005709925666451454
1733705152910832000,9.98383203125,0.004635990597307682,-0.0066407714039087296,0.005820446647703648
1733705152920795600,9.993795654296875,0.0037521806079894304,-0.010021081194281578,0.004624221473932266
1733705152930762800,10.0037626953125,0.0032174179796129465,-0.01544301025569439,0.0069425031542778015
1733705152940729600,10.0137294921875,0.003833227092400193,-0.023036766797304153,0.010138397105038166
1733705152950695700,10.02369580078125,0.0035511981695890427,-0.026458129286766052,0.012070786207914352
1733705152960662500,10.03366259765625,0.002122643869370222,-0.023761406540870667,0.015989428386092186
1733705152970629600,10.043629638671876,-0.002708596410229802,-0.020006347447633743,0.016279179602861404
1733705152980596500,10.053596435546876,-0.0019061574712395668,-0.012857839465141296,0.014939537271857262
1733705152990563600,10.0635634765625,-0.00009334390051662922,-0.01034647785127163,0.012679845094680786
1733705153000529700,10.07352978515625,0.001541739678941667,-0.011640811339020729,0.012236900627613068
1733705153010496500,10.08349658203125,-0.002676441101357341,-0.013648569583892822,0.012327713891863823
1733705153020463600,10.093463623046874,-0.004520649090409279,-0.016831262037158012,0.012831242755055428
1733705153030430500,10.103430419921875,-0.0020668127108365297,-0.017931414768099785,0.013393435627222061
1733705153040396800,10.113396728515625,0.004214840475469828,-0.01933896355330944,0.014444230124354362
1733705153050363600,10.12336376953125,0.006454026326537132,-0.022381357848644257,0.013277499005198479
1733705153060330800,10.133330810546875,0.009374227374792099,-0.027192842215299606,0.01332719437777996
1733705153070297600,10.143297607421875,0.007553690113127232,-0.02975427359342575,0.014300845563411713
1733705153080264400,10.153264404296875,0.002158700954169035,-0.02997618354856968,0.017827875912189484
1733705153090230800,10.163230712890625,-0.0006597224273718894,-0.02643018402159214,0.016106940805912018
1733705153100197600,10.17319775390625,-0.0014917812077328563,-0.02162022888660431,0.012583745643496513
1733705153110164700,10.183164794921876,-0.00303747970610857,-0.014169501140713692,0.006758080329746008
1733705153120131800,10.1931318359375,-0.005215521436184645,-0.010112214833498001,0.0024969875812530518
1733705153130097700,10.20309765625,-0.0019520838977769017,-0.007740937173366547,0.0016833918634802103
1733705153140064800,10.213064697265626,-0.0013237243983894587,-0.004126132465898991,0.004215520340949297
1733705153150031600,10.223031494140624,-0.005028181243687868,-0.00430323276668787,0.0028647652361541986
1733705153159998700,10.232998779296874,-0.0034438432194292545,-0.004343776032328606,0.002840503817424178
1733705153169964500,10.242964599609374,-0.00774884270504117,-0.004867619834840298,0.0020998786203563213
1733705153179931600,10.252931640625,-0.009715978987514973,-0.0029869312420487404,0.002815201412886381
1733705153189898800,10.262898681640625,-0.00951570924371481,-0.0017224624752998352,0.0028580783400684595
1733705153199865600,10.272865478515625,-0.004265468567609787,-0.0012485850602388382,0.001996606821194291
1733705153209832700,10.282832763671875,0.0007857487071305513,0.0013679703697562218,-0.0006564343348145485
1733705153219798500,10.292798583984375,0.003068384248763323,0.0010528527200222015,-0.00204533152282238
1733705153229765600,10.302765625,0.0015919279539957643,-0.0021480005234479904,-0.00040881894528865814
1733705153239732700,10.312732666015625,0.0003596484602894634,-0.005515560507774353,0.001730298507027328
1733705153249699600,10.322699462890625,-0.00014022685354575515,-0.006688682362437248,0.005107453092932701
1733705153259665700,10.332665771484375,0.0034999793861061335,-0.011918850243091583,0.007596575655043125
1733705153269632500,10.342632568359376,0.008298196829855442,-0.012207269668579102,0.009695146232843399
1733705153279599600,10.352599609375,0.009897923097014427,-0.01223628968000412,0.006274382118135691
1733705153289566700,10.362566650390624,0.008114404045045376,-0.009791772812604904,0.0033781947568058968
1733705153299533600,10.372533447265624,0.004182530101388693,-0.005966680124402046,-0.0005127168260514736
1733705153309499600,10.382499755859374,-0.004918556194752455,0.0043647862039506435,-0.0047865575179457664
1733705153319466500,10.392466552734374,-0.007320580538362265,0.01522012334316969,-0.005853989627212286
1733705153329433600,10.40243359375,-0.007667057681828737,0.02307138964533806,-0.007052944507449865
1733705153339400700,10.412400634765625,-0.004566701594740152,0.026994986459612846,-0.006758461240679026
1733705153349366800,10.42236669921875,0.00016706736641936004,0.02261488512158394,-0.00544392503798008
1733705153359333600,10.432333740234375,0.0015442054718732834,0.00865698792040348,0.0012200699420645833
1733705153369300500,10.442300537109375,0.004684338811784983,-0.005172008648514748,0.0034126504324376583
1733705153379267600,10.452267578125,0.003904935671016574,-0.019364284351468086,0.005328861065208912
1733705153389234400,10.462234375,0.00570709677413106,-0.03263108432292938,0.005545908585190773
1733705153399200800,10.47220068359375,0.009961126372218132,-0.04453033208847046,0.007569844834506512
1733705153409168000,10.48216796875,0.01735379546880722,-0.054920122027397156,0.013662891462445259
1733705153419134700,10.492134765625,0.02548488974571228,-0.06675013899803162,0.02212654985487461
1733705153429101800,10.502101806640624,0.034715406596660614,-0.06097959727048874,0.03402954712510109
1733705153439067600,10.512067626953124,0.035213980823755264,-0.02414761856198311,0.043784141540527344
1733705153449034800,10.52203466796875,0.03450611233711243,0.021121058613061905,0.04578497260808945
1733705153459001600,10.532001708984374,0.03282830864191055,0.06565903127193451,0.03785674273967743
1733705153468968700,10.54196875,0.0367567352950573,0.0883140116930008,0.029101600870490074
1733705153478935800,10.551935791015625,0.03814775496721268,0.08419834822416306,0.02220364846289158
1733705153488901600,10.561901611328125,0.046196360141038895,0.04399367421865463,0.025864962488412857
1733705153498868700,10.57186865234375,0.049183931201696396,-0.028145775198936462,0.03930533677339554
1733705153508835600,10.581835693359375,0.04691598191857338,-0.09551549702882767,0.058728303760290146
1733705153518802700,10.591802734375,0.03941682353615761,-0.14437972009181976,0.07237347215414047
1733705153528768500,10.6017685546875,0.030962616205215454,-0.16559232771396637,0.074277363717556
1733705153538735600,10.611735595703125,0.019001055508852005,-0.16531530022621155,0.06741566210985184
1733705153548702700,10.62170263671875,0.01150612160563469,-0.15715935826301575,0.05949196219444275
1733705153558669600,10.631669677734376,0.008992946706712246,-0.14645905792713165,0.04818541556596756
1733705153568636700,10.64163671875,0.015599183738231659,-0.14208641648292542,0.03379075974225998
1733705153578602500,10.6516025390625,0.025639934465289116,-0.13982388377189636,0.020793035626411438
1733705153588569600,10.661569580078124,0.03414846956729889,-0.14768686890602112,0.016787640750408173
1733705153598536700,10.67153662109375,0.03473486378788948,-0.16299012303352356,0.027865095064044
1733705153608503600,10.681503662109375,0.030669016763567924,-0.17390774190425873,0.039701513946056366
1733705153618469600,10.6914697265625,0.029691267758607864,-0.1762595772743225,0.048437681049108505
1733705153628436500,10.7014365234375,0.02881988137960434,-0.1651770919561386,0.049507737159729004
1733705153638403600,10.711403564453125,0.031764741986989975,-0.14318688213825226,0.04950973764061928
1733705153648370700,10.72137060546875,0.02873886004090309,-0.11247211694717407,0.04710783436894417
1733705153658336500,10.73133642578125,0.025689898058772087,-0.0842895656824112,0.04188789427280426
1733705153668303600,10.7413037109375,0.023103170096874237,-0.0609874427318573,0.040653519332408905
1733705153678270500,10.7512705078125,0.019485974684357643,-0.04258623719215393,0.03767624869942665
1733705153688237600,10.761237548828126,0.017037197947502136,-0.024135589599609375,0.03169958293437958
1733705153698204700,10.77120458984375,0.012253128923475742,0.0006629573181271553,0.021687626838684082
1733705153708170800,10.781170654296876,0.0018484252505004406,0.024081464856863022,0.0059448834508657455
1733705153718137900,10.791137939453124,-0.005826947744935751,0.0411275289952755,-0.007928289473056793
1733705153728104700,10.801104736328124,-0.016381055116653442,0.049593448638916016,-0.02096659503877163
1733705153738071800,10.81107177734375,-0.025044165551662445,0.05847065523266792,-0.030028600245714188
1733705153748037600,10.82103759765625,-0.03397161513566971,0.07778922468423843,-0.03925778344273567
1733705153758004700,10.831004638671875,-0.04526077210903168,0.10249777138233185,-0.036183398216962814
1733705153767971800,10.840971923828125,-0.05508996918797493,0.13303489983081818,-0.02846262976527214
1733705153777938700,10.850938720703125,-0.0602380633354187,0.1687595397233963,-0.019043657928705215
1733705153787905800,10.86090576171875,-0.05897732079029083,0.20108579099178314,-0.020903609693050385
1733705153797871600,10.87087158203125,-0.048397891223430634,0.2282269299030304,-0.026195377111434937
1733705153807838700,10.880838623046875,-0.040164459496736526,0.23786115646362305,-0.03441522270441055
1733705153817805800,10.890805908203125,-0.04023711383342743,0.23321767151355743,-0.04411295801401138
1733705153827772700,10.900772705078126,-0.044477932155132294,0.21867282688617706,-0.05096660181879997
1733705153837738800,10.91073876953125,-0.048117320984601974,0.20830804109573364,-0.05956611409783363
1733705153847705600,10.92070556640625,-0.04817111790180206,0.19830548763275146,-0.06575211137533188
1733705153857672700,10.930672607421876,-0.04373684152960777,0.1904909908771515,-0.06587272137403488
1733705153867639600,10.9406396484375,-0.03686615079641342,0.17806468904018402,-0.06478534638881683
1733705153877606700,10.950606689453124,-0.029883602634072304,0.1632441282272339,-0.06853880733251572
1733705153887572700,10.96057275390625,-0.025068607181310654,0.14168131351470947,-0.0701441615819931
1733705153897539600,10.97053955078125,-0.022435428574681282,0.121588334441185,-0.0708775594830513
1733705153907506700,10.980506591796875,-0.021027415990829468,0.105832539498806,-0.06492619216442108
1733705153917473500,10.9904736328125,-0.014050806872546673,0.08418552577495575,-0.05387337505817413
1733705153927440100,11.000440185546875,-0.005447997711598873,0.062508724629879,-0.040651313960552216
1733705153937407000,11.010406982421875,0.001080248155631125,0.03510325029492378,-0.027522563934326172
1733705153947374000,11.0203740234375,0.0049482230097055435,0.0062478999607264996,-0.021640703082084656
1733705153957341000,11.0303408203125,0.005941264797002077,-0.019136805087327957,-0.019600890576839447
1733705153967307000,11.04030712890625,0.00043384765740484,-0.039101459085941315,-0.018343346193432808
1733705153977274000,11.050274169921876,0.000002910092007368803,-0.052706874907016754,-0.01612827181816101
1733705153987241000,11.060240966796876,-0.005802514962852001,-0.04585855454206467,-0.01575862430036068
1733705153997208000,11.0702080078125,-0.009011236019432545,-0.03315097838640213,-0.012813961133360863
1733705154007175000,11.0801748046875,-0.011562278494238853,-0.0233358982950449,-0.006107322406023741
1733705154017141000,11.09014111328125,-0.01238206960260868,-0.014043577015399933,0.000163225457072258
1733705154027108000,11.100108154296874,-0.010843029245734215,-0.006037581712007523,0.0018705781549215317
1733705154037075000,11.110074951171875,-0.0068910387344658375,-0.012319942936301231,0.0026817794423550367
1733705154047042000,11.1200419921875,-0.0023889653384685516,-0.022458065301179886,-0.0012730148155242205
1733705154057008000,11.130008056640625,0.0017871372401714325,-0.03421173244714737,0.0033867445308715105
1733705154066975200,11.139975341796875,-0.00020357564790174365,-0.0456358939409256,0.007529291789978743
1733705154076942000,11.149942138671875,-0.000763045041821897,-0.05090910196304321,0.01561102457344532
1733705154086909000,11.159908935546875,-0.003727942006662488,-0.04925448074936867,0.018967404961586
1733705154096876000,11.1698759765625,-0.001265023835003376,-0.04432583600282669,0.016266129910945892
1733705154106842000,11.179842041015625,0.005508460104465485,-0.036582428961992264,0.01348871923983097
1733705154116809200,11.189809326171876,0.0076298280619084835,-0.03140448406338692,0.010760806500911713
1733705154126776000,11.199776123046876,0.007228223606944084,-0.023288235068321228,0.008535202592611313
1733705154136743200,11.2097431640625,0.00815661996603012,-0.021207444369792938,0.008689871057868004
1733705154146709000,11.219708984375,0.007722524926066399,-0.014740757644176483,0.012508044950664043
1733705154156676000,11.229676025390624,0.007190051022917032,-0.006924418732523918,0.022283406928181648
1733705154166643200,11.239643310546874,0.009871588088572025,0.005770071409642696,0.02608506940305233
1733705154176610000,11.249610107421875,0.01085972785949707,0.018603883683681488,0.027309894561767578
1733705154186576100,11.259576171875,0.013409438543021679,0.02727273851633072,0.026467271149158478
1733705154196543000,11.26954296875,0.01839885301887989,0.04488283023238182,0.02012368105351925
1733705154206510000,11.279510009765625,0.018914973363280296,0.06329326331615448,0.015009080991148949
1733705154216477200,11.289477294921875,0.017718948423862457,0.08666416257619858,0.018518831580877304
1733705154226444000,11.299444091796875,0.020580248907208443,0.11291893571615219,0.024165797978639603
1733705154236410000,11.30941015625,0.02360490709543228,0.13116556406021118,0.028269797563552856
1733705154246377000,11.319376953125,0.02580947056412697,0.13967622816562653,0.024107541888952255
1733705154256344000,11.329343994140626,0.025662481784820557,0.1335086077451706,0.016318026930093765
1733705154266311200,11.339311279296876,0.027632154524326324,0.12369778752326965,0.006816934794187546
1733705154276277000,11.349277099609376,0.030077151954174042,0.11485717445611954,-0.007817300967872143
1733705154286244000,11.359244140625,0.024789711460471153,0.10907091945409775,-0.022655636072158813
1733705154296211000,11.3692109375,0.011968101374804974,0.1164335161447525,-0.030653206631541252
1733705154306178000,11.379177978515624,0.004390875343233347,0.13343273103237152,-0.03587672859430313
1733705154316145200,11.389145263671875,-0.004178945440798998,0.1584874987602234,-0.04140964895486832
1733705154326111000,11.399111083984375,-0.0028502941131591797,0.19589293003082275,-0.04804864525794983
1733705154336078000,11.409078125,0.0003708685690071434,0.21955935657024384,-0.04807274416089058
1733705154346045000,11.419044921875,0.010902338661253452,0.2116798609495163,-0.04336800426244736
1733705154356012000,11.429011962890625,0.023220211267471313,0.17664825916290283,-0.03566226735711098
1733705154365978000,11.43897802734375,0.03445102646946907,0.1228390783071518,-0.02943100407719612
1733705154375945200,11.4489453125,0.044038400053977966,0.06322622299194336,-0.02147671952843666
1733705154385912000,11.458912109375,0.042112670838832855,-0.004049220122396946,-0.006155022419989109
1733705154395879000,11.46887890625,0.03547615930438042,-0.07027699798345566,0.010788640938699245
1733705154405845200,11.47884521484375,0.027142329141497612,-0.11322073638439178,0.025279700756072998
1733705154415812000,11.48881201171875,0.018142102286219597,-0.12975355982780457,0.02475837804377079
1733705154425779200,11.498779296875,0.008161373436450958,-0.12740305066108704,0.014757409691810608
1733705154435746300,11.508746337890624,-0.0003596364986151457,-0.11656112968921661,0.00740383006632328
1733705154445713200,11.518713134765624,-0.011300435289740562,-0.10650849342346191,0.004837874323129654
1733705154455679200,11.52867919921875,-0.01855527237057686,-0.09588112682104111,0.01333252526819706
1733705154465646000,11.53864599609375,-0.029257716611027718,-0.08012213557958603,0.027510661631822586
1733705154475613200,11.54861328125,-0.03935939446091652,-0.0619003027677536,0.038885388523340225
1733705154485580000,11.558580078125,-0.043659865856170654,-0.03916037082672119,0.04529481753706932
1733705154495546000,11.568546142578125,-0.04891828075051308,-0.01460522785782814,0.050507958978414536
1733705154505513200,11.57851318359375,-0.048903364688158035,0.003090944141149521,0.04946346580982208
1733705154515480000,11.58847998046875,-0.04099414125084877,0.012834466993808746,0.05037309601902962
1733705154525447200,11.598447265625,-0.03526914119720459,0.015554886311292648,0.054213374853134155
1733705154535413000,11.6084130859375,-0.035594794899225235,0.00598320784047246,0.059381142258644104
1733705154545380000,11.618380126953125,-0.03550771251320839,-0.023078802973031998,0.05369555950164795
1733705154555347000,11.628346923828126,-0.04221281036734581,-0.05330972000956535,0.04470060393214226
1733705154565314000,11.63831396484375,-0.04216647148132324,-0.07053717970848083,0.025256864726543427
1733705154575281200,11.64828125,-0.041075415909290314,-0.07691005617380142,0.010297945700585842
1733705154585247000,11.6582470703125,-0.04368105158209801,-0.06366243213415146,-0.0033664670772850513
1733705154595214000,11.668214111328124,-0.044092241674661636,-0.04648616164922714,-0.01451818086206913
1733705154605181000,11.678180908203124,-0.04151270166039467,-0.027968671172857285,-0.018884433433413506
1733705154615148000,11.68814794921875,-0.036736760288476944,-0.016313841566443443,-0.01850886456668377
1733705154625113900,11.69811376953125,-0.029338495805859566,-0.01075742207467556,-0.0188129972666502
1733705154635081000,11.7080810546875,-0.017118288204073906,-0.023212295025587082,-0.011904788203537464
1733705154645048000,11.718048095703125,0.000594395212829113,-0.04478896036744118,-0.0007413493003696203
1733705154655015000,11.728014892578125,0.013912553898990154,-0.06547685712575912,0.008443957194685936
1733705154664982000,11.73798193359375,0.021279657259583473,-0.0915401503443718,0.01966092549264431
1733705154674948000,11.747947998046875,0.022321389988064766,-0.12181127071380615,0.02883944660425186
1733705154684915000,11.7579150390625,0.020035864785313606,-0.14685671031475067,0.028880992904305458
1733705154694882000,11.767882080078126,0.012374836020171642,-0.1599418967962265,0.025148939341306686
1733705154704849000,11.777848876953126,0.0006278984947130084,-0.16196057200431824,0.022434644401073456
1733705154714815200,11.787815185546876,-0.00868356041610241,-0.15441958606243134,0.024280183017253876
1733705154724782000,11.797781982421874,-0.013322786428034306,-0.14229527115821838,0.02815934270620346
1733705154734749200,11.807749267578124,-0.011203586123883724,-0.13129298388957977,0.02840864472091198
