time,seconds_elapsed,z,y,x
1733704643627061200,0.016061279296875,0.12435012310743332,0.05227147042751312,0.08092312514781952
1733704643637029400,0.026029296875,0.13562242686748505,0.10848799347877502,0.07207534462213516
1733704643646996500,0.03599658203125,-0.0029032304883003235,0.19997689127922058,0.09418171644210815
1733704643656964600,0.045964599609375,-0.13760237395763397,0.28778544068336487,0.17059653997421265
1733704643666931500,0.055931396484375,-0.20596039295196533,0.3738654553890228,0.2230275273323059
1733704643676898600,0.065898681640625,-0.15216940641403198,0.35484156012535095,0.09655246138572693
1733704643686866400,0.075866455078125,-0.07890371978282928,0.23705874383449554,-0.0343879833817482
1733704643696833300,0.085833251953125,0.010858380235731602,0.1580185741186142,-0.04435688257217407
1733704643706801400,0.095801513671875,0.018869701772928238,0.12068559229373932,0.002479064976796508
1733704643716768500,0.1057685546875,0.010888107120990753,0.11991794407367706,0.000539441010914743
1733704643726736600,0.115736572265625,0.003848307766020298,0.12578542530536652,-0.031420622020959854
1733704643736703500,0.125703369140625,-0.007012401707470417,0.11911917477846146,-0.04368513077497482
1733704643746671400,0.13567138671875,-0.020137792453169823,0.11252278834581375,-0.037194740027189255
1733704643756638500,0.145638427734375,-0.033349841833114624,0.10930109769105911,-0.032641731202602386
1733704643766606300,0.1556064453125,-0.03446224331855774,0.104957215487957,-0.03740080073475838
1733704643776573400,0.165573486328125,-0.032583657652139664,0.10857278108596802,-0.04360159859061241
1733704643786540500,0.17554052734375,-0.025500981137156487,0.11249268054962158,-0.04619445279240608
1733704643796508400,0.18550830078125,-0.019095364958047867,0.11404706537723541,-0.04056847095489502
1733704643806475500,0.1954755859375,-0.01394161581993103,0.1024593859910965,-0.02853338047862053
1733704643816443400,0.205443359375,-0.00758788175880909,0.0796627476811409,-0.015882650390267372
1733704643826410500,0.215410400390625,0.0026133570354431868,0.04416387900710106,-0.005795127712190151
1733704643836378400,0.22537841796875,0.015188327990472317,-0.0027496349066495895,0.006618735380470753
1733704643846345500,0.235345458984375,0.023149847984313965,-0.04765558987855911,0.022235777229070663
1733704643856313300,0.245313232421875,0.025824863463640213,-0.07949051260948181,0.040123775601387024
1733704643866280200,0.2552802734375,0.02388874441385269,-0.10355137288570404,0.04767703264951706
1733704643876248300,0.265248291015625,0.022041216492652893,-0.1167234256863594,0.04809451475739479
1733704643886215400,0.27521533203125,0.017642473801970482,-0.119334377348423,0.044992461800575256
1733704643896182500,0.2851826171875,0.015959076583385468,-0.10985167324542999,0.04148711636662483
1733704643906150400,0.295150390625,0.014776099473237991,-0.09728102385997772,0.03683377429842949
1733704643916117500,0.305117431640625,0.019703781232237816,-0.09412148594856262,0.030200455337762833
1733704643926085400,0.31508544921875,0.018692579120397568,-0.09059359133243561,0.023490088060498238
1733704643936052200,0.32505224609375,0.016537709161639214,-0.08619783818721771,0.012823127210140228
1733704643946020400,0.335020263671875,0.008307209238409996,-0.07983048260211945,0.0013733993982896209
1733704643955987500,0.344987548828125,0.003806719556450844,-0.0741686224937439,-0.010731296613812447
1733704643965955600,0.35495556640625,-0.00168471853248775,-0.06388509273529053,-0.020404431968927383
1733704643975922400,0.36492236328125,-0.010902280919253826,-0.05304136127233505,-0.024370992556214333
1733704643985890300,0.374890380859375,-0.01847711205482483,-0.0563410222530365,-0.027652805671095848
1733704643995857400,0.384857421875,-0.022424383088946342,-0.06789545714855194,-0.03102126717567444
1733704644005824300,0.39482421875,-0.021770309656858444,-0.0738244503736496,-0.030497688800096512
1733704644015792400,0.40479248046875,-0.020167313516139984,-0.07440969347953796,-0.029527734965085983
1733704644025759500,0.414759521484375,-0.02225256897509098,-0.07513327896595001,-0.021232519298791885
1733704644035727600,0.4247275390625,-0.025062860921025276,-0.08066354691982269,-0.008038399741053581
1733704644045694500,0.434694580078125,-0.02281222492456436,-0.08872175216674805,0.006301924120634794
1733704644055662300,0.444662353515625,-0.01411784440279007,-0.08831953257322311,0.009444480761885643
1733704644065629400,0.45462939453125,-0.012201700359582901,-0.08253168314695358,0.006131507456302643
1733704644075597600,0.46459765625,-0.011052504181861877,-0.07451005280017853,0.0007958384230732918
1733704644085564400,0.474564453125,-0.013458669185638428,-0.06374768912792206,-0.0005751568824052811
1733704644095532500,0.484532470703125,-0.014585571363568306,-0.05706190690398216,-0.005335324443876743
1733704644105499400,0.49449951171875,-0.012557840906083584,-0.05329672619700432,-0.007800346240401268
1733704644115466200,0.50446630859375,-0.0075850170105695724,-0.051386758685112,-0.009075038135051727
1733704644125434400,0.514434326171875,-0.00702974759042263,-0.05182777717709541,-0.005113054066896439
1733704644135401500,0.5244013671875,-0.0040143136866390705,-0.05104415863752365,-0.0021774121560156345
1733704644145369600,0.53436962890625,-0.0077544571831822395,-0.04708483815193176,-0.0014439777005463839
1733704644155336400,0.54433642578125,-0.008580569177865982,-0.04183574765920639,0.00019067060202360153
1733704644165304300,0.55430419921875,-0.008369913324713707,-0.03479621559381485,-0.0030312216840684414
1733704644175271400,0.564271484375,-0.007440968416631222,-0.024045320227742195,-0.004566716030240059
1733704644185239300,0.5742392578125,-0.00851741898804903,-0.02058001607656479,-0.007726023904979229
1733704644195206400,0.584206298828125,-0.008083250373601913,-0.022920312359929085,-0.00824815221130848
1733704644205174500,0.594174560546875,-0.008857164531946182,-0.013828013092279434,-0.007681963965296745
1733704644215141600,0.6041416015625,-0.010281701572239399,-0.009743539616465569,-0.004369091242551804
1733704644225108500,0.6141083984375,-0.005409980658441782,-0.0069365669041872025,-0.0024742521345615387
1733704644235076400,0.624076416015625,-0.0015381922712549567,-0.006548970937728882,0.0017683783080428839
1733704644245043500,0.63404345703125,-0.0023270207457244396,-0.0039840806275606155,0.0023513443302363157
1733704644255011300,0.64401123046875,-0.0033596232533454895,-0.006518661975860596,0.0008308427641168237
1733704644264978400,0.653978515625,-0.004437671042978764,-0.013553401455283165,-0.0020088860765099525
1733704644274946600,0.663946533203125,-0.009342020377516747,-0.007397815585136414,-0.0033668549731373787
1733704644284913700,0.67391357421875,-0.010876533575356007,-0.000323660671710968,-0.004273927770555019
1733704644294881300,0.68388134765625,-0.01027665100991726,0.0007917154580354691,-0.0022839903831481934
1733704644304848400,0.693848388671875,-0.010472927242517471,-0.003390512429177761,-0.0008416224736720324
1733704644314815500,0.7038154296875,-0.012302454560995102,-0.010485559701919556,0.002622844884172082
1733704644324783400,0.713783447265625,-0.01643647998571396,-0.015178581699728966,0.00958354864269495
1733704644334750500,0.72375048828125,-0.019640687853097916,-0.0124517772346735,0.011110861785709858
1733704644344718300,0.73371826171875,-0.01665634848177433,-0.0038819899782538414,0.011448018252849579
1733704644354685400,0.743685546875,-0.012902302667498589,0.0023398129269480705,0.009975150227546692
1733704644364653300,0.7536533203125,-0.008504889905452728,0.001687338575720787,0.010727493092417717
1733704644374620400,0.763620361328125,-0.005224848631769419,-0.0006220238283276558,0.016513794660568237
1733704644384588500,0.773588623046875,-0.004773443099111319,-0.004085465334355831,0.02273467183113098
1733704644394555400,0.783555419921875,-0.004784957505762577,-0.005013193003833294,0.023952839896082878
1733704644404523300,0.793523193359375,-0.0022680042311549187,-0.0042821550741791725,0.016344722360372543
1733704644414490400,0.803490478515625,0.0007940663490444422,0.002676781266927719,0.006395810283720493
1733704644424457200,0.813457275390625,0.003783198306336999,0.008962374180555344,-0.00047594448551535606
1733704644434425300,0.82342529296875,0.00793931633234024,0.019173715263605118,-0.004207133315503597
1733704644444392400,0.833392333984375,0.00959500391036272,0.02844684012234211,-0.00027577485889196396
1733704644454360800,0.84336083984375,0.013983255252242088,0.031133104115724564,-0.00022644293494522572
1733704644464328000,0.853327880859375,0.01736467145383358,0.03424687311053276,0.0012524104677140713
1733704644474295800,0.8632958984375,0.021701840683817863,0.032140180468559265,-0.0002018024679273367
1733704644484262700,0.8732626953125,0.022625157609581947,0.031482912600040436,-0.0014207314234226942
1733704644494230800,0.883230712890625,0.02180449105799198,0.026560338214039803,-0.00010291021317243576
1733704644504198000,0.893197998046875,0.01890936866402626,0.021445203572511673,0.003157597966492176
1733704644514164700,0.903164794921875,0.013858320191502571,0.018071994185447693,0.0012205789098516107
1733704644524132600,0.913132568359375,0.012207693420350552,0.01341945119202137,-0.00374488509260118
1733704644534099700,0.923099609375,0.009564484469592571,0.010559257119894028,-0.009897040203213692
1733704644544067800,0.93306787109375,0.004196083638817072,0.00801567267626524,-0.012453675270080566
1733704644554034700,0.94303466796875,0.0017927091103047132,0.011209627613425255,-0.013395445421338081
1733704644564002800,0.9530029296875,-0.004278232809156179,0.01707257702946663,-0.016009870916604996
1733704644573970000,0.962969970703125,-0.008374441415071487,0.024449000135064125,-0.020285842940211296
1733704644583937800,0.972937744140625,-0.008786431513726711,0.034492313861846924,-0.01964588463306427
1733704644593904600,0.982904541015625,-0.008620974607765675,0.0406096875667572,-0.016514424234628677
1733704644603871700,0.992871826171875,-0.006497370079159737,0.038396865129470825,-0.015850763767957687
1733704644613840000,1.00283984375,-0.003295278176665306,0.03285709768533707,-0.013747718185186386
1733704644623806700,1.012806640625,-0.003553338348865509,0.024656422436237335,-0.007278101518750191
1733704644633774800,1.02277490234375,-0.004337238147854805,0.018711231648921967,-0.0040220944210886955
1733704644643742000,1.032741943359375,-0.0028581186197698116,0.01286426279693842,0.0013242012355476618
1733704644653709800,1.042709716796875,-0.003471516538411379,0.0005272654816508293,0.005989995785057545
1733704644663676700,1.0526767578125,-0.0005966339958831668,-0.0141837690025568,0.011520316824316978
1733704644673644800,1.062644775390625,0.001339151058346033,-0.03259932994842529,0.012324844487011433
1733704644683612000,1.07261181640625,0.002368196379393339,-0.04677294194698334,0.014176540076732635
1733704644693578800,1.082578857421875,0.004041717387735844,-0.0514790341258049,0.01440467219799757
1733704644703547000,1.092546875,0.006909409072250128,-0.046190522611141205,0.015485117211937904
1733704644713513700,1.102513671875,0.007369411177933216,-0.030506471171975136,0.01374027505517006
1733704644723481900,1.11248193359375,0.00627964548766613,-0.012883003801107407,0.011986317113041878
1733704644733448700,1.12244873046875,0.006798249669373035,-0.00214191060513258,0.011237971484661102
1733704644743416800,1.132416748046875,0.0056059518828988075,-0.0001663779839873314,0.013480618596076965
1733704644753384000,1.142384033203125,0.0028256122022867203,-0.008328167721629143,0.011807620525360107
1733704644763351800,1.152351806640625,0.0013986905105412006,-0.016571449115872383,0.008358560502529144
1733704644773318700,1.162318603515625,-0.002261069370433688,-0.01815774105489254,0.00013282825239002705
1733704644783285800,1.17228564453125,-0.003453366458415985,-0.015589920803904533,-0.003714107908308506
1733704644793254000,1.18225390625,-0.0047966549172997475,-0.008200503885746002,-0.004534207284450531
1733704644803220700,1.192220703125,-0.006006529089063406,-0.003965810872614384,-0.0009293525945395231
1733704644813188900,1.20218896484375,-0.008424974977970123,-0.0031250324100255966,0.0013323810417205095
1733704644823156000,1.212156005859375,-0.008954677730798721,-0.010913712903857231,0.001193630276247859
1733704644833123600,1.22212353515625,-0.009750357829034328,-0.005619712173938751,-0.003413841128349304
1733704644843090700,1.232090576171875,-0.01033012755215168,0.006276628002524376,-0.0131362434476614
1733704644853057800,1.242057861328125,-0.009166837669909,0.020738352090120316,-0.01852915808558464
1733704644863026000,1.25202587890625,-0.005006980616599321,0.036913059651851654,-0.024588914588093758
1733704644872992800,1.26199267578125,-0.0025102030485868454,0.04934777319431305,-0.024896280840039253
1733704644882961000,1.2719609375,-0.0005884659476578236,0.05354837700724602,-0.02265230193734169
1733704644892928000,1.281927978515625,0.0026403290685266256,0.04841703921556473,-0.01653474010527134
1733704644902895600,1.2918955078125,0.007333351299166679,0.037688493728637695,-0.004562234506011009
1733704644912862700,1.30186279296875,0.007193764206022024,0.02266320399940014,0.0020158477127552032
1733704644922830800,1.311830810546875,0.009523496963083744,0.007173726335167885,0.007935255765914917
1733704644932798000,1.3217978515625,0.009972268715500832,-0.00950566865503788,0.011463502421975136
1733704644942765800,1.331765869140625,0.009366932325065136,-0.015512160956859589,0.013521327637135983
1733704644952733000,1.34173291015625,0.008508700877428055,-0.025968732312321663,0.0159109178930521
1733704644962699800,1.35169970703125,0.007892444729804993,-0.036512717604637146,0.017011601477861404
1733704644972667600,1.361667724609375,0.004693840630352497,-0.039788126945495605,0.015625515952706337
1733704644982634800,1.371634765625,0.004306883085519075,-0.04270854964852333,0.01170054916292429
1733704644992603000,1.381602783203125,0.003312269691377878,-0.03683033585548401,0.008030293509364128
1733704645002570000,1.391570068359375,0.0003186101093888283,-0.024199228733778,0.0021851875353604555
1733704645012537600,1.40153759765625,0.001954135484993458,-0.010087048634886742,0.000992469023913145
1733704645022504700,1.411504638671875,-0.00029916514176875353,-0.0014797123149037361,0.0009088458027690649
1733704645032471800,1.421471923828125,0.00031330500496551394,0.0037375595420598984,0.003502640873193741
1733704645042439700,1.431439697265625,0.0035274741239845753,-0.011155636981129646,0.003954312764108181
1733704645052406800,1.44140673828125,0.007226037327200174,-0.021416695788502693,0.003722213441506028
1733704645062375000,1.451375,0.010180814191699028,-0.027005339041352272,0.004460708238184452
1733704645072342000,1.461342041015625,0.01085017342120409,-0.027536839246749878,0.0053392210975289345
1733704645082309600,1.4713095703125,0.012975908815860748,-0.025589004158973694,0.004551990889012814
1733704645092276700,1.48127685546875,0.01360340416431427,-0.023574192076921463,0.0015320926904678345
1733704645102244900,1.491244873046875,0.011485924012959003,-0.015290696173906326,-0.0019334787502884865
1733704645112211700,1.501211669921875,0.00832445826381445,-0.008994966745376587,0.0007799240993335843
1733704645122178800,1.5111787109375,0.004943841602653265,-0.00816885381937027,0.0063035860657691956
1733704645132147000,1.52114697265625,0.00634427834302187,-0.013794522732496262,0.015465306118130684
1733704645142113800,1.53111376953125,0.0077056861482560635,-0.013329802080988884,0.016252005472779274
1733704645152081700,1.54108154296875,0.009770848788321018,-0.014142075553536415,0.016207708045840263
1733704645162048800,1.551048828125,0.009374037384986877,-0.009288463741540909,0.011717618443071842
1733704645172017000,1.561016845703125,0.00712190056219697,-0.0010256925597786903,0.0034187762066721916
1733704645181983700,1.570983642578125,0.0032235656399279833,0.010690618306398392,-0.00175121845677495
1733704645191950800,1.580950927734375,0.0022653774358332157,0.018491322174668312,-0.003441323060542345
1733704645201918700,1.590918701171875,-0.00020497071091085672,0.02179763838648796,-0.004186209291219711
1733704645211885600,1.600885498046875,0.0003871376975439489,0.018482830375432968,-0.004477292764931917
1733704645221853700,1.610853759765625,0.001384491566568613,0.016663890331983566,-0.00348579790443182
1733704645231820800,1.62082080078125,0.002013517078012228,0.013055367395281792,-0.003308849176391959
1733704645241789000,1.630788818359375,0.002019376028329134,0.01204975787550211,-0.0043397583067417145
1733704645251755800,1.640755859375,0.0029983040876686573,0.015357463620603085,-0.0052610235288739204
1733704645261723600,1.6507236328125,0.001955942716449499,0.01686800830066204,-0.005852777510881424
1733704645271690800,1.660690673828125,0.003791862865909934,0.021392570808529854,-0.006180841475725174
1733704645281657600,1.67065771484375,0.004427026957273483,0.01987190544605255,-0.0030809224117547274
1733704645291625700,1.680625732421875,0.0031664064154028893,0.012477115727961063,-0.0010373922996222973
1733704645301592800,1.6905927734375,0.008776888251304626,0.006368623115122318,-0.000046962639316916466
1733704645311561000,1.70056103515625,0.007059750612825155,-0.0009527700021862984,-0.0007518341299146414
1733704645321527800,1.71052783203125,0.004463168792426586,-0.002715250477194786,-0.0005092201754450798
1733704645331495700,1.72049560546875,0.002270461991429329,-0.008101256564259529,-0.0011680112220346928
1733704645341462800,1.730462890625,0.005199140403419733,-0.014977006241679192,0.0018608019454404712
1733704645351429600,1.7404296875,0.006350179202854633,-0.02157582715153694,0.008693128824234009
1733704645361397800,1.750397705078125,0.00816592201590538,-0.02890830859541893,0.011814353987574577
1733704645371364900,1.76036474609375,0.0082533098757267,-0.034897059202194214,0.012248585931956768
1733704645381333000,1.7703330078125,0.008246652781963348,-0.031227488070726395,0.01015028078109026
1733704645391299800,1.7802998046875,0.005159193184226751,-0.025596095249056816,0.00644570030272007
1733704645401267700,1.790267822265625,0.004354918375611305,-0.019524885341525078,0.005284295417368412
1733704645411234800,1.80023486328125,0.0032887994311749935,-0.016163038089871407,0.006682595703750849
1733704645421203000,1.810202880859375,0.005828656256198883,-0.018212074413895607,0.009158004075288773
1733704645431169800,1.820169677734375,0.006429411470890045,-0.01864134520292282,0.007638751529157162
1733704645441137000,1.830136962890625,0.006249115336686373,-0.020064538344740868,0.006555111147463322
1733704645451104500,1.8401044921875,0.005108389537781477,-0.02115539275109768,0.004925796762108803
1733704645461071600,1.850071533203125,0.004649261012673378,-0.020588938146829605,0.0035428169649094343
1733704645471039500,1.86003955078125,0.004601302556693554,-0.01509879156947136,0.00019496958702802658
1733704645481006300,1.87000634765625,0.006028756499290466,-0.010916829109191895,0.00016088108532130718
1733704645490974500,1.879974365234375,0.005128853488713503,-0.008176397532224655,0.0010866085067391396
1733704645500941600,1.889941650390625,0.004557871725410223,-0.0019086478278040886,0.0023859648499637842
1733704645510908400,1.899908447265625,0.003921047784388065,-0.0020675212144851685,-0.0009767713490873575
1733704645520876300,1.909876220703125,0.0048835137858986855,-0.0008563147857785225,0.0025876036379486322
1733704645530843400,1.919843505859375,0.003451945725828409,0.0025357436388731003,0.0028825942426919937
1733704645540811500,1.9298115234375,0.001897192094475031,0.005865760147571564,0.0017302443739026785
1733704645550778400,1.9397783203125,0.0041544390842318535,0.001558421179652214,-0.0005281958729028702
1733704645560746500,1.94974658203125,0.00446629524230957,0.000035093165934085846,-0.0016656320076435804
1733704645570713600,1.959713623046875,0.005752237048000097,-0.0034867189824581146,-0.0010974123142659664
1733704645580680400,1.969680419921875,0.006315495353192091,-0.002941303886473179,-0.0013544075191020966
1733704645590648300,1.9796484375,0.006122511811554432,-0.0036851027980446815,-0.00378934433683753
1733704645600615400,1.989615478515625,0.003790914546698332,-0.004166602157056332,-0.004311590455472469
1733704645610583600,1.99958349609375,-0.0009262394160032272,-0.0056602973490953445,-0.0008439491502940655
1733704645620550400,2.00955029296875,-0.00357635086402297,-0.007398277521133423,0.0023345337249338627
1733704645630518500,2.0195185546875,-0.005181209184229374,-0.006196022033691406,0.0026537119410932064
1733704645640485600,2.029485595703125,-0.010075033642351627,-0.007620813325047493,0.0002715142909437418
1733704645650453200,2.039453369140625,-0.00940295122563839,-0.00844031572341919,-0.002577102044597268
1733704645660420400,2.04942041015625,-0.010168876498937607,-0.00898226909339428,-0.005519363097846508
1733704645670387500,2.059387451171875,-0.009981613606214523,-0.009164510294795036,-0.0029579591937363148
1733704645680355300,2.069355224609375,-0.007164521608501673,-0.0074070896953344345,0.0020154942758381367
1733704645690322400,2.079322509765625,-0.007539725862443447,-0.006984014064073563,0.0014374585589393973
1733704645700290600,2.08929052734375,-0.004641940351575613,-0.010987011715769768,0.0001351728569716215
1733704645710257400,2.09925732421875,-0.002551217097789049,-0.01306803710758686,0.000742447329685092
1733704645720225300,2.109225341796875,-0.00416669063270092,-0.015448104590177536,-0.0003627645783126354
1733704645730192400,2.1191923828125,-0.004141552839428186,-0.0163124930113554,0.0005985751049593091
1733704645740159500,2.129159423828125,-0.004260063637048006,-0.015031779184937477,0.0003674128092825413
1733704645750127400,2.13912744140625,-0.004793740343302488,-0.012976659461855888,-0.001044607488438487
1733704645760094500,2.149094482421875,-0.004659517202526331,-0.013936461880803108,0.0014795365277677774
1733704645770062300,2.159062255859375,-0.0017633294919505715,-0.015081088989973068,0.0009578232420608401
1733704645780029400,2.169029541015625,-0.00008740217890590429,-0.012225382030010223,-0.000011034775525331497
1733704645789997300,2.178997314453125,0.0002631699317134917,-0.00968254916369915,-0.00239899312146008
1733704645799964400,2.18896435546875,-0.001024202210828662,-0.001322885975241661,-0.0045297881588339806
1733704645809931500,2.198931640625,-0.004647610709071159,0.008387399837374687,-0.005384073592722416
1733704645819899400,2.2088994140625,-0.008006122894585133,0.01041379850357771,-0.004292444325983524
1733704645829866500,2.218866455078125,-0.005633189342916012,0.0029192576184868813,-0.005113372579216957
1733704645839834400,2.22883447265625,-0.002948456909507513,0.0028742500580847263,-0.004451310727745295
1733704645849801500,2.238801513671875,-0.0028027400840073824,0.0018810788169503212,-0.004312851000577211
1733704645859769300,2.248769287109375,-0.0030903613660484552,0.001927950419485569,-0.005417264066636562
1733704645869736400,2.258736328125,-0.004158821888267994,0.004871808923780918,-0.008731301873922348
1733704645879703600,2.26870361328125,-0.004770549945533276,0.00747318472713232,-0.008686293847858906
1733704645889671400,2.27867138671875,-0.0064110783860087395,0.011118290945887566,-0.005878245458006859
1733704645899638500,2.288638427734375,-0.0063753919675946236,0.01264587976038456,-0.00432056188583374
1733704645909606400,2.2986064453125,-0.005357097368687391,0.010318496264517307,-0.00438271276652813
1733704645919573500,2.308573486328125,-0.004306480288505554,0.009846052154898643,-0.0008486981969326735
1733704645929541400,2.318541259765625,-0.0030677663162350655,0.006957941222935915,0.002722978824749589
1733704645939508500,2.328508544921875,0.00107158487662673,0.0012124376371502876,0.004641786217689514
1733704645949475600,2.3384755859375,0.001529852394014597,-0.0005821492522954941,0.006465822458267212
1733704645959443500,2.348443359375,0.002010020427405834,-0.0007525915279984474,0.005156079772859812
1733704645969410300,2.358410400390625,-0.002273493679240346,0.004754421301186085,0.005634323228150606
1733704645979378400,2.36837841796875,-0.0031536684837192297,0.008076980710029602,0.0003189200069755316
1733704645989345300,2.37834521484375,-0.0056945462711155415,0.012205894105136395,0.00004709605127573013
1733704645999313400,2.3883134765625,-0.005419974215328693,0.01853116787970066,-0.0012293572071939707
1733704646009280500,2.398280517578125,-0.006011316552758217,0.019682712852954865,-0.00017270096577703953
1733704646019247600,2.40824755859375,-0.0025638544466346502,0.017997197806835175,0.002943996340036392
1733704646029215200,2.41821533203125,-0.002576067578047514,0.011423081159591675,0.004431772977113724
1733704646039182300,2.428182373046875,-0.004438682459294796,0.008909589610993862,0.003108448348939419
1733704646049150500,2.438150390625,-0.005945520009845495,0.0016152309253811836,0.004805959295481443
1733704646059117300,2.448117431640625,-0.005678138695657253,0.0015779463574290276,0.001975285355001688
1733704646069085400,2.45808544921875,-0.005979281850159168,0.002620963379740715,-0.0004222376737743616
1733704646079052500,2.468052490234375,-0.00554225780069828,0.0013559618964791298,-0.0006259696092456579
1733704646089019600,2.47801953125,-0.004647840745747089,-0.0004213722422719002,-0.0007939795032143593
1733704646098987300,2.4879873046875,-0.0013681580312550068,0.0018380535766482353,0.0007487897528335452
1733704646108954400,2.497954345703125,-0.001233118586242199,0.002933612558990717,0.00036624004133045673
1733704646118922500,2.507922607421875,0.0021360465325415134,0.0025959238409996033,0.0015167256351560354
1733704646128889300,2.517889404296875,0.00260663079097867,0.0038865176029503345,0.004227664787322283
1733704646138857500,2.527857421875,0.004230626858770847,0.007263672538101673,0.0016505238600075245
1733704646148824600,2.537824462890625,0.0069271354004740715,0.007201210595667362,-0.0014079944230616093
1733704646158791400,2.54779150390625,0.006548966281116009,0.007314395159482956,-0.004989147186279297
1733704646168759300,2.55775927734375,0.007219959516078234,0.008798010647296906,-0.002505676820874214
1733704646178726400,2.567726318359375,0.00318021047860384,0.005931383930146694,0.0011218150611966848
1733704646188694500,2.577694580078125,0.0011289608664810658,0.0037711826153099537,-0.0017522205598652363
1733704646198661400,2.587661376953125,-0.0006942391628399491,0.007831437513232231,-0.002764753997325897
1733704646208629200,2.597629150390625,-0.0012349619064480066,0.011491108685731888,-0.004795777145773172
1733704646218596400,2.607596435546875,-0.0025377804413437843,0.013592875562608242,-0.004619209561496973
1733704646228563200,2.617563232421875,-0.004135082010179758,0.01160444226115942,-0.004070368595421314
1733704646238531300,2.62753125,-0.002459421055391431,0.01202948298305273,-0.0035886026453226805
1733704646248498400,2.63749853515625,-0.0033201342448592186,0.017655372619628906,-0.0069007882848382
1733704646258466600,2.647466552734375,-0.004632806405425072,0.020767277106642723,-0.007391342893242836
1733704646268433400,2.657433349609375,-0.00774476770311594,0.022680900990962982,-0.006438319571316242
1733704646278401300,2.6674013671875,-0.007563939318060875,0.020422007888555527,-0.002847313415259123
1733704646288368400,2.677368408203125,-0.005696782376617193,0.007684814743697643,-0.002767115132883191
1733704646298335200,2.687335205078125,-0.0037225810810923576,-0.0035332180559635162,-0.0016206239815801382
1733704646308303400,2.697303466796875,0.0014662614557892084,-0.01626697927713394,0.0020967619493603706
1733704646318270500,2.7072705078125,0.005793099291622639,-0.023585880175232887,0.007999392226338387
1733704646328238600,2.717238525390625,0.006578670348972082,-0.028746433556079865,0.012564086355268955
1733704646338205400,2.727205322265625,0.009202683344483376,-0.025876346975564957,0.009563502855598927
1733704646348172500,2.737172607421875,0.006314525846391916,-0.018188411369919777,0.005723467096686363
1733704646358140400,2.747140380859375,0.0049624391831457615,-0.009984277188777924,0.002681071637198329
1733704646368107300,2.757107177734375,0.004163449630141258,-0.0010210638865828514,0.000753766275011003
1733704646378075400,2.767075439453125,0.004586892202496529,-0.00034914910793304443,0.0023162427823990583
1733704646388042500,2.77704248046875,0.005418760702013969,0.00258158752694726,0.0009093548869714141
1733704646398010400,2.78701025390625,0.0009915215196087956,0.003906510304659605,0.0015690198633819818
1733704646407977200,2.796977294921875,-0.0021590995602309704,0.0027770185843110085,-0.0011019606608897448
1733704646417944300,2.8069443359375,-0.002069084905087948,0.003770910669118166,-0.004345158115029335
1733704646427912400,2.816912353515625,-0.004366410430520773,0.0029422612860798836,-0.005281588528305292
1733704646437879300,2.82687939453125,-0.004029520321637392,0.0010897666215896606,-0.005252293776720762
1733704646447847400,2.836847412109375,-0.0030126026831567287,0.002503141760826111,-0.0022057085298001766
1733704646457813800,2.846813720703125,-0.0023492092732340097,0.004269349854439497,0.00021856673993170261
1733704646467782000,2.856781982421875,-0.002092357724905014,0.005256883800029755,-0.0007887126412242651
1733704646477749000,2.8667490234375,-0.0029203342273831367,0.004899487365037203,-0.00016526668332517147
1733704646487715800,2.8767158203125,-0.0022851084358990192,0.0014367280527949333,-0.002529923338443041
1733704646497683700,2.88668359375,-0.0021583419293165207,0.0053670210763812065,-0.003281201235949993
1733704646507650800,2.89665087890625,-0.0011511147022247314,0.008112672716379166,-0.0038365928921848536
1733704646517619000,2.906618896484375,0.0007024453370831907,0.009862103499472141,-0.0048400722444057465
1733704646527585800,2.916585693359375,0.003939272835850716,0.008442360907793045,-0.00037758098915219307
1733704646537553000,2.926552978515625,0.006485521327704191,0.004459870047867298,0.002253089565783739
1733704646547520800,2.936520751953125,0.008192380890250206,0.0019755689427256584,0.0009410823695361614
1733704646557487600,2.946487548828125,0.006024834234267473,0.000029597431421279907,-0.0006280520465224981
1733704646567455700,2.956455810546875,0.00497792474925518,0.0013598836958408356,-0.0018309901934117079
1733704646577422800,2.9664228515625,0.0030929394997656345,0.002841932699084282,0.00043349573388695717
1733704646587391000,2.976390869140625,0.0036038774996995926,0.0011657355353236198,0.0039418600499629974
1733704646597357800,2.98635791015625,0.005115221720188856,0.003260045312345028,0.006293698213994503
1733704646607325000,2.996324951171875,0.0026051311288028955,-0.01146368496119976,0.0057697780430316925
1733704646617292800,3.006292724609375,0.004425934515893459,-0.015506897121667862,0.004717829637229443
1733704646627259600,3.016259765625,-0.0003748643212020397,-0.013498762622475624,-0.000022111693397164345
1733704646637227800,3.026227783203125,-0.00017352937720716,-0.008112253621220589,-0.0017446442507207394
1733704646647195000,3.03619482421875,-0.0002682360354810953,-0.0007898202165961266,-0.002872019773349166
1733704646657163000,3.0461630859375,-0.0007537303026765585,0.00260624336078763,-0.002893325174227357
1733704646667129900,3.0561298828125,-0.0002747294493019581,0.0038362848572432995,0.0008498071692883968
1733704646677097000,3.066096923828125,-0.0012425222666934133,-0.001337704248726368,0.0008135882671922445
1733704646687064800,3.07606494140625,-0.0003736751386895776,-0.009344758465886116,0.0009532198309898376
1733704646697031700,3.08603173828125,0.0004923848318867385,-0.011202845722436905,0.002688801847398281
1733704646706999800,3.095999755859375,0.0010431474074721336,-0.00818333774805069,0.003799017984420061
1733704646716967000,3.105966796875,0.0034786080941557884,-0.0051566557958722115,0.0050863903015851974
1733704646726934000,3.11593408203125,0.003522040555253625,-0.0020046643912792206,0.0034029227681457996
1733704646736902000,3.12590185546875,0.0038123251870274544,-0.0025564711540937424,0.0034282226115465164
1733704646746868700,3.13586865234375,0.004006301984190941,0.00046445615589618683,0.0038093780167400837
1733704646756836900,3.1458369140625,0.0033522294834256172,0.0027132295072078705,0.0016048133838921785
1733704646766803700,3.1558037109375,0.0001958099310286343,0.008299288339912891,-0.0029321247711777687
1733704646776771800,3.165771728515625,-0.0011421621311455965,0.014310842379927635,-0.006381717044860125
1733704646786739000,3.175739013671875,-0.0031761620193719864,0.016924235969781876,-0.004485351033508778
1733704646796706000,3.1857060546875,-0.0014499009121209383,0.014405683614313602,-0.0038805468939244747
1733704646806673700,3.195673583984375,-0.0014786208048462868,0.010211898013949394,-0.0031970501877367496
1733704646816640800,3.205640869140625,0.0014138384722173214,0.005064540077000856,-0.004944882821291685
1733704646826609000,3.21560888671875,-0.00025451008696109056,0.003344704397022724,-0.004826176445931196
1733704646836575700,3.22557568359375,-0.000654516858048737,0.0016480041667819023,-0.0030913930386304855
1733704646846542800,3.23554296875,-0.0011596959084272385,-0.00011454429477453232,-0.00015538418665528297
1733704646856511000,3.245510986328125,-0.0000504892086610198,-0.001913243904709816,0.0036563980393111706
1733704646866477800,3.255477783203125,0.0022566867992281914,-0.004776266403496265,0.0026625734753906727
1733704646876445700,3.26544580078125,0.002915552817285061,-0.008184580132365227,-0.0006650462746620178
1733704646886412800,3.275412841796875,0.0013697927352041006,-0.006138356402516365,0.0008873456390574574
1733704646896380000,3.2853798828125,-0.0002928187604993582,-0.0005838014185428619,0.0004151671892032027
1733704646906347800,3.29534765625,-0.001848186831921339,-0.000334346666932106,0.00218313280493021
1733704646916315000,3.30531494140625,0.001263716840185225,-0.001645953394472599,0.00434881541877985
1733704646926283000,3.315282958984375,0.0003685915726236999,-0.006752548739314079,0.003701463108882308
1733704646936249900,3.325249755859375,0.002522822469472885,-0.010696422308683395,0.0039043959695845842
1733704646946217700,3.3352177734375,0.0008831311715766788,-0.010468728840351105,0.0016546614933758974
1733704646956184800,3.345184814453125,-0.0019701796118170023,-0.008301714435219765,0.0028440291061997414
1733704646966152000,3.35515185546875,-0.0028851600363850594,-0.005793439224362373,0.0023779289331287146
1733704646976119800,3.365119873046875,-0.000002021784894168377,-0.00005832221359014511,0.000612519565038383
1733704646986087000,3.3750869140625,0.0005437874351628125,0.0009917346760630608,0.0006806625751778483
1733704646996054800,3.3850546875,-0.0006599613698199391,0.0039864592254161835,-0.000090855173766613
1733704647006021600,3.395021728515625,-0.002493592444807291,0.0030390163883566856,0.0030552763491868973
1733704647015988700,3.40498876953125,-0.0028933328576385975,0.0024115750566124916,0.0029255803674459457
1733704647025956900,3.414956787109375,-0.002754500601440668,0.0018582819029688835,0.0014187170891091228
1733704647035924000,3.424924072265625,-0.004929504357278347,0.0012769140303134918,-0.003230363130569458
1733704647045891800,3.434891845703125,-0.007903968915343285,0.0001282552257180214,-0.004731598775833845
1733704647055859000,3.44485888671875,-0.006486367899924517,0.0001639416441321373,-0.0062533291056752205
1733704647065826800,3.454826904296875,-0.005447606090456247,-0.0008587436750531197,-0.0037164371460676193
1733704647075793700,3.464793701171875,-0.00448780320584774,0.0036443956196308136,0.001020793803036213
1733704647085760800,3.4747607421875,-0.0003180759958922863,0.007474017329514027,0.0010549877770245075
1733704647095729000,3.48472900390625,0.001940817222930491,0.0059363082982599735,0.00039079540874809027
1733704647105696000,3.494696044921875,0.0028111175633966923,0.006586156785488129,0.0010792339453473687
1733704647115664000,3.504663818359375,0.002112037967890501,0.0076956297270953655,0.0019295811653137207
1733704647125631000,3.514630859375,-0.002403884194791317,0.0034196581691503525,-0.0005570121575146914
1733704647135597800,3.524597900390625,-0.00033061334397643805,-0.0040534380823373795,-0.002098449971526861
1733704647145565700,3.534565673828125,0.0021690481808036566,-0.0029993662610650063,-0.002140692202374339
1733704647155532800,3.54453271484375,0.000022806692868471146,0.0006891116499900818,-0.004174548201262951
1733704647165501000,3.5545009765625,-0.001486952998675406,0.006717151030898094,-0.005186768248677254
1733704647175467800,3.5644677734375,-0.002316261176019907,0.007437003310769796,-0.0006234417669475079
1733704647185435000,3.574434814453125,-0.0006805951707065105,0.0013235919177532196,0.0035411976277828217
1733704647195402800,3.58440283203125,-0.00022146629635244608,-0.008341552689671516,0.004204058554023504
1733704647205369900,3.594369873046875,-0.003896354930475354,-0.009944306686520576,0.0011774104787036777
1733704647215337700,3.604337646484375,-0.0038614675868302584,-0.008718719705939293,-0.004478611052036285
1733704647225304800,3.614304931640625,-0.0056700860150158405,-0.005525175482034683,-0.003791363211348653
1733704647235272000,3.62427197265625,-0.0052037667483091354,-0.0023003537207841873,-0.0028193097095936537
1733704647245239800,3.63423974609375,-0.0002640098100528121,0.0018070433288812637,-0.0006460901349782944
1733704647255207000,3.64420703125,0.0004531795275397599,0.004621205851435661,0.0012109321542084217
1733704647265174800,3.6541748046875,0.00031068065436556935,0.004099796060472727,0.0038796972949057817
1733704647275142000,3.664141845703125,-0.00010690302588045597,-0.0019208118319511414,0.003909524530172348
1733704647285109800,3.67410986328125,-0.000003310851752758026,-0.0024020113050937653,0.0027477042749524117
1733704647295076900,3.684076904296875,0.0007711363723501563,-0.005188743583858013,0.0012094625271856785
1733704647305044000,3.6940439453125,0.001986768329516053,-0.003976014442741871,-0.001534867100417614
1733704647315011800,3.70401171875,-0.0013349924702197313,-0.0035533709451556206,-0.001263490878045559
1733704647324979000,3.71397900390625,0.0019112157169729471,-0.0010685278102755547,0.000054461415857076645
1733704647334946800,3.72394677734375,0.0033344090916216373,-0.0008482849225401878,-0.000023302854970097542
1733704647344914000,3.733913818359375,0.004771018400788307,0.00013266224414110184,0.00044307124335318804
1733704647354880800,3.743880859375,0.0030181254260241985,-0.00029877014458179474,-0.0006871742662042379
1733704647364849000,3.753848876953125,0.0042775459587574005,-0.002071736380457878,0.002222779905423522
1733704647374816000,3.76381591796875,0.007062413729727268,-0.0034416671842336655,0.0021258408669382334
1733704647384784000,3.773783935546875,0.004963057115674019,-0.005479251965880394,0.0024857413955032825
1733704647394750700,3.783750732421875,0.002553428988903761,-0.0020198049023747444,0.0021826736629009247
1733704647404717800,3.7937177734375,-0.0002625515917316079,-0.005539286881685257,-0.0007967455312609673
1733704647414685700,3.803685791015625,-0.0013717582914978266,-0.00772121362388134,0.0004219169495627284
1733704647424652800,3.81365283203125,-0.0006122944178059697,-0.001661006361246109,-0.0015368356835097075
1733704647434621000,3.823620849609375,-0.002704473678022623,0.005668278783559799,-0.0037328782491385937
1733704647444588000,3.833588134765625,-0.0016169153386726975,0.010520678013563156,-0.002736926544457674
1733704647454555400,3.843555419921875,0.0027533320244401693,0.012439219281077385,-0.00043275952339172363
1733704647464523500,3.8535234375,0.0012757449876517057,0.0059276726096868515,-0.00040411180816590786
1733704647474490600,3.86349072265625,0.0021141082979738712,0.0026573105715215206,0.001061958260834217
1733704647484458500,3.87345849609375,0.0012045578332617879,-0.0007497826591134071,-0.00047996616922318935
1733704647494425600,3.883425537109375,-0.0023640780709683895,-0.0058939456939697266,0.0012875738320872188
1733704647504392700,3.893392822265625,-0.001994657563045621,-0.005900148302316666,0.0019325686153024435
1733704647514360600,3.903360595703125,-0.0004313818644732237,-0.0023307139053940773,0.0031206049025058746
1733704647524327400,3.913327392578125,0.0009445286705158651,-0.002951725386083126,0.005236949771642685
1733704647534295600,3.923295654296875,0.0026798443868756294,0.002283516339957714,0.003967687021940947
1733704647544262700,3.9332626953125,0.0019871678669005632,0.006075254641473293,0.0010419678874313831
1733704647554229500,3.9432294921875,0.0017277759034186602,0.0076142954640090466,0.0003519428428262472
1733704647564197600,3.95319775390625,-0.0015266942791640759,0.007189178839325905,0.000250375596806407
1733704647574164700,3.963164794921875,-0.0031355100218206644,0.006351614370942116,-0.0015376708470284939
1733704647584132600,3.973132568359375,-0.0014946565497666597,0.006083813961595297,-0.0010492927394807339
1733704647594099500,3.983099365234375,-0.0016419293824583292,0.0040235924534499645,-0.003840551944449544
1733704647604066600,3.993066650390625,-0.0018990240059792995,0.0020727505907416344,-0.005337458103895187
1733704647614034700,4.00303466796875,-0.0013269770424813032,0.001089777797460556,-0.003946222364902496
1733704647624001500,4.01300146484375,-0.0026919532101601362,0.0034146783873438835,-0.0020922208204865456
1733704647633969700,4.0229697265625,-0.001706850016489625,0.0016077235341072083,-0.0009941994212567806
1733704647643936500,4.0329365234375,-0.00007420615293085575,-0.0013087019324302673,0.0018469406059011817
1733704647653903400,4.0429033203125,0.003875261638313532,-0.0029542697593569756,0.0014477327931672335
1733704647663871500,4.05287158203125,0.0025433548726141453,-0.005580032244324684,-0.0011576039250940084
1733704647673838600,4.062838623046875,0.003966548480093479,-0.004001842811703682,-0.0010665238369256258
1733704647683806700,4.072806640625,0.0012613291619345546,-0.00010061543434858322,-0.00044175772927701473
1733704647693773600,4.082773681640625,-0.0007229921175166965,0.0009209727868437767,-0.0009150013793259859
1733704647703741400,4.092741455078125,0.0016888013342395425,0.004375049844384193,0.0009391865460202098
1733704647713708500,4.10270849609375,-0.0005296118324622512,0.0036962097510695457,0.0007085568504408002
1733704647723675400,4.11267529296875,0.0006879395223222673,0.005361794028431177,0.001357363653369248
1733704647733643500,4.1226435546875,0.0012618507025763392,0.00795597955584526,-0.0013425489887595177
1733704647743610600,4.132610595703125,0.0008630275260657072,0.009166423231363297,-0.00310136703774333
1733704647753577500,4.142577392578125,-0.0009519166778773069,0.00984712690114975,-0.0024030860513448715
1733704647763545600,4.152545654296875,-0.0017650870140641928,0.010210877284407616,-0.003229288151487708
1733704647773512700,4.1625126953125,0.0013364303158596158,0.011797056533396244,-0.004915601573884487
1733704647783480600,4.17248046875,-0.001687981653958559,0.010780791752040386,-0.006785486359149218
1733704647793447400,4.182447509765625,-0.001322596101090312,0.008598331362009048,-0.0022975276224315166
1733704647803414500,4.19241455078125,-0.002020849846303463,0.00802700873464346,-0.0014459793455898762
1733704647813382700,4.202382568359375,-0.0004277470288798213,0.007239512167870998,-0.0015786048024892807
1733704647823349500,4.212349609375,-0.0016059587942436337,0.007792153395712376,-0.003978480584919453
1733704647833317600,4.222317626953125,-0.0003374952357262373,0.008905887603759766,-0.002969408640637994
1733704647843284500,4.232284423828125,-0.0007146882126107812,0.00727436039596796,-0.001925281947478652
1733704647853251600,4.24225146484375,0.0008254179265350103,0.0030415323562920094,-0.0007787907961755991
1733704647863219500,4.252219482421875,0.0017115902155637741,0.0007453551515936852,-0.00428119208663702
1733704647873186600,4.2621865234375,0.0009725631098262966,0.001241767778992653,-0.005570694804191589
1733704647883154700,4.27215478515625,0.0023260011803358793,0.0007927222177386284,-0.005826102569699287
1733704647893121500,4.28212158203125,-0.0007483520312234759,0.0024782363325357437,-0.0024353661574423313
1733704647903088600,4.292088623046875,-0.0022103877272456884,0.005295518320053816,-0.001953889150172472
1733704647913056500,4.302056396484375,-0.0013405992649495602,0.0015010461211204529,-0.0002382807433605194
1733704647923023400,4.3120234375,-0.0009780945256352425,-0.002702067606151104,-0.0008624033071100712
1733704647932991500,4.321991455078125,0.001233128015883267,-0.004676535725593567,-0.0009356401860713959
1733704647942958600,4.33195849609375,-0.00016431126277893782,-0.008858347311615944,0.00041356123983860016
1733704647952925400,4.341925537109375,-0.0010498121846467257,-0.007223164662718773,0.0008543144213035703
1733704647962893600,4.3518935546875,-0.0005126023897901177,0.00004053208976984024,0.002414482645690441
1733704647972860700,4.361860595703125,-0.00006785453297197819,0.003987602889537811,0.002220604568719864
1733704647982828500,4.37182861328125,0.0020524600986391306,0.0043621547520160675,0.0012250376166775823
1733704647992795400,4.38179541015625,0.0023821594659239054,0.005605318583548069,0.0018013457302004099
1733704648002762500,4.391762451171875,0.0007332037785090506,0.004245813935995102,0.001678617438301444
1733704648012730600,4.401730712890625,-0.0014194292016327381,-0.0018184706568717957,0.0003401127178221941
1733704648022697500,4.411697509765625,0.0010177642107009888,-0.00793050043284893,0.0011873205658048391
1733704648032665600,4.42166552734375,0.001940815825946629,-0.007442077621817589,-0.0007165733259171247
1733704648042632700,4.4316328125,0.00451611028984189,-0.00498614925891161,-0.0014045131392776966
1733704648052599600,4.441599609375,0.0018356386572122574,-0.0028755944222211838,-0.0011240823660045862
1733704648062567400,4.4515673828125,0.0011414313921704888,-0.0027954326942563057,-0.0006857260596007109
1733704648072534500,4.461534423828125,-0.0006625938694924116,-0.0020742490887641907,0.0019782339222729206
1733704648082502700,4.471502685546875,-0.004218495916575193,-0.0022225109860301018,0.00199868599884212
1733704648092469500,4.481469482421875,-0.004813446197658777,-0.0006195539608597755,0.00007375306449830532
1733704648102436600,4.4914365234375,-0.006917159538716078,0.000553106889128685,-0.003033451037481427
1733704648112404500,4.501404541015625,-0.0043338933028280735,-0.00007113814353942871,-0.004865173250436783
1733704648122371300,4.511371337890625,-0.0037558511830866337,-0.0006985347718000412,-0.0036290402058511972
1733704648132339500,4.52133935546875,-0.0008854963816702366,0.0018668882548809052,-0.0010276641696691513
1733704648142306600,4.531306640625,-0.0008152987575158477,0.000552276149392128,-0.0023877955973148346
1733704648152273700,4.541273681640625,-0.0011692328844219446,0.0019171461462974548,-0.0012074827682226896
1733704648162241500,4.551241455078125,-0.003116645384579897,0.00137382373213768,-0.0004285962786525488
1733704648172208600,4.561208740234375,-0.0020324725192040205,0.0004923176020383835,0.0009836781537160277
1733704648182175700,4.57117578125,-0.0008117073448374867,-0.004604138433933258,0.002045644214376807
1733704648192143400,4.581143310546875,0.004344971384853125,-0.0034177005290985107,0.0028368693310767412
1733704648202110500,4.5911103515625,0.004375409334897995,-0.0037118643522262573,0.0007465111557394266
1733704648212078600,4.60107861328125,0.002248076256364584,-0.004076184704899788,-0.00161810964345932
1733704648222045700,4.611045654296875,0.003082405775785446,-0.00414242222905159,0.0010416109580546618
1733704648232012500,4.621012451171875,0.0016887735109776258,-0.005059082992374897,0.0012394838267937303
1733704648241980700,4.630980712890625,0.0037133086007088423,-0.006397854536771774,-0.0019366021733731031
1733704648251947500,4.640947509765625,0.005504018161445856,-0.0037799663841724396,-0.00015042000450193882
1733704648261915400,4.650915283203125,0.003832943271845579,-0.0030698152258992195,-0.0010793630499392748
1733704648271882500,4.660882568359375,0.004898207727819681,-0.00005538295954465866,-0.0005446004215627909
1733704648281849600,4.670849609375,0.0008338988991454244,0.0034611686132848263,-0.0003610758576542139
1733704648291817700,4.680817626953125,0.0022493689320981503,-0.002559971995651722,-0.0025720323901623487
1733704648301784600,4.69078466796875,0.00042757869232445955,-0.004313016310334206,-0.003866904880851507
1733704648311752400,4.70075244140625,0.0002723163925111294,0.0010452643036842346,-0.004428565502166748
1733704648321719600,4.710719482421875,0.0011103760916739702,0.006037741433829069,-0.005183584056794643
1733704648331686400,4.720686279296875,0.0013362121535465121,0.010561918839812279,-0.004554012790322304
1733704648341654500,4.730654541015625,0.0017703543417155743,0.013537888415157795,-0.0034231103491038084
1733704648351621600,4.74062158203125,-0.00019878684543073177,0.00950506329536438,-0.002142396057024598
1733704648361588500,4.75058837890625,-0.00008462532423436642,0.008272968232631683,-0.0010441767517477274
1733704648371556600,4.760556640625,0.003383076749742031,0.0054867686703801155,-0.0023320813197642565
1733704648381523700,4.770523681640625,0.004199611023068428,0.0007948148995637894,-0.001644606702029705
1733704648391491600,4.78049169921875,0.0055208052508533,0.0017239926382899284,-0.0004861315246671438
1733704648401458400,4.79045849609375,0.0037318533286452293,0.00044186506420373917,0.00007706787437200546
1733704648411425500,4.800425537109375,0.0026072002947330475,-0.007718060165643692,-0.00006328080780804157
1733704648421393700,4.8103935546875,0.0018782223341986537,-0.011873500421643257,0.002307889750227332
1733704648431360500,4.820360595703125,0.0013762165326625109,-0.006605502218008041,0.0030410580802708864
1733704648441328600,4.83032861328125,0.0009365871665067971,-0.0004119016230106354,-0.0013185697607696056
1733704648451295500,4.84029541015625,0.0017887987196445465,0.005782610736787319,-0.005034478381276131
1733704648461262600,4.8502626953125,-0.0001614023931324482,0.008060865104198456,-0.0036801304668188095
1733704648471230500,4.86023046875,-0.000205344520509243,0.009906968101859093,-0.0025677280500531197
1733704648481197600,4.870197509765625,-0.00011921348050236702,0.006526386830955744,0.00009818142279982567
1733704648491165700,4.880165771484375,-0.00015703041572123766,-0.0006753336638212204,0.0021141942124813795
1733704648501132500,4.890132568359375,0.0036036844830960035,-0.006713626906275749,0.0032976376824080944
1733704648511099600,4.900099609375,0.0020446698181331158,-0.013531317934393883,0.0032622176222503185
1733704648521067500,4.910067626953125,0.003259442513808608,-0.01820114441215992,0.0009375134250149131
1733704648531034400,4.920034423828125,0.0016149405855685472,-0.014433037489652634,-0.00019539520144462585
1733704648541001500,4.93000146484375,0.000638520868960768,-0.008171174675226212,-0.00048271939158439636
1733704648550969600,4.939969482421875,0.004091043025255203,-0.00768168643116951,0.003799377242103219
1733704648560936400,4.9499365234375,0.004767979495227337,-0.004539613611996174,0.0027692881412804127
1733704648570904600,4.959904541015625,0.0036145641934126616,-0.003120947629213333,0.002795120934024453
1733704648580871700,4.96987158203125,0.0036776552442461252,-0.0019674990326166153,-0.0004553727339953184
1733704648590838800,4.9798388671875,0.002513321116566658,-0.0019142357632517815,0.0012740840902552009
1733704648600806400,4.989806396484375,0.00008666841313242912,-0.00020985212177038193,0.0017800743225961924
1733704648610773500,4.9997734375,-0.0024651724379509687,-0.0004215734079480171,-0.0020756504964083433
1733704648620741600,5.00974169921875,-0.002960199723020196,0.0003175996243953705,-0.0026763437781482935
1733704648630708500,5.01970849609375,-0.00022380193695425987,-0.00012182258069515228,-0.0010637999512255192
1733704648640675600,5.029675537109375,0.0005488627357408404,-0.003304707817733288,0.0013368495274335146
1733704648650643700,5.039643798828125,0.001704940921626985,-0.004783295094966888,0.0026236888952553272
1733704648660610600,5.049610595703125,-0.0012509796069934964,-0.003802834078669548,0.0011342258658260107
1733704648670577400,5.059577392578125,0.0007573101902380586,-0.0013553891330957413,-0.0016884584911167622
1733704648680545500,5.069545654296875,-0.002429816173389554,0.0031624026596546173,-0.002788039855659008
1733704648690512600,5.0795126953125,-0.00522506982088089,0.007750496733933687,-0.0028421017341315746
1733704648700480500,5.08948046875,-0.0027500144205987453,0.004413170274347067,-0.0019753132946789265
1733704648710447600,5.099447509765625,-0.00046102760825306177,0.005524507723748684,-0.0026988941244781017
1733704648720414700,5.109414794921875,-0.002182024298235774,0.001974351704120636,-0.0002539327833801508
1733704648730382300,5.11938232421875,-0.0014951950870454311,0.0009170770645141602,-0.00025206850841641426
1733704648740349400,5.129349365234375,-0.002483550924807787,0.0018721986562013626,-0.0018893489614129066
1733704648750317600,5.139317626953125,-0.003471317468211055,0.006539920344948769,-0.0035327854566276073
1733704648760284700,5.14928466796875,-0.0052073560655117035,0.009175235405564308,-0.0037016714923083782
1733704648770251500,5.15925146484375,-0.00449469406157732,0.007642320357263088,-0.0009447671473026276
1733704648780219600,5.1692197265625,-0.002133801579475403,0.0022057434543967247,-0.000698957359418273
1733704648790186800,5.179186767578125,-0.0022848029620945454,-0.00022732093930244446,-0.002162897028028965
1733704648800153600,5.189153564453125,0.0006851349608041346,-0.0033407853916287422,-0.0012909676879644394
1733704648810121500,5.19912158203125,-0.0022304938174784184,-0.0028246641159057617,0.0005162535235285759
1733704648820088600,5.209088623046875,-0.004643996246159077,-0.0025487104430794716,0.0005543911829590797
1733704648830056700,5.219056640625,-0.0035395834129303694,-0.0013042157515883446,-0.00010127900168299675
1733704648840023600,5.2290234375,-0.004316810518503189,-0.0015945406630635262,0.0008300928166136146
1733704648849990700,5.23899072265625,-0.0026539326645433903,-0.004617761820554733,0.0005153071833774447
1733704648859958500,5.24895849609375,-0.0017333377618342638,-0.007041415199637413,0.001656525768339634
1733704648869925400,5.25892529296875,0.0012011993676424026,-0.005584400147199631,0.0022472147829830647
1733704648879893500,5.2688935546875,-0.0005107562756165862,-0.006662273779511452,-0.0005099356640130281
1733704648889860600,5.278860595703125,0.0017047274159267545,-0.005829237401485443,-0.0006769157480448484
1733704648899827500,5.288827392578125,0.0016324445605278015,-0.004191160202026367,-0.0010865950025618076
1733704648909795600,5.298795654296875,-0.0010837132576853037,0.003439861349761486,0.00016908557154238224
1733704648919762700,5.3087626953125,0.0007689676131121814,0.0034626382403075695,-0.0006099662277847528
1733704648929729500,5.3187294921875,0.002800426911562681,-0.0007150629535317421,-0.0012912028469145298
1733704648939697400,5.328697509765625,0.0029482736717909575,-0.004751148633658886,0.002327066147699952
1733704648949664500,5.33866455078125,0.003929115831851959,-0.007093664258718491,0.0014554135268554091
1733704648959632600,5.348632568359375,0.0037396105471998453,-0.008985275402665138,0.0020307409577071667
1733704648969599500,5.358599609375,0.0015238604974001646,-0.010542957112193108,0.004867540206760168
1733704648979566600,5.368566650390625,0.0028134952299296856,-0.005912257358431816,0.003037754911929369
1733704648989534700,5.37853466796875,-0.000440355041064322,-0.001589413732290268,0.0016656944062560797
1733704648999501600,5.38850146484375,-0.00412187073379755,0.0031498600728809834,-0.001639166148379445
1733704649009468700,5.39846875,-0.005336538422852755,0.008266857825219631,-0.005698888562619686
1733704649019436500,5.4084365234375,-0.0036233454011380672,0.01210610568523407,-0.005600075237452984
1733704649029403400,5.4184033203125,-0.0014861589297652245,0.015189513564109802,-0.002818936249241233
1733704649039371500,5.42837158203125,0.001078618224710226,0.011749756522476673,0.000609657377935946
1733704649049338600,5.438338623046875,0.0010911350836977363,0.008499634452164173,0.0007444133516401052
1733704649059305700,5.4483056640625,0.002502152696251869,0.005344960372895002,0.0025562657974660397
1733704649069273300,5.4582734375,0.0023130683694034815,-0.0017193406820297241,0.0036103450693190098
1733704649079240400,5.468240478515625,0.0022006083745509386,-0.005226587876677513,0.005514953285455704
1733704649089207600,5.47820751953125,0.0011601113947108388,-0.0017687398940324783,0.0038070681039243937
1733704649099175400,5.488175537109375,0.0025281384587287903,0.0008836016058921814,0.0006139393663033843
1733704649109142500,5.498142578125,0.0027254787273705006,0.0032175956293940544,0.00017824629321694374
1733704649119110700,5.508110595703125,0.0035793441347777843,0.007088909856975079,0.0009727809811010957
1733704649129077500,5.518077392578125,0.0033092994708567858,0.009306523948907852,0.00045479624532163143
1733704649139044600,5.528044677734375,0.0047369059175252914,0.006697382777929306,0.0009523358894512057
1733704649149012500,5.538012451171875,0.004248482175171375,0.0038435389287769794,0.0024295912589877844
1733704649158979600,5.5479794921875,0.0031521557830274105,-0.00033968687057495117,0.003293077927082777
1733704649168946400,5.557946533203125,0.0047804126515984535,-0.0018156114965677261,0.0039562052115798
1733704649178914600,5.56791455078125,0.0029986612498760223,-0.0010055331513285637,0.0014792315196245909
1733704649188881700,5.577881591796875,0.0020465811248868704,-0.00931912288069725,-0.002202854724600911
1733704649198849500,5.587849609375,0.0007338146679103374,-0.005426740273833275,-0.0012391293421387672
1733704649208816600,5.597816650390625,-0.003007926745340228,0.0007504615932703018,-0.0018103774636983871
1733704649218783700,5.60778369140625,-0.0008871573954820633,0.006283793598413467,-0.003889557207003236
1733704649228751600,5.617751708984375,-0.001091954531148076,0.012573647312819958,-0.005975345149636269
1733704649238718500,5.627718505859375,-0.0014200559817254543,0.015709253028035164,-0.0041090017184615135
1733704649248685600,5.637685546875,-0.0037774862721562386,0.015242135152220726,-0.002761176088824868
1733704649258653700,5.64765380859375,-0.00119130895473063,0.011407497338950634,-0.0012805918231606483
1733704649268620500,5.65762060546875,-0.0008805179968476295,0.008333943784236908,-0.0014001675881445408
1733704649278588400,5.66758837890625,0.00032874708995223045,0.007037399336695671,-0.00034471554681658745
1733704649288555500,5.677555419921875,0.0030757978092879057,0.0012380992993712425,0.0023594582453370094
1733704649298522400,5.6875224609375,0.0044847046956419945,-0.0010566776618361473,0.0008926810696721077
1733704649308490500,5.697490478515625,0.0006875696708448231,0.00038675591349601746,0.002960891928523779
1733704649318457600,5.70745751953125,0.0014572046929970384,0.00232691690325737,0.004510984756052494
1733704649328424400,5.717424560546875,-0.000057601253502070904,0.0032638171687722206,0.003754646982997656
1733704649338392600,5.727392578125,0.0010039531625807285,0.003363370895385742,0.005217388272285461
1733704649348359700,5.737359619140625,0.0020567006431519985,0.0033308803103864193,0.005269053392112255
1733704649358327600,5.74732763671875,-0.0009802712593227625,-0.0027855345979332924,0.0023852065205574036
1733704649368294400,5.75729443359375,-0.0042948415502905846,-0.0032782191410660744,-0.001097675645723939
1733704649378261500,5.767261474609375,-0.008628355339169502,-0.006966661661863327,-0.0004414627328515053
1733704649388229600,5.777229736328125,-0.0072791981510818005,-0.01582327112555504,0.0019977265037596226
1733704649398196500,5.787196533203125,-0.004899588879197836,-0.020981427282094955,0.002191564766690135
1733704649408163600,5.79716357421875,-0.0003847320331260562,-0.0271487757563591,0.0032855914905667305
1733704649418131700,5.807131591796875,0.0018366507720202208,-0.028378143906593323,0.0023760790936648846
1733704649428098600,5.8170986328125,0.0022353259846568108,-0.02017560787498951,-0.0002745653036981821
1733704649438066400,5.82706640625,0.0034967102110385895,-0.009904572740197182,-0.001859716372564435
1733704649448033500,5.837033447265625,0.0012511328095570207,0.005534305702894926,-0.0009960532188415527
1733704649458000600,5.847000732421875,-0.0008938906248658895,0.016328852623701096,-0.00449831597507
1733704649467968800,5.85696875,-0.0030478553380817175,0.025653112679719925,-0.00648796372115612
1733704649477935900,5.866935791015625,-0.0029976745136082172,0.025872334837913513,-0.007714143954217434
1733704649487902700,5.87690283203125,-0.0010889868717640638,0.02133004739880562,-0.005588941276073456
1733704649497870600,5.88687060546875,0.000559129926841706,0.016916081309318542,-0.0035566219594329596
1733704649507837700,5.896837646484375,0.001157009624876082,0.007145475130528212,0.0003369194455444813
1733704649517804500,5.906804443359375,0.0024897123221307993,0.0024190628901124,0.0018779173260554671
1733704649527772700,5.916772705078125,0.0036806778516620398,-0.001427873969078064,0.004836955573409796
1733704649537739800,5.92673974609375,0.004754959139972925,-0.004415879026055336,0.0057447245344519615
1733704649547708000,5.9367080078125,0.006600263528525829,-0.008334454149007797,0.005573749542236328
1733704649557674800,5.9466748046875,0.0073209903202950954,-0.006702883169054985,0.0036319983191788197
1733704649567641900,5.956641845703125,0.004498572088778019,-0.0039707450196146965,0.0005355409812182188
1733704649577609700,5.966609619140625,0.004123427905142307,0.0011556530371308327,0.002384789055213332
1733704649587576600,5.97657666015625,0.005306670442223549,0.002692297101020813,0.0038641749415546656
1733704649597543700,5.986543701171875,0.005583334714174271,0.00015943963080644608,0.008004877716302872
1733704649607511800,5.99651171875,0.005664827302098274,-0.0062819477170705795,0.008229382336139679
1733704649617478700,6.006478759765625,0.007270409259945154,-0.00778602808713913,0.0063761090859770775
1733704649627446500,6.016446533203125,0.0045497240498661995,-0.0062230173498392105,0.0015909414505586028
1733704649637413600,6.02641357421875,0.0017267826478928328,-0.004400385543704033,-0.00028844154439866543
1733704649647380500,6.03638037109375,0.0010498070623725653,0.0004862481728196144,-0.0002919035032391548
1733704649657348600,6.0463486328125,-0.00037777016405016184,0.007064514793455601,0.000809097895398736
1733704649667315700,6.056315673828125,0.0016819186275824904,0.01205767598003149,-0.0025052062701433897
1733704649677282600,6.066282470703125,0.0022110319696366787,0.006277128122746944,-0.0022140920627862215
1733704649687250700,6.076250732421875,0.002125810831785202,0.009037228301167488,-0.00025027734227478504
1733704649697217800,6.0862177734375,0.0007947868434712291,0.006385465152561665,-0.003323437413200736
1733704649707185000,6.096184814453125,-0.001088600605726242,0.004718059673905373,-0.005453167483210564
1733704649717152500,6.106152587890625,0.0010688212933018804,0.005632605869323015,-0.0034543366637080908
1733704649727119600,6.11611962890625,0.00039584049955010414,0.00022079609334468842,-0.00014083157293498516
1733704649737087700,6.126087646484375,0.00045037700328975916,-0.007447382435202599,0.0020851935259997845
1733704649747054600,6.1360546875,0.0014293550048023462,-0.013663733378052711,0.003643941832706332
1733704649757021700,6.146021728515625,0.0007607312290929258,-0.014985393732786179,0.0034546819515526295
1733704649766989800,6.15598974609375,-0.002778609748929739,-0.00614875927567482,0.0006272039609029889
1733704649776956700,6.165956787109375,-0.006762031000107527,0.004348614253103733,0.0006238117348402739
1733704649786923500,6.175923583984375,-0.00917245913296938,0.012094417586922646,-0.0032470927108079195
1733704649796891600,6.1858916015625,-0.010571950115263462,0.014459304511547089,-0.0032090095337480307
1733704649806858800,6.195858642578125,-0.005953229032456875,0.007263710256665945,-0.007788049057126045
1733704649816825600,6.20582568359375,-0.00401310995221138,-0.002570296637713909,-0.005497061647474766
1733704649826793700,6.215793701171875,-0.000983231933787465,-0.011538492515683174,-0.002112983027473092
1733704649836760800,6.2257607421875,-0.0023062715772539377,-0.012793676927685738,-0.002057332545518875
1733704649846728400,6.235728515625,-0.003280189586803317,-0.011443454772233963,-0.001419238978996873
1733704649856695600,6.245695556640625,-0.005213415250182152,-0.006059002131223679,0.0009555210126563907
1733704649866662700,6.25566259765625,-0.004391297698020935,-0.01009955070912838,0.004100714344531298
1733704649876630800,6.265630859375,-0.003691901918500662,-0.011262642219662666,0.0039580692537128925
1733704649886597600,6.27559765625,-0.0018567175138741732,-0.013648567721247673,0.002933284966275096
1733704649896564700,6.285564697265625,0.00023957365192472935,-0.01055421493947506,0.0009945824276655912
1733704649906532900,6.295532958984375,-0.0014035968342795968,-0.004034796729683876,-0.0007982575334608555
1733704649916499700,6.305499755859375,-0.004491135012358427,0.0030161975882947445,-0.0016832947731018066
1733704649926466800,6.315466796875,-0.004110835492610931,0.007553424686193466,-0.004447655752301216
1733704649936434700,6.3254345703125,-0.004123427905142307,0.00478468369692564,-0.004606074653565884
1733704649946401500,6.335401611328125,-0.0005454706260934472,-0.0015413891524076462,-0.0028694274369627237
1733704649956369700,6.34536962890625,-0.0019733028020709753,-0.006105026230216026,-0.0013439098838716745
1733704649966336800,6.355336669921875,-0.003126185154542327,-0.005653887987136841,0.0014974165242165327
1733704649976303600,6.3653037109375,-0.004303974099457264,-0.00015363655984401703,0.003201365238055587
1733704649986271700,6.375271728515625,-0.003959094639867544,0.005993205588310957,0.0016388886142522097
1733704649996238600,6.385238525390625,-0.0013183041010051966,0.0023779645562171936,-0.0009347903542220592
1733704650006205400,6.395205322265625,-0.002950022928416729,0.007623858749866486,-0.0035683901514858007
1733704650016173600,6.405173583984375,-0.00532066635787487,0.010316629894077778,-0.00468908715993166
1733704650026140700,6.415140625,-0.0023483126424252987,0.006382874213159084,-0.0029234113171696663
1733704650036107800,6.425107666015625,-0.0004948449786752462,0.002099095843732357,-0.0008093465585261583
1733704650046075600,6.43507568359375,0.0016428744420409203,-0.001396835781633854,0.001958210486918688
1733704650056042800,6.445042724609375,0.00032770552206784487,-0.0025215521454811096,0.005584017839282751
1733704650066010600,6.4550107421875,0.001208945526741445,-0.0017748009413480759,0.007139037828892469
1733704650075977500,6.4649775390625,0.0016900310292840004,-0.004968438297510147,0.0074009038507938385
1733704650085944600,6.474944580078125,0.002816015388816595,-0.0023881010711193085,0.0057060676626861095
1733704650095912700,6.48491259765625,0.0021476359106600285,0.0009572161361575127,0.003868181724101305
1733704650105879800,6.4948798828125,0.001435240264981985,0.0025918646715581417,0.0007256518583744764
1733704650115846700,6.5048466796875,0.00027073262026533484,0.00785035826265812,0.001853185473009944
1733704650125814800,6.514814697265625,-0.0007351433159783483,0.00878406222909689,0.002129887929186225
1733704650135782000,6.524781982421875,-0.002873227233067155,0.010664722882211208,0.0035870810970664024
1733704650145748700,6.534748779296875,-0.003663919633254409,0.013114298693835735,0.004623050801455975
1733704650155716600,6.544716552734375,-0.004383370280265808,0.009812768548727036,0.005784790962934494
1733704650165683700,6.55468359375,-0.004697889555245638,0.0040211924351751804,0.00479622557759285
1733704650175651800,6.56465185546875,-0.0043409159407019615,0.004948566667735577,0.00019141985103487968
1733704650185618700,6.57461865234375,-0.0029363648500293493,0.004879324231296778,-0.005505614448338747
1733704650195585800,6.584585693359375,-0.0073997038416564465,0.007808546535670757,-0.008932084776461124
1733704650205553700,6.5945537109375,-0.005064378026872873,0.009638138115406036,-0.006011662073433399
1733704650215520500,6.6045205078125,-0.0020991223864257336,0.006812600418925285,-0.0034950135741382837
1733704650225487600,6.614487548828125,0.0015691154403612018,0.003793641459196806,-0.0012337234802544117
1733704650235455700,6.624455810546875,0.0046823034062981606,0.002672813832759857,-0.00045805657282471657
1733704650245422600,6.634422607421875,0.004154198803007603,0.006170875858515501,-0.002402164041996002
1733704650255389700,6.6443896484375,0.0036181965842843056,0.005415154155343771,-0.0029968954622745514
1733704650265357800,6.65435791015625,0.0029012735467404127,0.0029509314335882664,-0.0015257655177265406
1733704650275324700,6.66432470703125,0.0026516797952353954,-0.0029883403331041336,0.004344669170677662
1733704650285291800,6.674291748046875,0.006196347065269947,-0.009084582328796387,0.007981748320162296
1733704650295259600,6.684259765625,0.005867725238204002,-0.01088915765285492,0.008008234202861786
1733704650305226500,6.6942265625,0.004836549516767263,-0.008116273209452629,0.0033016300294548273
1733704650315193600,6.704193603515625,0.0018651564605534077,0.000988740473985672,-0.0026942845433950424
1733704650325161700,6.71416162109375,-0.0014579357812181115,0.007604831829667091,-0.004761696793138981
1733704650335128800,6.72412890625,-0.002673013601452112,0.009391309693455696,-0.00313151185400784
1733704650345096700,6.7340966796875,-0.0007201178232207894,0.007764916867017746,-0.001127749215811491
1733704650355063600,6.7440634765625,0.0007779902662150562,0.004870960488915443,0.0018332507461309433
1733704650365030700,6.75403076171875,0.003048601560294628,0.004496254026889801,0.0017200664151459932
1733704650374998500,6.76399853515625,0.004480610601603985,0.002831188030540943,0.0008671794785186648
1733704650384965600,6.773965576171875,-0.00039377319626510143,0.008374291472136974,-0.0005115389358252287
1733704650394932700,6.7839326171875,-0.0013371723471209407,0.01230054721236229,-0.0030875697266310453
1733704650404900900,6.79390087890625,-0.002530534751713276,0.013535987585783005,-0.0018630481790751219
1733704650414867700,6.80386767578125,-0.003142688190564513,0.011915230192244053,-0.004451685585081577
1733704650424834800,6.813834716796875,-0.0007564957486465573,0.011968759819865227,-0.0029653755482286215
1733704650434802700,6.823802734375,0.0016004673670977354,0.011449050158262253,-0.0018350356258451939
1733704650444769500,6.83376953125,0.0038694804534316063,0.008517175912857056,0.0015306671848520637
1733704650454736100,6.843736083984375,0.0057320063933730125,0.002742016687989235,0.003911585547029972
1733704650464704300,6.853704345703125,0.0030635192524641752,0.003311400767415762,0.005245829001069069
1733704650474671000,6.863671142578125,0.0025475136935710907,0.0006344299763441086,0.004190224688500166
1733704650484639200,6.87363916015625,0.004040747880935669,-0.005370998755097389,0.001908161910250783
1733704650494606300,6.8836064453125,0.0021338998340070248,-0.004585583694279194,0.00034902989864349365
1733704650504573200,6.8935732421875,0.005276429932564497,-0.006570171564817429,0.0027996706776320934
1733704650514541000,6.903541015625,0.002792184706777334,-0.004994547925889492,0.004484541714191437
1733704650524508200,6.913508056640625,0.0003953397972509265,-0.005390293896198273,0.005298669915646315
1733704650534475000,6.92347509765625,-0.0029386349488049746,-0.003661707043647766,0.0070869638584554195
1733704650544443100,6.933443115234375,-0.004382068291306496,-0.006255093961954117,0.008961030282080173
1733704650554410200,6.94341015625,-0.007729080971330404,-0.006726304069161415,0.011772108264267445
1733704650564377000,6.953377197265625,-0.010218070819973946,-0.004460753872990608,0.016514133661985397
1733704650574345200,6.96334521484375,-0.012902537360787392,0.0024589374661445618,0.01881377398967743
1733704650584312300,6.973312255859375,-0.012929702177643776,0.002711671404540539,0.017567146569490433
1733704650594279200,6.983279052734375,-0.010722861625254154,0.004426989238709211,0.015153982676565647
1733704650604247000,6.9932470703125,-0.008867970667779446,-0.00030651316046714783,0.01411694847047329
1733704650614214100,7.003214111328125,-0.008290105499327183,-0.0066953543573617935,0.01619543321430683
1733704650624181200,7.01318115234375,-0.007799284532666206,-0.01112658903002739,0.016471603885293007
1733704650634149000,7.023149169921875,-0.004813737235963345,-0.015543196350336075,0.014315436594188213
1733704650644116200,7.0331162109375,0.000986361294053495,-0.01809610240161419,0.011876513250172138
1733704650654084000,7.043083984375,0.0014043019618839025,-0.013280756771564484,0.0061711776070296764
1733704650664051200,7.05305126953125,0.002205913420766592,-0.00874965451657772,0.0012350085889920592
1733704650674018000,7.06301806640625,-0.003295662347227335,0.0017312541604042053,-0.0003711346071213484
1733704650683986200,7.072986083984375,-0.0017765953671187162,0.008836567401885986,-0.001153305172920227
1733704650693953300,7.082953369140625,0.0005271114641800523,0.012333419173955917,-0.0014313762076199055
1733704650703920000,7.092920166015625,0.0023700189776718616,0.014789652079343796,-0.0013922275975346565
1733704650713888300,7.10288818359375,0.0027808863669633865,0.013437680900096893,-0.002390216337516904
1733704650723855400,7.11285546875,0.002431479748338461,0.010187559761106968,-0.0005571627989411354
1733704650733822200,7.122822265625,-0.0002692145062610507,0.009758755564689636,0.0012330049648880959
1733704650743790000,7.1327900390625,0.0006724792183376849,0.010477276518940926,0.0050706202164292336
1733704650753757200,7.142757080078125,-0.0014467563014477491,0.010397964157164097,0.004716099239885807
1733704650763724000,7.15272412109375,-0.002684060949832201,0.0008939411491155624,0.0043403273448348045
1733704650773692200,7.162692138671875,-0.001373429549857974,-0.006210220977663994,0.005281176883727312
1733704650783659300,7.1726591796875,-0.002598749939352274,-0.004928175359964371,0.00441325269639492
1733704650793626000,7.182626220703125,-0.00021978432778269053,-0.004418374039232731,0.0021759492810815573
1733704650803594200,7.19259423828125,0.004367244429886341,0.003134883474558592,-0.001828645821660757
1733704650813561000,7.20256103515625,0.005985453724861145,0.012531703338027,-0.00028325035236775875
1733704650823528200,7.212528076171875,0.01022547297179699,0.02095075510442257,0.005549605004489422
1733704650833496000,7.22249609375,0.012515204027295113,0.026530452072620392,0.010224811732769012
1733704650843463200,7.232463134765625,0.013350371271371841,0.029658600687980652,0.016612403094768524
1733704650853430300,7.24243017578125,0.012741785496473312,0.025597121566534042,0.019445501267910004
1733704650863398100,7.252398193359375,0.013081338256597519,0.0199299156665802,0.024450113996863365
1733704650873365200,7.262365234375,0.015366082079708576,0.014081045053899288,0.02372865378856659
1733704650883333000,7.2723330078125,0.013468313030898571,0.0022219885140657425,0.023480447009205818
1733704650893300200,7.28230029296875,0.004728794097900391,-0.013877173885703087,0.02469516173005104
1733704650903267000,7.29226708984375,-0.0027078171260654926,-0.03469163924455643,0.027242740616202354
1733704650913235200,7.302235107421875,-0.012790847569704056,-0.05816227197647095,0.03033069334924221
1733704650923202300,7.312202392578125,-0.02136090025305748,-0.0850900262594223,0.03468123450875282
1733704650933169200,7.322169189453125,-0.025406507775187492,-0.11291393637657166,0.0402485728263855
1733704650943137300,7.33213720703125,-0.024355357512831688,-0.13427995145320892,0.045821767300367355
1733704650953104400,7.3421044921875,-0.025339486077427864,-0.14674602448940277,0.04820907115936279
1733704650963071200,7.3520712890625,-0.020335139706730843,-0.15025261044502258,0.046113695949316025
1733704650973039000,7.3620390625,-0.012255357578396797,-0.14261256158351898,0.04235437139868736
1733704650983006200,7.372006103515625,-0.010193005204200745,-0.12475047260522842,0.03873806446790695
1733704650992973000,7.38197314453125,-0.012665430083870888,-0.1024138554930687,0.035677529871463776
1733704651002941200,7.391941162109375,-0.014061192981898785,-0.07630076259374619,0.033735550940036774
1733704651012908300,7.401908203125,-0.014906602911651134,-0.05322529375553131,0.031162334606051445
1733704651022875100,7.411875244140625,-0.01635776087641716,-0.03290963172912598,0.028412621468305588
1733704651032843000,7.421843017578125,-0.017024081200361252,-0.016448095440864563,0.022621573880314827
1733704651042810000,7.43181005859375,-0.01720437780022621,-0.004273455590009689,0.017783144488930702
1733704651052777200,7.441777099609375,-0.015278046019375324,0.009685093536973,0.005626981146633625
1733704651062745000,7.4517451171875,-0.017174214124679565,0.024993475526571274,-0.007041675969958305
1733704651072712200,7.461712158203125,-0.019319409504532814,0.04034770280122757,-0.023458989337086678
1733704651082679300,7.47167919921875,-0.024316832423210144,0.05849234759807587,-0.03507223725318909
1733704651092647200,7.481647216796875,-0.026851963251829147,0.07814422249794006,-0.04379818215966225
1733704651102614300,7.4916142578125,-0.02782774530351162,0.093412384390831,-0.046981990337371826
1733704651112581400,7.501581298828125,-0.026954246684908867,0.10984013229608536,-0.04729410633444786
1733704651122549200,7.51154931640625,-0.017067527398467064,0.11619656533002853,-0.044422417879104614
1733704651132516000,7.52151611328125,-0.0026920868549495935,0.12526948750019073,-0.03936931863427162
1733704651142483200,7.531483154296875,0.016359901055693626,0.13119849562644958,-0.034444600343704224
1733704651152451300,7.541451416015625,0.02621343731880188,0.13653019070625305,-0.023963650688529015
1733704651162418200,7.551418212890625,0.027039816603064537,0.12342744320631027,-0.010215879417955875
1733704651172385300,7.56138525390625,0.019010260701179504,0.09316378831863403,0.007401125505566597
1733704651182353200,7.571353271484375,0.014509253203868866,0.03915221989154816,0.026096250861883163
1733704651192320000,7.581320068359375,0.014406631700694561,-0.02427956461906433,0.03958999738097191
1733704651202288000,7.5912880859375,0.01773531548678875,-0.08730407059192657,0.050099365413188934
1733704651212255200,7.601255126953125,0.024249497801065445,-0.1374521106481552,0.05713086202740669
1733704651222222000,7.61122216796875,0.03296602517366409,-0.15937578678131104,0.05696042254567146
1733704651232190200,7.621190185546875,0.036766014993190765,-0.15070517361164093,0.05254906415939331
1733704651242157300,7.6311572265625,0.03047589771449566,-0.12114356458187103,0.047095708549022675
1733704651252124200,7.641124267578125,0.020137451589107513,-0.08070734888315201,0.0333840548992157
1733704651262092000,7.651092041015625,0.008045902475714684,-0.034114815294742584,0.014848184771835804
1733704651272059100,7.66105908203125,-0.005130193196237087,0.0016705598682165146,-0.003950217273086309
1733704651282026200,7.671026123046875,-0.010621365159749985,0.028920557349920273,-0.017495054751634598
1733704651291994000,7.680994140625,-0.014068152755498886,0.04871714487671852,-0.023592963814735413
1733704651301961200,7.690961181640625,-0.010965569876134396,0.05605095997452736,-0.02599167264997959
1733704651311928300,7.70092822265625,-0.006585925817489624,0.05349711328744888,-0.02327209711074829
1733704651321896200,7.710896240234375,-0.0012675933539867401,0.04214192554354668,-0.02128751017153263
1733704651331863000,7.720863037109375,0.0019126435508951545,0.021967362612485886,-0.01559933926910162
1733704651341830100,7.730830078125,-0.000769159640185535,0.003679969348013401,-0.012481576763093472
1733704651351798300,7.74079833984375,0.0034793263766914606,-0.003237219527363777,-0.014150150120258331
1733704651361765000,7.75076513671875,0.004526214674115181,0.003159693442285061,-0.01883651502430439
1733704651371732200,7.760732177734375,0.008490951731801033,0.010545259341597557,-0.018478630110621452
1733704651381700400,7.770700439453125,0.012279032729566097,0.016738973557949066,-0.014393075369298458
1733704651391667200,7.780667236328125,0.013298047706484795,0.01981527730822563,-0.008106195367872715
1733704651401634300,7.79063427734375,0.01392548717558384,0.01962672546505928,-0.003893074346706271
1733704651411602200,7.800602294921875,0.01227706391364336,0.02180851623415947,-0.0032824522349983454
1733704651421569000,7.810569091796875,0.011927125044167042,0.020526204258203506,0.0001461012288928032
1733704651431536000,7.8205361328125,0.01260452438145876,0.018389493227005005,0.0035269081126898527
1733704651441504300,7.830504150390625,0.01148945838212967,0.009897738695144653,0.005682204384356737
1733704651451471000,7.84047119140625,0.010700258426368237,0.0013286992907524109,0.006328071933239698
1733704651461438700,7.850438720703125,0.008320458233356476,-0.006601927801966667,0.0034510591067373753
1733704651471406600,7.860406494140625,0.004544590599834919,-0.007387489080429077,-0.0010226306039839983
1733704651481373700,7.870373779296875,0.0005591702647507191,-0.0052734725177288055,-0.005185417365282774
1733704651491340500,7.880340576171875,0.00016010500257834792,-0.006334494799375534,-0.00513342535123229
1733704651501308700,7.89030859375,0.00021629774710163474,-0.005358446389436722,-0.00007102242670953274
1733704651511275800,7.90027587890625,0.0025046123191714287,-0.0028100479394197464,0.0047704060561954975
1733704651521242600,7.91024267578125,0.007155556697398424,-0.005244176834821701,0.005335528869181871
1733704651531210800,7.920210693359375,0.0076406579464674,-0.009413108229637146,0.006574629805982113
1733704651541177900,7.930177734375,0.007337057963013649,-0.012731939554214478,0.0069155143573880196
1733704651551144700,7.940144775390625,0.00653455825522542,-0.010914688929915428,0.005060269497334957
1733704651561112600,7.950112548828125,0.004757430870085955,-0.012577032670378685,0.000945152947679162
1733704651571079700,7.96007958984375,0.004726307466626167,-0.018124468624591827,-0.0035585362929850817
1733704651581046500,7.970046630859375,0.006571611389517784,-0.015301784500479698,-0.005278405733406544
1733704651591014700,7.9800146484375,0.006934230215847492,-0.007622608914971352,-0.003698704531416297
1733704651600981800,7.989981689453125,0.006658060476183891,-0.0012949388474225998,-0.0016267651226371527
1733704651610948600,7.999948486328125,0.005963276606053114,0.0023412685841321945,0.000944234081543982
1733704651620916500,8.00991650390625,0.007812043186277151,0.006433482281863689,0.003556528827175498
1733704651630883600,8.019883544921875,0.007628412917256355,0.009736085310578346,-0.000014703953638672829
1733704651640850700,8.0298505859375,0.005011857021600008,0.011514011770486832,-0.0003819537814706564
1733704651650818600,8.039818603515625,0.0030579615850001574,0.01063609216362238,-0.00012591807171702385
1733704651660785700,8.04978564453125,0.0032036365009844303,0.003525984473526478,0.0006690354784950614
1733704651670752800,8.059752685546876,0.0044533871114254,-0.0018196376040577888,-0.00033680605702102184
1733704651680720600,8.069720703125,0.005669386126101017,-0.003566138446331024,-0.003413023427128792
1733704651690687700,8.079687744140625,0.002290416043251753,-0.004995799623429775,-0.0035028073471039534
1733704651700654800,8.08965478515625,-0.0003623587545007467,-0.004275414161384106,-0.0013102269731462002
1733704651710622700,8.099622802734375,-0.0008953057695180178,-0.0006909891963005066,-0.0011109868064522743
1733704651720589600,8.109589599609375,0.00020271562971174717,0.0036992314271628857,-0.0006614453159272671
1733704651730556700,8.119556640625,-0.0010187879670411348,0.009374517016112804,-0.000828202348202467
1733704651740524800,8.12952490234375,-0.0008339645573869348,0.011374550871551037,0.00005836412310600281
1733704651750491600,8.13949169921875,-0.0025572231970727444,0.007254233118146658,0.003559716045856476
1733704651760458800,8.149458740234374,0.0017927841981872916,-0.0018564406782388687,0.004858273547142744
1733704651770426600,8.159426513671875,0.004718548618257046,-0.006555626168847084,0.0024013693910092115
1733704651780393700,8.169393798828125,0.0019328822381794453,-0.011085662990808487,-0.0007153279148042202
1733704651790360600,8.179360595703125,0.001682372996583581,-0.011235242709517479,-0.0012754444032907486
1733704651800328700,8.18932861328125,0.0004179041716270149,-0.008426407352089882,-0.0033183551859110594
1733704651810295600,8.199295654296876,-0.0015132988337427378,-0.004825262352824211,-0.0015479435678571463
1733704651820262700,8.2092626953125,0.0002257453161291778,-0.0031077899038791656,0.0012292007450014353
1733704651830230800,8.219230712890624,0.0006928369402885437,0.0016755815595388412,-0.0003336698282510042
1733704651840197600,8.22919775390625,0.0008206686470657587,0.0063696689903736115,0.002156918402761221
1733704651850164700,8.239164794921875,0.0010187081061303616,0.016707174479961395,0.002409179462119937
1733704651860132600,8.249132568359375,0.0012053957907482982,0.020786073058843613,-0.0007373453117907047
1733704651870099700,8.259099609375,-0.0005507568130269647,0.018928127363324165,-0.0006855216342955828
1733704651880066600,8.269066650390625,0.0003222273662686348,0.014781851321458817,-0.0019997914787381887
1733704651890034700,8.27903466796875,0.002029822673648596,0.009740791283547878,-0.0038747729267925024
1733704651900001800,8.289001708984374,-0.0016634492203593254,0.005845119245350361,-0.004734441637992859
1733704651909968600,8.29896875,-0.0051851896569132805,0.005645877681672573,-0.00421394407749176
1733704651919936800,8.308936767578125,-0.00185863533988595,0.003947313409298658,-0.0036056775134056807
1733704651929903900,8.31890380859375,-0.0018614046275615692,0.0016180789098143578,-0.00029386463575065136
1733704651939870700,8.32887060546875,-0.004622836597263813,0.001350165344774723,-0.0008342198561877012
1733704651949838600,8.338838623046875,-0.003063431940972805,0.0009725270792841911,-0.0019236330408602953
1733704651959805700,8.3488056640625,-0.0034999237395823,0.0018604248762130737,-0.003611011663451791
1733704651969772500,8.3587724609375,-0.004358423873782158,0.002448504790663719,-0.0030699067283421755
1733704651979740700,8.36874072265625,-0.00436934269964695,0.00006337836384773254,0.0007677081739529967
1733704651989707800,8.378707763671875,-0.0036449450999498367,-0.005025692284107208,0.003995451144874096
1733704651999674600,8.388674560546875,-0.0020840666256844997,-0.009420173242688179,0.0031283257994800806
1733704652009641700,8.398641845703125,-0.0007420569891110063,-0.017470184713602066,0.004246959462761879
1733704652019609600,8.408609619140625,0.0011945937294512987,-0.0245861504226923,0.005105029791593552
1733704652029576700,8.41857666015625,-0.00001913809683173895,-0.026604577898979187,0.007393685635179281
1733704652039543600,8.42854345703125,-0.000039378064684569836,-0.02457178384065628,0.004454887472093105
1733704652049511700,8.43851171875,-0.0007361980387941003,-0.023017818108201027,0.0017071026377379894
1733704652059478800,8.448478759765624,0.0009184239315800369,-0.01918739080429077,0.0021782158873975277
1733704652069445600,8.458445556640624,0.0008668269729241729,-0.007861107587814331,0.0022527521941810846
1733704652079413800,8.468413818359375,0.00035070639569312334,0.0020652925595641136,-0.0019361339509487152
1733704652089380900,8.478380859375,-0.0010061741340905428,0.008408942259848118,-0.004807554185390472
1733704652099347700,8.48834765625,-0.002322042128071189,0.008233173750340939,0.0016122619854286313
1733704652109315600,8.498315673828126,-0.000589843257330358,0.0017966972663998604,0.008611935190856457
1733704652119282700,8.50828271484375,0.0008242953335866332,-0.009563015773892403,0.008676117286086082
1733704652129249500,8.51824951171875,0.0033804045524448156,-0.01653200387954712,0.006660775281488895
1733704652139217700,8.5282177734375,0.0017486857250332832,-0.017125623300671577,0.00337922852486372
1733704652149184800,8.538184814453125,-0.0030635003931820393,-0.013147147372364998,-0.0014130729250609875
1733704652159151900,8.54815185546875,-0.004144477657973766,-0.0075899288058280945,-0.004636829718947411
1733704652169119500,8.558119384765625,-0.005725441034883261,-0.001092931255698204,-0.003235280979424715
1733704652179086600,8.568086669921875,-0.006963278166949749,0.004275202751159668,-0.002192653715610504
1733704652189053700,8.5780537109375,-0.007844195701181889,0.011732499115169048,-0.004058509133756161
1733704652199021600,8.588021484375,-0.0063712019473314285,0.018293729051947594,-0.005441755056381226
1733704652208988700,8.59798876953125,-0.00634429045021534,0.023511342704296112,-0.005801004357635975
1733704652218955800,8.607955810546875,-0.005960795097053051,0.03341536968946457,-0.0035474367905408144
1733704652228923600,8.617923583984375,-0.004939507693052292,0.034941431134939194,-0.0021820173133164644
1733704652238890800,8.627890869140625,-0.005705432966351509,0.0264281053096056,0.0013637152733281255
1733704652248857900,8.63785791015625,-0.005650778766721487,0.011283663101494312,0.005003555212169886
1733704652258825700,8.64782568359375,-0.00453997403383255,-0.002797801047563553,0.0077077290043234825
1733704652268792600,8.65779248046875,-0.0030797701328992844,-0.011186221614480019,0.009169681929051876
1733704652278759700,8.667759765625,-0.0019881404004991055,-0.007443947717547417,0.008261277340352535
1733704652288727800,8.677727783203125,-0.002309078350663185,0.002176521345973015,0.003710073884576559
1733704652298694700,8.687694580078125,-0.000045391381718218327,0.015668362379074097,0.00047673017252236605
1733704652308661800,8.697661865234375,-0.0036538545973598957,0.021292179822921753,0.0029885675758123398
1733704652318628900,8.70762890625,-0.00004873343277722597,0.018375219777226448,0.0062538692727684975
1733704652328596500,8.717596435546875,0.002992261666804552,0.01096857525408268,0.0052083441987633705
1733704652338563600,8.7275634765625,0.011984158307313919,0.003726108931005001,0.003489274065941572
1733704652348530700,8.73753076171875,0.013720721006393433,0.0013531409204006195,0.0021489448845386505
1733704652358498600,8.74749853515625,0.010987784713506699,0.00981373805552721,0.00044185854494571686
1733704652368465700,8.757465576171874,0.006555033847689629,0.013721777126193047,-0.004228973761200905
1733704652378432800,8.767432861328125,-0.0013175366912037134,0.022444162517786026,-0.006607177667319775
1733704652388401000,8.77740087890625,-0.006525431759655476,0.029115021228790283,-0.008633005432784557
1733704652398367700,8.78736767578125,-0.008406954817473888,0.03299391642212868,-0.011442374438047409
1733704652408334800,8.7973349609375,-0.006414092145860195,0.032651908695697784,-0.010923721827566624
1733704652418302700,8.807302734375,-0.002978347707539797,0.0250973179936409,-0.008754311129450798
1733704652428269600,8.81726953125,-0.0022739418782293797,0.018757395446300507,-0.006207529455423355
1733704652438236700,8.827236572265624,0.0003423476591706276,0.007402476388961077,-0.004037053324282169
1733704652448204800,8.837204833984375,0.004496431909501553,-0.0010159509256482124,0.0019952324219048023
1733704652458171000,8.8471708984375,0.00451320968568325,-0.004510018043220043,0.0005483371205627918
1733704652468138000,8.857137939453125,0.008095972239971161,-0.009144973009824753,0.0024402181152254343
1733704652478106000,8.867106201171875,0.006149468012154102,-0.008542299270629883,0.00552229443565011
1733704652488073000,8.877072998046875,0.004988828673958778,-0.008797911927103996,0.003909113351255655
1733704652498040000,8.8870400390625,0.0023373854346573353,-0.006013844162225723,0.002317075850442052
1733704652508008000,8.897008056640624,0.00006086507346481085,-0.005843564867973328,0.002825229661539197
1733704652517974800,8.906974853515624,0.0017690164968371391,-0.007353577762842178,0.002394596580415964
1733704652527942000,8.91694189453125,0.00024285941617563367,-0.009461410343647003,0.0008485857397317886
1733704652537910000,8.926909912109375,0.0009456676198169589,-0.009705888107419014,0.0001649521291255951
1733704652547877000,8.936877197265625,-0.0004179547540843487,-0.010927040129899979,0.0016433113487437367
1733704652557844000,8.946843994140625,-0.0019255701918154955,-0.0072430893778800964,0.0030883424915373325
1733704652567811000,8.95681103515625,-0.001791912829503417,-0.00757405161857605,-0.0015609890688210726
1733704652577779000,8.966779052734376,-0.0018515677656978369,-0.0017475886270403862,-0.004753586836159229
1733704652587745800,8.976745849609374,-0.0001005526864901185,0.0007326249033212662,-0.004366212524473667
1733704652597713000,8.986712890625,0.00031649827724322677,0.0018423637375235558,-0.0040040225721895695
1733704652607681000,8.996680908203125,0.0033558118157088757,-0.00018185656517744064,-0.0022944691590964794
1733704652617647900,9.00664794921875,0.00195232592523098,-0.004172602668404579,-0.004024192225188017
1733704652627615000,9.016614990234375,0.004282025620341301,-0.007570728659629822,-0.0013783264439553022
1733704652637583000,9.0265830078125,0.002744849305599928,-0.0006145508959889412,-0.004303276538848877
1733704652647550000,9.036550048828126,0.0019485470838844776,0.004594359081238508,-0.007660981733351946
1733704652657517000,9.04651708984375,-0.0008701425977051258,0.010325748473405838,-0.00660317437723279
1733704652667485000,9.05648486328125,0.0013733376981690526,0.011826637201011181,-0.0034702469129115343
1733704652677452000,9.0664521484375,0.003168041817843914,0.010397052392363548,-0.0026651734951883554
1733704652687419000,9.0764189453125,0.002663772087544203,0.006413240451365709,-0.003560201730579138
1733704652697387000,9.086386962890625,0.001629134058021009,0.0015215463936328888,-0.003218518104404211
1733704652707354000,9.09635400390625,0.0017853952012956142,-0.0017481446266174316,0.00008596177212893963
1733704652717321000,9.106321044921875,0.0017302676569670439,-0.0031542936339974403,-0.002669344423338771
1733704652727288000,9.1162880859375,0.0005874054040759802,-0.0025248033925890923,-0.0033860760740935802
1733704652737256000,9.126255859375,-0.0006086202338337898,-0.004230291582643986,-0.002651043701916933
1733704652747222800,9.136222900390624,-0.0003346105804666877,-0.00447099469602108,0.0004820565227419138
1733704652757190000,9.14618994140625,0.0012568944366648793,-0.004212135449051857,0.005461901426315308
1733704652767158000,9.156157958984375,0.002282362198457122,-0.0036768270656466484,0.003282394725829363
1733704652777124900,9.166124755859375,0.0024682506918907166,-0.004470182582736015,0.003519415855407715
1733704652787092000,9.176092041015625,-0.000026286812499165535,-0.004620501771569252,0.00227132230065763
1733704652797060000,9.18606005859375,-0.00034107244573533535,-0.00361808855086565,0.0001783438492566347
1733704652807027000,9.19602685546875,-0.003586782608181238,-0.005647176876664162,-0.0016970026772469282
1733704652816994000,9.205994140625,-0.001536947675049305,-0.009080789983272552,-0.000824817456305027
1733704652826962000,9.2159619140625,-0.0035876636393368244,-0.013806665316224098,0.0003424820024520159
1733704652836929000,9.225928955078125,-0.0019596731290221214,-0.0239703506231308,0.001991511322557926
1733704652846895900,9.235895751953125,-0.004451392218470573,-0.041059717535972595,0.007132239639759064
1733704652856864000,9.245864013671875,-0.0028593544848263264,-0.06337247788906097,0.015027180314064026
1733704652866831000,9.2558310546875,-0.005714648403227329,-0.08503495901823044,0.01868990808725357
1733704652876798000,9.2657978515625,-0.004736203234642744,-0.1014472246170044,0.01724833995103836
1733704652886765000,9.27576513671875,-0.00014491344336420298,-0.10844974219799042,0.006354412995278835
1733704652896733000,9.28573291015625,0.005699659697711468,-0.09311126172542572,-0.009725754149258137
1733704652906699800,9.29569970703125,0.003526237327605486,-0.04501161351799965,-0.0290088951587677
1733704652916667000,9.3056669921875,-0.004655792377889156,0.036259010434150696,-0.04605738818645477
1733704652926635000,9.315635009765625,-0.00881188828498125,0.1193503886461258,-0.05798771232366562
1733704652936601900,9.325601806640625,-0.006109844893217087,0.1740730255842209,-0.0633917972445488
1733704652946569000,9.33556884765625,-0.0004003944341093302,0.1907445788383484,-0.0572330467402935
1733704652956537000,9.345537109375,0.008545695804059505,0.19377899169921875,-0.05169127508997917
1733704652966504000,9.35550390625,0.010416502133011818,0.1786462366580963,-0.044008947908878326
1733704652976471000,9.365470947265624,0.008425523526966572,0.15022632479667664,-0.03675423189997673
1733704652986439000,9.37543896484375,0.006711277645081282,0.13563799858093262,-0.034102678298950195
1733704652996406000,9.385406005859375,0.009954741224646568,0.14589516818523407,-0.0452786348760128
1733704653006372900,9.395372802734375,0.009329265914857388,0.16283534467220306,-0.06079254299402237
1733704653016340000,9.405340087890625,0.0023163636215031147,0.17557376623153687,-0.07315146923065186
1733704653026308000,9.41530810546875,-0.011940798722207546,0.17668180167675018,-0.07547499984502792
1733704653036275000,9.42527490234375,-0.01969059556722641,0.16235585510730743,-0.07405073940753937
1733704653046242000,9.435241943359374,-0.025004908442497253,0.13801634311676025,-0.06166850030422211
1733704653056210000,9.4452099609375,-0.018879637122154236,0.10818121582269669,-0.04358084127306938
1733704653066176800,9.4551767578125,-0.010348696261644363,0.07496701180934906,-0.018299350515007973
1733704653076143900,9.465143798828125,-0.004178951028734446,0.039633527398109436,0.0076409028843045235
1733704653086112000,9.475112060546875,0.0009064018959179521,0.0010625794529914856,0.02626851014792919
1733704653096078800,9.485078857421875,0.0051485514268279076,-0.04090111702680588,0.03293014317750931
1733704653106046000,9.4950458984375,0.005230611655861139,-0.07946693897247314,0.0339965745806694
1733704653116014000,9.50501416015625,0.0017194999381899834,-0.11437858641147614,0.03115631453692913
1733704653125981000,9.51498095703125,0.00006306241266429424,-0.13626296818256378,0.03464491292834282
1733704653135948000,9.524947998046875,-0.0015574711142107844,-0.14078554511070251,0.035399653017520905
1733704653145915100,9.5349150390625,0.0022590402513742447,-0.137395977973938,0.036246687173843384
1733704653155883000,9.544883056640625,0.0018065690528601408,-0.12397045642137527,0.03405517339706421
1733704653165849900,9.554849853515625,0.0037648631259799004,-0.11068965494632721,0.033937010914087296
1733704653175817000,9.56481689453125,0.004103617276996374,-0.09469817578792572,0.03523103892803192
1733704653185785000,9.57478515625,0.0077453781850636005,-0.08651484549045563,0.0354798287153244
1733704653195752000,9.584751953125,0.005640948191285133,-0.07955120503902435,0.03642258793115616
1733704653205719000,9.594718994140624,0.004411955829709768,-0.08477380871772766,0.03719343617558479
1733704653215687000,9.60468701171875,0.004846583586186171,-0.09873437881469727,0.03494466096162796
1733704653225653800,9.61465380859375,0.0027436476666480303,-0.10726609826087952,0.03099961020052433
1733704653235620900,9.624620849609375,0.0011729152174666524,-0.10861072689294815,0.02065402828156948
1733704653245588000,9.634587890625,-0.0014007443096488714,-0.10028870403766632,0.010898366570472717
1733704653255555800,9.644555908203126,-0.003433534875512123,-0.08146761357784271,0.00010377541184425354
1733704653265523000,9.65452294921875,-0.0057912664487957954,-0.0631643757224083,-0.00924314372241497
1733704653275490000,9.664489990234374,-0.00897614099085331,-0.04075707495212555,-0.012374221347272396
1733704653285458200,9.674458251953125,-0.007668006233870983,-0.018136460334062576,-0.01251840591430664
1733704653295425000,9.684425048828125,-0.007043761201202869,-0.00112871453166008,-0.013703778386116028
1733704653305392000,9.69439208984375,-0.002176539972424507,0.01409569475799799,-0.014951066114008427
1733704653315360000,9.704360107421875,-0.0020194132812321186,0.025843698531389236,-0.013842391781508923
1733704653325326800,9.714326904296875,-0.003120094072073698,0.03289470076560974,-0.01266808994114399
1733704653335294000,9.7242939453125,-0.0011877042707055807,0.035499535501003265,-0.01080440916121006
1733704653345262000,9.734261962890624,-0.00020626455079764128,0.034083664417266846,-0.011654519475996494
1733704653355229000,9.74422900390625,-0.0029890015721321106,0.030954448506236076,-0.012386355549097061
1733704653365196000,9.754196044921875,-0.006865966133773327,0.03039984218776226,-0.016390180215239525
1733704653375163100,9.7641630859375,-0.009343504905700684,0.030313290655612946,-0.021186532452702522
1733704653385131000,9.774131103515625,-0.011093467473983765,0.03226485475897789,-0.024228129535913467
1733704653395097900,9.784097900390625,-0.010762703604996204,0.03220333531498909,-0.02537728287279606
1733704653405065000,9.79406494140625,-0.012105606496334076,0.03471687436103821,-0.02465406432747841
1733704653415032800,9.80403271484375,-0.009458424523472786,0.029894690960645676,-0.02496405504643917
1733704653425000000,9.814,-0.009496701881289482,0.024633968248963356,-0.021503953263163567
1733704653434967000,9.823967041015624,-0.007847672328352928,0.021066132932901382,-0.014651907607913017
1733704653444935200,9.83393505859375,-0.008350297808647156,0.020759817212820053,-0.010897232219576836
1733704653454902000,9.843902099609375,-0.006930832751095295,0.01795976795256138,-0.005771712400019169
1733704653464869000,9.853869140625,-0.004989778157323599,0.013627300970256329,-0.002752812812104821
1733704653474836000,9.8638359375,-0.003947416786104441,0.010029103606939316,-0.002823120215907693
1733704653484803800,9.873803955078126,-0.00571151077747345,0.002354173921048641,-0.00043692137114703655
1733704653494771000,9.88377099609375,-0.004829738289117813,-0.006506962701678276,0.001545269275084138
1733704653504737800,9.89373779296875,-0.001933316234499216,-0.01983788050711155,0.0073176841251552105
1733704653514706000,9.903705810546874,0.0017240027664229274,-0.03031555563211441,0.006857756525278091
1733704653524673000,9.913673095703125,0.0024838438257575035,-0.03661590814590454,0.010378323495388031
1733704653534640000,9.92364013671875,0.0014976751990616322,-0.039879344403743744,0.011983410455286503
1733704653544607000,9.93360693359375,0.0014411271549761295,-0.03728627413511276,0.011815250851213932
1733704653554574800,9.943574951171875,-0.0010971315205097198,-0.032618552446365356,0.010953185148537159
1733704653564542000,9.9535419921875,-0.0006533715641126037,-0.028651641681790352,0.011316251941025257
1733704653574508800,9.9635087890625,-0.0009599013719707727,-0.0270132627338171,0.00955457054078579
1733704653584477000,9.973476806640624,-0.0015055167023092508,-0.02004820667207241,0.008224183693528175
1733704653594444000,9.983444091796875,0.0001610894687473774,-0.019593073055148125,0.005067805759608746
1733704653604411000,9.993410888671875,-0.001646385993808508,-0.01997336558997631,0.0031653488986194134
1733704653614379000,10.00337890625,-0.0025555891916155815,-0.015404712408781052,0.0008499966934323311
1733704653624346000,10.01334619140625,-0.0035148232709616423,-0.014238623902201653,-0.0008497592061758041
1733704653634313000,10.02331298828125,-0.0028242655098438263,-0.01308094710111618,-0.001715020276606083
1733704653644280000,10.033280029296876,-0.0027876263484358788,-0.011128345504403114,-0.0005642205942422152
1733704653654248000,10.043248046875,-0.001520760590210557,-0.010477734729647636,0.0006922588218003511
1733704653664215000,10.053215087890624,-0.0002629985101521015,-0.009828053414821625,0.001530484645627439
1733704653674182000,10.063181884765624,0.0016845711506903172,-0.004226093180477619,0.0019960051868110895
1733704653684150000,10.07314990234375,0.000015113386325538158,0.0010872799903154373,-0.0016887758392840624
1733704653694117000,10.0831171875,-0.0019505657255649567,0.009394211694598198,-0.002033654833212495
1733704653704084000,10.093083984375,-0.00013113068416714668,0.01564546674489975,0.0024642155040055513
1733704653714051800,10.1030517578125,0.0005277353920973837,0.01750754937529564,0.004027224611490965
1733704653724019000,10.11301904296875,0.002065293025225401,0.01819552481174469,0.0021272359881550074
1733704653733985800,10.12298583984375,0.0034112546127289534,0.01558163296431303,-0.0016813506372272968
1733704653743953000,10.132952880859374,-0.00015653471928089857,0.020920369774103165,0.0003245228435844183
1733704653753921000,10.142921142578125,-0.0035954746417701244,0.02221200428903103,-0.004551990889012814
1733704653763887900,10.152887939453125,-0.0037216448690742254,0.024201782420277596,-0.00549743976444006
1733704653773855000,10.16285498046875,-0.00405693706125021,0.023415617644786835,-0.0072364844381809235
1733704653783823000,10.172822998046875,-0.0030395453795790672,0.019967753440141678,-0.006344884634017944
1733704653793790000,10.1827900390625,-0.0048646098002791405,0.01606808789074421,-0.006719324737787247
1733704653803757000,10.192757080078126,-0.0038011334836483,0.014075382612645626,-0.0037911003455519676
1733704653813724200,10.20272412109375,-0.004965467378497124,0.006790305487811565,-0.0025095874443650246
1733704653823692000,10.212692138671875,-0.003266449086368084,0.0023440588265657425,-0.0033950568176805973
1733704653833659000,10.222658935546875,-0.003003329038619995,-0.0004165731370449066,-0.0024930438958108425
1733704653843626000,10.2326259765625,-0.006435140036046505,-0.0005011670291423798,-0.004122449550777674
1733704653853594000,10.242593994140625,-0.007486289367079735,-0.0035273171961307526,-0.00270245224237442
1733704653863561000,10.25256103515625,-0.004295761231333017,-0.005657674744725227,-0.0014456226490437984
1733704653873528000,10.262528076171876,-0.0027276920154690742,-0.009508339688181877,0.002211696235463023
1733704653883495000,10.272494873046876,-0.0010920715285465121,-0.011024810373783112,0.004994204267859459
1733704653893462800,10.282462890625,0.001085595227777958,-0.010761423036456108,0.006251748651266098
1733704653903430000,10.292429931640624,0.00047870707930997014,-0.007971594110131264,0.0061073871329426765
1733704653913397000,10.30239697265625,0.001344234449788928,-0.004916150122880936,0.006488751620054245
1733704653923364900,10.31236474609375,0.0015499398577958345,-0.002782127819955349,0.007074869237840176
1733704653933332000,10.32233203125,0.0004575111670419574,-0.003190656192600727,0.004947270266711712
1733704653943299000,10.332299072265625,0.0021123713813722134,-0.004945580847561359,0.006399075500667095
1733704653953267000,10.342266845703126,-0.000256776693277061,-0.0033500809222459793,0.0032264518085867167
1733704653963234000,10.352234130859374,-0.0015900516882538795,-0.0049012042582035065,0.0007919900817796588
1733704653973201200,10.362201171875,-0.004470260813832283,0.0002954220399260521,-0.005192665383219719
1733704653983168000,10.37216796875,-0.003616681322455406,0.008331474848091602,-0.009639522060751915
1733704653993135900,10.382135986328125,-0.004396987613290548,0.015776075422763824,-0.010728222317993641
1733704654003103000,10.39210302734375,-0.004572806879878044,0.018024081364274025,-0.00632754061371088
1733704654013069800,10.40206982421875,-0.0006694118492305279,0.01840491220355034,-0.006211959756910801
1733704654023037000,10.412036865234375,0.001178539590910077,0.016749562695622444,-0.005573485046625137
1733704654033005000,10.422005126953126,0.001552980043925345,0.01679137349128723,-0.006093600764870644
1733704654042972200,10.43197216796875,-0.0012097369180992246,0.011748313903808594,-0.006818265654146671
1733704654052939000,10.44193896484375,-0.000726373284123838,0.017244013026356697,-0.0059828320518136024
1733704654062907000,10.451906982421875,-0.0012439645361155272,0.022914446890354156,-0.007265089079737663
1733704654072874000,10.4618740234375,-0.0013885742519050837,0.027122775092720985,-0.010815082117915154
1733704654082840800,10.4718408203125,-0.00013588415458798409,0.02921988070011139,-0.01143184769898653
1733704654092809000,10.48180908203125,0.00024308369029313326,0.025023803114891052,-0.011044356971979141
1733704654102776000,10.491776123046876,-0.0021759006194770336,0.021043211221694946,-0.008334415033459663
1733704654112743000,10.501742919921876,-0.0012411312200129032,0.016636479645967484,-0.0059588756412267685
1733704654122710000,10.5117099609375,-0.0006411209469661117,0.014461475424468517,-0.005385496653616428
1733704654132678100,10.52167822265625,-0.00010183081030845642,0.010920003987848759,-0.002475727116689086
1733704654142645000,10.53164501953125,0.0019872155971825123,0.006408741232007742,-0.0007803842891007662
1733704654152612000,10.541612060546875,0.0032258518040180206,-0.0047293975949287415,0.0025267291348427534
1733704654162580000,10.551580078125,0.0035140698309987783,-0.010837191715836525,0.005146294832229614
1733704654172546800,10.561546875,0.00395242590457201,-0.014875875785946846,0.005408615805208683
1733704654182514000,10.571513916015626,0.002098238095641136,-0.01597745716571808,0.004380302038043737
1733704654192481000,10.58148095703125,0.0005805024993605912,-0.014830434694886208,0.0022409847006201744
1733704654202449200,10.59144921875,-0.0023166248574852943,-0.010296937078237534,0.003548812121152878
1733704654212416000,10.601416015625,-0.002421819604933262,-0.009103840216994286,0.0025796876288950443
1733704654222383000,10.611383056640625,-0.0007869197288528085,-0.006942616775631905,0.004075698088854551
1733704654232351000,10.62135107421875,-0.0018409990007057786,-0.008253157138824463,0.004540952388197184
1733704654242317800,10.63131787109375,-0.0021576795261353254,-0.00521735567599535,-0.001133698970079422
1733704654252285000,10.641284912109375,-0.0021076120901852846,-0.0024892129004001617,-0.0016833753325045109
1733704654262251800,10.651251708984375,-0.001987175550311804,0.0023810435086488724,-0.0034727775491774082
1733704654272220000,10.661219970703126,0.0010243268916383386,0.005053259432315826,-0.002444264944642782
1733704654282187000,10.67118701171875,0.001132983947172761,0.0020763780921697617,-0.0008554230444133282
1733704654292154000,10.681154052734374,0.0031926725059747696,0.00146518275141716,-0.00002904399298131466
1733704654302121000,10.691120849609375,0.0034049423411488533,0.0005277162417769432,0.0003429932985454798
1733704654312089000,10.701089111328125,-0.0000702165998518467,0.005176530219614506,-0.0009084262419492006
1733704654322056000,10.711055908203125,-0.002410847693681717,0.007226095534861088,-0.005464733578264713
1733704654332022800,10.721022705078125,-0.0026057909708470106,0.00961894541978836,-0.007559310644865036
1733704654341991000,10.730990966796876,-0.0011691630352288485,0.008911313489079475,-0.0084963608533144
1733704654351958000,10.7409580078125,-0.001019227085635066,0.003139444626867771,-0.00969904474914074
1733704654361924900,10.7509248046875,-0.0035812612622976303,-0.007127908989787102,-0.009896516799926758
1733704654371892000,10.76089208984375,-0.0009149045217782259,-0.01710011623799801,-0.010532213374972343
1733704654381860000,10.770860107421875,-0.001773041789419949,-0.020774375647306442,-0.011752551421523094
1733704654391827000,10.780826904296875,-0.008911378681659698,-0.03062541037797928,-0.010563449934124947
1733704654401794000,10.7907939453125,-0.01295256707817316,-0.04388798773288727,-0.006544698029756546
1733704654411762000,10.800761962890626,-0.01719365268945694,-0.04192736744880676,-0.00443147961050272
1733704654421729000,10.81072900390625,-0.018858537077903748,-0.034297142177820206,-0.0020195029210299253
1733704654431696000,10.82069580078125,0.024124883115291595,-0.004345635883510113,0.011670742183923721
1733704654441663000,10.8306630859375,-0.013108065351843834,-0.03113524056971073,0.010144787840545177
1733704654451631000,10.840631103515625,-0.006974272895604372,-0.01968870684504509,-0.0044943420216441154
1733704654461598000,10.850597900390625,-0.010883009061217308,-0.021075112745165825,-0.003982743248343468
1733704654471565000,10.86056494140625,-0.01776302047073841,-0.0247886274009943,-0.006803829222917557
1733704654481533000,10.870532958984375,-0.019564131274819374,-0.024684997275471687,-0.013526706956326962
1733704654491499800,10.880499755859375,-0.019020846113562584,-0.02073153294622898,-0.022899169474840164
1733704654501467000,10.890466796875,-0.018261875957250595,-0.007401548326015472,-0.025784693658351898
1733704654511433700,10.900433837890626,-0.012955794110894203,0.005674306768923998,-0.02157769724726677
1733704654521401900,10.91040185546875,-0.010160760022699833,0.015259724110364914,-0.016849007457494736
1733704654531369000,10.920368896484375,0.008731970563530922,0.025510231032967567,-0.006638979539275169
1733704654541335800,10.930335693359375,-0.007695300504565239,0.008757336996495724,-0.008432484231889248
1733704654551304000,10.940303955078125,-0.0054611749947071075,0.008688626810908318,-0.01482540275901556
1733704654561271000,10.95027099609375,-0.0022047716192901134,0.014232143759727478,-0.013119806535542011
1733704654571238100,10.960238037109375,-0.0007890352280810475,0.022878628224134445,-0.00748482346534729
1733704654581205000,10.970205078125,-0.001941023045219481,0.018083225935697556,-0.002498423447832465
1733704654591172900,10.9801728515625,-0.0021884306333959103,0.00959120411425829,-0.0006230256985872984
1733704654601140000,10.990139892578124,-0.004117043688893318,0.008439500816166401,-0.0011930582113564014
1733704654611106800,11.00010693359375,-0.00635250099003315,0.013810031116008759,0.0013838163577020168
1733704654621074000,11.010073974609375,-0.01315081212669611,0.019275501370429993,0.0024461743887513876
1733704654631042000,11.0200419921875,-0.014080255292356014,0.02779628522694111,0.009499023668467999
1733704654641009000,11.0300087890625,-0.016541991382837296,0.033416423946619034,0.010841487906873226
1733704654650976000,11.03997607421875,-0.018098076805472374,0.03488835319876671,0.012176796793937683
1733704654660944000,11.04994384765625,-0.02018478512763977,0.02598194032907486,0.0062971170991659164
1733704654670910700,11.05991064453125,-0.018345072865486145,0.02567274682223797,0.004578845575451851
1733704654680877800,11.0698779296875,-0.021446453407406807,0.032493606209754944,-0.0012245012912899256
1733704654690845000,11.079844970703125,-0.02418338507413864,0.04178457707166672,-0.0072275325655937195
1733704654700812800,11.089812744140625,-0.027095358818769455,0.05598285049200058,-0.012802565470337868
1733704654710780000,11.09977978515625,-0.024208229035139084,0.06947788596153259,-0.0180500578135252
1733704654720747000,11.1097470703125,-0.02037755213677883,0.07577842473983765,-0.020067397505044937
1733704654730713900,11.1197138671875,-0.01296943612396717,0.07659148424863815,-0.01683218777179718
1733704654740682000,11.129681884765626,-0.0065952809527516365,0.07299195230007172,-0.011585448868572712
1733704654750649000,11.139649169921874,-0.0016636394429951906,0.06705710291862488,-0.007825864478945732
1733704654760616000,11.149615966796874,0.005579566117376089,0.06291495263576508,-0.006577087100595236
1733704654770583800,11.159583740234375,0.004352647811174393,0.05703149735927582,-0.005638322327286005
1733704654780551000,11.169551025390625,0.005025992635637522,0.05290120840072632,-0.0047529591247439384
1733704654790518000,11.17951806640625,0.003954070620238781,0.04292633756995201,-0.004034438170492649
1733704654800484900,11.18948486328125,0.004108334891498089,0.03530613332986832,-0.006352909840643406
1733704654810453000,11.199452880859376,0.0017666175263002515,0.02869936265051365,-0.01167124230414629
1733704654820420000,11.209420166015626,-0.005500691942870617,0.028058236464858055,-0.017366383224725723
1733704654830387000,11.219386962890624,-0.006583266891539097,0.029018839821219444,-0.0194441806524992
1733704654840354800,11.229354736328125,-0.012295762076973915,0.03402774780988693,-0.019006086513400078
1733704654850322000,11.239322021484375,-0.015492886304855347,0.03323066234588623,-0.022298818454146385
1733704654860288800,11.249288818359375,-0.019643820822238922,0.027822284027934074,-0.021697795018553734
1733704654870255900,11.259255859375,-0.018107976764440536,0.029088085517287254,-0.024416882544755936
1733704654880224000,11.26922412109375,-0.017908284440636635,0.030486343428492546,-0.02181149460375309
1733704654890190800,11.27919091796875,-0.012776638381183147,0.031142013147473335,-0.0204884372651577
1733704654900158000,11.289157958984376,-0.010035552084445953,0.030982188880443573,-0.01772989332675934
1733704654910125000,11.299125,-0.0055979276075959206,0.023875541985034943,-0.014630506746470928
1733704654920093000,11.309093017578125,-0.0045148939825594425,0.010018479079008102,-0.010228541679680347
1733704654930060000,11.31906005859375,-0.0038038301281630993,-0.004899217747151852,-0.006261763162910938
1733704654940027000,11.32902685546875,-0.0043077715672552586,-0.017858050763607025,-0.004630116745829582
1733704654949995000,11.3389951171875,-0.0021325016859918833,-0.02251432277262211,-0.0055638207122683525
1733704654959961900,11.3489619140625,-0.000023872009478509426,-0.02367847040295601,-0.012170204892754555
1733704654969929000,11.358928955078126,0.00469471700489521,-0.016267959028482437,-0.015618733130395412
1733704654979895800,11.368895751953126,0.006274725776165724,-0.006642984226346016,-0.014086696319282055
1733704654989864000,11.378864013671874,0.005416122730821371,0.0016777962446212769,-0.012815834954380989
1733704654999831000,11.3888310546875,0.008845962584018707,0.00915951281785965,-0.013500516302883625
1733704655009798000,11.3987978515625,0.008253143168985844,0.0145462891086936,-0.01503982488065958
1733704655019765000,11.408764892578125,0.006181308068335056,0.02052491158246994,-0.01757322996854782
1733704655029732900,11.41873291015625,0.0014906821306794882,0.024175304919481277,-0.022840963676571846
1733704655039700000,11.428699951171875,-0.003092676866799593,0.028073450550436974,-0.024172086268663406
1733704655049666800,11.438666748046876,-0.0037757777608931065,0.03210467845201492,-0.026812342926859856
1733704655059634000,11.448634033203126,-0.006054541561752558,0.03043869510293007,-0.026353422552347183
1733704655069602000,11.45860205078125,-0.004425752442330122,0.02930418774485588,-0.02658352069556713
1733704655079569000,11.46856884765625,0.001010514097288251,0.029379121959209442,-0.02431289292871952
1733704655089536000,11.478535888671875,0.002858215244486928,0.026629675179719925,-0.01678653247654438
1733704655099503900,11.48850390625,0.004930406343191862,0.02397000789642334,-0.009698525071144104
1733704655109470700,11.498470703125,0.004403367172926664,0.015643101185560226,-0.0029921531677246094
1733704655119437800,11.508437744140625,0.006936938967555761,0.004605080932378769,-0.00002978951670229435
1733704655129405000,11.518405029296876,0.00495714507997036,-0.007805781438946724,0.0032006248366087675
1733704655139372800,11.528372802734374,0.006473486311733723,-0.017771676182746887,0.0044665466994047165
1733704655149340000,11.53833984375,0.007893749512732029,-0.02747303992509842,0.005374951288104057
1733704655159307000,11.54830712890625,0.007498773746192455,-0.02930842526257038,0.0058348895981907845
1733704655169273900,11.55827392578125,0.004040392581373453,-0.02448570542037487,0.009290874004364014
1733704655179242000,11.568241943359375,0.0010510828578844666,-0.02273913472890854,0.01027754321694374
1733704655189209000,11.578208984375,-0.0007127287099137902,-0.017122263088822365,0.008483904413878918
1733704655199176000,11.588176025390625,0.0010790161322802305,-0.009857093915343285,0.004806089214980602
1733704655209143000,11.59814306640625,0.0022273710928857327,-0.007861321792006493,0.000009736279025673866
1733704655219111000,11.60811083984375,0.0033312514424324036,-0.004416256211698055,0.004065197892487049
1733704655229077800,11.618077880859374,0.0028612036257982254,-0.0034553874284029007,0.006078281439840794
1733704655239044900,11.628044921875,0.0000938749872148037,-0.004820648580789566,0.005102336872369051
1733704655249013000,11.638012939453125,-0.0006161237834021449,-0.007618298754096031,0.0026554244104772806
1733704655258980000,11.64797998046875,0.0002565882168710232,-0.012079937383532524,-0.0005255434662103653
1733704655268947000,11.657947021484375,-0.0013743315357714891,-0.012130804359912872,-0.0037138797342777252
1733704655278914000,11.6679140625,-0.0020867420826107264,-0.013127325102686882,-0.003961282316595316
1733704655288882000,11.6778818359375,0.00023340375628322363,-0.009395437315106392,-0.00233275955542922
