time,seconds_elapsed,z,y,x
1733704773538288600,0.01928857421875,-0.02838808298110962,-0.0370832234621048,0.048551369458436966
1733704773548254500,0.02925439453125,-0.012403790839016438,-0.05254500359296799,0.04839371144771576
1733704773558221600,0.0392216796875,0.029270727187395096,-0.10262774676084518,0.02586095780134201
1733704773568188000,0.04918798828125,0.04940662160515785,-0.1366879791021347,0.0001601218245923519
1733704773578154000,0.059154052734375,-0.029086966067552567,-0.11918377131223679,0.06159411743283272
1733704773588120800,0.069120849609375,-0.06402017921209335,-0.12426535040140152,0.11305969953536987
1733704773598088000,0.079087890625,-0.03920065239071846,-0.12876926362514496,0.07367752492427826
1733704773608054800,0.0890546875,0.0028554548043757677,-0.09693782031536102,-0.005128337070345879
1733704773618021000,0.099021240234375,0.016470668837428093,-0.06546024233102798,-0.008301411755383015
1733704773627988200,0.10898828125,0.010887086391448975,-0.032914817333221436,0.02153877541422844
1733704773637955000,0.118955078125,-0.0048731230199337006,-0.020188648253679276,0.03707611933350563
1733704773647921200,0.128921142578125,-0.009170932695269585,-0.005461100488901138,0.018748776987195015
1733704773657888000,0.138887939453125,-0.007074560970067978,0.019348904490470886,-0.005186921916902065
1733704773667855000,0.148855224609375,-0.003909926395863295,0.0451141893863678,-0.018466774374246597
1733704773677822000,0.158822021484375,-0.005179812200367451,0.06358089298009872,-0.021039636805653572
1733704773687788000,0.1687880859375,-0.01064914558082819,0.0757475420832634,-0.024848489090800285
1733704773697755100,0.178755126953125,-0.013597910292446613,0.08127018809318542,-0.028806814923882484
1733704773707722000,0.188721923828125,-0.014624292030930519,0.08210987597703934,-0.031110716983675957
1733704773717688000,0.19868798828125,-0.012417596764862537,0.081685371696949,-0.028701886534690857
1733704773727655000,0.208655029296875,-0.011422106064856052,0.07439614832401276,-0.025711487978696823
1733704773737622000,0.2186220703125,-0.007214822806417942,0.06380143761634827,-0.0241769477725029
1733704773747587800,0.228587890625,-0.0052560679614543915,0.05538691580295563,-0.02063627541065216
1733704773757555000,0.238554931640625,-0.00567058939486742,0.0440022274851799,-0.01529134251177311
1733704773767522000,0.24852197265625,-0.0016337697161361575,0.035410068929195404,-0.011252126656472683
1733704773777489000,0.258489013671875,0.0003111586847808212,0.025935065001249313,-0.008511240594089031
1733704773787455000,0.268455078125,0.003341569798067212,0.015821710228919983,-0.005848878063261509
1733704773797421800,0.278421875,0.003911446779966354,0.002297774888575077,-0.0020376185420900583
1733704773807389000,0.288388916015625,0.0033223554491996765,-0.006929013878107071,0.0015635075978934765
1733704773817355800,0.298355712890625,0.0002651115064509213,-0.01885174587368965,0.005292883142828941
1733704773827322000,0.308322021484375,0.0019383756443858147,-0.028014881536364555,0.008828229270875454
1733704773837289200,0.318289306640625,0.0008349629933945835,-0.03135712444782257,0.011308812536299229
1733704773847256000,0.328256103515625,0.00045998991117812693,-0.03328897804021835,0.012658236548304558
1733704773857222100,0.33822216796875,-0.0010385755449533463,-0.03386300429701805,0.011900103650987148
1733704773867189000,0.34818896484375,-0.0019954494200646877,-0.033390291035175323,0.00947130098938942
1733704773877156000,0.358156005859375,-0.0005146166076883674,-0.03358300402760506,0.006735563278198242
1733704773887122000,0.368121826171875,0.0005477183731272817,-0.03551699221134186,0.005798397120088339
1733704773897089000,0.378089111328125,-0.00028877449221909046,-0.03190993517637253,0.003924933262169361
1733704773907056000,0.38805615234375,-0.0017114351503551006,-0.02681371197104454,0.005015231668949127
1733704773917023000,0.39802294921875,-0.0024593565613031387,-0.01736876741051674,0.005105968564748764
1733704773926989000,0.407989013671875,-0.0016644028946757317,-0.010541753843426704,0.0003570199478417635
1733704773936956000,0.417955810546875,-0.0011780556524172425,-0.0030865948647260666,-0.0051234131678938866
1733704773946923000,0.427923095703125,-0.0025951238349080086,-0.0017733899876475334,-0.007455542683601379
1733704773956890000,0.43789013671875,-0.0030226041562855244,0.005223249550908804,-0.006879284046590328
1733704773966856000,0.44785595703125,-0.006642905529588461,0.010095503181219101,-0.0018019676208496094
1733704773976823000,0.457822998046875,-0.006694326177239418,0.013142433017492294,0.00290094711817801
1733704773986790000,0.467789794921875,-0.004105200991034508,0.00983771588653326,0.0012764189159497619
1733704773996756000,0.477755859375,-0.002466583624482155,0.007465156260877848,-0.004098469857126474
1733704774006722800,0.487722900390625,-0.002466050907969475,0.009484364651143551,-0.006697448901832104
1733704774016690000,0.49768994140625,-0.00029166974127292633,0.00482520367950201,-0.0056024654768407345
1733704774026657000,0.507656982421875,0.003874313086271286,0.016310352832078934,-0.008580945432186127
1733704774036623000,0.517623046875,0.005811410490423441,0.03825362026691437,-0.010862118564546108
1733704774046590200,0.527590087890625,-0.0012717986246570945,0.05348902940750122,-0.00948739517480135
1733704774056557000,0.53755712890625,-0.010486426763236523,0.06730345636606216,0.00006644753739237785
1733704774066523100,0.547523193359375,-0.020203769207000732,0.07458054274320602,0.007152853067964315
1733704774076490000,0.557489990234375,-0.03003385290503502,0.08101318031549454,0.0030160562600940466
1733704774086457000,0.56745703125,-0.033314067870378494,0.08238977193832397,-0.0040471795946359634
1733704774096424200,0.577424072265625,-0.02930685132741928,0.0853462815284729,-0.007225648500025272
1733704774106390000,0.58739013671875,-0.02431262657046318,0.09828577935695648,-0.011173784732818604
1733704774116357000,0.597357177734375,-0.023050330579280853,0.12077619135379791,-0.012769474647939205
1733704774126324000,0.607323974609375,-0.021860430017113686,0.14114512503147125,-0.012599298730492592
1733704774136290000,0.6172900390625,-0.019783057272434235,0.1546664535999298,-0.01957644149661064
1733704774146257000,0.6272568359375,-0.019168399274349213,0.16386210918426514,-0.025372546166181564
1733704774156224000,0.63722412109375,-0.019222350791096687,0.15473885834217072,-0.026476886123418808
1733704774166191000,0.647191162109375,-0.016504328697919846,0.13670499622821808,-0.026892870664596558
1733704774176157000,0.657156982421875,-0.013938749209046364,0.10756739974021912,-0.02443697676062584
1733704774186124000,0.6671240234375,-0.006699211895465851,0.07480039447546005,-0.01607092097401619
1733704774196091000,0.6770908203125,-0.000455740955658257,0.04403797537088394,-0.007327420637011528
1733704774206057000,0.687056884765625,0.0033507151529192924,0.014379151165485382,-0.0031827425118535757
1733704774216023800,0.69702392578125,0.005212944000959396,-0.01574104279279709,-0.0017974774818867445
1733704774225991000,0.706990966796875,0.01119147427380085,-0.03969324380159378,0.0005375822074711323
1733704774235958000,0.7169580078125,0.012356266379356384,-0.060973312705755234,0.005329332314431667
1733704774245924000,0.726924072265625,0.016026634722948074,-0.07727478444576263,0.0091403154656291
1733704774255891200,0.73689111328125,0.017090430483222008,-0.0847652480006218,0.012463976629078388
1733704774265858000,0.746858154296875,0.014525540173053741,-0.09045908600091934,0.016203854233026505
1733704774275824000,0.75682421875,0.01567358337342739,-0.08925927430391312,0.019481878727674484
1733704774285791000,0.766791015625,0.012519601732492447,-0.08375425636768341,0.015567829832434654
1733704774295758000,0.776758056640625,0.00816508661955595,-0.07410392165184021,0.010287747718393803
1733704774305725200,0.78672509765625,0.008367487229406834,-0.07677985727787018,0.0081979651004076
1733704774315691000,0.79669091796875,0.007384959142655134,-0.0772184431552887,0.005910998210310936
1733704774325658000,0.806658203125,0.0062552462331950665,-0.0691021978855133,0.004936015233397484
1733704774335625000,0.816625,0.0041546993888914585,-0.0642973929643631,0.0025876322761178017
1733704774345591000,0.826591064453125,0.0033653387799859047,-0.058067720383405685,0.003486448898911476
1733704774355558000,0.836557861328125,0.001271743094548583,-0.042657725512981415,0.004717716947197914
1733704774365525000,0.84652490234375,-0.003415420651435852,-0.024732252582907677,0.005201347172260284
1733704774375492000,0.8564921875,0.0003365998563822359,-0.004972619935870171,0.005850817542523146
1733704774385458000,0.8664580078125,0.004936944227665663,0.016907911747694016,0.005166118964552879
1733704774395425000,0.876425048828125,0.009437325410544872,0.035687386989593506,0.006206841208040714
1733704774405392000,0.886391845703125,0.011600878089666367,0.04214289039373398,0.004237700253725052
1733704774415358000,0.89635791015625,0.008209054358303547,0.03695239871740341,0.002984454855322838
1733704774425324800,0.90632470703125,0.0027226763777434826,0.02597644552588463,0.0012515359558165073
1733704774435292000,0.9162919921875,-0.005058460868895054,0.018180005252361298,-0.004167085979133844
1733704774445259000,0.926259033203125,-0.010639380663633347,0.013507755473256111,-0.004163623787462711
1733704774455225000,0.93622509765625,-0.014064249582588673,0.016399433836340904,-0.008766020648181438
1733704774465192200,0.946192138671875,-0.01799400895833969,0.015438565984368324,-0.0100677739828825
1733704774475159000,0.956158935546875,-0.019639024510979652,0.012454637326300144,-0.010924753732979298
1733704774485125000,0.966125,-0.01979854702949524,0.010407199151813984,-0.005803494714200497
1733704774495092000,0.976092041015625,-0.014547369442880154,0.0034745903685688972,-0.0023413728922605515
1733704774505059000,0.98605908203125,-0.009564328007400036,-0.0069575440138578415,-0.002447100356221199
1733704774515026200,0.996026123046875,-0.006526285316795111,-0.01357956975698471,-0.007291700690984726
1733704774524992000,1.005991943359375,-0.0019251418998464942,-0.011038646101951599,-0.00899958610534668
1733704774534959000,1.015958984375,-0.0022393371909856796,-0.013757802546024323,-0.0037259478121995926
1733704774544926000,1.025926025390625,0.0007063852972351015,-0.01579671911895275,0.0002562766894698143
1733704774554892000,1.03589208984375,0.00025190459564328194,-0.01870611682534218,0.0029536355286836624
1733704774564859000,1.04585888671875,0.005170763470232487,-0.01782327890396118,0.0017898341175168753
1733704774574825500,1.055825439453125,0.005316711030900478,-0.01188751682639122,-0.002602321794256568
1733704774584792600,1.06579248046875,0.0015440770657733083,0.0017601177096366882,-0.0038609320763498545
1733704774594758400,1.07575830078125,-0.0029442450031638145,0.02146705985069275,-0.0029983087442815304
1733704774604725500,1.0857255859375,-0.006691312417387962,0.033896565437316895,0.002182338386774063
1733704774614692600,1.095692626953125,-0.012100521475076675,0.037692777812480927,0.008622709661722183
1733704774624658700,1.10565869140625,-0.014875801280140877,0.040804944932460785,0.015125617384910583
1733704774634625800,1.115625732421875,-0.01442834734916687,0.030515538528561592,0.015425411984324455
1733704774644592600,1.125592529296875,-0.010261299088597298,0.01104010734707117,0.014241370372474194
1733704774654559500,1.1355595703125,-0.008723903447389603,-0.012507656589150429,0.013428718782961369
1733704774664525600,1.145525634765625,-0.0037525808438658714,-0.03220066428184509,0.017993111163377762
1733704774674492700,1.15549267578125,0.00012072076788172126,-0.04805952310562134,0.021368667483329773
1733704774684459800,1.165459716796875,0.0008235289715230465,-0.058921754360198975,0.01991032063961029
1733704774694425600,1.175425537109375,0.001988782314583659,-0.060068078339099884,0.01781834103167057
1733704774704392700,1.185392822265625,-0.0012229898711666465,-0.056890130043029785,0.015031076967716217
1733704774714359600,1.195359619140625,-0.007380153983831406,-0.047027137130498886,0.011609865352511406
1733704774724326700,1.20532666015625,-0.010779147036373615,-0.03899743780493736,0.006814843975007534
1733704774734292500,1.21529248046875,-0.012891124933958054,-0.025737421587109566,0.004274031147360802
1733704774744259600,1.225259521484375,-0.009039395488798618,-0.011002415791153908,0.003155769780278206
1733704774754226700,1.235226806640625,-0.004619283601641655,0.0016297809779644012,0.005177374929189682
1733704774764193500,1.245193603515625,0.007645905017852783,0.009370791725814342,0.006331855431199074
1733704774774159600,1.25515966796875,0.014877768233418465,0.00880283024162054,0.008235868066549301
1733704774784126500,1.26512646484375,0.019887972623109818,-0.004653323441743851,0.012786677107214928
1733704774794093600,1.275093505859375,0.02130073681473732,-0.02121097967028618,0.01798337884247303
1733704774804059400,1.285059326171875,0.02432022988796234,-0.031892385333776474,0.015894129872322083
1733704774814026500,1.295026611328125,0.019463414326310158,-0.03497834503650665,0.01285622175782919
1733704774823993600,1.30499365234375,0.014381570741534233,-0.034514687955379486,0.0070398785173892975
1733704774833960400,1.31496044921875,0.010938991792500019,-0.029368117451667786,-0.00130597990937531
1733704774843926800,1.3249267578125,0.004990554880350828,-0.024693205952644348,-0.009852330200374126
1733704774853893600,1.3348935546875,0.0015538367442786694,-0.013192003592848778,-0.018430858850479126
1733704774863860500,1.344860595703125,-0.0014403552049770951,0.002293478697538376,-0.02219204232096672
1733704774873826600,1.35482666015625,-0.003685268573462963,0.019675493240356445,-0.022158125415444374
1733704774883793700,1.364793701171875,-0.009061392396688461,0.03455324470996857,-0.01569117046892643
1733704774893760800,1.3747607421875,-0.01133655197918415,0.042129263281822205,-0.008265768177807331
1733704774903727600,1.3847275390625,-0.011045735329389572,0.037124380469322205,-0.006106743589043617
1733704774913693700,1.394693603515625,-0.008772770874202251,0.028442762792110443,-0.005879232194274664
1733704774923660500,1.40466064453125,-0.008995144627988338,0.026820098981261253,-0.005489877890795469
1733704774933627600,1.414627685546875,-0.004743219818919897,0.029909772798419,-0.004202159121632576
1733704774943593500,1.424593505859375,-0.006613025441765785,0.031137224286794662,-0.005118818953633308
1733704774953560600,1.434560546875,-0.0027118450962007046,0.029735369607806206,-0.003999873995780945
1733704774963527700,1.444527587890625,0.0020778500474989414,0.030144963413476944,-0.005389777943491936
1733704774973494500,1.45449462890625,0.0035295390989631414,0.028882360085844994,-0.003552196780219674
1733704774983460600,1.464460693359375,0.0030176795553416014,0.024359246715903282,-0.003501063911244273
1733704774993427500,1.474427490234375,0.0034170933067798615,0.02080399915575981,0.0008409109432250261
1733704775003394600,1.48439453125,0.005285567604005337,0.018709955736994743,0.005810103379189968
1733704775013360400,1.4943603515625,0.006631332915276289,0.01527988538146019,0.012957842089235783
1733704775023327500,1.504327392578125,0.007399122230708599,0.011133876629173756,0.012561829760670662
1733704775033294600,1.514294677734375,0.006714646704494953,0.006029414478689432,0.009815389290452003
1733704775043261400,1.524261474609375,0.0065428726375103,-0.0013134535402059555,0.008482210338115692
1733704775053227800,1.534227783203125,0.004021158907562494,-0.00874357856810093,0.006332924589514732
1733704775063194600,1.544194580078125,0.0024019568227231503,-0.012564416974782944,0.0044479393400251865
1733704775073161700,1.55416162109375,0.0028590955771505833,-0.020390547811985016,0.0028924604412168264
1733704775083128600,1.564128662109375,0.00297414418309927,-0.029244758188724518,0.0022349259816110134
1733704775093094700,1.5740947265625,0.0033786222338676453,-0.031227881088852882,-0.0002934373915195465
1733704775103061800,1.584061767578125,0.0005295724840834737,-0.03279808163642883,0.0008559828856959939
1733704775113028600,1.594028564453125,-0.0049725305289030075,-0.029852574691176414,0.0031797313131392
1733704775122994700,1.60399462890625,-0.005329393781721592,-0.029986267909407616,0.00503062829375267
1733704775132961500,1.61396142578125,-0.0041185165755450726,-0.030057234689593315,0.00475717056542635
1733704775142928600,1.6239287109375,-0.005728663876652718,-0.021694378927350044,0.0028396944981068373
1733704775152895700,1.633895751953125,-0.003658480476588011,-0.018488774076104164,-0.0013352690730243921
1733704775162861600,1.643861572265625,-0.004111750517040491,-0.014046089723706245,-0.004110016860067844
1733704775172828700,1.65382861328125,-0.0055273715406656265,-0.008879493921995163,-0.0041646091267466545
1733704775182795500,1.66379541015625,-0.005497545003890991,0.0001345071941614151,-0.0022042561322450638
1733704775192761600,1.67376171875,-0.0067371162585914135,0.00635160319507122,-0.0011115253437310457
1733704775202728400,1.683728515625,-0.005529106128960848,0.01059162151068449,0.0022493840660899878
1733704775212695600,1.693695556640625,-0.005695977248251438,0.012412644922733307,-0.0014803002122789621
1733704775222662700,1.70366259765625,-0.003501000115647912,0.012209711596369743,-0.0037453186232596636
1733704775232628500,1.71362841796875,-0.0017636602278798819,0.014464336447417736,-0.007718411739915609
1733704775242595600,1.723595703125,-0.003808435285463929,0.01530349813401699,-0.007879799231886864
1733704775252562400,1.7335625,-0.0039014292415231466,0.016902420669794083,-0.007498973049223423
1733704775262528800,1.74352880859375,-0.0028225828427821398,0.009204288013279438,-0.00654742494225502
1733704775272495600,1.75349560546875,-0.0006612223805859685,0.005784128326922655,-0.005268793553113937
1733704775282462700,1.763462646484375,-0.002218905370682478,0.004666133318096399,-0.009513605386018753
1733704775292429600,1.7734296875,-0.0017928300658240914,0.006770948879420757,-0.011377819813787937
1733704775302395600,1.783395751953125,-0.00406796857714653,0.008166179060935974,-0.008494148962199688
1733704775312362800,1.79336279296875,-0.00402239803224802,0.011244939640164375,-0.0052706580609083176
1733704775322329600,1.80332958984375,-0.0016439288156107068,0.016103610396385193,-0.004883966874331236
1733704775332296700,1.813296630859375,0.0019860765896737576,0.018573220819234848,-0.007878690958023071
1733704775342262500,1.823262451171875,0.0003663419629447162,0.014769962057471275,-0.006397174671292305
1733704775352229600,1.833229736328125,-0.00017641024896875024,0.009817280806601048,-0.0027848624158650637
1733704775362196700,1.84319677734375,-0.0012557895388454199,0.002993729431182146,0.0005294414004310966
1733704775372162600,1.85316259765625,0.00047378987073898315,-0.0051296064630150795,0.0009559208992868662
1733704775382129700,1.863129638671875,0.0029848844278603792,-0.017240064218640327,0.0016115910839289427
1733704775392096500,1.873096435546875,0.005300882738083601,-0.023861950263381004,0.006045226007699966
1733704775402063600,1.883063720703125,0.004148000385612249,-0.030422380194067955,0.008977899327874184
1733704775412029400,1.893029541015625,0.003407769836485386,-0.023932360112667084,0.0059892237186431885
1733704775421996500,1.90299658203125,0.0003414061211515218,-0.015082145109772682,0.0014418759383261204
1733704775431963600,1.912963623046875,-0.008514330722391605,-0.002336658537387848,-0.003246161388233304
1733704775441929500,1.922929443359375,-0.010255505330860615,0.00406265165656805,-0.0018402787391096354
1733704775451896600,1.932896484375,-0.012094344012439251,0.0074012684635818005,0.00034838425926864147
1733704775461863400,1.942863525390625,-0.010772617533802986,0.005672610830515623,0.0021545402705669403
1733704775471830500,1.95283056640625,-0.013257995247840881,-0.0014271698892116547,-0.00010142405517399311
1733704775481796600,1.962796630859375,-0.016431152820587158,-0.005525775253772736,-0.0019893390126526356
1733704775491763700,1.972763671875,-0.01750916615128517,-0.00977315753698349,-0.0036581901367753744
1733704775501730600,1.98273046875,-0.018152054399251938,-0.008835991844534874,-0.003549267305061221
1733704775511696600,1.992696533203125,-0.018812909722328186,-0.008524034172296524,-0.0019904456567019224
1733704775521663700,2.002663818359375,-0.015104192309081554,-0.006321866065263748,-0.0004793677944689989
1733704775531630600,2.012630615234375,-0.009134694933891296,-0.0050249164924025536,-0.0010610411409288645
1733704775541597700,2.02259765625,-0.002587046939879656,0.0005725156515836716,0.003198418766260147
1733704775551563500,2.0325634765625,0.0021937608253210783,0.00004349648952484131,0.002073351526632905
1733704775561530600,2.042530517578125,0.007235923316329718,-0.0015370901674032211,0.0023814791347831488
1733704775571498000,2.052498046875,0.010937637649476528,0.001421760767698288,0.0001811683177947998
1733704775581464800,2.06246484375,0.01479895506054163,0.013345531187951565,-0.0031342010479420424
1733704775591431000,2.072430908203125,0.018132662400603294,0.024839863181114197,-0.006314273923635483
1733704775601397800,2.082397705078125,0.01973828300833702,0.033616576343774796,-0.010321266017854214
1733704775611364900,2.09236474609375,0.016157450154423714,0.03854910284280777,-0.012065257877111435
1733704775621331000,2.1023310546875,0.012231417931616306,0.040381621569395065,-0.0097443126142025
1733704775631297800,2.1122978515625,0.005064638331532478,0.04177166521549225,-0.007809298112988472
1733704775641265000,2.122264892578125,0.004439328331500292,0.04122252017259598,-0.0030449028126895428
1733704775651231700,2.132231689453125,0.0004949726862832904,0.036428652703762054,0.00022850418463349342
1733704775661197800,2.14219775390625,-0.0010342143941670656,0.02351871132850647,0.00671995896846056
1733704775671164700,2.15216455078125,-0.0038296780548989773,-0.00013721641153097153,0.015648962929844856
1733704775681131800,2.1621318359375,-0.0030360561795532703,-0.03036622516810894,0.01969510316848755
1733704775691097900,2.172097900390625,-0.0005445224232971668,-0.05661791190505028,0.017410267144441605
1733704775701064700,2.182064697265625,0.004032652359455824,-0.06431551277637482,0.007423680275678635
1733704775711031800,2.19203173828125,0.010384291410446167,-0.05778491124510765,0.0006110477261245251
1733704775720998700,2.20199853515625,0.01241628360003233,-0.039327871054410934,0.0028073566500097513
1733704775730965000,2.211965087890625,0.006303161382675171,-0.011588562279939651,0.0020920641254633665
1733704775740931800,2.221931884765625,-0.0005805777618661523,0.0024090129882097244,0.0037163258530199528
1733704775750899000,2.23189892578125,-0.006004801485687494,0.008401036262512207,0.0060745226219296455
1733704775760866000,2.241865966796875,-0.006736372131854296,0.02549826353788376,0.006163205951452255
1733704775770832000,2.251831787109375,-0.005050737410783768,0.04183441400527954,0.005082492250949144
1733704775780799000,2.261799072265625,0.00019036344019696116,0.052092112600803375,0.001567385857924819
1733704775790765800,2.271765869140625,0.005628721788525581,0.05232490599155426,0.0017749953549355268
1733704775800732000,2.28173193359375,0.006156826391816139,0.04527338966727257,-0.0004569999873638153
1733704775810698800,2.29169873046875,0.006226601079106331,0.034417811781167984,-0.002478871727362275
1733704775820665900,2.301665771484375,0.007014098577201366,0.023709774017333984,-0.007005446590483189
1733704775830633000,2.311633056640625,0.002692251466214657,0.00987073965370655,-0.00868992879986763
1733704775840598800,2.321598876953125,0.00019127695122733712,0.001010136678814888,-0.008492588996887207
1733704775850566000,2.33156591796875,-0.00004888715920969844,-0.0009746300056576729,-0.004198392853140831
1733704775860532700,2.34153271484375,-0.002028414746746421,-0.0012207059189677238,-0.0016169906593859196
1733704775870498800,2.351498779296875,0.00015340594109147787,-0.0062185171991586685,-0.0005356068722903728
1733704775880465700,2.361465576171875,0.0005038778763264418,0.000040976330637931824,-0.0006637049373239279
1733704775890432800,2.371432861328125,-0.0041067879647016525,0.0037975050508975983,-0.006925660185515881
1733704775900399900,2.38139990234375,-0.007785678841173649,0.012710039503872395,-0.016140464693307877
1733704775910365700,2.39136572265625,-0.006385612767189741,0.022047333419322968,-0.019324880093336105
1733704775920332800,2.401332763671875,-0.0034963490907102823,0.02481994777917862,-0.012488014996051788
1733704775930299600,2.411299560546875,-0.0033853587228804827,0.016560710966587067,-0.006634805351495743
1733704775940266800,2.421266845703125,0.002199290320277214,0.00845910981297493,-0.0078065963461995125
1733704775950233000,2.431233154296875,0.007160921115428209,0.011428841389715672,-0.012912487611174583
1733704775960200000,2.441199951171875,0.009996121749281883,0.02203647792339325,-0.011600879952311516
1733704775970167000,2.4511669921875,0.0031552468426525593,0.02119961380958557,0.0010044731898233294
1733704775980132900,2.4611328125,-0.0029899971559643745,0.0176986213773489,0.01293756440281868
1733704775990100000,2.471099853515625,-0.004091608338057995,0.006953617092221975,0.019486239179968834
1733704776000066800,2.48106689453125,0.0009742570691742003,-0.010964397341012955,0.02024177834391594
1733704776010034000,2.491033935546875,0.008571733720600605,-0.03382960706949234,0.020185355097055435
1733704776020000000,2.501,0.010788548737764359,-0.05638045817613602,0.02526480332016945
1733704776029966800,2.510966796875,0.011514345183968544,-0.06716933846473694,0.029246672987937927
1733704776039934000,2.520933837890625,0.008282599039375782,-0.07403337955474854,0.031157491728663445
1733704776049900800,2.53090087890625,0.005654932465404272,-0.0710778683423996,0.02936466410756111
1733704776059867000,2.540866943359375,-0.00038591574411839247,-0.05838337913155556,0.02317201718688011
1733704776069833700,2.550833740234375,-0.004050648771226406,-0.03286419063806534,0.01676703803241253
1733704776079800800,2.56080078125,-0.006747632287442684,-0.0063612088561058044,0.006174581125378609
1733704776089767000,2.570766845703125,-0.007453988306224346,0.010945110581815243,0.002940325066447258
1733704776099733800,2.580733642578125,-0.001605952507816255,0.020261647179722786,-0.0026459218934178352
1733704776109700900,2.590700927734375,0.004500464536249638,0.02729860134422779,-0.005174214951694012
1733704776119667700,2.600667724609375,0.006405956577509642,0.03174528107047081,0.00170286581851542
1733704776129633800,2.6106337890625,0.006155454088002443,0.026477079838514328,0.011712655425071716
1733704776139600600,2.6206005859375,0.00484358100220561,0.010054697282612324,0.01031556073576212
1733704776149567700,2.630567626953125,0.007996650412678719,-0.007750296965241432,0.003983142785727978
1733704776159534000,2.6405341796875,0.007133519742637873,-0.02284056693315506,-0.002912047551944852
1733704776169501000,2.6505009765625,0.005050235893577337,-0.03346102684736252,-0.003674702253192663
1733704776179468000,2.660468017578125,0.0023945318534970284,-0.040240369737148285,0.0038623097352683544
1733704776189435000,2.670434814453125,0.0027208575047552586,-0.04423467069864273,0.01052393764257431
1733704776199401000,2.68040087890625,0.007811755873262882,-0.05028776824474335,0.015152511186897755
1733704776209367800,2.690367919921875,0.01273164339363575,-0.05469592660665512,0.01731272041797638
1733704776219335000,2.7003349609375,0.017979668453335762,-0.051469504833221436,0.018007539212703705
1733704776229302000,2.710302001953125,0.018629271537065506,-0.03972621262073517,0.012363345362246037
1733704776239267800,2.720267822265625,0.014297905378043652,-0.02157517336308956,0.008038904517889023
1733704776249235000,2.73023486328125,0.008960502222180367,-0.0050700074061751366,0.008078664541244507
1733704776259201800,2.740201904296875,0.006369779352098703,0.00845032837241888,0.008166815154254436
1733704776269167900,2.75016796875,0.005355571862310171,0.01935829594731331,0.007320654112845659
1733704776279134700,2.760134765625,0.00775641156360507,0.02220255136489868,0.006509189028292894
1733704776289101800,2.770101806640625,0.01122363656759262,0.019951999187469482,0.003484482876956463
1733704776299069000,2.78006884765625,0.012706218287348747,0.00936832930892706,0.003585682949051261
1733704776309034800,2.79003466796875,0.011835703626275063,0.0026040305383503437,0.00509881554171443
1733704776319001900,2.800001953125,0.004276587627828121,0.0015827082097530365,0.009767603129148483
1733704776328968700,2.80996875,0.0018496380653232336,0.003871274646371603,0.008877803571522236
1733704776338935800,2.819935791015625,0.002967100590467453,0.0066721211187541485,0.009216824546456337
1733704776348901600,2.829901611328125,0.00415434455499053,0.02515929564833641,0.013272124342620373
1733704776358868700,2.83986865234375,0.005978609900921583,0.050093673169612885,0.011346393264830112
1733704776368835800,2.8498359375,0.008971164934337139,0.0757613480091095,0.0156527329236269
1733704776378802000,2.859802001953125,0.011634325608611107,0.10166671872138977,0.02143445611000061
1733704776388769000,2.86976904296875,0.0174940787255764,0.12910020351409912,0.026649991050362587
1733704776398736000,2.87973583984375,0.02898162417113781,0.15019217133522034,0.024943970143795013
1733704776408703000,2.889702880859375,0.03710686415433884,0.14852160215377808,0.018995115533471107
1733704776418668800,2.899668701171875,0.04114554822444916,0.1416969895362854,0.015667496249079704
1733704776428636000,2.909635986328125,0.03663663566112518,0.12130725383758545,0.0162321999669075
1733704776438603000,2.91960302734375,0.02090427838265896,0.08240033686161041,0.029233751818537712
1733704776448568800,2.92956884765625,-0.00014268344966694713,0.023301593959331512,0.04343558847904205
1733704776458536000,2.939535888671875,-0.008596356026828289,-0.016823189333081245,0.03401599079370499
1733704776468502800,2.949502685546875,-0.0071480125188827515,-0.01849799044430256,0.00014058174565434456
1733704776478470000,2.959469970703125,0.0006862087757326663,0.007725624833256006,-0.03415294364094734
1733704776488435700,2.969435791015625,-0.005890760570764542,0.034039899706840515,-0.043568290770053864
1733704776498402800,2.97940283203125,-0.020475296303629875,0.055333737283945084,-0.04037542641162872
1733704776508370000,2.989369873046875,-0.034887708723545074,0.05739126354455948,-0.02743021585047245
1733704776518336800,2.999336669921875,-0.03403602913022041,0.0561923086643219,-0.01229200791567564
1733704776528302800,3.009302734375,-0.01972915045917034,0.06884898245334625,-0.00919323693960905
1733704776538269700,3.019269775390625,-0.008005915209650993,0.063254214823246,-0.007858993485569954
1733704776548236800,3.02923681640625,0.0038795629516243935,0.027404004707932472,-0.0033036083914339542
1733704776558203000,3.039202880859375,0.006806110497564077,-0.015371154993772507,0.011729403398931026
1733704776568169700,3.049169677734375,0.00219841580837965,-0.046333108097314835,0.024462318047881126
1733704776578136800,3.05913671875,-0.003394488710910082,-0.06758752465248108,0.031250983476638794
1733704776588104000,3.06910400390625,-0.007177818566560745,-0.08376222103834152,0.026612630113959312
1733704776598070000,3.079070068359375,-0.0019718706607818604,-0.09743142873048782,0.02052411250770092
1733704776608037000,3.089037109375,0.002499259077012539,-0.10628626495599747,0.022663313895463943
1733704776618004000,3.09900390625,0.0033253715373575687,-0.11707925796508789,0.025080129504203796
1733704776627970800,3.108970703125,0.008762483485043049,-0.1269681602716446,0.0271663349121809
1733704776637937200,3.118937255859375,0.01841804012656212,-0.13260900974273682,0.029236942529678345
1733704776647904000,3.128904052734375,0.02575935237109661,-0.12734122574329376,0.0312239658087492
1733704776657871000,3.13887109375,0.031374894082546234,-0.12128546833992004,0.03388872370123863
1733704776667837000,3.1488369140625,0.03631582111120224,-0.10598548501729965,0.029703306034207344
1733704776677804000,3.158803955078125,0.030985504388809204,-0.08329322189092636,0.016413332894444466
1733704776687771100,3.168771240234375,0.02506687305867672,-0.058861374855041504,0.002655480755493045
1733704776697738000,3.178738037109375,0.015029685571789742,-0.03474831581115723,-0.009779883548617363
1733704776707704000,3.1887041015625,0.007496220525354147,-0.010829700157046318,-0.024262838065624237
1733704776717671000,3.1986708984375,0.0004412405251059681,0.00943189486861229,-0.03498605638742447
1733704776727638000,3.208637939453125,-0.0031644830014556646,0.020688144490122795,-0.04343380033969879
1733704776737603800,3.218603759765625,-0.0032539654057472944,0.030661681666970253,-0.048215240240097046
1733704776747571000,3.228571044921875,-0.0015343984123319387,0.03892458230257034,-0.04698234423995018
1733704776757538000,3.2385380859375,0.0008126454195007682,0.045324426144361496,-0.04879222810268402
1733704776767505000,3.2485048828125,0.003254743292927742,0.046531111001968384,-0.04910670593380928
1733704776777471000,3.258470947265625,0.002433424349874258,0.04577743634581566,-0.044566813856363297
1733704776787437800,3.268437744140625,0.001408629585057497,0.04761438071727753,-0.039192214608192444
1733704776797405000,3.278405029296875,0.0010626849252730608,0.04718055576086044,-0.03731229156255722
1733704776807372000,3.2883720703125,-0.0019387623760849237,0.04902534931898117,-0.03684718534350395
1733704776817338000,3.298338134765625,-0.002921735169366002,0.04036927968263626,-0.03598805144429207
1733704776827305000,3.308304931640625,-0.0024128262884914875,0.03529037535190582,-0.03239674121141434
1733704776837271800,3.318271728515625,-0.0037361509166657925,0.04494673013687134,-0.031072352081537247
1733704776847238100,3.328238037109375,-0.0019190011080354452,0.05094131827354431,-0.030518604442477226
1733704776857205000,3.338205078125,0.00036066476604901254,0.054737918078899384,-0.03175990283489227
1733704776867172000,3.348172119140625,0.0035429182462394238,0.04746187850832939,-0.0303607527166605
1733704776877139200,3.35813916015625,0.006565605755895376,0.03528617322444916,-0.023396586999297142
1733704776887105000,3.36810498046875,0.005117744207382202,0.016955433413386345,-0.0174635648727417
1733704776897072000,3.378072021484375,0.004152880981564522,-0.008173888549208641,-0.00735393725335598
1733704776907039000,3.3880390625,-0.00031478801975026727,-0.03388230502605438,0.007645484060049057
1733704776917005000,3.398005126953125,0.0004356907738838345,-0.06871086359024048,0.015575578436255455
1733704776926972000,3.407971923828125,0.004668897949159145,-0.09789015352725983,0.021175095811486244
1733704776936939000,3.41793896484375,0.004667832516133785,-0.12229269742965698,0.02577943541109562
1733704776946906000,3.427906005859375,0.00476797204464674,-0.1431243121623993,0.03377348929643631
1733704776956872000,3.437871826171875,0.005715258419513702,-0.15505501627922058,0.03870033845305443
1733704776966839000,3.447839111328125,0.005156380590051413,-0.15403522551059723,0.037702713161706924
1733704776976806000,3.457805908203125,0.004310028161853552,-0.14173035323619843,0.03745637089014053
1733704776986773000,3.46777294921875,0.0030148904770612717,-0.12952661514282227,0.04015407711267471
1733704776996738800,3.47773876953125,0.0012758462689816952,-0.11234709620475769,0.04060601815581322
1733704777006706000,3.487705810546875,0.00246903533115983,-0.0906238928437233,0.03507786989212036
1733704777016673000,3.497673095703125,0.003057860303670168,-0.06833403557538986,0.027214085683226585
1733704777026639000,3.50763916015625,0.004788158927112818,-0.04927327483892441,0.020690862089395523
1733704777036606000,3.51760595703125,0.005685377866029739,-0.02941887639462948,0.01090028416365385
1733704777046572800,3.52757275390625,0.004794773645699024,-0.010541040450334549,-0.0010391231626272202
1733704777056540000,3.537539794921875,0.0008719377219676971,0.006669905036687851,-0.00783524289727211
1733704777066506000,3.547506103515625,-0.0042870729230344296,0.023615572601556778,-0.01594148948788643
1733704777076473000,3.55747314453125,-0.008257312700152397,0.04373309016227722,-0.020232371985912323
1733704777086440200,3.567440185546875,-0.010876069776713848,0.06275783479213715,-0.024003224447369576
1733704777096406000,3.577406005859375,-0.014036709442734718,0.07450316846370697,-0.02716013602912426
1733704777106373000,3.587373046875,-0.015161781571805477,0.0796324834227562,-0.02787039615213871
1733704777116340000,3.597340087890625,-0.014381209388375282,0.07872940599918365,-0.02480030432343483
1733704777126307000,3.60730712890625,-0.011487597599625587,0.07480146735906601,-0.02157590351998806
1733704777136273000,3.61727294921875,-0.011452177539467812,0.06908739358186722,-0.02098361775279045
1733704777146240000,3.627239990234375,-0.007818472571671009,0.057423777878284454,-0.02190282754600048
1733704777156207000,3.63720703125,-0.008677874691784382,0.05387511104345322,-0.018750710412859917
1733704777166174000,3.647174072265625,-0.007567380554974079,0.05415236949920654,-0.018785519525408745
1733704777176140000,3.65714013671875,-0.007324233651161194,0.052591487765312195,-0.020423097535967827
1733704777186107000,3.66710693359375,-0.006911133881658316,0.050077177584171295,-0.017557615414261818
1733704777196074000,3.677073974609375,-0.007452821359038353,0.04801056534051895,-0.010986264795064926
1733704777206039800,3.687039794921875,-0.007916344329714775,0.043806709349155426,-0.0036681329365819693
1733704777216007000,3.6970068359375,-0.010900150053203106,0.030446430668234825,0.001632888917811215
1733704777225974000,3.70697412109375,-0.010351506993174553,0.013214657083153725,0.006519080605357885
1733704777235940900,3.71694091796875,-0.010797852650284767,-0.002446594648063183,0.010200101882219315
1733704777245907000,3.726906982421875,-0.011119318194687366,-0.020872995257377625,0.01134716346859932
1733704777255873800,3.736873779296875,-0.0025854846462607384,-0.027812927961349487,0.009867510758340359
1733704777265841000,3.7468408203125,0.0031061931513249874,-0.025942154228687286,0.012733450159430504
1733704777275808000,3.75680810546875,0.012186773121356964,-0.02186991646885872,0.02396107092499733
1733704777285774000,3.766774169921875,0.017523374408483505,-0.028107527643442154,0.02565396949648857
1733704777295741200,3.7767412109375,0.022199351340532303,-0.03727332875132561,0.015934495255351067
1733704777305708000,3.7867080078125,0.02191006764769554,-0.046327780932188034,0.0075203534215688705
1733704777315674000,3.796674072265625,0.01733848825097084,-0.051026664674282074,0.006433251313865185
1733704777325641000,3.806640869140625,0.014689590781927109,-0.04938994348049164,0.01088285818696022
1733704777335608000,3.816608154296875,0.010147836059331894,-0.04394084960222244,0.01364349015057087
1733704777345575200,3.8265751953125,0.00526842288672924,-0.03871110826730728,0.012236963957548141
1733704777355541000,3.836541015625,-0.0010286218021064997,-0.03161405026912689,0.007126357406377792
1733704777365508000,3.846508056640625,-0.0037254677154123783,-0.030359014868736267,0.004090266767889261
1733704777375475000,3.856474853515625,-0.007196897640824318,-0.02375917136669159,0.004291867837309837
1733704777385441000,3.86644091796875,-0.009479503147304058,-0.012015631422400475,0.005290145520120859
1733704777395408000,3.876407958984375,-0.008380948565900326,-0.0031702090054750443,0.0038770721293985844
1733704777405375000,3.886375,-0.007154584862291813,0.0038818507455289364,0.001856304006651044
1733704777415342000,3.896342041015625,-0.005223526619374752,0.009611908346414566,-0.0042487261816859245
1733704777425308000,3.906307861328125,-0.004289023112505674,0.017504451796412468,-0.010399296879768372
1733704777435275000,3.91627490234375,-0.005434448830783367,0.02372186817228794,-0.01258149091154337
1733704777445241900,3.926241943359375,-0.004891984164714813,0.02421482652425766,-0.009307362139225006
1733704777455209000,3.936208984375,-0.006488283164799213,0.02463747002184391,-0.00321564800105989
1733704777465175000,3.946175048828125,-0.0034406117629259825,0.018048187717795372,-0.005620867013931274
1733704777475142000,3.956141845703125,-0.0027202267665416002,0.021801913157105446,-0.010432666167616844
1733704777485109000,3.96610888671875,-0.00025382975582033396,0.02510181814432144,-0.015109254978597164
1733704777495075000,3.976074951171875,-0.00011401373194530606,0.027536479756236076,-0.012660743668675423
1733704777505042200,3.986042236328125,0.0018035722896456718,0.03677333891391754,-0.008918930776417255
1733704777515009000,3.996009033203125,0.0032520657405257225,0.04364163428544998,-0.0049883718602359295
1733704777524976000,4.00597607421875,0.0029580879490822554,0.04499232769012451,0.0027316848281770945
1733704777534942000,4.01594189453125,-0.00017538730753585696,0.03807822987437248,0.0026816173922270536
1733704777544909000,4.025908935546875,0.0019225336145609617,0.025297127664089203,-0.0008641150780022144
1733704777554876200,4.035876220703125,-0.0017723359633237123,0.01865760236978531,-0.008519371040165424
1733704777564842000,4.045842041015625,-0.002038982231169939,0.00812855176627636,-0.01600646786391735
1733704777574808800,4.055808837890625,-0.0033074463717639446,0.0014067329466342926,-0.015805134549736977
1733704777584776000,4.06577587890625,-0.00585221266373992,0.004991554655134678,-0.01332360040396452
1733704777594742800,4.07574267578125,-0.0038359337486326694,0.0053374990820884705,-0.012443159706890583
1733704777604708900,4.085708984375,-0.004073509480804205,0.001695101149380207,-0.014982977882027626
1733704777614675700,4.09567578125,-0.006369686685502529,-0.0005680527538061142,-0.01482425443828106
1733704777624642800,4.105642822265625,-0.006979463621973991,-0.00652957521378994,-0.011627016589045525
1733704777634610000,4.11560986328125,-0.007322744932025671,-0.012473218142986298,-0.0036958567798137665
1733704777644575700,4.12557568359375,-0.003947800491005182,-0.01616198569536209,0.0024318424984812737
1733704777654542800,4.13554296875,0.0032832142896950245,-0.021586313843727112,0.003221203340217471
1733704777664509700,4.145509765625,0.007059015333652496,-0.020017109811306,0.0015409091720357537
1733704777674476000,4.15547607421875,0.011841519735753536,-0.01663862355053425,-0.0025358577258884907
1733704777684443000,4.16544287109375,0.00981068890541792,-0.015739204362034798,-0.0069851623848080635
1733704777694409700,4.17540966796875,0.014566028490662575,-0.017999695613980293,-0.004751036409288645
1733704777704376800,4.185376953125,0.016759667545557022,-0.02335301972925663,-0.001676343148574233
1733704777714343000,4.195343017578125,0.006620745174586773,-0.024148771539330482,0.00433574290946126
1733704777724310000,4.20531005859375,-0.0037310910411179066,-0.017579233273863792,0.006325354799628258
1733704777734276900,4.21527685546875,0.0079982690513134,-0.024255510419607162,-0.0069505032151937485
1733704777744243000,4.225242919921875,0.008960544131696224,-0.036965370178222656,-0.011696979403495789
1733704777754209800,4.235209716796875,-0.0006635870086029172,-0.029243001714348793,-0.00380150624550879
1733704777764177000,4.245177001953125,-0.006991690956056118,-0.03756851702928543,-0.00024162465706467628
1733704777774144000,4.25514404296875,-0.008698244579136372,-0.04826696217060089,0.0005048593739047647
1733704777784109800,4.26510986328125,-0.01378383208066225,-0.05387301743030548,0.007454724982380867
1733704777794077000,4.275076904296875,-0.010794433765113354,-0.05627784878015518,0.014507841318845749
1733704777804043800,4.285043701171875,-0.006225544959306717,-0.05242648720741272,0.015533269383013248
1733704777814011000,4.295010986328125,-0.0006398305995389819,-0.04578562080860138,0.012348661199212074
1733704777823976700,4.304976806640625,0.006106274202466011,-0.02956448867917061,0.0070988889783620834
1733704777833943800,4.31494384765625,0.01010048296302557,-0.009317008778452873,0.001212237635627389
1733704777843911000,4.324910888671875,0.011614970862865448,0.011318141594529152,-0.002432148205116391
1733704777853876700,4.334876708984375,0.01319635659456253,0.027950914576649666,-0.00461327750235796
1733704777863843800,4.34484375,0.016390062868595123,0.03924163430929184,-0.0068229790776968
1733704777873810700,4.354810791015625,0.015537585131824017,0.041797466576099396,-0.010722112841904163
1733704777883777800,4.36477783203125,0.014270584098994732,0.04596152901649475,-0.01194473635405302
1733704777893743900,4.374743896484375,0.013813585042953491,0.04313032329082489,-0.011327149346470833
1733704777903710700,4.384710693359375,0.010554522275924683,0.04437142238020897,-0.006510818377137184
1733704777913677800,4.394677734375,0.010225887410342693,0.037978239357471466,-0.0002601125743240118
1733704777923644000,4.404643798828125,0.006030704360455275,0.028533941134810448,0.001877381233498454
1733704777933611000,4.414611083984375,0.00044845262891612947,0.016796592622995377,0.004586614668369293
1733704777943577900,4.424577880859375,-0.004444069229066372,0.0016590850427746773,0.004439718089997768
1733704777953545000,4.434544921875,-0.008034543134272099,-0.008649211376905441,0.00514092855155468
1733704777963510800,4.4445107421875,-0.007803106680512428,-0.016400234773755074,0.0106221754103899
1733704777973478000,4.454477783203125,-0.005577236879616976,-0.017358705401420593,0.013965507969260216
1733704777983445000,4.464445068359375,0.0005487162852659822,-0.016149958595633507,0.01698819361627102
1733704777993411800,4.474411865234375,0.006852685008198023,-0.015846891328692436,0.014902405440807343
1733704778003378000,4.4843779296875,0.010387284681200981,-0.009641371667385101,0.011455591768026352
1733704778013344800,4.4943447265625,0.011475984007120132,0.004564195405691862,0.00797963421791792
1733704778023312000,4.504311767578125,0.009800135158002377,0.013319145888090134,0.003978841006755829
1733704778033277700,4.514277587890625,0.00891596544533968,0.013816092163324356,-0.0016180586535483599
1733704778043244800,4.524244873046875,0.004430561792105436,0.018924396485090256,-0.0051823947578668594
1733704778053212000,4.5342119140625,0.00470992736518383,0.015070268884301186,-0.004799964837729931
1733704778063178800,4.5441787109375,0.0012130587128922343,0.006623683497309685,-0.004260484594851732
1733704778073144800,4.554144775390625,-0.0024780824314802885,0.0017972365021705627,-0.001622623298317194
1733704778083111700,4.564111572265625,-0.003855776973068714,-0.0072949957102537155,-0.001466906862333417
1733704778093078800,4.574078857421875,-0.0014906235737726092,-0.016421647742390633,-0.0017976714298129082
1733704778103044900,4.584044921875,-0.0008532579522579908,-0.025326645001769066,0.0035087571013718843
1733704778113011700,4.59401171875,-0.0012841573916375637,-0.029538432136178017,0.010809546336531639
1733704778122978800,4.603978759765625,0.0008635889971628785,-0.03299981728196144,0.012529641389846802
1733704778132945700,4.613945556640625,0.004088677000254393,-0.03376281261444092,0.011528026312589645
1733704778142912000,4.623912109375,0.0059629278257489204,-0.03387415409088135,0.013078553602099419
1733704778152878800,4.63387890625,0.007011148147284985,-0.03419532999396324,0.013243136927485466
1733704778162846000,4.643845947265625,0.009497249498963356,-0.03830832988023758,0.011325053870677948
1733704778172813000,4.65381298828125,0.008828263729810715,-0.039061740040779114,0.009527953341603279
1733704778182779000,4.66377880859375,0.010056435130536556,-0.03752569854259491,0.006910792551934719
1733704778192746000,4.67374609375,0.009455093182623386,-0.030285364016890526,0.005047112703323364
1733704778202712800,4.683712890625,0.007656513713300228,-0.024637490510940552,0.002833870705217123
1733704778212679000,4.693678955078125,0.00565195269882679,-0.020246203988790512,0.004779309965670109
1733704778222645800,4.703645751953125,0.005810432136058807,-0.0157417431473732,0.0011733509600162506
1733704778232612900,4.71361279296875,0.0066059185191988945,-0.01099146157503128,-0.0015305564738810062
1733704778242580000,4.723580078125,0.0018763969419524074,-0.006715642288327217,-0.0004024747759103775
1733704778252545800,4.7335458984375,0.0015786555595695972,-0.002663109451532364,-0.0012887748889625072
1733704778262513000,4.743512939453125,-0.0012397037353366613,0.003919667564332485,-0.0030604240018874407
1733704778272479700,4.753479736328125,0.000521977199241519,0.004598774015903473,-0.0013991440646350384
1733704778282445800,4.76344580078125,0.0008054759819060564,0.0031942729838192463,-0.0010937172919511795
1733704778292412700,4.77341259765625,0.0024640928022563457,0.0020608315244317055,-0.0024244990199804306
1733704778302379800,4.7833798828125,0.0035973868798464537,0.002778344787657261,-0.004243972711265087
1733704778312347000,4.793346923828125,0.00022129755234345794,-0.000668051652610302,-0.004630397539585829
1733704778322312700,4.803312744140625,0.0007139410590752959,-0.006398309022188187,-0.0000807314645498991
1733704778332279800,4.81327978515625,0.0030689742416143417,-0.002934068441390991,0.0009184865048155189
1733704778342246700,4.82324658203125,0.0018817371455952525,-0.001489304006099701,-0.0014266930520534515
1733704778352213800,4.8332138671875,0.0009451034711673856,0.0037390142679214478,-0.0022754427045583725
1733704778362179800,4.843179931640625,0.00007751683006063104,0.01100127026438713,-0.006290610413998365
1733704778372147000,4.85314697265625,-0.002513738814741373,0.01547857653349638,-0.005834145005792379
1733704778382114000,4.863114013671875,-0.002941591665148735,0.01932397484779358,-0.004176592454314232
1733704778392080000,4.873079833984375,-0.0006808341713622212,0.018498128280043602,0.00001735333353281021
1733704778402047000,4.883046875,0.0008904097485356033,0.013074344024062157,0.0008613469544798136
1733704778412013800,4.893013916015625,0.002237436594441533,0.010253257118165493,0.0007233951473608613
1733704778421981000,4.90298095703125,0.0002127841580659151,0.0051609668880701065,0.00034788972698152065
1733704778431946800,4.91294677734375,-0.0001611236366443336,0.0023265648633241653,0.0006818500114604831
1733704778441913900,4.922913818359375,-0.0006112478440627456,0.000020975247025489807,-0.00006235577166080475
1733704778451881000,4.932880859375,0.0036487444303929806,0.003596002236008644,-0.0006948565132915974
1733704778461846800,4.9428466796875,0.002171741332858801,0.00981353409588337,-0.0001840956974774599
1733704778471814000,4.95281396484375,0.0007213839562609792,0.015682607889175415,-0.0003074000123888254
1733704778481780700,4.96278076171875,-0.0001504332758486271,0.018572784960269928,-0.001244155690073967
1733704778491747800,4.972747802734375,-0.0010156943462789059,0.01690378040075302,-0.001628449885174632
1733704778501713700,4.982713623046875,0.0006086808862164617,0.013557052239775658,-0.002480656374245882
1733704778511680800,4.9926806640625,-0.0012326285941526294,0.010133025236427784,-0.004580292385071516
1733704778521647900,5.00264794921875,-0.0013946620747447014,0.010215518064796925,-0.002231922233477235
1733704778531614000,5.012614013671875,0.000015481666196137667,0.00666738860309124,-0.000814853934571147
1733704778541580800,5.022580810546875,-0.0009007900953292847,0.000921257771551609,0.0014916413929313421
1733704778551547600,5.032547607421875,0.0025389487855136395,-0.007718037813901901,0.0018343902193009853
1733704778561514800,5.0425146484375,0.00680957268923521,-0.017709678038954735,0.006569528486579657
1733704778571480300,5.052480224609375,0.007686551660299301,-0.02526559866964817,0.006416396703571081
1733704778581447400,5.062447509765625,0.006752904038876295,-0.028614705428481102,0.0068396832793951035
1733704778591414300,5.072414306640625,0.005436769686639309,-0.029014183208346367,0.00592968100681901
1733704778601381400,5.08238134765625,0.003086687298491597,-0.029375741258263588,0.010045371018350124
1733704778611347500,5.092347412109375,0.0026296889409422874,-0.02811366878449917,0.007815239951014519
1733704778621314300,5.102314208984375,0.002419229131191969,-0.019699228927493095,0.006270791403949261
1733704778631281400,5.112281494140625,0.0009989652317017317,-0.012366214767098427,0.00590780284255743
1733704778641247200,5.122247314453125,0.00236318027600646,-0.009846435859799385,0.007622504606842995
1733704778651214300,5.13221435546875,0.003454277291893959,-0.008828042075037956,0.0044647944159805775
1733704778661181200,5.14218115234375,0.0038163233548402786,-0.013199783861637115,0.002534642815589905
1733704778671148300,5.152148193359375,0.005873881746083498,-0.015129776671528816,0.001184686436317861
1733704778681114400,5.1621142578125,0.006193771027028561,-0.01206502877175808,-0.0008524435106664896
1733704778691081200,5.172081298828125,0.0027513690292835236,-0.002964741550385952,0.000017877668142318726
1733704778701048300,5.18204833984375,-0.0009046450722962618,0.00623617647215724,-0.001742274733260274
1733704778711014100,5.19201416015625,-0.005548132583498955,0.0126261655241251,-0.0049641672521829605
1733704778720981200,5.201981201171875,-0.003368264762684703,0.013117536902427673,-0.0067908382043242455
1733704778730948000,5.211947998046875,-0.0084399888291955,0.01845717430114746,-0.0053764330223202705
1733704778740915200,5.221915283203125,-0.007739478722214699,0.018449898809194565,-0.004679511301219463
1733704778750881500,5.231881591796875,-0.0035668378695845604,0.012751799076795578,-0.004920261446386576
1733704778760848400,5.241848388671875,0.001776009681634605,0.009568140842020512,-0.0062555368058383465
1733704778770815500,5.2518154296875,0.006136935669928789,0.005303621292114258,-0.007847042754292488
1733704778780781300,5.26178125,0.008611573837697506,0.00965905375778675,-0.007684431970119476
1733704778790748400,5.27174853515625,0.012148251757025719,0.025980768725275993,-0.01477643009275198
1733704778800715300,5.28171533203125,0.015206977725028992,0.05018753558397293,-0.0224068071693182
1733704778810682400,5.291682373046875,0.015827495604753494,0.06363116949796677,-0.029176294803619385
1733704778820648400,5.3016484375,0.014245564118027687,0.06872335076332092,-0.03069651499390602
1733704778830615300,5.311615234375,0.011683602817356586,0.06895557790994644,-0.03732325881719589
1733704778840582400,5.32158251953125,0.010012418031692505,0.061180293560028076,-0.044234223663806915
1733704778850549200,5.33154931640625,-0.0013563502579927444,0.05787557736039162,-0.049672931432724
1733704778860515300,5.341515380859375,-0.009157942607998848,0.055884383618831635,-0.05442911013960838
1733704778870482200,5.351482177734375,-0.017266735434532166,0.053355976939201355,-0.04838027432560921
1733704778880449300,5.36144921875,-0.02917267195880413,0.05530211329460144,-0.03937365487217903
1733704778890415400,5.371415283203125,-0.039978448301553726,0.06233232468366623,-0.02901875227689743
1733704778900382200,5.38138232421875,-0.04492083564400673,0.0665174052119255,-0.02358994074165821
1733704778910349300,5.391349365234375,-0.04425983875989914,0.08118769526481628,-0.022892991080880165
1733704778920316200,5.401316162109375,-0.037541963160037994,0.09394113719463348,-0.022116824984550476
1733704778930282200,5.4112822265625,-0.0286246370524168,0.09608684480190277,-0.02335519716143608
1733704778940249000,5.4212490234375,-0.014449004083871841,0.08590029180049896,-0.009411758743226528
1733704778950216200,5.43121630859375,-0.0029263051692396402,0.06463441997766495,0.006410080939531326
1733704778960182500,5.4411826171875,0.005861054174602032,0.032690227031707764,0.019287068396806717
1733704778970149400,5.4511494140625,0.014852951280772686,-0.000008062459528446198,0.0309879332780838
1733704778980116500,5.461116455078125,0.020273815840482712,-0.03204973042011261,0.0397266261279583
1733704778990083300,5.471083251953125,0.02496310882270336,-0.054579004645347595,0.04829002171754837
1733704779000049400,5.48104931640625,0.02527541108429432,-0.069327712059021,0.05325238034129143
1733704779010016300,5.491016357421875,0.024177122861146927,-0.07735101878643036,0.053415101021528244
1733704779019983400,5.5009833984375,0.02088100276887417,-0.07508032023906708,0.049991149455308914
1733704779029949400,5.510949462890625,0.015565065667033195,-0.07458923757076263,0.04190126806497574
1733704779039916300,5.520916259765625,0.012359324842691422,-0.0680328756570816,0.03418764844536781
1733704779049883400,5.53088330078125,0.007682813797146082,-0.056018292903900146,0.02881179004907608
1733704779059850200,5.540850341796875,0.004844426177442074,-0.04558711498975754,0.02814352884888649
1733704779069816300,5.55081640625,0.0038318922743201256,-0.036123305559158325,0.025513924658298492
1733704779079783400,5.560783447265625,0.002592254662886262,-0.03278692066669464,0.024033091962337494
1733704779089750300,5.570750244140625,0.0020138160325586796,-0.030664118006825447,0.018092911690473557
1733704779099717400,5.58071728515625,0.001981496810913086,-0.03432097285985947,0.013399584218859673
1733704779109683200,5.59068310546875,0.0025372987147420645,-0.029668163508176804,0.006917716469615698
1733704779119650300,5.600650390625,0.0005487472517415881,-0.025037096813321114,0.003268806729465723
1733704779129617200,5.6106171875,-0.006474807392805815,-0.03187529742717743,0.0047644381411373615
1733704779139583200,5.620583251953125,-0.007438483648002148,-0.0362829864025116,0.011021376587450504
1733704779149550300,5.63055029296875,-0.010102976113557816,-0.03975974768400192,0.015135960653424263
1733704779159517200,5.64051708984375,-0.006708002183586359,-0.045702360570430756,0.015991028398275375
1733704779169484300,5.650484375,-0.000009086623322218657,-0.05165639519691467,0.016041096299886703
1733704779179450400,5.660450439453125,0.005611342377960682,-0.05652559548616409,0.020116951316595078
1733704779189417500,5.67041748046875,0.011163233779370785,-0.057370610535144806,0.025958329439163208
1733704779199384300,5.68038427734375,0.011455888859927654,-0.05449850112199783,0.028908686712384224
1733704779209350400,5.690350341796875,0.005066432990133762,-0.054690249264240265,0.027783768251538277
1733704779219317500,5.7003173828125,-0.008213684894144535,-0.059651292860507965,0.025273799896240234
1733704779229284400,5.710284423828125,-0.017014900222420692,-0.05857937037944794,0.020690498873591423
1733704779239251500,5.72025146484375,-0.016416087746620178,-0.03882014751434326,0.012157370336353779
1733704779249217300,5.73021728515625,-0.01143091544508934,-0.009030558168888092,0.0008921987609937787
1733704779259184400,5.740184326171875,-0.005105066113173962,0.022917501628398895,-0.0026972871273756027
1733704779269151200,5.750151123046875,0.004030641634017229,0.042298391461372375,-0.0017806272953748703
1733704779279117300,5.760117431640625,0.010986662469804287,0.05099010467529297,-0.005683683790266514
1733704779289084400,5.77008447265625,0.014145171269774437,0.05887226015329361,-0.016492389142513275
1733704779299051300,5.78005126953125,0.013246934860944748,0.06516407430171967,-0.027335062623023987
1733704779309018400,5.790018310546875,0.0037690107710659504,0.07823993265628815,-0.032934628427028656
1733704779318984200,5.799984130859375,-0.006748104467988014,0.08712252974510193,-0.033612560480833054
1733704779328951300,5.809951416015625,-0.019672958180308342,0.08707699179649353,-0.030377350747585297
1733704779338918100,5.819918212890625,-0.02495713345706463,0.07208481431007385,-0.02651089057326317
1733704779348885200,5.82988525390625,-0.024690017104148865,0.056443266570568085,-0.021972864866256714
1733704779358851300,5.839851318359375,-0.020788241177797318,0.033417582511901855,-0.016244633123278618
1733704779368818200,5.849818115234375,-0.015553533099591732,0.011946114711463451,-0.0083150714635849
1733704779378785300,5.859785400390625,-0.008663978427648544,-0.006107168272137642,0.004122500773519278
1733704779388751400,5.86975146484375,0.0006371117779053748,-0.03059973008930683,0.016872119158506393
1733704779398718500,5.879718505859375,0.009598201140761375,-0.056805919855833054,0.023715287446975708
1733704779408685300,5.889685302734375,0.013037140481173992,-0.07947421073913574,0.02529480867087841
1733704779418652400,5.89965234375,0.01983971893787384,-0.09352181851863861,0.027051934972405434
1733704779428618500,5.909618408203125,0.022716199979186058,-0.09979276359081268,0.03081631287932396
1733704779438585300,5.91958544921875,0.026282085105776787,-0.0908212885260582,0.032959625124931335
1733704779448552400,5.929552490234375,0.028490113094449043,-0.0779355838894844,0.03051111474633217
1733704779458518300,5.939518310546875,0.028843054547905922,-0.06914360821247101,0.025585943832993507
1733704779468485400,5.9494853515625,0.026520511135458946,-0.056167349219322205,0.021165896207094193
1733704779478452200,5.9594521484375,0.018206115812063217,-0.0395011305809021,0.012634530663490295
1733704779488419300,5.96941943359375,0.0063478583469986916,-0.021320531144738197,0.005516167730093002
1733704779498385400,5.979385498046875,-0.003883207682520151,-0.005328517407178879,0.0011515130754560232
1733704779508352300,5.989352294921875,-0.007961838506162167,0.011680027469992638,-0.007826535031199455
1733704779518319400,5.9993193359375,-0.013157333247363567,0.025511659681797028,-0.01674078404903412
1733704779528285200,6.00928515625,-0.01592142879962921,0.0356612354516983,-0.024911629036068916
1733704779538252300,6.019252197265625,-0.020863471552729607,0.04088541120290756,-0.029986847192049026
1733704779548219100,6.02921923828125,-0.020873859524726868,0.044030603021383286,-0.03060070425271988
1733704779558186200,6.039186279296875,-0.020124005153775215,0.03983844816684723,-0.027357548475265503
1733704779568152300,6.04915234375,-0.014528438448905945,0.03531773388385773,-0.02065224200487137
1733704779578120400,6.059120361328125,-0.008204870857298374,0.02569124847650528,-0.015748636797070503
1733704779588087600,6.069087646484375,-0.0037909478414803743,0.015806924551725388,-0.015145964920520782
1733704779598053400,6.079053466796875,-0.0015694544417783618,0.005920029245316982,-0.013026559725403786
1733704779608020500,6.0890205078125,0.0037731132470071316,-0.005682831630110741,-0.008554313331842422
1733704779617987300,6.0989873046875,0.006818115711212158,-0.013716274872422218,-0.002178993308916688
1733704779627954400,6.108954345703125,0.00917181745171547,-0.018619153648614883,0.0028418642468750477
1733704779637920300,6.118920166015625,0.009844742715358734,-0.019845472648739815,0.006330822594463825
1733704779647887400,6.128887451171875,0.01041758805513382,-0.020338689908385277,0.00548926368355751
1733704779657854500,6.1388544921875,0.008329451084136963,-0.018071714788675308,0.005389517173171043
1733704779667821300,6.1488212890625,0.004158142022788525,-0.012274278327822685,0.004701622761785984
1733704779677787600,6.15878759765625,-0.0011791237629950047,-0.002021477557718754,0.0017086011357605457
1733704779687754500,6.16875439453125,0.0004946728586219251,0.005392496474087238,-0.0025545870885252953
1733704779697721600,6.1787216796875,-0.0000577110331505537,0.015376972034573555,-0.006514895707368851
1733704779707687400,6.1886875,0.004814541898667812,0.021742193028330803,-0.008514396846294403
1733704779717654500,6.198654541015625,0.0034887325018644333,0.027462966740131378,-0.007939265109598637
1733704779727621600,6.20862158203125,0.0032274762634187937,0.027147648856043816,-0.0071437787264585495
1733704779737588500,6.21858837890625,-0.001585497404448688,0.020091116428375244,-0.002411680296063423
1733704779747554600,6.228554443359375,-0.003155430778861046,0.010809201747179031,-0.0025264625437557697
1733704779757521400,6.238521484375,-0.004084672778844833,0.005699689034372568,-0.0062726158648729324
1733704779767488500,6.248488525390625,-0.0019935588352382183,-0.0016274657100439072,-0.007763187400996685
1733704779777454300,6.258454345703125,0.0036225044168531895,-0.010884502902626991,-0.0034595562610775232
1733704779787421400,6.26842138671875,0.008748290129005909,-0.009649859741330147,0.0016843393677845597
1733704779797388500,6.278388427734375,0.01176298875361681,-0.009928960353136063,0.0036849058233201504
1733704779807355400,6.28835546875,0.011349665932357311,-0.010278899222612381,0.001800719415768981
1733704779817321500,6.298321533203125,0.01005078386515379,-0.013926293700933456,0.001511456212028861
1733704779827288300,6.308288330078125,0.006164166145026684,-0.016327133402228355,0.00047761714085936546
1733704779837255400,6.31825537109375,0.002259661676362157,-0.02107340097427368,0.0022279240656644106
1733704779847221200,6.32822119140625,0.004517489578574896,-0.028071124106645584,0.007381939794868231
1733704779857188400,6.338188232421875,0.006005542818456888,-0.035005033016204834,0.006922701373696327
1733704779867155500,6.348155517578125,0.0031077577732503414,-0.040371306240558624,0.010784551501274109
1733704779877122300,6.358122314453125,0.0048793042078614235,-0.046971261501312256,0.011713497340679169
1733704779887088600,6.368088623046875,0.00339965196326375,-0.04826343059539795,0.013112456537783146
1733704779897055500,6.378055419921875,0.0011906756553798914,-0.04899919778108597,0.011674884706735611
1733704779907022600,6.388022705078125,-0.003672256600111723,-0.04348139464855194,0.004608719144016504
1733704779916988400,6.397988525390625,-0.0018557441653683782,-0.030974604189395905,0.0014623681781813502
1733704779926955500,6.40795556640625,-0.0013838320737704635,-0.01572401262819767,-0.001760855782777071
1733704779936922600,6.417922607421875,-0.0008335074526257813,0.0014831135049462318,0.0006897244602441788
1733704779946889500,6.427889404296875,-0.0016271292697638273,0.02087784931063652,0.0007158234948292375
1733704779956855600,6.43785546875,-0.002843789756298065,0.03653302788734436,-0.001234712777659297
1733704779966822400,6.447822509765625,-0.006117347627878189,0.04924376308917999,-0.002903715707361698
1733704779976789500,6.45778955078125,-0.00590762821957469,0.05668751150369644,-0.005476292222738266
1733704779986755300,6.46775537109375,-0.00593958655372262,0.06177281588315964,-0.0056118471547961235
1733704779996722400,6.477722412109375,-0.0032924970146268606,0.05772223323583603,-0.009859834797680378
1733704780006689500,6.487689453125,-0.0035553511697798967,0.054851606488227844,-0.008840909227728844
1733704780016656400,6.497656494140625,-0.001931847189553082,0.04772530496120453,-0.008077098056674004
1733704780026622500,6.50762255859375,0.004152677021920681,0.03577357158064842,-0.011924300342798233
1733704780036589300,6.51758935546875,0.0051735928282141685,0.02589399367570877,-0.015485973097383976
1733704780046556400,6.527556396484375,0.010869828052818775,0.01794525608420372,-0.01705271005630493
1733704780056522500,6.5375224609375,0.008746415376663208,0.01050004456192255,-0.011202354915440083
1733704780066489300,6.5474892578125,0.0011052738409489393,0.011183944530785084,-0.005744206719100475
1733704780076456400,6.55745654296875,-0.00815478153526783,0.013158936984837055,-0.004564730916172266
1733704780086423300,6.56742333984375,-0.015446517616510391,0.014800775796175003,-0.003935159649699926
1733704780096389600,6.5773896484375,-0.01719491370022297,0.020844407379627228,-0.004031565971672535
1733704780106356500,6.5873564453125,-0.01629370078444481,0.020770370960235596,-0.003309316234663129
1733704780116323600,6.597323486328125,-0.012255465611815453,0.02300073578953743,0.0022765130270272493
1733704780126289400,6.607289306640625,-0.006377069279551506,0.019053131341934204,0.006782315205782652
1733704780136256500,6.617256591796875,0.0009595775045454502,0.007366844452917576,0.007881096564233303
1733704780146223600,6.6272236328125,0.005711455829441547,-0.00431324727833271,0.012247882783412933
1733704780156190500,6.6371904296875,0.01013389602303505,-0.014476777985692024,0.01305808499455452
1733704780166156500,6.647156494140625,0.010541625320911407,-0.02432754449546337,0.01726987399160862
1733704780176123400,6.657123291015625,0.009179930202662945,-0.03302595391869545,0.019306965172290802
1733704780186090500,6.667090576171875,0.00750906253233552,-0.03554157540202141,0.021479304879903793
1733704780196057600,6.6770576171875,0.005198636557906866,-0.03732994198799133,0.016043294221162796
1733704780206023400,6.6870234375,0.002211368642747402,-0.0319727286696434,0.012404349632561207
1733704780215990500,6.696990478515625,-0.0032966919243335724,-0.025508390739560127,0.012014125473797321
1733704780225957400,6.706957275390625,-0.0056157722137868404,-0.01595563255250454,0.01188522856682539
1733704780235923500,6.71692333984375,-0.0033979136496782303,-0.004554896615445614,0.013736963272094727
1733704780245890300,6.726890380859375,0.0018780746031552553,0.012537005357444286,0.01249300129711628
1733704780255857400,6.736857421875,0.00767985126003623,0.024074537679553032,0.009443155489861965
1733704780265824500,6.746824462890625,0.010196538642048836,0.034742631018161774,0.0057916948571801186
1733704780275790300,6.756790283203125,0.010112856514751911,0.0417470782995224,0.0013106148689985275
1733704780285757400,6.76675732421875,0.005652594845741987,0.03951828181743622,-0.005899626761674881
1733704780295724300,6.776724365234375,0.0027607164811342955,0.03552842512726784,-0.0065812766551971436
1733704780305690600,6.786690673828125,0.0017018435755744576,0.027857456356287003,-0.0054968371987342834
1733704780315657500,6.796657470703125,0.0001500629587098956,0.02075851522386074,-0.005344315432012081
1733704780325624600,6.80662451171875,-0.0007511507719755173,0.012216159142553806,-0.005944325588643551
1733704780335591700,6.816591796875,-0.0018102929461747408,0.0005737729370594025,-0.0037564714439213276
1733704780345557500,6.8265576171875,-0.002233735751360655,-0.012902621179819107,0.0015978136798366904
1733704780355524600,6.836524658203125,0.0005757893668487668,-0.02712104097008705,0.004001840017735958
1733704780365491500,6.846491455078125,0.001617617905139923,-0.035456202924251556,0.0035669461358338594
1733704780375457500,6.85645751953125,0.004252392798662186,-0.04072307050228119,0.0036620297469198704
1733704780385424400,6.86642431640625,0.0077539170160889626,-0.04756499081850052,0.004610381554812193
1733704780395391500,6.8763916015625,0.010911716148257256,-0.05070357024669647,0.005817968398332596
1733704780405358600,6.886358642578125,0.010842740535736084,-0.05381973087787628,0.005699723958969116
1733704780415324400,6.896324462890625,0.007695260923355818,-0.04863875359296799,0.0072217280976474285
1733704780425291500,6.90629150390625,0.0038717607967555523,-0.041644226759672165,0.011228720657527447
1733704780435258400,6.91625830078125,0.0007122530951164663,-0.03733046352863312,0.014310146681964397
1733704780445224400,6.926224365234375,-0.0005921631818637252,-0.03734884411096573,0.012394268997013569
1733704780455191300,6.93619140625,0.004443078767508268,-0.03453350067138672,0.0073637571185827255
1733704780465158400,6.946158447265625,0.008776840753853321,-0.03134516626596451,0.002383911982178688
1733704780475125500,6.95612548828125,0.012065665796399117,-0.02868870086967945,0.0002777299378067255
1733704780485091300,6.96609130859375,0.011482433415949345,-0.023605259135365486,-0.0038379193283617496
1733704780495058400,6.976058349609375,0.01195279136300087,-0.015324177220463753,-0.0035319996532052755
1733704780505025300,6.986025390625,0.006709559820592403,-0.00790833868086338,-0.004883287474513054
1733704780514991600,6.99599169921875,0.0017618495039641857,-0.004920882172882557,-0.003761610249057412
1733704780524958500,7.00595849609375,0.00018206232925876975,0.004047313239425421,-0.0030691882129758596
1733704780534925600,7.015925537109375,-0.002927355235442519,0.01460149697959423,-0.00468035414814949
1733704780544892700,7.025892578125,-0.0042482828721404076,0.02476545050740242,-0.004534413106739521
1733704780554858500,7.0358583984375,-0.002706979401409626,0.03381960839033127,-0.004974069073796272
1733704780564825600,7.04582568359375,0.0016496859025210142,0.03822661191225052,-0.0037641949020326138
1733704780574792400,7.05579248046875,0.003080402733758092,0.04240108281373978,-0.0053025539964437485
1733704780584758300,7.06575830078125,0.004472170490771532,0.04175712913274765,-0.004717990756034851
1733704780594725400,7.075725341796875,0.005643854383379221,0.03369590640068054,-0.004566328600049019
1733704780604692200,7.085692138671875,0.006199922412633896,0.023221157491207123,0.0002699717879295349
1733704780614659300,7.095659423828125,0.007361370604485273,0.006245618686079979,0.005312590394169092
1733704780624625200,7.105625244140625,0.010295375250279903,-0.007558876648545265,0.010360611602663994
1733704780634592300,7.11559228515625,0.010065251961350441,-0.028207533061504364,0.011431308463215828
1733704780644559400,7.125559326171875,0.013799803331494331,-0.04666510224342346,0.01056951005011797
1733704780654525200,7.135525146484375,0.014733707532286644,-0.05581916123628616,0.011631162837147713
1733704780664492300,7.1454921875,0.014444221742451191,-0.059309229254722595,0.012945699505507946
1733704780674459100,7.155459228515625,0.011274426244199276,-0.06001774221658707,0.016401005908846855
1733704780684426200,7.16542626953125,0.0073254904709756374,-0.057970307767391205,0.018516087904572487
1733704780694392300,7.175392333984375,0.0077221812680363655,-0.053885988891124725,0.01647963561117649
1733704780704359200,7.185359130859375,0.006247322540730238,-0.04928457736968994,0.013512075878679752
1733704780714326300,7.195326171875,0.0004476961912587285,-0.03961050510406494,0.009592482820153236
1733704780724292400,7.205292236328125,-0.005416317842900753,-0.029452411457896233,0.008093921467661858
1733704780734259500,7.215259521484375,-0.006328054703772068,-0.01735798642039299,0.005645181052386761
1733704780744226300,7.225226318359375,-0.005238022655248642,-0.006872855126857758,0.0016648201271891594
1733704780754193400,7.235193359375,-0.00285522872582078,0.0010520368814468384,-0.0011973308864980936
1733704780764159200,7.2451591796875,-0.0028741369023919106,0.004247297998517752,-0.0035201399587094784
1733704780774126300,7.255126220703125,-0.0005163249443285167,0.008286158554255962,-0.006294415332376957
1733704780784093400,7.265093505859375,-0.0005621313466690481,0.014388259500265121,-0.01052005309611559
1733704780794059300,7.275059326171875,-0.0018183928914368153,0.018336836248636246,-0.010423766449093819
1733704780804026400,7.2850263671875,-0.0008884170674718916,0.021640755236148834,-0.010420570150017738
1733704780813993200,7.2949931640625,0.0012487696949392557,0.024578753858804703,-0.01115400530397892
1733704780823960300,7.304960205078125,0.0005962952855043113,0.027495713904500008,-0.013999059796333313
1733704780833926400,7.314926513671875,-0.0006657550111413002,0.027642711997032166,-0.010002759285271168
1733704780843893200,7.324893310546875,-0.0015805508010089397,0.02562803030014038,-0.007743067108094692
1733704780853860400,7.3348603515625,-0.0019719437696039677,0.025461124256253242,-0.00355493719689548
1733704780863826200,7.344826171875,-0.0004819051828235388,0.018092157319188118,-0.0016308033373206854
1733704780873793300,7.354793212890625,0.002088045235723257,0.008013957180082798,0.0008344849338755012
1733704780883760000,7.364760009765625,0.005924328695982695,-0.0030283071100711823,0.0017860324587672949
1733704780893727200,7.374727294921875,0.0037898991722613573,-0.017193056643009186,0.0038678657729178667
1733704780903693300,7.384693359375,0.006144932936877012,-0.024364950135350227,0.0004909775452688336
1733704780913660200,7.39466015625,0.003842622507363558,-0.027916649356484413,0.0041425093077123165
1733704780923627300,7.404627197265625,0.0016449822578579187,-0.026227140799164772,0.008423274382948875
1733704780933594000,7.414593994140625,0.0016558110946789384,-0.021087048575282097,0.011567356996238232
1733704780943560400,7.424560546875,0.002108548302203417,-0.014833945780992508,0.01047386322170496
1733704780953527300,7.43452734375,0.0034746616147458553,-0.01511513814330101,0.0077562639489769936
1733704780963494400,7.444494384765625,0.00539719732478261,-0.014599816873669624,0.00806332565844059
1733704780973460500,7.45446044921875,0.002532413462176919,-0.012543581426143646,0.010763011872768402
1733704780983427300,7.46442724609375,0.0036589305382221937,-0.016516750678420067,0.008619965985417366
1733704780993394400,7.47439453125,0.006735888309776783,-0.02354203350841999,0.004101957660168409
1733704781003360300,7.4843603515625,0.006382753141224384,-0.022177962586283684,-0.0029463646933436394
1733704781013327400,7.494327392578125,0.004592456389218569,-0.019179949536919594,-0.003507160348817706
1733704781023294200,7.504294189453125,0.00024378072703257203,-0.015703724697232246,0.000021261628717184067
1733704781033261300,7.51426123046875,-0.005418628919869661,-0.0013800673186779022,0.001080599962733686
1733704781043227400,7.524227294921875,-0.005850060842931271,0.006046955939382315,0.0025495996233075857
1733704781053194200,7.5341943359375,-0.007766340859234333,0.011415299959480762,0.001206069253385067
1733704781063161300,7.544161376953125,-0.0076246606186032295,0.01254661101847887,-0.004893368575721979
1733704781073127200,7.554127197265625,-0.005261235870420933,0.014530189335346222,-0.006076911464333534
1733704781083094300,7.56409423828125,-0.005078276619315147,0.011528274044394493,-0.008496393449604511
1733704781093061000,7.57406103515625,-0.003135591745376587,0.016726573929190636,-0.008034050464630127
1733704781103028200,7.5840283203125,-0.002122259233146906,0.020989229902625084,-0.006586355622857809
1733704781112994600,7.59399462890625,-0.0016259802505373955,0.025108132511377335,-0.006098761223256588
1733704781122961400,7.60396142578125,-0.001767660491168499,0.023869231343269348,-0.006716614589095116
1733704781132928300,7.61392822265625,0.0010616818908602,0.018057147040963173,-0.006518474780023098
1733704781142895000,7.62389501953125,0.0012861863942816854,0.010741444304585457,-0.0010741748847067356
1733704781152861400,7.633861328125,0.0011036053765565157,0.005280699580907822,0.0009434426901862025
1733704781162828300,7.643828369140625,0.0010367599315941334,0.0031453766860067844,0.0012651525903493166
1733704781172795400,7.65379541015625,0.0012307961005717516,-0.0009771166369318962,0.0018409797921776772
1733704781182761500,7.663761474609375,0.00027552025858312845,-0.00461206492036581,0.004341688007116318
1733704781192728300,7.673728271484375,0.003749930765479803,-0.007959071546792984,0.002935797441750765
1733704781202695400,7.6836953125,0.0039046602323651314,-0.011249672621488571,0.004353664815425873
1733704781212661200,7.6936611328125,0.004078112076967955,-0.014151597395539284,0.0026078796945512295
1733704781222628400,7.70362841796875,0.00417212164029479,-0.016096770763397217,0.006325386464595795
1733704781232595200,7.71359521484375,0.006914293859153986,-0.01726955734193325,0.005381306167691946
1733704781242562300,7.723562255859375,0.0022681429982185364,-0.016021333634853363,0.004906997084617615
1733704781252528400,7.7335283203125,0.0000237426720559597,-0.015111565589904785,0.0048576099798083305
1733704781262495200,7.7434951171875,-0.0014250170206651092,-0.01803864724934101,0.0070539191365242004
1733704781272462300,7.75346240234375,-0.0011946145677939057,-0.014552697539329529,0.005763342138379812
1733704781282429200,7.76342919921875,-0.00330730015411973,-0.012715915217995644,0.0037566502578556538
1733704781292395300,7.773395263671875,-0.002556176157668233,-0.010601833462715149,0.0022439807653427124
1733704781302362000,7.783362060546875,0.0002673072158358991,-0.0041953325271606445,-0.0022514353040605783
1733704781312329200,7.7933291015625,-0.0013714658562093973,0.0027137603610754013,-0.002185956807807088
1733704781322295600,7.803295654296875,0.0009151241392828524,0.008218513801693916,-0.0003355925437062979
1733704781332262400,7.813262451171875,0.00003518903395161033,0.012769755907356739,0.0021915885154157877
1733704781342229200,7.823229248046875,0.002069311449304223,0.014812933281064034,0.002924490487203002
1733704781352196000,7.833196044921875,0.003044609446078539,0.012489152140915394,0.0024468398187309504
1733704781362162400,7.843162353515625,0.0016128940042108297,0.010857965797185898,-0.0010871749836951494
1733704781372129500,7.853129638671875,-0.0007633155910298228,0.012590982019901276,-0.0021965489722788334
1733704781382096400,7.863096435546875,-0.0014466826105490327,0.015480510890483856,-0.003090838436037302
1733704781392062500,7.8730625,-0.0015169888501986861,0.013733591884374619,0.0011472520418465137
1733704781402029300,7.883029296875,-0.00017795158782973886,0.009367604739964008,0.0022884164936840534
1733704781411996400,7.892996337890625,0.000928257592022419,-0.0035666553303599358,0.0002374318428337574
1733704781421963300,7.90296337890625,-0.0006094516720622778,-0.006920905783772469,-0.0019375719130039215
1733704781431929300,7.912929443359375,-0.002162403194233775,-0.007283221930265427,-0.00207707192748785
1733704781441896400,7.922896484375,-0.00451424065977335,-0.004152142442762852,-0.001085577066987753
1733704781451863300,7.93286328125,-0.0038399756886065006,0.0012677144259214401,0.0005916228983551264
1733704781461829400,7.942829345703125,-0.004847449716180563,0.008035073056817055,0.0019961739890277386
1733704781471796200,7.952796142578125,-0.0026456781197339296,0.009643826633691788,0.00185665232129395
1733704781481763300,7.962763427734375,-0.00009170663543045521,0.005865866784006357,0.00214240956120193
1733704781491730200,7.972730224609375,0.0003025923506356776,0.00009203515946865082,0.0038357852026820183
1733704781501696300,7.9826962890625,0.0024208705872297287,-0.00587105005979538,0.0018970039673149586
1733704781511663400,7.992663330078125,0.004003387875854969,-0.013559089973568916,0.002625527558848262
1733704781521630200,8.002630126953125,0.0009340944234281778,-0.018229475244879723,0.004933955613523722
1733704781531596500,8.012596435546875,-0.00003855687100440264,-0.02079285867512226,0.006183156277984381
1733704781541563400,8.0225634765625,0.0005510670016519725,-0.020933205261826515,0.003947965335100889
1733704781551530200,8.0325302734375,-0.0014954390935599804,-0.02064860798418522,0.004792626015841961
1733704781561497000,8.0424970703125,0.001725387992337346,-0.015021348372101784,0.0029121676925569773
1733704781571463400,8.05246337890625,0.0007098339265212417,-0.011049319058656693,-0.001400599954649806
1733704781581429800,8.0624296875,-0.0010984523687511683,-0.004865458235144615,-0.002799558686092496
1733704781591396900,8.07239697265625,-0.004250902216881514,-0.000805974006652832,-0.0004614526405930519
1733704781601362700,8.08236279296875,-0.00824564415961504,-0.000726611353456974,0.0019007712835446
1733704781611329800,8.092329833984374,-0.008703350089490414,-0.004553765989840031,0.00447449367493391
1733704781621296600,8.102296630859374,-0.006998127792030573,-0.011171720921993256,0.00527131138369441
1733704781631263700,8.112263671875,-0.005128413904458284,-0.017384150996804237,0.0034430078230798244
1733704781641229600,8.1222294921875,-0.0029432903975248337,-0.01613406278192997,0.0017561616841703653
1733704781651196700,8.13219677734375,-0.001561996410600841,-0.008672380819916725,0.0018457991536706686
1733704781661163800,8.142163818359375,-0.0030150171369314194,-0.0039106495678424835,0.0021584543865174055
1733704781671129600,8.152129638671875,-0.0007147560827434063,0.0030179438181221485,0.0020672804675996304
1733704781681096700,8.1620966796875,0.0004333326651249081,0.00906118843704462,0.003032942768186331
1733704781691063600,8.1720634765625,-0.0009523988701403141,0.01263157557696104,0.003161933273077011
1733704781701030700,8.18203076171875,0.00006705924170091748,0.011788152158260345,0.00223169126547873
1733704781710996700,8.191996826171875,0.002566723618656397,0.010838878341019154,0.00003540702164173126
1733704781720963800,8.2019638671875,0.004882342182099819,0.006286204792559147,0.00010225246660411358
1733704781730930700,8.2119306640625,0.004752601496875286,0.0005468446761369705,-0.000685431994497776
1733704781740896800,8.221896728515626,0.005669794045388699,-0.0036447038874030113,-0.0012271187733858824
1733704781750864000,8.23186376953125,0.00667540542781353,-0.008462248370051384,-0.002033855067566037
1733704781760830700,8.241830810546874,0.004125694744288921,-0.009455874562263489,-0.0018775274511426687
1733704781770797800,8.2517978515625,0.0009197354083880782,-0.008186174556612968,0.0016113566234707832
1733704781780763600,8.261763671875,-0.0035559730604290962,-0.008959555998444557,0.0027168348897248507
1733704781790730800,8.271730712890625,-0.002970694098621607,-0.01149074174463749,0.005379284732043743
1733704781800697900,8.28169775390625,-0.0071558523923158646,-0.014072943478822708,0.0011864040279760957
1733704781810663700,8.29166357421875,-0.007416844367980957,-0.015380516648292542,0.002426235005259514
1733704781820630800,8.301630859375,-0.007339079864323139,-0.017573894932866096,0.004978874698281288
1733704781830597600,8.31159765625,-0.007680786307901144,-0.016459884122014046,0.004895824007689953
1733704781840564700,8.321564697265625,-0.002925446256995201,-0.01485426351428032,0.006193049717694521
1733704781850530600,8.331530517578125,-0.0007625154685229063,-0.010333394631743431,0.0036671350244432688
1733704781860497700,8.34149755859375,0.0024681652430444956,-0.005495496094226837,0.002459657844156027
1733704781870464800,8.35146484375,0.004058827646076679,0.0029840264469385147,0.00010203896090388298
1733704781880430600,8.3614306640625,0.0030928989872336388,0.009769494645297527,0.0001459810882806778
1733704781890397700,8.371397705078126,0.0011330811539664865,0.007509036920964718,0.003501686966046691
1733704781900364500,8.381364501953126,0.002477178582921624,0.008685621432960033,0.00461861677467823
1733704781910331600,8.39133154296875,0.0032057089265435934,0.0016074832528829575,0.0011469892924651504
1733704781920297700,8.401297607421874,0.0005140521097928286,-0.002084190957248211,-0.0017132458742707968
1733704781930264800,8.411264892578124,-0.001753656193614006,-0.0015607140958309174,-0.004085215739905834
1733704781940231700,8.421231689453125,-0.0029805744998157024,-0.002363923005759716,-0.0028460470493882895
1733704781950197800,8.43119775390625,-0.0020710998214781284,-0.006344705820083618,0.003089271020144224
1733704781960164900,8.441164794921875,-0.000859095249325037,-0.009628383442759514,0.0032176354434341192
1733704781970131700,8.451131591796875,0.0023078867234289646,-0.017498649656772614,0.0003096102736890316
1733704781980098800,8.461098876953125,0.002841584151610732,-0.02059856802225113,-0.00042222626507282257
1733704781990064600,8.471064697265625,0.006322380620986223,-0.022854400798678398,-0.0019162758253514767
1733704782000031700,8.48103173828125,0.004451510030776262,-0.024811824783682823,0.00009121489711105824
1733704782009998800,8.490998779296875,0.0021564410999417305,-0.035238802433013916,-0.0009238552302122116
1733704782019964700,8.500964599609375,0.0023567108437418938,-0.033907756209373474,-0.004407802596688271
1733704782029931800,8.510931884765625,-0.0007218814571388066,-0.027767576277256012,-0.006383107975125313
1733704782039898600,8.520898681640626,-0.004894522484391928,-0.023320630192756653,-0.003518345532938838
1733704782049865700,8.53086572265625,-0.007928906008601189,-0.021093441173434258,-0.007424975745379925
1733704782059831600,8.54083154296875,-0.006213297136127949,-0.019319774582982063,-0.006807388737797737
1733704782069798700,8.550798583984376,-0.003534645074978471,-0.01567898690700531,-0.010159322060644627
1733704782079765800,8.560765869140624,-0.0031647321302443743,-0.017892606556415558,-0.009106574580073357
1733704782089731600,8.570731689453124,-0.0036235947627574205,-0.023298557847738266,-0.0077028218656778336
1733704782099698700,8.58069873046875,-0.0021005328744649887,-0.029691476374864578,-0.005555515177547932
1733704782109665500,8.59066552734375,0.0028735643718391657,-0.03793788701295853,-0.00932068470865488
1733704782119632000,8.6006318359375,0.00046366985770873725,-0.05166754871606827,-0.010765183717012405
1733704782129599000,8.610598876953125,0.0004953885218128562,-0.0668242946267128,-0.010329864919185638
1733704782139565800,8.62056591796875,0.00014757964527234435,-0.08465602248907089,-0.008131425827741623
1733704782149532700,8.63053271484375,-0.0016057176981121302,-0.09948679804801941,-0.003907284699380398
1733704782159498800,8.640498779296875,-0.0007284724269993603,-0.10318486392498016,0.0045423926785588264
1733704782169465900,8.6504658203125,-0.000151917920447886,-0.0948684886097908,0.008851893246173859
1733704782179432700,8.6604326171875,0.0006353125208988786,-0.08013428747653961,0.00951661728322506
1733704782189398800,8.670398681640625,-0.002056700177490711,-0.05001039803028107,0.004273669794201851
1733704782199366000,8.680365966796876,-0.003949675243347883,-0.018168313428759575,0.0026608596090227365
1733704782209332700,8.690332763671876,-0.002797171473503113,0.004695774056017399,0.005884546786546707
1733704782219299800,8.7002998046875,-0.0044467332772910595,0.024672411382198334,0.006027026101946831
1733704782229265700,8.710265625,-0.005087524652481079,0.04153978079557419,0.006283163093030453
1733704782239232800,8.720232666015624,-0.0057061766274273396,0.04244019463658333,0.007584915496408939
1733704782249199600,8.73019970703125,-0.007593479938805103,0.03878714516758919,0.005313752684742212
1733704782259165700,8.740165771484374,-0.007706930860877037,0.02959444560110569,0.005308959167450666
1733704782269132800,8.7501328125,-0.010730615817010403,0.018589701503515244,0.002876575570553541
1733704782279099600,8.760099609375,-0.011113312095403671,0.015253826044499874,-0.0004752790555357933
1733704782289066800,8.770066650390625,-0.011058075353503227,0.011530263349413872,-0.0012329386081546545
1733704782299032600,8.780032470703125,-0.010538492351770401,0.01428290642797947,-0.0026489414740353823
1733704782308999700,8.789999755859375,-0.009508335962891579,0.01777014508843422,-0.002910872921347618
1733704782318966500,8.799966552734375,-0.0069450438022613525,0.018085729330778122,-0.002858674619346857
1733704782328932900,8.809932861328125,-0.009147590957581997,0.024090558290481567,-0.003476800164207816
1733704782338900000,8.81989990234375,-0.011720736511051655,0.028221655637025833,-0.003483458189293742
1733704782348866800,8.82986669921875,-0.010360809974372387,0.030207935720682144,0.00001606205478310585
1733704782358833700,8.839833740234376,-0.010545900091528893,0.030748290941119194,-0.002744570840150118
1733704782368799700,8.8497998046875,-0.008887885138392448,0.030824454501271248,-0.007788070477545261
1733704782378766800,8.859766845703126,-0.005971990060061216,0.026737036183476448,-0.006385383196175098
1733704782388733700,8.869733642578124,-0.001196588622406125,0.02322615310549736,-0.007002592086791992
1733704782398699800,8.87969970703125,-0.0012977889273315668,0.014779938384890556,-0.004214795306324959
1733704782408667000,8.8896669921875,0.003205282846465707,0.011189112439751625,-0.0007208127062767744
1733704782418633700,8.8996337890625,0.006280701141804457,0.005634024739265442,0.0025695227086544037
1733704782428600800,8.909600830078125,0.006609268020838499,0.001285911537706852,0.004815484397113323
1733704782438566700,8.919566650390625,0.007292901631444693,-0.0028105629608035088,0.0065492019057273865
1733704782448533800,8.92953369140625,0.0066365888342261314,0.0011826269328594208,0.009775283746421337
1733704782458500600,8.93950048828125,0.006324999034404755,0.0009208386763930321,0.009563562460243702
1733704782468466700,8.949466796875,0.0075387111864984035,-0.0023498358204960823,0.008612353354692459
1733704782478433800,8.959433837890625,0.008598383516073227,-0.008853008970618248,0.009323417209088802
1733704782488400600,8.969400634765625,0.008683937601745129,-0.01935388334095478,0.010710273869335651
1733704782498367700,8.97936767578125,0.006233563181012869,-0.023778192698955536,0.010792565532028675
1733704782508333600,8.98933349609375,0.007197871338576078,-0.023734239861369133,0.007044471800327301
1733704782518300700,8.99930078125,0.003183688735589385,-0.02123832516372204,0.006473223678767681
1733704782528267500,9.009267578125,-0.00019677227828651667,-0.015097828581929207,0.007744812406599522
1733704782538233900,9.01923388671875,-0.00149213382974267,-0.005510713905096054,0.009526466950774193
1733704782548201000,9.029200927734376,-0.004803708754479885,0.006339525803923607,0.008513282984495163
1733704782558167800,9.039167724609374,-0.004887331742793322,0.018980219960212708,0.012029987759888172
1733704782568135000,9.049135009765624,-0.005818923469632864,0.02933630906045437,0.013775660656392574
1733704782578100700,9.059100830078124,-0.005511594470590353,0.03763365373015404,0.0145266717299819
1733704782588067600,9.069067626953125,-0.0041218046098947525,0.0354900099337101,0.016106456518173218
1733704782598034700,9.07903466796875,-0.004442183300852776,0.03524872660636902,0.019450053572654724
1733704782608000500,9.08900048828125,-0.0090657202526927,0.032850444316864014,0.015169657766819
1733704782617967600,9.098967529296875,-0.006700300611555576,0.018777770921587944,0.009115761145949364
1733704782627934500,9.1089345703125,-0.00973399356007576,0.014419126324355602,0.00127177604008466
1733704782637901600,9.118901611328125,-0.015403597615659237,0.01684579811990261,-0.006152850575745106
1733704782647867600,9.12886767578125,-0.019281450659036636,0.013058681041002274,-0.007187116891145706
1733704782657834500,9.13883447265625,-0.021362178027629852,0.012248281389474869,-0.005358589813113213
1733704782667801600,9.148801513671875,-0.02094111032783985,0.007871633395552635,-0.0019625662826001644
1733704782677767400,9.158767333984375,-0.018202049657702446,-0.0012752600014209747,-0.002326620277017355
1733704782687734500,9.168734619140626,-0.011878926306962967,-0.010773267596960068,-0.0015856297686696053
1733704782697701400,9.178701416015626,-0.00739868963137269,-0.014426060020923615,0.0009411772480234504
1733704782707668500,9.18866845703125,-0.004442095290869474,-0.010842904448509216,0.0047995829954743385
1733704782717634600,9.198634521484376,0.0007430792320519686,-0.0109837856143713,0.008336793631315231
1733704782727601400,9.208601318359374,0.0058757234364748,-0.015700863674283028,0.009131127968430519
1733704782737568500,9.218568603515624,0.012443877756595612,-0.03604288399219513,0.00844163540750742
1733704782747534600,9.22853466796875,0.015540046617388725,-0.04476606100797653,0.0008697754237800837
1733704782757501700,9.238501708984375,0.018658341839909554,-0.042373210191726685,-0.0014399841893464327
1733704782767468800,9.24846875,0.01660098321735859,-0.032686997205019,-0.006151264533400536
1733704782777435600,9.258435546875,0.01805879734456539,-0.019241230562329292,-0.0038801205810159445
1733704782787401700,9.268401611328125,0.013756887055933475,-0.0006868299096822739,-0.002475176239386201
1733704782797368600,9.27836865234375,0.005609744228422642,0.015146727673709393,-0.001669570105150342
1733704782807335700,9.288335693359375,-0.00009296805365011096,0.02813686430454254,0.003646519035100937
1733704782817301500,9.298301513671875,-0.005277077201753855,0.03578413277864456,0.005576778203248978
1733704782827268600,9.3082685546875,-0.004119364079087973,0.03929431736469269,0.004556248430162668
1733704782837235700,9.318235595703126,-0.005595021415501833,0.03962162137031555,0.0014576604589819908
1733704782847202600,9.32820263671875,0.0010232701897621155,0.0325467512011528,-0.0027937283739447594
1733704782857168600,9.338168701171876,0.0022946633398532867,0.025051016360521317,-0.004000939428806305
1733704782867135500,9.348135498046876,0.002537831198424101,0.018696438521146774,-0.003572475165128708
1733704782877102600,9.3581025390625,0.0032379762269556522,0.013500078581273556,-0.0015977411530911922
1733704782887068400,9.368068359375,0.004116217140108347,0.005892142653465271,-0.0033038442488759756
1733704782897035500,9.378035400390624,0.002098872559145093,0.0036705336533486843,-0.0028021049220114946
1733704782907002600,9.388002685546875,0.0012151551200076938,0.003942587878555059,-0.003875807859003544
1733704782916969500,9.397969482421875,0.000013004231732338667,0.006828655488789082,-0.005054789129644632
1733704782926935600,9.407935546875,-0.0008373282616958022,0.012400137260556221,-0.005482193548232317
1733704782936902400,9.41790234375,-0.0011792781297117472,0.017949100583791733,-0.004365263506770134
1733704782946869500,9.427869384765625,-0.0032430514693260193,0.017333567142486572,-0.002538380678743124
1733704782956835600,9.437835693359375,-0.0026465035043656826,0.018992450088262558,-0.0026776641607284546
1733704782966802700,9.447802734375,-0.0022610900923609734,0.011923023499548435,-0.003476561512798071
1733704782976769800,9.457769775390625,-0.00010259804548695683,-0.0010159444063901901,-0.002950853668153286
1733704782986736600,9.467736572265625,-0.0010394181590527296,-0.012359289452433586,-0.0026372161228209734
1733704782996702700,9.47770263671875,-0.001535299001261592,-0.018368979915976524,-0.0005130786448717117
1733704783006669600,9.487669677734376,-0.0013851337134838104,-0.023823805153369904,0.0025479651521891356
1733704783016636700,9.49763671875,0.0021078684367239475,-0.028408702462911606,0.008850868791341782
1733704783026602500,9.5076025390625,0.004326983820647001,-0.03311309218406677,0.011260787956416607
1733704783036569600,9.517569580078124,0.004961614962667227,-0.03312188386917114,0.009112948551774025
1733704783046536700,9.52753662109375,0.008107149973511696,-0.0268560703843832,0.00412166491150856
1733704783056503600,9.537503662109375,0.003372848266735673,-0.023166527971625328,0.0012827352620661259
1733704783066469600,9.5474697265625,-0.002390283392742276,-0.016877828165888786,0.0006000499706715345
1733704783076436500,9.5574365234375,-0.0050856685265898705,-0.010735780000686646,0.002252275124192238
1733704783086403600,9.567403564453125,-0.006942136213183403,-0.0063953697681427,0.005170261953026056
1733704783096369400,9.577369384765625,-0.005788188427686691,-0.0013856971636414528,0.006156430579721928
1733704783106336500,9.58733642578125,-0.0037404184695333242,0.00842802319675684,0.0032167169265449047
1733704783116303600,9.5973037109375,0.003547055646777153,0.02037842571735382,-0.005648946389555931
1733704783126270500,9.6072705078125,0.005329515784978867,0.02937043271958828,-0.008139604702591896
1733704783136236500,9.617236572265625,0.005942042451351881,0.03473270684480667,-0.003537662560120225
1733704783146203400,9.627203369140625,0.0033605038188397884,0.03231743350625038,0.0018233166774734855
1733704783156170500,9.63717041015625,-0.00029947864823043346,0.02682785876095295,-0.002752792788669467
1733704783166136600,9.647136474609376,-0.003222699975594878,0.025026706978678703,-0.010317468084394932
1733704783176103700,9.657103759765626,-0.007601202465593815,0.027132468298077583,-0.01635698415338993
1733704783186070800,9.66707080078125,-0.009424533694982529,0.032655954360961914,-0.017951326444745064
1733704783196037600,9.67703759765625,-0.006865768693387508,0.03172890841960907,-0.014731032773852348
1733704783206003700,9.687003662109374,-0.006911267526447773,0.026463139802217484,-0.008114546537399292
1733704783215970600,9.696970458984374,-0.004403634928166866,0.013469576835632324,-0.0006222757510840893
1733704783225937700,9.706937744140625,-0.0041159894317388535,0.005256226286292076,0.0031691626645624638
1733704783235903500,9.716903564453125,-0.0031551208812743425,-0.0037079742178320885,0.003337208181619644
1733704783245870600,9.72687060546875,-0.00805449578911066,-0.010497035458683968,0.0015797741943970323
1733704783255837700,9.736837646484375,-0.008632401004433632,-0.011403575539588928,0.0034660911187529564
1733704783265804500,9.746804443359375,-0.007626325823366642,-0.01122618094086647,0.002519455272704363
1733704783275770600,9.7567705078125,-0.003966609947383404,-0.010797679424285889,0.0024789751041680574
1733704783285737500,9.766737548828125,-0.0010428319219499826,-0.012509133666753769,0.001112634432502091
1733704783295704600,9.77670458984375,0.0007843628991395235,-0.014831144362688065,-0.00032573891803622246
1733704783305670400,9.78667041015625,0.0019323810702189803,-0.01848987676203251,0.002224423224106431
1733704783315637500,9.796637451171875,0.0021712665911763906,-0.017848854884505272,0.008600031025707722
1733704783325604600,9.8066044921875,0.005563068203628063,-0.018650315701961517,0.00892526563256979
1733704783335571500,9.816571533203126,0.003803784027695656,-0.01565532386302948,0.0036660549230873585
1733704783345537500,9.82653759765625,0.005853485316038132,-0.011348133906722069,-0.0007074186578392982
1733704783355504600,9.836504638671874,0.0009087944054044783,-0.01094040460884571,-0.00047279405407607555
1733704783365471500,9.846471435546874,-0.0016725828172639012,-0.012077471241354942,0.0010965015972033143
1733704783375437600,9.8564375,0.0001298445276916027,-0.019248299300670624,0.005553301423788071
1733704783385404700,9.86640478515625,0.0025811493396759033,-0.027997370809316635,0.0058494796976447105
1733704783395371800,9.876371826171875,0.007370311766862869,-0.03897838294506073,0.00650594849139452
1733704783405338600,9.886338623046875,0.01046446431428194,-0.0565679557621479,0.007526781409978867
1733704783415304700,9.8963046875,0.009149927645921707,-0.07065314054489136,0.01449973601847887
1733704783425271600,9.906271484375,0.009310491383075714,-0.07353372126817703,0.021553756669163704
1733704783435238700,9.91623876953125,0.008129378780722618,-0.07455051690340042,0.025598298758268356
1733704783445204500,9.92620458984375,0.017737386748194695,-0.053996600210666656,0.024715393781661987
1733704783455171600,9.936171630859375,0.028153808787465096,-0.0025491267442703247,0.009230178780853748
1733704783465138700,9.946138671875,0.02933875471353531,0.06596490740776062,0.0006884313188493252
1733704783475105500,9.95610546875,0.02037615142762661,0.14973171055316925,0.006779613438993692
1733704783485071600,9.966071533203126,0.010654069483280182,0.22556504607200623,0.019040655344724655
1733704783495038500,9.97603857421875,0.019115999341011047,0.2675819993019104,0.01937887631356716
1733704783505005600,9.986005615234374,0.03354813903570175,0.2722111940383911,0.017071735113859177
1733704783514972700,9.99597265625,0.04977824166417122,0.2453489452600479,0.020314665511250496
1733704783524938500,10.0059384765625,0.05331290513277054,0.19292894005775452,0.032837387174367905
1733704783534905600,10.015905517578124,0.04163734242320061,0.15730063617229462,0.04762298986315727
1733704783544872400,10.02587255859375,0.025714056566357613,0.14371584355831146,0.04912497475743294
1733704783554838800,10.0358388671875,0.01612667553126812,0.13979779183864594,0.025172505527734756
1733704783564805600,10.0458056640625,0.009895389899611473,0.12670916318893433,-0.011374549008905888
1733704783574773200,10.055773193359375,-0.003969026729464531,0.11190546303987503,-0.04884788766503334
1733704783584739300,10.0657392578125,-0.03099181316792965,0.09095275402069092,-0.07725510746240616
1733704783594706200,10.0757060546875,-0.06287384033203125,0.07911872863769531,-0.09060020744800568
1733704783604673000,10.085673095703125,-0.08128087967634201,0.0810740515589714,-0.09950196743011475
1733704783614640000,10.09564013671875,-0.0796307846903801,0.10149037837982178,-0.10370390117168427
1733704783624606200,10.105606201171875,-0.06400588154792786,0.1217309832572937,-0.09670782089233398
1733704783634573300,10.1155732421875,-0.041568487882614136,0.12930795550346375,-0.07665741443634033
1733704783644540400,10.12554052734375,-0.024952517822384834,0.11941127479076385,-0.04520563781261444
1733704783654507300,10.13550732421875,-0.011500359512865543,0.09481964260339737,-0.015044272877275944
1733704783664473300,10.145473388671874,-0.0041586002334952354,0.06768231838941574,0.007714912295341492
1733704783674440200,10.155440185546874,0.011326615698635578,0.03555687516927719,0.022310366854071617
1733704783684407300,10.1654072265625,0.025878597050905228,-0.006067240610718727,0.03552641719579697
1733704783694373000,10.175373046875,0.035188473761081696,-0.04482555389404297,0.049837447702884674
1733704783704340200,10.18534033203125,0.03532593324780464,-0.09574346244335175,0.06606460362672806
1733704783714307300,10.195307373046875,0.03050188533961773,-0.1451067477464676,0.0763140469789505
1733704783724274200,10.205274169921875,0.02258395589888096,-0.18577732145786285,0.07851897180080414
1733704783734240300,10.215240234375,0.007662264164537191,-0.20690764486789703,0.07259929925203323
1733704783744207000,10.22520703125,0.0008582626469433308,-0.20730610191822052,0.056899234652519226
1733704783754174200,10.23517431640625,0.0022500306367874146,-0.1810755580663681,0.034393660724163055
1733704783764140000,10.24514013671875,0.007294215727597475,-0.1312752068042755,0.01107734628021717
1733704783774107100,10.255107177734375,0.009450044482946396,-0.06976337730884552,-0.012013325467705727
1733704783784074200,10.26507421875,0.010469897650182247,-0.00886264443397522,-0.026243295520544052
1733704783794041000,10.275041015625,0.00934045109897852,0.037612978368997574,-0.0298960879445076
1733704783804007200,10.285007080078126,0.011288441717624664,0.06479378044605255,-0.026795972138643265
1733704783813974000,10.29497412109375,0.013032013550400734,0.07116246223449707,-0.01833830401301384
1733704783823941000,10.304941162109374,0.013848383910953999,0.05751637741923332,-0.01082199439406395
1733704783833907200,10.3149072265625,0.013739194720983505,0.026416782289743423,-0.0008399346843361855
1733704783843874300,10.324874267578124,0.015784412622451782,-0.010380607098340988,0.0027285919059067965
1733704783853841400,10.33484130859375,0.014652836136519909,-0.04761292785406113,0.0014899556990712881
1733704783863808300,10.344808349609375,0.012405971065163612,-0.08590094745159149,-0.003043355653062463
1733704783873774300,10.3547744140625,0.007841845974326134,-0.11549559235572815,-0.004383191466331482
1733704783883741200,10.3647412109375,0.00016244169091805816,-0.1321624219417572,-0.009014759212732315
1733704783893708300,10.374708251953125,-0.002985680941492319,-0.13295391201972961,-0.0131908617913723
1733704783903674000,10.384674072265625,-0.005015959031879902,-0.11816607415676117,-0.011127863079309464
1733704783913641200,10.39464111328125,-0.0032324399799108505,-0.09482826292514801,-0.010330512188374996
1733704783923608300,10.4046083984375,-0.0035956730134785175,-0.06547703593969345,-0.007510797120630741
1733704783933575200,10.4145751953125,-0.0027634352445602417,-0.0325438529253006,-0.0018230832647532225
1733704783943541200,10.424541259765626,-0.002828996628522873,-0.006884390488266945,0.0056866430677473545
1733704783953508000,10.434508056640626,-0.002016732469201088,0.013240051455795765,0.008420644327998161
1733704783963475200,10.44447509765625,-0.004072803072631359,0.025426190346479416,0.002705695340409875
1733704783973441000,10.45444091796875,-0.0021622509229928255,0.029168197885155678,-0.009020735509693623
1733704783983408000,10.464408203125,0.0008243498159572482,0.03327340632677078,-0.01894390769302845
1733704783993375200,10.474375244140624,0.004377539269626141,0.03223130851984024,-0.031146513298153877
1733704784003342000,10.484342041015625,0.010906707495450974,0.029473762959241867,-0.035819701850414276
1733704784013308200,10.49430810546875,0.016331300139427185,0.0197425726801157,-0.04479349032044411
1733704784023275300,10.504275146484375,0.017665162682533264,0.00974420364946127,-0.04829874262213707
1733704784033242000,10.5142421875,0.01703878678381443,-0.0010679634287953377,-0.04837890341877937
1733704784043208200,10.524208251953125,0.011611315421760082,-0.011317584663629532,-0.037441451102495193
1733704784053175300,10.53417529296875,0.006053032353520393,-0.020074857398867607,-0.020787641406059265
1733704784063142400,10.544142333984375,0.0022028926759958267,-0.02819041535258293,-0.00463256798684597
1733704784073109200,10.554109130859375,-0.0009649373823776841,-0.036814529448747635,0.007018495351076126
1733704784083075300,10.564075439453125,0.001639324240386486,-0.04064386710524559,0.014724429696798325
1733704784093042200,10.574042236328125,-0.0014004077529534698,-0.04275389015674591,0.01764352060854435
1733704784103009300,10.58400927734375,0.0027125347405672073,-0.04172775521874428,0.016471806913614273
1733704784112976400,10.593976318359376,0.004475813824683428,-0.04006088525056839,0.01729552261531353
1733704784122942200,10.603942138671876,0.003330985549837351,-0.03483552485704422,0.017139345407485962
1733704784132909300,10.613909423828124,0.004468954633921385,-0.03248555213212967,0.014590168371796608
1733704784142876200,10.623876220703124,0.005437677726149559,-0.035356491804122925,0.013250631280243397
1733704784152842200,10.63384228515625,0.0017254974227398634,-0.032698921859264374,0.013901508413255215
1733704784162809000,10.64380908203125,-0.0018003273289650679,-0.022647596895694733,0.009592363610863686
1733704784172776200,10.653776123046875,-0.004192378371953964,-0.016720198094844818,0.006014140322804451
1733704784182743300,10.663743408203125,-0.0009740573586896062,-0.00933280773460865,0.008336343802511692
1733704784192709000,10.673709228515625,0.002378595992922783,-0.004466148093342781,0.0023740583565086126
1733704784202676200,10.68367626953125,0.004550274461507797,0.0002628816291689873,0.0009356492664664984
1733704784212643000,10.69364306640625,0.0036506587639451027,0.009670231491327286,-0.0031246060971170664
1733704784222609400,10.703609375,0.0011111071798950434,0.009130431339144707,-0.004294478800147772
1733704784232576300,10.713576171875,-0.003970470745116472,0.00035478267818689346,-0.005093160551041365
1733704784242543000,10.723543212890625,-0.004228505305945873,-0.013472134247422218,-0.01082977931946516
1733704784252510200,10.73351025390625,-0.004841298796236515,-0.030778421089053154,-0.01596115715801716
1733704784262476300,10.743476318359376,-0.004728242754936218,-0.04829823970794678,-0.018005704507231712
1733704784272443400,10.753443359375,-0.0037916088476777077,-0.06065290421247482,-0.016326313838362694
1733704784282410200,10.76341015625,-0.002408053958788514,-0.06552012264728546,-0.011099403724074364
1733704784292376300,10.773376220703126,-0.0019896712619811296,-0.06669777631759644,-0.006349655799567699
1733704784302343200,10.78334326171875,0.0010368522489443421,-0.06403331458568573,0.0010984813561663032
1733704784312310300,10.793310302734374,0.0021324767731130123,-0.05595195293426514,0.006051694508641958
1733704784322277400,10.80327734375,0.0033503929153084755,-0.046046510338783264,0.006946099456399679
1733704784332243200,10.8132431640625,0.0020169480703771114,-0.029501089826226234,0.005391079932451248
1733704784342210300,10.823210205078125,0.0019637844525277615,-0.014075145125389099,0.009854152798652649
1733704784352177200,10.83317724609375,-0.000554234255105257,-0.003938355483114719,0.011295987293124199
1733704784362143200,10.843143310546875,0.0008253708947449923,-0.00304277241230011,0.01211688481271267
1733704784372110000,10.853110107421875,0.0008956783567555249,-0.01236889511346817,0.010900086723268032
1733704784382077200,10.8630771484375,0.003557448275387287,-0.025758597999811172,0.012067129835486412
1733704784392044300,10.873044189453125,0.002349172020331025,-0.03930610045790672,0.011379501782357693
1733704784402010000,10.883010009765625,0.00342373619787395,-0.05074117332696915,0.00878029502928257
1733704784411977200,10.892977294921875,0.0016727077309042215,-0.050429318100214005,0.007323279045522213
1733704784421944000,10.902944091796876,0.0020301896147429943,-0.04886367917060852,0.00617210753262043
1733704784431910400,10.912910400390626,0.0002392138703726232,-0.045095041394233704,0.0055750273168087006
1733704784441877200,10.922877197265626,0.00041830845293588936,-0.03977782651782036,0.006659235805273056
1733704784451844000,10.932843994140624,0.0012004788732156157,-0.03285307437181473,0.009819076396524906
1733704784461811200,10.942811279296874,0.00016133399913087487,-0.02265648916363716,0.009527219459414482
1733704784471777300,10.95277734375,-0.0021209949627518654,-0.016778891906142235,0.005890405736863613
1733704784481744400,10.962744384765625,-0.002752674277871847,-0.008004050701856613,-0.00008123926818370819
1733704784491711200,10.972711181640625,-0.0038664082530885935,-0.0006428081542253494,-0.0015931159723550081
1733704784501678300,10.98267822265625,-0.004050209186971188,0.0016798675060272217,-0.0029566402081400156
1733704784511644200,10.99264404296875,-0.002443258184939623,0.0005853082984685898,-0.004161188378930092
1733704784521611300,11.002611328125,-0.003998832777142525,-0.0030690720304846764,-0.004061280749738216
1733704784531578400,11.012578369140625,-0.0045378562062978745,-0.01076321117579937,0.002196881454437971
1733704784541544200,11.022544189453125,-0.005136311985552311,-0.01348946988582611,0.0024209299590438604
1733704784551511300,11.03251123046875,-0.0022427872754633427,-0.01138290949165821,0.00344891007989645
1733704784561478100,11.04247802734375,-0.0006960883620195091,-0.01113574206829071,0.0017693699337542057
1733704784571445200,11.0524453125,0.0028499106410890818,-0.005442436784505844,0.0016154393088072538
1733704784581410600,11.06241064453125,-0.0003419093554839492,0.0038245744071900845,0.0011646045604720712
1733704784591377700,11.072377685546876,-0.0025086570531129837,0.007097599096596241,0.00036752037703990936
1733704784601344500,11.082344482421876,-0.0037788681220263243,0.013882063329219818,0.0017611533403396606
1733704784611310800,11.092310791015626,-0.0027178649324923754,0.017949510365724564,0.00515668373554945
1733704784621277700,11.102277587890624,-0.0005967524484731257,0.012730974704027176,0.011771670542657375
1733704784631244500,11.11224462890625,-0.002057496225461364,0.004295944236218929,0.015762150287628174
1733704784641211600,11.122211669921874,-0.0013309859205037355,-0.0038914112374186516,0.016476677730679512
1733704784651177700,11.132177734375,-0.0006316397921182215,-0.013083046302199364,0.012792459689080715
1733704784661144800,11.142144775390625,-0.004558408632874489,-0.014442460611462593,0.00918302871286869
1733704784671111700,11.152111572265625,-0.007129691541194916,-0.00738242082297802,0.004961386322975159
1733704784681077800,11.162077880859375,-0.010675822384655476,-0.003250204026699066,0.002762648044154048
1733704784691044900,11.172044921875,-0.01359278243035078,0.0018950225785374641,-0.0002789483405649662
1733704784701011700,11.18201171875,-0.011192919686436653,0.009970755316317081,-0.0027949921786785126
1733704784710978800,11.191978759765625,-0.005071644671261311,0.015787631273269653,-0.006189457140862942
1733704784720944600,11.201944580078125,-0.0012973682023584843,0.018409494310617447,-0.004894972778856754
1733704784730911700,11.211911865234375,0.0025306595489382744,0.021219663321971893,0.0008028601296246052
1733704784740878600,11.221878662109376,0.0028757541440427303,0.02005983144044876,0.004740849137306213
1733704784750844700,11.2318447265625,0.0036861540284007788,0.0139209795743227,0.010213112458586693
1733704784760811800,11.241811767578126,0.00628542760387063,0.007346999831497669,0.0157842468470335
1733704784770778600,11.251778564453126,0.002252070466056466,-0.002860098145902157,0.019897764548659325
1733704784780745700,11.261745849609374,0.0035427578259259462,-0.012652367353439331,0.017978625372052193
1733704784790711600,11.271711669921874,0.0039377049542963505,-0.020457826554775238,0.010098863393068314
1733704784800678700,11.2816787109375,0.007134865969419479,-0.028211748227477074,0.00975903868675232
1733704784810645500,11.2916455078125,0.006648040376603603,-0.02999047376215458,0.013760438188910484
1733704784820611800,11.30161181640625,0.00725158303976059,-0.029138443991541862,0.015161873772740364
1733704784830578700,11.31157861328125,0.00791151449084282,-0.0189643707126379,0.009886418469250202
1733704784840545500,11.321545654296875,0.002160191535949707,-0.004952277056872845,0.00819636695086956
1733704784850512600,11.3315126953125,-0.00007020594784989953,0.005780528299510479,0.011794297955930233
1733704784860478700,11.341478759765625,-0.0031731377821415663,0.004086638800799847,0.012236202135682106
1733704784870445800,11.35144580078125,-0.0003746879519894719,0.006412110757082701,0.008575154468417168
1733704784880412700,11.36141259765625,-0.003098792163655162,0.011319765821099281,0.004117479082196951
1733704784890378800,11.371378662109375,-0.005964886397123337,0.010813498869538307,0.0012665651738643646
1733704784900345900,11.381345947265626,-0.007006395608186722,0.009408768266439438,-0.0009040625300258398
1733704784910312700,11.391312744140626,-0.00889191310852766,0.0050116232596337795,-0.0027658785693347454
1733704784920279800,11.40127978515625,-0.010990673676133156,-0.0014789076521992683,-0.0009994832798838615
1733704784930245600,11.41124560546875,-0.010005570948123932,-0.003209163434803486,0.0018801928963512182
1733704784940212700,11.421212646484374,-0.007594723720103502,-0.00406117457896471,0.0026455793995410204
1733704784950179800,11.431179931640624,-0.006810156162828207,-0.006222330033779144,0.0041257645934820175
1733704784960146700,11.441146728515625,-0.005008882377296686,-0.005782186985015869,0.005217080004513264
1733704784970112800,11.45111279296875,-0.0005526146851480007,0.0023862607777118683,0.003700409783050418
1733704784980079600,11.46107958984375,0.0025898064486682415,0.011932789348065853,-0.0028785327449440956
1733704784990046700,11.471046630859375,0.004933122079819441,0.026220915839076042,-0.007488730363547802
1733704785000012500,11.481012451171875,0.005772197153419256,0.037220872938632965,-0.008912302553653717
1733704785009979600,11.490979736328125,0.00474075460806489,0.04229925572872162,-0.009045194834470749
1733704785019946800,11.50094677734375,0.003878265153616667,0.04587157070636749,-0.009488803334534168
1733704785029913600,11.51091357421875,0.002388759283348918,0.041790008544921875,-0.009759912267327309
1733704785039879700,11.520879638671875,-0.0004583164700306952,0.035917431116104126,-0.011856280267238617
1733704785049846500,11.530846435546875,-0.0019020161125808954,0.029414255172014236,-0.012445371598005295
1733704785059813600,11.540813720703126,-0.003665332216769457,0.0198240727186203,-0.010663710534572601
1733704785069779700,11.55077978515625,-0.0016961910296231508,0.012589063495397568,-0.009434129111468792
1733704785079746800,11.560746826171876,-0.00014559534611180425,0.006883885245770216,-0.009380723349750042
1733704785089714000,11.5707138671875,-0.0003240271471440792,0.000024913810193538666,-0.005654161795973778
1733704785099680800,11.5806806640625,0.0017864620313048363,-0.007769331336021423,0.000011563999578356743
1733704785109646800,11.590646728515624,-0.0010636530350893736,-0.017306378111243248,0.0019708515610545874
1733704785119613700,11.60061376953125,0.0012854337692260742,-0.026899047195911407,0.006151903420686722
1733704785129580800,11.610580810546875,0.000763986783567816,-0.03793944790959358,0.005310078151524067
1733704785139546600,11.620546630859375,0.002257242798805237,-0.042911313474178314,0.0021110500674694777
1733704785149513700,11.630513671875,0.001681467518210411,-0.048809684813022614,0.004201897885650396
1733704785159480800,11.640480712890625,0.0032567710150033236,-0.04744323343038559,0.007301206700503826
1733704785169447700,11.65044775390625,0.005704482086002827,-0.04363997280597687,0.009282865561544895
1733704785179413800,11.660413818359375,0.005827142391353846,-0.032829202711582184,0.009161684662103653
1733704785189380600,11.670380615234375,0.006714773830026388,-0.02667410485446453,0.009740123525261879
1733704785199347700,11.68034765625,0.0032251717057079077,-0.020768404006958008,0.012321308255195618
1733704785209313500,11.6903134765625,0.0018917269771918654,-0.020160403102636337,0.01182303112000227
1733704785219280600,11.70028076171875,-0.0011413955362513661,-0.01704379916191101,0.010001308284699917
1733704785229247700,11.710247802734376,-0.0013195609208196402,-0.013042932376265526,0.008761074393987656
1733704785239214600,11.720214599609376,-0.0037872018292546272,-0.0055853016674518585,0.008823581039905548
1733704785249180700,11.7301806640625,-0.0010156501084566116,0.004157873336225748,0.007240863982588053
1733704785259147500,11.7401474609375,0.0003256304480601102,0.012270459905266762,-0.0010048095136880875
1733704785269114600,11.750114501953124,0.0019698659889400005,0.021965963765978813,-0.003672231687232852
1733704785279080700,11.760080810546874,0.0023708080407232046,0.026566095650196075,-0.007178851403295994
1733704785289047800,11.7700478515625,-0.000031096977181732655,0.027831897139549255,-0.009780759923160076
1733704785299015000,11.780014892578125,-0.0003504744381643832,0.02697092480957508,-0.012028618715703487
