time,seconds_elapsed,z,y,x
1733704404672027600,0.018027587890625,-0.03198155388236046,-0.059370607137680054,0.0076089706271886826
1733704404681994800,0.027994873046875,-0.029440101236104965,-0.032721154391765594,-0.002614105585962534
1733704404691961600,0.037961669921875,-0.009563276544213295,0.0009273206815123558,0.0037496916484087706
1733704404701927700,0.047927734375,0.006615160033106804,0.006395323202013969,0.023290103301405907
1733704404711894500,0.05789453125,0.017748616635799408,0.016483046114444733,0.027636731043457985
1733704404721861600,0.067861572265625,0.01914038509130478,0.02869071066379547,0.012814374640583992
1733704404731827500,0.077827392578125,0.037703339010477066,0.048133380711078644,0.0077746594324707985
1733704404741794600,0.087794677734375,0.035956040024757385,0.05655403062701225,0.007012196350842714
1733704404751761700,0.09776171875,0.0234109815210104,0.04163019359111786,0.005264849402010441
1733704404761727500,0.1077275390625,0.00762163195759058,0.02411431446671486,0.004730619490146637
1733704404771694600,0.117694580078125,0.0008212149259634316,0.0119820861145854,0.007324406877160072
1733704404781660700,0.12766064453125,0.0034476243890821934,0.010577800683677197,0.007557965815067291
1733704404791627500,0.13762744140625,0.005827309098094702,0.011119618080556393,0.0035093706101179123
1733704404801594600,0.1475947265625,0.004632881376892328,0.007246583234518766,-0.0008014880586415529
1733704404811560700,0.157560791015625,0.004030776675790548,0.00440139789134264,-0.004830739460885525
1733704404821527800,0.16752783203125,0.00037665339186787605,-0.013833265751600266,-0.0036541547160595655
1733704404831494700,0.17749462890625,-0.0000507039949297905,-0.018831752240657806,-0.0005127436015754938
1733704404841460700,0.187460693359375,-0.001545536331832409,-0.01572437584400177,-0.00014709169045090675
1733704404851427600,0.197427490234375,-0.0009465475450269878,-0.010236049070954323,-0.002651506569236517
1733704404861394700,0.207394775390625,-0.002214744919911027,-0.006080185994505882,-0.0008008759468793869
1733704404871360500,0.217360595703125,-0.0017851281445473433,-0.005563987419009209,0.0017784108640626073
1733704404881327600,0.22732763671875,-0.00055235082982108,-0.0022464869543910027,0.003977383021265268
1733704404891293400,0.23729345703125,0.0033142350148409605,0.0032907924614846706,0.004609978292137384
1733704404901260500,0.247260498046875,0.00314725493080914,0.010577467270195484,0.004115695599466562
1733704404911227600,0.2572275390625,0.002174914814531803,0.012744384817779064,0.004693538416177034
1733704404921193500,0.267193359375,0.0015282994136214256,0.0121502336114645,0.004263704176992178
1733704404931160600,0.27716064453125,0.0012611690908670425,0.0063638812862336636,0.0036857295781373978
1733704404941127400,0.28712744140625,0.005195457022637129,-0.0024053752422332764,0.004969906061887741
1733704404951093800,0.29709375,0.0074165896512568,-0.010432174429297447,0.0012757428921759129
1733704404961060600,0.307060546875,0.006685019005089998,-0.012232737615704536,0.0012981133768334985
1733704404971027700,0.31702783203125,0.00551715400069952,-0.010540947318077087,0.0004168146988376975
1733704404980993500,0.32699365234375,0.0024065817706286907,-0.008898042142391205,0.005371359642595053
1733704404990960600,0.336960693359375,0.00005192041862756014,-0.006239097565412521,0.00561256380751729
1733704405000926700,0.3469267578125,0.0011874922784045339,-0.00406942144036293,0.004679392091929913
1733704405010893600,0.3568935546875,-0.000025880523025989532,0.0004508327692747116,-0.001457992009818554
1733704405020860700,0.366860595703125,0.000053747964557260275,0.00391533924266696,-0.0035589595790952444
1733704405030826500,0.376826416015625,-0.00028590235160663724,0.005325118079781532,-0.0024175408761948347
1733704405040793600,0.386793701171875,0.0005423408001661301,-0.0008957600221037865,0.00023070629686117172
1733704405050760400,0.396760498046875,0.004739692434668541,-0.009399998933076859,0.0036883815191686153
1733704405060726500,0.4067265625,0.005007073748856783,-0.011483389884233475,0.0014414724428206682
1733704405070693600,0.416693603515625,0.002614356344565749,-0.010929955169558525,0.00028553721494972706
1733704405080660500,0.426660400390625,0.000635094998870045,-0.008219122886657715,-0.001029531704261899
1733704405090626800,0.436626708984375,-0.0034502227790653706,-0.005533574149012566,-0.0002856636419892311
1733704405100593700,0.44659375,-0.005240133497864008,-0.0029527051374316216,-0.0013621135149151087
1733704405110559700,0.456559814453125,-0.005169206764549017,-0.0012786947190761566,0.0011871891329064965
1733704405120526600,0.466526611328125,-0.0019142914097756147,-0.0008177012205123901,0.003297211602330208
1733704405130493700,0.47649365234375,-0.0003013205714523792,0.0020350320264697075,0.001215496682561934
1733704405140459500,0.48645947265625,0.0016960501670837402,0.0009434027597308159,0.0010895291343331337
1733704405150426600,0.496426513671875,0.0005385667318478227,-0.002451070584356785,0.004089093301445246
1733704405160393700,0.506393798828125,0.004489632323384285,-0.010294878855347633,0.005664353258907795
1733704405170359600,0.516359619140625,0.0066293468698859215,-0.01551523245871067,0.001746171386912465
1733704405180326700,0.52632666015625,0.009129522368311882,-0.011236332356929779,-0.004437688738107681
1733704405190293500,0.53629345703125,0.007755502127110958,-0.009054506197571754,-0.004073649644851685
1733704405200259600,0.546259521484375,0.005212716292589903,-0.009245987981557846,-0.001665353076532483
1733704405210226400,0.556226318359375,-0.0006351750926114619,-0.011397108435630798,-0.000867439666762948
1733704405220192800,0.56619287109375,-0.00679826270788908,-0.018887516111135483,-0.004190798383206129
1733704405230159600,0.57615966796875,-0.01314640324562788,-0.021136682480573654,-0.004721987992525101
1733704405240126500,0.58612646484375,-0.018997101113200188,-0.024225417524576187,-0.006769692525267601
1733704405250092300,0.59609228515625,-0.01831524632871151,-0.03179497271776199,-0.010315833613276482
1733704405260059400,0.606059326171875,-0.015324249863624573,-0.04285800829529762,-0.015553737990558147
1733704405270026200,0.616026123046875,-0.008639315143227577,-0.04487059265375137,-0.020437853410840034
1733704405279992300,0.625992431640625,-0.004625398200005293,-0.039280351251363754,-0.022170506417751312
1733704405289959400,0.63595947265625,-0.0013522777007892728,-0.02814657986164093,-0.020963262766599655
1733704405299926300,0.64592626953125,-0.0019901045598089695,-0.021933957934379578,-0.014738391153514385
1733704405309892400,0.655892333984375,-0.0016843985067680478,-0.013081124052405357,-0.010079964995384216
1733704405319859200,0.665859130859375,-0.0028862832114100456,0.0031801373697817326,-0.010316187515854836
1733704405329825300,0.6758251953125,-0.0019393055699765682,0.02058323472738266,-0.011419638991355896
1733704405339792100,0.685792236328125,-0.005827254615724087,0.03520452231168747,-0.011128022335469723
1733704405349759200,0.69575927734375,-0.0069629233330488205,0.0411432683467865,-0.005930876359343529
1733704405359725300,0.705725341796875,-0.003799887141212821,0.045447736978530884,-0.009003897197544575
1733704405369692400,0.7156923828125,0.001083172159269452,0.05478271469473839,-0.011799231171607971
1733704405379659500,0.725659423828125,0.00010206364095211029,0.0662018209695816,-0.014565723016858101
1733704405389625300,0.735625244140625,-0.010861904360353947,0.0776403546333313,-0.019026784226298332
1733704405399592400,0.745592529296875,-0.02879110351204872,0.06895685940980911,-0.01805233396589756
1733704405409559300,0.755559326171875,-0.04456750303506851,0.060658346861600876,-0.018599892035126686
1733704405419525400,0.765525390625,-0.05545583739876747,0.05497835576534271,-0.02530546672642231
1733704405429492200,0.7754921875,-0.07069123536348343,0.04668382555246353,-0.039104752242565155
1733704405439458300,0.785458251953125,-0.0921267494559288,0.046454526484012604,-0.050643160939216614
1733704405449425200,0.795425048828125,-0.1277092695236206,0.024928580969572067,-0.05372166261076927
1733704405459392300,0.805392333984375,-0.17146633565425873,-0.0018074270337820053,-0.051563967019319534
1733704405469358000,0.815358154296875,-0.20634984970092773,-0.02558864839375019,-0.0472644679248333
1733704405479325200,0.8253251953125,-0.217072531580925,-0.027732761576771736,-0.050316184759140015
1733704405489292300,0.835292236328125,-0.1960793286561966,0.02514858916401863,-0.07445001602172852
1733704405499258400,0.84525830078125,-0.1504756212234497,0.1370498239994049,-0.1403195858001709
1733704405509225500,0.8552255859375,-0.10754382610321045,0.31451112031936646,-0.25866517424583435
1733704405519192300,0.8651923828125,-0.06807524710893631,0.6026782393455505,-0.4245974123477936
1733704405529158400,0.875158447265625,-0.03932006657123566,0.979529619216919,-0.6105701327323914
1733704405539125500,0.88512548828125,-0.03722149506211281,1.3535256385803223,-0.7800361514091492
1733704405549091300,0.89509130859375,-0.09211431443691254,1.6536506414413452,-0.8834367990493774
1733704405559058400,0.905058349609375,-0.2169284075498581,1.8292853832244873,-0.8855284452438354
1733704405569025300,0.915025390625,-0.36129406094551086,1.8949016332626343,-0.7834672927856445
1733704405578991400,0.924991455078125,-0.45441097021102905,1.8491135835647583,-0.6365891098976135
1733704405588958200,0.934958251953125,-0.489192932844162,1.7008368968963623,-0.46879762411117554
1733704405598925300,0.94492529296875,-0.4592787027359009,1.4791293144226074,-0.29931777715682983
1733704405608891100,0.95489111328125,-0.40374621748924255,1.2217158079147339,-0.17337669432163239
1733704405618858200,0.964858154296875,-0.39324110746383667,1.0026593208312988,-0.12319394946098328
1733704405628824300,0.97482421875,-0.4652716815471649,0.8648338317871094,-0.13047291338443756
1733704405638791400,0.98479150390625,-0.5600389242172241,0.7696622610092163,-0.15047724545001984
1733704405648758500,0.994758544921875,-0.6295944452285767,0.6679835319519043,-0.148002028465271
1733704405658724400,1.004724365234375,-0.661319375038147,0.5612035393714905,-0.12057839334011078
1733704405668691500,1.01469140625,-0.647339940071106,0.41475623846054077,-0.07154859602451324
1733704405678658300,1.024658203125,-0.6046984791755676,0.23087748885154724,-0.020455583930015564
1733704405688624400,1.034624267578125,-0.5546066761016846,0.04807208105921745,0.014698422513902187
1733704405698591200,1.04459130859375,-0.5069851279258728,-0.12896794080734253,0.024465564638376236
1733704405708557300,1.054557373046875,-0.4473949074745178,-0.2954816222190857,0.03040875494480133
1733704405718524200,1.064524169921875,-0.3766573667526245,-0.4563506543636322,0.05897488817572594
1733704405728491300,1.0744912109375,-0.29256075620651245,-0.6122397780418396,0.11819587647914886
1733704405738457300,1.084457275390625,-0.19734901189804077,-0.7587690353393555,0.18976300954818726
1733704405748424200,1.094424072265625,-0.10168237239122391,-0.842307448387146,0.2652754485607147
1733704405758391300,1.104391357421875,-0.013630540110170841,-0.8747948408126831,0.3366430997848511
1733704405768357400,1.114357421875,0.07107481360435486,-0.857724130153656,0.3741436302661896
1733704405778324500,1.124324462890625,0.13360556960105896,-0.8164083361625671,0.38193657994270325
1733704405788291300,1.134291259765625,0.19153650104999542,-0.7796715497970581,0.37456798553466797
1733704405798257400,1.14425732421875,0.2525777220726013,-0.7372751235961914,0.36066389083862305
1733704405808224500,1.154224609375,0.311469703912735,-0.7030526399612427,0.3701321482658386
1733704405818190300,1.1641904296875,0.3509950041770935,-0.6996893286705017,0.4043106138706207
1733704405828157400,1.174157470703125,0.3651276230812073,-0.7139079570770264,0.4393870532512665
1733704405838124300,1.184124267578125,0.3584790527820587,-0.78201824426651,0.47097641229629517
1733704405848090400,1.19409033203125,0.3396199941635132,-0.9054352045059204,0.510002613067627
1733704405858057200,1.20405712890625,0.3174324035644531,-1.024827241897583,0.5565139055252075
1733704405868024300,1.2140244140625,0.3012482523918152,-1.0978714227676392,0.588247537612915
1733704405877990100,1.223990234375,0.3117387294769287,-1.125882625579834,0.6059463620185852
1733704405887957200,1.233957275390625,0.3376302421092987,-1.1269729137420654,0.6059510707855225
1733704405897924400,1.24392431640625,0.34393155574798584,-1.1211750507354736,0.5852556228637695
1733704405907890400,1.253890380859375,0.3105863630771637,-1.088531255722046,0.5308590531349182
1733704405917857500,1.263857421875,0.2569686770439148,-1.018373727798462,0.4494084119796753
1733704405927823400,1.2738232421875,0.18828421831130981,-0.8993606567382812,0.33914318680763245
1733704405937790500,1.28379052734375,0.12308710068464279,-0.7369062304496765,0.19134041666984558
1733704405947757300,1.29375732421875,0.06862438470125198,-0.5346847176551819,0.01792069338262081
1733704405957723400,1.303723388671875,0.012772840447723866,-0.2905937433242798,-0.15283532440662384
1733704405967690200,1.313690185546875,-0.01628088764846325,-0.04146382957696915,-0.2651909291744232
1733704405977657300,1.3236572265625,-0.020403195172548294,0.17657317221164703,-0.3184395134449005
1733704405987623200,1.333623046875,-0.044669318944215775,0.3230961263179779,-0.31825384497642517
1733704405997590300,1.34359033203125,-0.08510302007198334,0.42500385642051697,-0.2663882374763489
1733704406007556400,1.353556396484375,-0.1151246652007103,0.4946162700653076,-0.1930268108844757
1733704406017523200,1.363523193359375,-0.12720955908298492,0.524387538433075,-0.1202029436826706
1733704406027490300,1.373490234375,-0.0988161712884903,0.507523238658905,-0.06366975605487823
1733704406037456400,1.383456298828125,-0.05179673433303833,0.4566568434238434,-0.0238640233874321
1733704406047423500,1.393423583984375,0.0016563711687922478,0.3715723752975464,0.010481243953108788
1733704406057390300,1.403390380859375,0.04965851828455925,0.2505117356777191,0.04641048237681389
1733704406067356400,1.4133564453125,0.08750268071889877,0.10550569742918015,0.08334613591432571
1733704406077323500,1.423323486328125,0.11155182868242264,-0.04912569373846054,0.11796323210000992
1733704406087290400,1.433290283203125,0.11806261539459229,-0.20024815201759338,0.14367344975471497
1733704406097256400,1.44325634765625,0.12012363970279694,-0.3225564956665039,0.15318147838115692
1733704406107223300,1.453223388671875,0.11559511721134186,-0.4026244282722473,0.15488754212856293
1733704406117189400,1.463189453125,0.1052069291472435,-0.4449559152126312,0.15680769085884094
1733704406127156200,1.47315625,0.09102075546979904,-0.45252254605293274,0.15181611478328705
1733704406137123300,1.483123291015625,0.08057396858930588,-0.4431873559951782,0.14725545048713684
1733704406147089200,1.493089111328125,0.0730440616607666,-0.4151920676231384,0.1385016143321991
1733704406157056300,1.50305615234375,0.07005519419908524,-0.3690975308418274,0.12006615847349167
1733704406167023400,1.5130234375,0.06460141390562057,-0.3237183392047882,0.09768936783075333
1733704406176989400,1.522989501953125,0.06020320579409599,-0.28161510825157166,0.07677903026342392
1733704406186956300,1.532956298828125,0.05551763251423836,-0.2375091016292572,0.05480638146400452
1733704406196923100,1.542923095703125,0.04422583058476448,-0.18617747724056244,0.03669821470975876
1733704406206889500,1.552889404296875,0.031796008348464966,-0.12733741104602814,0.020705655217170715
1733704406216856300,1.562856201171875,0.021501293405890465,-0.06102921813726425,0.0021295729093253613
1733704406226822400,1.572822509765625,0.01567242480814457,-0.000280807726085186,-0.007333061657845974
1733704406236788500,1.58278857421875,0.011792998760938644,0.05521494150161743,-0.007426273077726364
1733704406246755600,1.592755615234375,0.008947914466261864,0.08885148167610168,-0.003757721045985818
1733704406256721400,1.602721435546875,0.008994253352284431,0.0997866839170456,0.0017765939701348543
1733704406266688500,1.6126884765625,0.012607106007635593,0.08634453266859055,0.012839787639677525
1733704406276655600,1.622655517578125,0.018986443057656288,0.05719996616244316,0.02560059167444706
1733704406286621700,1.63262158203125,0.023991066962480545,0.01887589693069458,0.04011257365345955
1733704406296588500,1.642588623046875,0.028441473841667175,-0.017339631915092468,0.05477780103683472
1733704406306554600,1.6525546875,0.03412701562047005,-0.049903564155101776,0.06698375940322876
1733704406316521700,1.662521728515625,0.03872070088982582,-0.08004070073366165,0.07286535203456879
1733704406326488800,1.67248876953125,0.04334784671664238,-0.10400460660457611,0.0701088085770607
1733704406336454700,1.68245458984375,0.046144429594278336,-0.12033510953187943,0.06310469657182693
1733704406346421800,1.692421875,0.04531838372349739,-0.12148068100214005,0.055875346064567566
1733704406356388600,1.702388671875,0.04037289321422577,-0.11112204939126968,0.04771967977285385
1733704406366354700,1.712354736328125,0.036057695746421814,-0.09236893802881241,0.04177553206682205
1733704406376321500,1.722321533203125,0.027745703235268593,-0.06408084183931351,0.0327460840344429
1733704406386288600,1.73228857421875,0.019535891711711884,-0.03358359634876251,0.023053383454680443
1733704406396254500,1.74225439453125,0.011993288062512875,-0.006909908726811409,0.01586870849132538
1733704406406221600,1.7522216796875,0.003582492470741272,0.01896349899470806,0.006002228707075119
1733704406416187600,1.762187744140625,-0.00033395213540643454,0.04868011549115181,-0.008613732643425465
1733704406426154500,1.772154541015625,-0.0016995469341054559,0.07135246694087982,-0.024239590391516685
1733704406436121600,1.78212158203125,-0.004388274159282446,0.08893518894910812,-0.036407310515642166
1733704406446087700,1.792087646484375,-0.00401264475658536,0.09429621696472168,-0.04313661530613899
1733704406456054800,1.8020546875,-0.003691734280437231,0.09367384016513824,-0.04614998400211334
1733704406466021600,1.812021728515625,-0.006687398999929428,0.09669554233551025,-0.047271206974983215
1733704406475987700,1.82198779296875,-0.007400326896458864,0.09512721002101898,-0.04795963317155838
1733704406485954600,1.83195458984375,-0.010187105275690556,0.09066319465637207,-0.05070827901363373
1733704406495921700,1.841921630859375,-0.013960272073745728,0.07579610496759415,-0.04689330235123634
1733704406505887500,1.851887451171875,-0.016058865934610367,0.05700931325554848,-0.0413600318133831
1733704406515854600,1.8618544921875,-0.014347517862915993,0.030316714197397232,-0.035661399364471436
1733704406525820700,1.871820556640625,-0.013965552672743797,-0.0013146419078111649,-0.029987022280693054
1733704406535787500,1.88178759765625,-0.009813417680561543,-0.031024333089590073,-0.022063586860895157
1733704406545754600,1.891754638671875,-0.00618975143879652,-0.0511309877038002,-0.01578138954937458
1733704406555720400,1.901720458984375,-0.0025321657303720713,-0.061749279499053955,-0.008090713061392307
1733704406565687600,1.9116875,-0.0023306210059672594,-0.06113223358988762,-0.0037465516943484545
1733704406575654400,1.921654296875,-0.0014083683490753174,-0.051716096699237823,0.005035488400608301
1733704406585620700,1.931620849609375,-0.0009326502331532538,-0.040260449051856995,0.008421399630606174
1733704406595587800,1.941587890625,0.003782210173085332,-0.03576742857694626,0.008555090054869652
1733704406605553700,1.9515537109375,0.00879347138106823,-0.03363737836480141,0.010292094200849533
1733704406615520800,1.961520751953125,0.016592804342508316,-0.03364004194736481,0.008566899225115776
1733704406625487600,1.971487548828125,0.019152341410517693,-0.03083731420338154,0.011604812927544117
1733704406635453700,1.98145361328125,0.022495940327644348,-0.028216233476996422,0.014346537180244923
1733704406645420500,1.991420654296875,0.025276409462094307,-0.02317989431321621,0.012814034707844257
1733704406655387600,2.0013876953125,0.02169099636375904,-0.01705089770257473,0.009796406142413616
1733704406665353500,2.011353515625,0.012919516302645206,-0.016014497727155685,0.007127636112272739
1733704406675320600,2.021320556640625,0.005499150138348341,-0.007645780220627785,0.0018167602829635143
1733704406685287700,2.03128759765625,-0.0021922318264842033,0.001748090609908104,-0.003885850077494979
1733704406695253500,2.04125341796875,-0.00617578811943531,0.008005719631910324,-0.007439837791025639
1733704406705220600,2.051220703125,-0.005358229391276836,0.016597675159573555,-0.012394784949719906
1733704406715186700,2.061186767578125,-0.002796002198010683,0.026754705235362053,-0.014588430523872375
1733704406725153800,2.07115380859375,-0.004778541624546051,0.032307930290699005,-0.01546641904860735
1733704406735120600,2.08112060546875,-0.0032898345962166786,0.032267987728118896,-0.0160408616065979
1733704406745086700,2.091086669921875,-0.0014870582381263375,0.029190964996814728,-0.015970345586538315
1733704406755053600,2.101053466796875,-0.0011754684383049607,0.027967775240540504,-0.01365179754793644
1733704406765020700,2.111020751953125,0.0006907921051606536,0.030389923602342606,-0.012004575692117214
1733704406774986500,2.120986572265625,0.004515624139457941,0.03065411001443863,-0.010150482878088951
1733704406784953600,2.13095361328125,0.008954775519669056,0.03524746000766754,-0.007997557520866394
1733704406794920700,2.140920654296875,0.00973348319530487,0.03261066600680351,-0.006939750164747238
1733704406804886500,2.150886474609375,0.012191466055810452,0.024719050154089928,-0.004549887031316757
1733704406814853600,2.160853515625,0.010548561811447144,0.019284337759017944,0.0002387426793575287
1733704406824819500,2.1708193359375,0.008941818960011005,0.014969783835113049,0.005125205032527447
1733704406834786600,2.18078662109375,0.010541579686105251,0.015577783808112144,0.010554325766861439
1733704406844753400,2.19075341796875,0.01306624710559845,0.018228214234113693,0.011819683946669102
1733704406854719700,2.2007197265625,0.01282736100256443,0.021619752049446106,0.0149073526263237
1733704406864686800,2.210686767578125,0.013407300226390362,0.02169501967728138,0.017914049327373505
1733704406874653700,2.22065380859375,0.0166116151958704,0.019158359616994858,0.019292501732707024
1733704406884619800,2.230619873046875,0.017814889550209045,0.009466549381613731,0.021176328882575035
1733704406894586600,2.240586669921875,0.01851636730134487,-0.0013211173936724663,0.022245321422815323
1733704406904552700,2.250552734375,0.020027263090014458,-0.010450484231114388,0.028536364436149597
1733704406914519600,2.26051953125,0.022304533049464226,-0.014560006558895111,0.02976834401488304
1733704406924486700,2.270486572265625,0.02268926426768303,-0.01758306473493576,0.028289208188652992
1733704406934452500,2.280452392578125,0.017787715420126915,-0.01781289465725422,0.02936672419309616
1733704406944419600,2.290419677734375,0.010486289858818054,-0.020436953753232956,0.02864694781601429
1733704406954386700,2.30038671875,0.003295488189905882,-0.02992153726518154,0.030527405440807343
1733704406964352500,2.3103525390625,-0.000365405750926584,-0.03371620923280716,0.0280804131180048
1733704406974319600,2.320319580078125,-0.0002905709552578628,-0.027118228375911713,0.020844604820013046
1733704406984286500,2.330286376953125,0.002931814407929778,-0.016500825062394142,0.013769624754786491
1733704406994252800,2.340252685546875,0.008835243061184883,-0.006656184792518616,0.0132825318723917
1733704407004219600,2.3502197265625,0.009058824740350246,0.0020775236189365387,0.013537881895899773
1733704407014185700,2.360185791015625,0.012848236598074436,0.010194305330514908,0.009595071896910667
1733704407024152600,2.370152587890625,0.015582685358822346,0.006862211041152477,0.007199965417385101
1733704407034119700,2.38011962890625,0.014647116884589195,0.007966623641550541,0.007579732220619917
1733704407044085500,2.39008544921875,0.012226921506226063,0.018501505255699158,0.0063646575435996056
1733704407054052600,2.400052490234375,0.008708885870873928,0.022768953815102577,0.01228566374629736
1733704407064019700,2.410019775390625,0.004919891711324453,0.014670882374048233,0.014712522737681866
1733704407073985500,2.419985595703125,0.0002377883647568524,0.0030419230461120605,0.017887011170387268
1733704407083952600,2.42995263671875,-0.0010443604551255703,-0.013362502679228783,0.017346050590276718
1733704407093918500,2.43991845703125,0.00036551704397425056,-0.019953560084104538,0.01578330807387829
1733704407103885600,2.449885498046875,-0.0023150683846324682,-0.024415986612439156,0.013387614861130714
1733704407113852400,2.459852294921875,-0.0019848363008350134,-0.02704026736319065,0.009179821237921715
1733704407123818800,2.46981884765625,-0.005437055602669716,-0.025261403992772102,0.005921553820371628
1733704407133785600,2.47978564453125,-0.005997917149215937,-0.0219311211258173,0.0020511820912361145
1733704407143752400,2.48975244140625,-0.005236937664449215,-0.018159089609980583,-0.00009684567339718342
1733704407153718800,2.49971875,-0.004645449575036764,-0.015517765656113625,0.0006765363505110145
1733704407163685600,2.509685546875,-0.0031510055996477604,-0.01119314320385456,0.00591979781165719
1733704407173652700,2.51965283203125,-0.0016774785472080112,-0.0016534347087144852,0.007635406218469143
1733704407183618600,2.52961865234375,-0.001346656121313572,0.009017283096909523,0.007727456279098988
1733704407193585700,2.539585693359375,-0.0028292378410696983,0.01306182611733675,0.008363951928913593
1733704407203551500,2.549551513671875,-0.003780605737119913,0.009296967647969723,0.01101180911064148
1733704407213518600,2.5595185546875,-0.004433612804859877,0.003278489690274,0.011332187801599503
1733704407223485700,2.569485595703125,-0.0038670417852699757,-0.0019417023286223412,0.010816123336553574
1733704407233451500,2.579451416015625,-0.002198304980993271,-0.0009771054610610008,0.010783366858959198
1733704407243419000,2.5894189453125,0.0019899785984307528,-0.0026238514110445976,0.008818695321679115
1733704407253386000,2.599385986328125,0.0075112441554665565,-0.0018842918798327446,0.006564329378306866
1733704407263351800,2.609351806640625,0.010766107589006424,-0.003561200574040413,0.004858413711190224
1733704407273319000,2.61931884765625,0.015787232667207718,-0.0009310627356171608,0.0023611674550920725
1733704407283285000,2.629284912109375,0.022961487993597984,-0.0021260585635900497,-0.0015903969760984182
1733704407293252000,2.639252197265625,0.030070263892412186,-0.0034874659031629562,-0.005848526023328304
1733704407303219000,2.649218994140625,0.029020994901657104,0.0027332459576427937,-0.0067422157153487206
1733704407313185000,2.65918505859375,0.028122710064053535,0.014864210970699787,-0.005151775665581226
1733704407323152100,2.669152099609375,0.02748245932161808,0.02802077680826187,-0.004209768958389759
1733704407333119000,2.679118896484375,0.023480260744690895,0.03348318487405777,-0.0005508519243448973
1733704407343085000,2.6890849609375,0.017253423109650612,0.02923811413347721,0.0044687651097774506
1733704407353052000,2.699052001953125,0.008509466424584389,0.025720877572894096,0.008550858125090599
1733704407363019000,2.70901904296875,0.00010101625230163336,0.016146205365657806,0.010002534836530685
1733704407372984800,2.71898486328125,-0.006933723576366901,0.009555946104228497,0.010743693448603153
1733704407382952000,2.728951904296875,-0.011177708394825459,0.0023736506700515747,0.009557207114994526
1733704407392917800,2.738917724609375,-0.013171350583434105,-0.008271804079413414,0.004954200237989426
1733704407402884900,2.748884765625,-0.008161534555256367,-0.014517800882458687,0.003965931478887796
1733704407412852000,2.75885205078125,-0.0005755202728323638,-0.02096957340836525,0.0030191775877028704
1733704407422818000,2.768818115234375,0.003889163490384817,-0.02950904704630375,0.004126065410673618
1733704407432785200,2.77878515625,0.004531251732259989,-0.02961796708405018,0.00870643649250269
1733704407442752000,2.788751953125,0.005608177278190851,-0.02509748749434948,0.013620328158140182
1733704407452718000,2.798718017578125,0.00847134180366993,-0.021162131801247597,0.014391579665243626
1733704407462685000,2.808684814453125,0.007628689520061016,-0.018000943586230278,0.012806778773665428
1733704407472652000,2.818652099609375,0.0054172007367014885,-0.017124496400356293,0.012150576338171959
1733704407482617900,2.828617919921875,0.0003223470412194729,-0.015929345041513443,0.008692852221429348
1733704407492585000,2.8385849609375,-0.004592250566929579,-0.015256896615028381,0.0062051936984062195
1733704407502550800,2.84855078125,-0.007038565818220377,-0.01290067657828331,0.004090975038707256
1733704407512518000,2.858517822265625,-0.010075635276734829,-0.006543712690472603,0.0010951852891594172
1733704407522485000,2.868485107421875,-0.010951130650937557,-0.003849855624139309,-0.0031467757653445005
1733704407532450800,2.878450927734375,-0.009392648935317993,-0.005472520366311073,-0.004029081203043461
1733704407542418000,2.88841796875,-0.003099235240370035,-0.00799013115465641,-0.0011205507908016443
1733704407552384800,2.898384765625,0.0004563508846331388,-0.006815942004323006,-0.002031085779890418
1733704407562351000,2.90835107421875,0.002945590065792203,-0.008297810330986977,-0.0035787748638540506
1733704407572318000,2.91831787109375,0.003587411716580391,-0.006841326132416725,0.0006924028275534511
1733704407582284000,2.928283935546875,0.0012679197825491428,-0.00006269477307796478,0.0011131531791761518
1733704407592251100,2.938251220703125,0.0024327863939106464,0.0016537122428417206,-0.00024585798382759094
1733704407602218000,2.948218017578125,0.003956712316721678,-0.0008439458906650543,-0.0008348855189979076
1733704407612184000,2.95818408203125,0.005264058243483305,0.00036219973117113113,-0.0030807291623204947
1733704407622151000,2.96815087890625,0.003971524070948362,-0.0008242884650826454,-0.004136066883802414
1733704407632118000,2.978117919921875,0.003533966839313507,0.001716899685561657,-0.00456483568996191
1733704407642083800,2.988083740234375,0.002672910690307617,0.0036325431428849697,-0.0012429824564605951
1733704407652051000,2.998051025390625,0.0035986255388706923,0.008412650786340237,0.005361124407500029
1733704407662018000,3.00801806640625,0.004692924674600363,0.008112728595733643,0.007073715794831514
1733704407671983900,3.01798388671875,0.004384796600788832,0.005680996458977461,0.005546659231185913
1733704407681951000,3.027950927734375,0.0033360531087964773,0.008288383483886719,0.0010881510097533464
1733704407691917000,3.0379169921875,0.0033554942347109318,0.009886280633509159,0.001595216803252697
1733704407701884000,3.0478837890625,-0.0006390188354998827,0.000666547566652298,0.0065509844571352005
1733704407711851000,3.05785107421875,0.004414062947034836,-0.010731782764196396,0.008975259959697723
1733704407721817000,3.067817138671875,0.008055188693106174,-0.017019163817167282,0.00994466245174408
1733704407731784000,3.077783935546875,0.011661374941468239,-0.018724653869867325,0.0034348308108747005
1733704407741751000,3.0877509765625,0.011960531584918499,-0.013471405953168869,-0.0003054684493690729
1733704407751716900,3.097716796875,0.005785726010799408,-0.012484438717365265,0.0014940293040126562
1733704407761684000,3.10768408203125,-0.0028771106153726578,-0.011150980368256569,0.007625522557646036
1733704407771649800,3.11764990234375,-0.008586661890149117,-0.0016650669276714325,0.010311054065823555
1733704407781617000,3.127616943359375,-0.010983390733599663,0.002802316565066576,0.0067001511342823505
1733704407791584000,3.137583984375,-0.007229932118207216,0.0010542180389165878,0.001228420645929873
1733704407801549800,3.1475498046875,-0.0013721929863095284,0.0008869003504514694,-0.00606430321931839
1733704407811517000,3.157516845703125,0.0011311783455312252,0.0035258266143500805,-0.010776233859360218
1733704407821483800,3.16748388671875,0.0027603551279753447,0.004756827373057604,-0.012043927796185017
1733704407831450000,3.1774501953125,0.003895394504070282,0.008722806349396706,-0.008237471804022789
1733704407841417000,3.1874169921875,0.005137092433869839,0.009890574961900711,-0.002664416329935193
1733704407851383800,3.1973837890625,0.007354173809289932,0.015081608667969704,0.0013260644627735019
1733704407861350100,3.20735009765625,0.007314245216548443,0.020678073167800903,-0.00020811846479773521
1733704407871317000,3.21731689453125,0.005392508115619421,0.022798482328653336,-0.0015868369955569506
1733704407881283000,3.227282958984375,0.0021189218387007713,0.02281021699309349,-0.0009231301955878735
1733704407891250000,3.23725,0.004602053202688694,0.017661526799201965,-0.0005332434084266424
1733704407901217000,3.247217041015625,0.006199417170137167,0.013637489639222622,0.0009032656671479344
1733704407911182800,3.257182861328125,0.008800793439149857,0.010561272501945496,0.0009717089124023914
1733704407921150000,3.26714990234375,0.009657066315412521,0.01034141518175602,-0.0004026866517961025
1733704407931117000,3.277116943359375,0.009191012941300869,0.010999748483300209,-0.0011568937916308641
1733704407941083000,3.287082763671875,0.005506664514541626,0.009283901192247868,0.002093634335324168
1733704407951050000,3.297050048828125,0.006648361682891846,0.004266506060957909,0.0013335682451725006
1733704407961016000,3.30701611328125,0.003576679155230522,0.00016699079424142838,0.002707118634134531
1733704407970983000,3.31698291015625,0.004733023699373007,-0.012486221268773079,0.004829658195376396
1733704407980949800,3.32694970703125,0.0037877399008721113,-0.012710170820355415,0.0031251052860170603
1733704407990916000,3.336916015625,0.0026063616387546062,-0.005178217776119709,0.0029357546009123325
1733704408000883000,3.346883056640625,0.00038976973155513406,0.0012113163247704506,0.001409108517691493
1733704408010850000,3.35685009765625,0.00440421886742115,0.0027879076078534126,0.003354547545313835
1733704408020816000,3.36681591796875,0.005261471960693598,0.00008433032780885696,0.005443318281322718
1733704408030783000,3.376782958984375,0.006521413568407297,0.0003269435837864876,0.006120293866842985
1733704408040748800,3.386748779296875,0.004338229075074196,-0.0003224313259124756,0.006334531586617231
1733704408050716000,3.3967158203125,0.005982464645057917,-0.0030654873698949814,0.009306618943810463
1733704408060683000,3.40668310546875,0.00854435469955206,-0.006332455202937126,0.011563405394554138
1733704408070648800,3.41664892578125,0.008174440823495388,-0.003312697634100914,0.01127844862639904
1733704408080616000,3.426615966796875,0.007452864199876785,-0.0015415092930197716,0.005851226858794689
1733704408090582800,3.436582763671875,0.008071250282227993,-0.0008914321660995483,0.004018173553049564
1733704408100548900,3.446548828125,0.00754631357267499,0.00229718629270792,0.005103990435600281
1733704408110515700,3.456515625,0.002972067566588521,0.0037336950190365314,0.006647026166319847
1733704408120482800,3.46648291015625,0.0020478442311286926,0.00702670868486166,0.00660877488553524
1733704408130449200,3.47644921875,0.0024129636585712433,0.007877321913838387,0.005859361495822668
1733704408140416000,3.486416015625,0.005086454097181559,0.007330608554184437,0.007123392075300217
1733704408150382000,3.496382080078125,0.007758136838674545,0.006002224050462246,0.00783125963062048
1733704408160349000,3.506348876953125,0.008112546056509018,0.0009965822100639343,0.006192711181938648
1733704408170316000,3.51631591796875,0.007853953167796135,-0.0019161170348525047,0.005204678513109684
1733704408180281900,3.52628173828125,0.009075984358787537,-0.0036861570551991463,0.00350742950104177
1733704408190249000,3.5362490234375,0.008725246414542198,-0.007123231887817383,0.005513855256140232
1733704408200216000,3.546216064453125,0.008621051907539368,-0.011011837050318718,0.0066472310572862625
1733704408210182000,3.556181884765625,0.006092114839702845,-0.013838250190019608,0.005829640664160252
1733704408220149000,3.56614892578125,0.007071300875395536,-0.016746120527386665,0.003280291333794594
1733704408230114800,3.57611474609375,0.006913375575095415,-0.012827279046177864,0.001576667302288115
1733704408240085800,3.586085693359375,0.003017149167135358,-0.009132502600550652,-0.003906309604644775
1733704408250052900,3.596052978515625,0.0029324605129659176,-0.0020753908902406693,-0.00405491329729557
1733704408260019000,3.60601904296875,0.0036583442706614733,0.0006206883117556572,-0.0040184445679187775
1733704408269985800,3.61598583984375,0.0074669308960437775,0.0056684440933167934,-0.008735967800021172
1733704408279952600,3.62595263671875,0.007013964466750622,0.008146386593580246,-0.009238663129508495
1733704408289919000,3.6359189453125,0.00748081598430872,0.011010350659489632,-0.006634890101850033
1733704408299885800,3.6458857421875,0.007269969675689936,0.01496451161801815,-0.0024509939830750227
1733704408309852000,3.655851806640625,0.006945596542209387,0.014954125508666039,0.0015887548215687275
1733704408319818800,3.66581884765625,0.007617428433150053,0.013015556149184704,0.002214370295405388
1733704408329785900,3.675785888671875,0.007888006046414375,0.01016677264124155,0.003425309667363763
1733704408339751700,3.685751708984375,0.00886207539588213,0.007837108336389065,0.0008299817563965917
1733704408349718800,3.69571875,0.006125410087406635,0.003485236782580614,-0.00032050395384430885
1733704408359686000,3.705685791015625,0.0008396496414206922,-0.0009744353592395782,-0.0013277477119117975
1733704408369651700,3.715651611328125,0.0011714794673025608,-0.0037063052877783775,0.0017569917254149914
1733704408379618800,3.725618896484375,-0.0016155714401975274,-0.006611356511712074,0.003100811969488859
1733704408389585000,3.7355849609375,-0.0008291399572044611,-0.01157735288143158,0.003040358191356063
1733704408399551700,3.7455517578125,-0.00011805223766714334,-0.01280045136809349,0.0022422673646360636
1733704408409518600,3.7555185546875,-0.003980434499680996,-0.013147193938493729,0.0037378985434770584
1733704408419485000,3.76548486328125,0.00009544572094455361,-0.022026119753718376,0.004043772350996733
1733704408429452000,3.7754521484375,0.0039069619961082935,-0.026827799156308174,0.00620625913143158
1733704408439419000,3.7854189453125,0.01048213243484497,-0.024883056059479713,0.0026861107908189297
1733704408449385000,3.795385009765625,0.012790294364094734,-0.023213787004351616,0.0034805317409336567
1733704408459351800,3.805351806640625,0.012475886382162571,-0.02697136625647545,0.009315265342593193
1733704408469319000,3.81531884765625,0.011508094146847725,-0.029741320759058,0.014667686074972153
1733704408479284700,3.82528466796875,0.012662636116147041,-0.03521755337715149,0.020624879747629166
1733704408489251800,3.835251953125,0.014178507961332798,-0.039699919521808624,0.024285661056637764
1733704408499217700,3.8452177734375,0.01203138753771782,-0.0363348126411438,0.025501692667603493
1733704408509184800,3.855184814453125,0.009997265413403511,-0.031380265951156616,0.020226771011948586
1733704408519151900,3.86515185546875,0.009442024864256382,-0.0289155263453722,0.020475728437304497
1733704408529117700,3.87511767578125,0.007598319090902805,-0.02734586037695408,0.01641068048775196
1733704408539084800,3.885084716796875,0.006833373103290796,-0.025452569127082825,0.012162812054157257
1733704408549051600,3.8950517578125,0.0062173837795853615,-0.020635709166526794,0.0049701472744345665
1733704408559018000,3.90501806640625,0.004639813210815191,-0.013539234176278114,0.00010041659697890282
1733704408568984800,3.91498486328125,-0.0005219255690462887,-0.006982265040278435,-0.004247460514307022
1733704408578951000,3.924950927734375,-0.0005768154514953494,0.0015377365052700043,-0.003218900179490447
1733704408588917800,3.934917724609375,-0.002708143088966608,0.00734955258667469,-0.0008148648776113987
1733704408598884900,3.944884765625,-0.0034274128265678883,0.007864151149988174,0.0029143730644136667
1733704408608850700,3.9548505859375,-0.0010782383615151048,0.006022309418767691,0.006169288419187069
1733704408618817800,3.96481787109375,0.001655978849157691,0.007291762158274651,0.003656582674011588
1733704408628785000,3.974784912109375,0.004213678650557995,0.010521910153329372,0.0007793034892529249
1733704408638750700,3.984750732421875,0.005281419027596712,0.013859709724783897,-0.0026727200020104647
1733704408648717800,3.9947177734375,0.007389843929558992,0.013588866218924522,-0.0021432836074382067
1733704408658684000,4.004683837890625,0.007575825322419405,0.012456061318516731,-0.002453257329761982
1733704408668650800,4.014650634765625,0.009870937094092369,0.009655747562646866,-0.0044761947356164455
1733704408678617600,4.02461767578125,0.008143450133502483,0.010441099293529987,-0.003539391327649355
1733704408688584000,4.034583984375,0.003941248171031475,-0.001585204154253006,-0.0025351131334900856
1733704408698551000,4.044551025390625,0.006124517880380154,-0.004024713300168514,-0.0004307760391384363
1733704408708518000,4.054517822265625,0.004668567795306444,-0.00667908601462841,0.0011127921752631664
1733704408718484000,4.06448388671875,0.0032588213216513395,-0.008402446284890175,0.0013739082496613264
1733704408728450800,4.074450927734375,0.004680417012423277,-0.009895414113998413,0.0010916130850091577
1733704408738417000,4.0844169921875,0.004114360548555851,-0.010794628411531448,-0.0002184184268116951
1733704408748383700,4.0943837890625,0.003289046697318554,-0.0121307373046875,-0.0011324151419103146
1733704408758350800,4.104350830078125,0.00295106228441,-0.016973411664366722,0.0005989538040012121
1733704408768316700,4.114316650390625,-0.000484681804664433,-0.012529928237199783,0.0014927105512470007
1733704408778283800,4.12428369140625,-0.008568027056753635,-0.0020736483857035637,-0.00021115364506840706
1733704408788251000,4.1342509765625,-0.003796441713348031,-0.008045254275202751,-0.008105561137199402
1733704408798216700,4.144216796875,0.016351057216525078,-0.009547576308250427,-0.029143381863832474
1733704408808183800,4.154183837890625,0.0016109927091747522,-0.016875797882676125,-0.027819789946079254
1733704408818150000,4.16414990234375,-0.018494563177227974,0.006233421619981527,-0.02072598971426487
1733704408828117000,4.174116943359375,-0.03337577357888222,0.01997479982674122,-0.02337050810456276
1733704408838083800,4.184083740234375,-0.048652466386556625,0.02684096246957779,-0.020050344988703728
1733704408848050000,4.1940498046875,-0.05246717855334282,0.048529479652643204,-0.014417759142816067
1733704408858016800,4.204016845703125,-0.04178036376833916,0.061604857444763184,-0.011731728911399841
1733704408867984000,4.21398388671875,-0.01918051391839981,0.058316126465797424,-0.01431046798825264
1733704408877949700,4.22394970703125,0.008554155938327312,0.05172896385192871,-0.011193296872079372
1733704408887916800,4.233916748046875,0.03373381122946739,0.037806492298841476,0.0021376877557486296
1733704408897883000,4.2438828125,0.052579253911972046,0.00958970095962286,0.02117910236120224
1733704408907849700,4.253849609375,0.06533553451299667,-0.03022748790681362,0.04168171435594559
1733704408917816800,4.26381689453125,0.07115402817726135,-0.062192145735025406,0.05194489657878876
1733704408927782700,4.27378271484375,0.06480079144239426,-0.08270087838172913,0.051335833966732025
1733704408937749800,4.283749755859375,0.05173289030790329,-0.10157282650470734,0.047470297664403915
1733704408947716600,4.293716552734375,0.03309635818004608,-0.11075486987829208,0.03818944841623306
1733704408957683000,4.303682861328125,0.011533635668456554,-0.10646611452102661,0.027948714792728424
1733704408967650000,4.313650146484375,-0.00816683191806078,-0.10071635246276855,0.017240144312381744
1733704408977616000,4.323615966796875,-0.01779484562575817,-0.08434266597032547,0.007571450434625149
1733704408987583000,4.3335830078125,-0.02248706854879856,-0.06354231387376785,-0.0016787734348326921
1733704408997549800,4.3435498046875,-0.02310490421950817,-0.03131599724292755,-0.007650432176887989
1733704409007516000,4.353515869140625,-0.01931043155491352,-0.0027778325602412224,-0.014205804094672203
1733704409017482800,4.363482666015625,-0.015977267175912857,0.022161688655614853,-0.01563102751970291
1733704409027449900,4.373449951171875,-0.009647199884057045,0.04146081954240799,-0.015641946345567703
1733704409037415700,4.383415771484375,-0.0050093331374228,0.05096309632062912,-0.012479826807975769
1733704409047382800,4.3933828125,0.0033668410032987595,0.051845401525497437,-0.010892583057284355
1733704409057348600,4.4033486328125,0.008387377485632896,0.04913492500782013,-0.008918755687773228
1733704409067315700,4.413315673828125,0.007359929382801056,0.0390269011259079,-0.005174351390451193
1733704409077282800,4.42328271484375,0.006510114762932062,0.02387191541492939,-0.00004696729592978954
1733704409087249000,4.433248779296875,0.000774198560975492,0.0024110982194542885,0.0067451586946845055
1733704409097216000,4.443216064453125,-0.0036405278369784355,-0.01960727944970131,0.009283788502216339
1733704409107182800,4.453182861328125,-0.007546053733676672,-0.038113050162792206,0.0072701722383499146
1733704409117149000,4.46314892578125,-0.008768915198743343,-0.051653504371643066,0.002370822010561824
1733704409127115800,4.47311572265625,-0.00751323439180851,-0.05515076965093613,0.00016519194468855858
1733704409137081900,4.483081787109375,-0.004298164043575525,-0.04724545031785965,0.000047121429815888405
1733704409147048700,4.493048583984375,-0.004889385774731636,-0.03130856156349182,0.0008825550321489573
1733704409157015800,4.503015869140625,-0.0020324818324297667,-0.012410635128617287,0.003194422461092472
1733704409166982000,4.51298193359375,-0.000018599326722323895,0.007415799889713526,0.004155024886131287
1733704409176948700,4.52294873046875,0.0049378713592886925,0.021047847345471382,0.004992922767996788
1733704409186915800,4.532915771484375,0.006854548584669828,0.031180642545223236,0.0017750252736732364
1733704409196881700,4.542881591796875,0.008063357323408127,0.03204004466533661,-0.0002287370152771473
1733704409206848800,4.552848876953125,0.012149977497756481,0.02650280110538006,0.0014242869801819324
1733704409216814800,4.56281494140625,0.01429039053618908,0.023291274905204773,-0.0013891239650547504
1733704409226782000,4.572781982421875,0.01447041891515255,0.020216122269630432,0.0007672376232221723
1733704409236749000,4.5827490234375,0.009652767330408096,0.01220336090773344,0.0033040582202374935
1733704409246710800,4.592710693359375,0.0034308237954974174,0.00112913828343153,0.005397036671638489
1733704409256678000,4.602677978515625,-0.004551299382001162,-0.01435021497309208,0.003777122125029564
1733704409266644700,4.612644775390625,-0.008019533939659595,-0.024751991033554077,0.003006936050951481
1733704409276610800,4.62261083984375,-0.014533767476677895,-0.020165514200925827,-0.0044306074269115925
1733704409286578000,4.632577880859375,-0.015239504165947437,-0.012444211170077324,-0.0069025540724396706
1733704409296543700,4.642543701171875,-0.01641600765287876,-0.011211644858121872,-0.009110883809626102
1733704409306510800,4.6525107421875,-0.011738697066903114,-0.008154869079589844,-0.006368626840412617
1733704409316477700,4.662477783203125,-0.007785392459481955,-0.005182100459933281,-0.00610171165317297
1733704409326444000,4.672444091796875,-0.0023192542139440775,-0.0020582126453518867,-0.005848178640007973
1733704409336411000,4.682410888671875,-0.0015239007771015167,-0.0013013146817684174,-0.0036764948163181543
1733704409346377700,4.692377685546875,-0.0007142999093048275,-0.0018232939764857292,0.000513722887262702
1733704409356343800,4.70234375,-0.0029130633920431137,-0.00445073377341032,0.0033122668974101543
1733704409366311000,4.712310791015625,-0.0072899688966572285,-0.007766103371977806,0.007030838634818792
1733704409376276700,4.72227685546875,-0.00896998681128025,-0.013478048145771027,0.003994920756667852
1733704409386243800,4.732243896484375,-0.011112499982118607,-0.02366676926612854,0.003598908893764019
1733704409396211000,4.7422109375,-0.011164427734911442,-0.033642545342445374,0.002442993689328432
1733704409406176800,4.7521767578125,-0.01241611409932375,-0.044118087738752365,0.0033543272875249386
1733704409416144000,4.762143798828125,-0.012259655632078648,-0.05028466135263443,0.00534676481038332
1733704409426110700,4.77211083984375,-0.009054540656507015,-0.05202743411064148,0.006163556594401598
1733704409436076800,4.782076904296875,-0.005804494954645634,-0.04884885996580124,0.00397005770355463
1733704409446043600,4.792043701171875,-0.006619422230869532,-0.045133478939533234,0.00508059561252594
1733704409456010000,4.802010009765625,-0.007683709263801575,-0.03589039295911789,0.006849078461527824
1733704409465976800,4.811976806640625,-0.008606494404375553,-0.03227675333619118,0.007140428759157658
1733704409475943700,4.821943603515625,-0.008806881494820118,-0.027430526912212372,0.005528341978788376
1733704409485910000,4.831909912109375,-0.007620976306498051,-0.011918678879737854,0.002154383109882474
1733704409495876900,4.841876953125,-0.007389696314930916,0.005384607240557671,-0.005048593506217003
1733704409505844000,4.851843994140625,-0.011444625444710255,0.011084037832915783,-0.010109132155776024
1733704409515809800,4.861809814453125,-0.0103763984516263,0.012356371618807316,-0.004276162013411522
1733704409525777000,4.87177685546875,-0.008295671083033085,0.016016885638237,-0.0011022065300494432
1733704409535742700,4.88174267578125,-0.00719590624794364,0.016132114455103874,-0.002195139182731509
1733704409545709800,4.891709716796875,-0.005707998294383287,0.016204819083213806,-0.00398212019354105
1733704409555677000,4.901677001953125,-0.006136798299849033,0.009130253456532955,-0.002503917319700122
1733704409565642800,4.911642822265625,-0.007454263512045145,-0.005394892767071724,0.0025973678566515446
1733704409575609900,4.92160986328125,-0.0026774101424962282,-0.009236631914973259,0.002320060972124338
1733704409585576700,4.93157666015625,0.00012050685472786427,-0.004962524399161339,0.002621796913444996
1733704409595542800,4.941542724609375,0.00020141055574640632,-0.0011471863836050034,0.0021551058162003756
1733704409605509600,4.951509521484375,0.00174471247009933,0.007465476170182228,0.0026576444506645203
1733704409615476000,4.96147607421875,-0.0013537297490984201,0.005951381754130125,0.002321049105376005
1733704409625442800,4.97144287109375,-0.0038416548632085323,-0.0005453992635011673,0.004095779731869698
1733704409635410000,4.981409912109375,0.001279751188121736,-0.003015735186636448,0.004684996325522661
1733704409645375700,4.991375732421875,0.0001497719786129892,-0.0021587293595075607,0.004489254206418991
1733704409655342800,5.0013427734375,0.000536226318217814,-0.0033824704587459564,0.004004776477813721
1733704409665310000,5.01131005859375,-0.0003087946679443121,-0.0018386365845799446,0.00555020896717906
1733704409675275800,5.02127587890625,0.00006991467671468854,-0.003660290502011776,0.004068652167916298
1733704409685243000,5.031242919921875,0.0017940450925379992,-0.005387350916862488,0.005082517396658659
1733704409695208700,5.041208740234375,-0.0002608585054986179,-0.002884029410779476,0.0027109149377793074
1733704409705175800,5.05117578125,0.0012251853477209806,0.00033972691744565964,-0.0008819557260721922
1733704409715142700,5.061142578125,0.001934118801727891,0.002454010769724846,0.0022531175054609776
1733704409725108700,5.071108642578125,0.00016098626656457782,0.00523275276646018,-0.00044280034489929676
1733704409735075800,5.081075927734375,0.0022119181230664253,0.012387478724122047,-0.00419800728559494
1733704409745042700,5.091042724609375,0.0014334761071950197,0.0143869798630476,-0.002266150200739503
1733704409755009000,5.101009033203125,0.004013190045952797,0.011678274720907211,0.002120154444128275
1733704409764975900,5.110975830078125,0.00039288881816901267,0.00670934934169054,0.0026418676134198904
1733704409774942000,5.12094189453125,0.005300502758473158,0.003349169623106718,-0.0003368810284882784
1733704409784908800,5.13090869140625,0.006171622779220343,0.002839440945535898,-0.0042056553065776825
1733704409794876000,5.1408759765625,0.002414115471765399,0.0035637482069432735,-0.007432084530591965
1733704409804841700,5.150841796875,0.003187497379258275,0.01114070788025856,-0.010997524484992027
1733704409814808800,5.160808837890625,0.001703173853456974,0.021442964673042297,-0.01111526694148779
1733704409824776000,5.17077587890625,-0.0034031709656119347,0.02295883744955063,-0.008673414587974548
1733704409834741800,5.18074169921875,-0.004812052007764578,0.022893043234944344,-0.00635669007897377
1733704409844708900,5.190708984375,-0.0035465182736516,0.015850581228733063,-0.0057817138731479645
1733704409854675000,5.200675048828125,0.00025171152083203197,0.009961782023310661,-0.0054211700335145
1733704409864641800,5.210641845703125,0.0005542465951293707,0.008160686120390892,-0.0025657282676547766
1733704409874608600,5.220608642578125,0.0007100122747942805,0.007730868645012379,0.0029316165018826723
1733704409884575000,5.230574951171875,0.0010247979080304503,0.004752389155328274,0.007057119160890579
1733704409894541800,5.240541748046875,0.0024517816491425037,0.0029516848735511303,0.005297369323670864
1733704409904509000,5.250509033203125,0.0015100878663361073,-0.0027394909411668777,0.003912525717169046
1733704409914474800,5.260474853515625,0.002480689436197281,-0.007744457572698593,0.0016816242132335901
1733704409924441900,5.27044189453125,0.0022718976251780987,-0.009187091141939163,-0.0012800772674381733
1733704409934407700,5.28040771484375,0.003017495386302471,-0.013739179819822311,0.0018101315945386887
1733704409944374800,5.290374755859375,0.005593304522335529,-0.013506686314940453,0.0071455081924796104
1733704409954342000,5.300341796875,0.0037989879492670298,-0.010472992435097694,0.006901267450302839
1733704409964307700,5.3103076171875,-0.0026610419154167175,-0.015059487894177437,0.007814731448888779
1733704409974274800,5.32027490234375,-0.004378252662718296,-0.019131885841488838,0.009509937837719917
1733704409984241000,5.330240966796875,-0.0028626476414501667,-0.020021114498376846,0.008426032029092312
1733704409994207700,5.340207763671875,-0.00308536970987916,-0.015927892178297043,0.007175448350608349
1733704410004174600,5.350174560546875,-0.0016145060071721673,-0.01446634903550148,0.005813773721456528
1733704410014141000,5.360140869140625,0.003182669635862112,-0.006604872643947601,-0.0007247603498399258
1733704410024108000,5.37010791015625,0.003375216154381633,-0.0009930599480867386,-0.0025713960640132427
1733704410034075000,5.380074951171875,0.007381295785307884,0.0074454415589571,-0.0008902417030185461
1733704410044041000,5.390041015625,0.007056390400975943,0.010906485840678215,-0.0007725299801677465
1733704410054007800,5.4000078125,0.007066740188747644,0.009746434167027473,0.0060078855603933334
1733704410063974000,5.409973876953125,0.0057775042951107025,0.0034368736669421196,0.008487021550536156
1733704410073940700,5.419940673828125,0.0061499690636992455,-0.0012810556218028069,0.010314203798770905
1733704410083907800,5.429907958984375,0.003837013617157936,-0.008472390472888947,0.009537891484797001
1733704410093873700,5.439873779296875,0.003593919100239873,-0.012278135865926743,0.007374715991318226
1733704410103840800,5.4498408203125,0.004016030114144087,-0.012574013322591782,0.008031983859837055
1733704410113808000,5.459807861328125,0.005620705895125866,-0.009135887026786804,0.00864811148494482
1733704410123773700,5.469773681640625,0.007511816453188658,-0.006531316787004471,0.00870510283857584
1733704410133740800,5.47974072265625,0.007717350963503122,-0.007131984457373619,0.009813975542783737
1733704410143707000,5.489706787109375,0.005365779623389244,-0.013620242476463318,0.010723978281021118
1733704410153674000,5.499674072265625,0.00732483109459281,-0.01799360103905201,0.010529352352023125
1733704410163640800,5.509640869140625,0.006112826056778431,-0.01955234818160534,0.008666470646858215
1733704410173607000,5.51960693359375,0.004728193860501051,-0.02534916065633297,0.009301260113716125
1733704410183573800,5.52957373046875,0.006028881762176752,-0.02895880676805973,0.010682109743356705
1733704410193540900,5.539540771484375,0.0045311483554542065,-0.016365759074687958,0.0061659058555960655
1733704410203506700,5.549506591796875,0.0015193794388324022,-0.008304903283715248,0.0012720812810584903
1733704410213473800,5.559473876953125,0.0004768979852087796,0.0016911393031477928,-0.004232942592352629
1733704410223440000,5.56943994140625,-0.002904251217842102,-0.00018931832164525986,-0.007409028708934784
1733704410233406700,5.57940673828125,0.0060132527723908424,-0.004941302351653576,-0.017328791320323944
1733704410243374000,5.5893740234375,-0.0018702363595366478,-0.009678799659013748,-0.01959727331995964
1733704410253340000,5.59933984375,-0.017431024461984634,-0.008888781070709229,-0.011998939327895641
1733704410263307000,5.60930712890625,-0.025806667283177376,0.0114143593236804,-0.011419168673455715
1733704410273274000,5.619274169921875,-0.03427380323410034,0.026999903842806816,-0.016562988981604576
1733704410283240200,5.629240234375,-0.039709847420454025,0.038142040371894836,-0.02049700915813446
1733704410293207300,5.639207275390625,-0.030369339510798454,0.04608507454395294,-0.022842027246952057
1733704410303173000,5.649173095703125,-0.018351025879383087,0.04534924775362015,-0.019465140998363495
1733704410313140200,5.65914013671875,-0.0024076623376458883,0.036728911101818085,-0.012226441875100136
1733704410323107000,5.669107177734375,0.018980983644723892,0.022414155304431915,-0.0003950821701437235
1733704410333073200,5.6790732421875,0.03742831572890282,0.0009953249245882034,0.013232072815299034
1733704410343040300,5.689040283203125,0.04748600721359253,-0.021435949951410294,0.027810748666524887
1733704410353006000,5.699006103515625,0.05141189694404602,-0.045484572649002075,0.038318123668432236
1733704410362973200,5.70897314453125,0.04334305226802826,-0.0608624666929245,0.04069366306066513
1733704410372940000,5.71893994140625,0.026798190549016,-0.06545649468898773,0.03675020858645439
1733704410382906000,5.728906005859375,0.012969992123544216,-0.05879512429237366,0.02794659323990345
1733704410392873000,5.738873046875,-0.0004927311674691737,-0.04699482023715973,0.014669162221252918
1733704410402840000,5.748840087890625,-0.009586627595126629,-0.038192540407180786,0.006774221546947956
1733704410412806100,5.75880615234375,-0.011087140068411827,-0.03462081402540207,-0.0023740269243717194
1733704410422773200,5.768773193359375,-0.011410181410610676,-0.031060704961419106,-0.0069029987789690495
1733704410432739000,5.778739013671875,-0.010478697717189789,-0.023897547274827957,-0.010110365226864815
1733704410442706200,5.7887060546875,-0.006208052393049002,-0.010203039273619652,-0.009036045521497726
1733704410452673300,5.79867333984375,-0.003019656054675579,0.0073681967332959175,-0.007409750018268824
1733704410462639000,5.80863916015625,0.0007559074438177049,0.024394318461418152,-0.007546902168542147
1733704410472606200,5.818606201171875,0.00011847051791846752,0.03671504557132721,-0.009987653233110905
1733704410482573000,5.828572998046875,0.0018300841329619288,0.04253431409597397,-0.014687866903841496
1733704410492539100,5.8385390625,-0.0011670964304357767,0.03740578144788742,-0.01580243930220604
1733704410502506000,5.848506103515625,-0.001906123710796237,0.020663287490606308,-0.011165875010192394
1733704410512472000,5.85847216796875,0.00034776865504682064,0.0019448120146989822,-0.0024833984207361937
1733704410522439000,5.86843896484375,0.0009520399617031217,-0.016396909952163696,0.0015054841060191393
1733704410532406000,5.878406005859375,0.0018829868640750647,-0.03567703068256378,0.0023067451547831297
1733704410542372400,5.888372314453125,-0.0006872299127280712,-0.04506547003984451,0.0024697305634617805
1733704410552339200,5.898339111328125,-0.0038007907569408417,-0.052130796015262604,0.0035350918769836426
1733704410562305300,5.90830517578125,-0.004454330541193485,-0.04500257968902588,0.005200899206101894
1733704410572272000,5.918272216796875,-0.005222145933657885,-0.03997046500444412,0.005058798007667065
1733704410582239200,5.9282392578125,-0.005732940509915352,-0.027175571769475937,0.00501405680552125
1733704410592205000,5.938205078125,-0.004735174588859081,-0.016686270013451576,0.000991114298813045
1733704410602172200,5.948172119140625,-0.0026959921233356,-0.012090984731912613,-0.0025034858845174313
1733704410612139300,5.95813916015625,0.0027238368056714535,-0.009912330657243729,-0.0021941429004073143
1733704410622105000,5.96810498046875,0.008874407038092613,-0.00381529051810503,-0.0012910650111734867
1733704410632072200,5.978072265625,0.01296626403927803,0.007453665137290955,0.0016862284392118454
1733704410642038000,5.9880380859375,0.012501276098191738,0.01722773164510727,0.0012678458588197827
1733704410652005000,5.998005126953125,0.006654069758951664,0.022768951952457428,0.002863563597202301
1733704410661972000,6.007971923828125,-0.00034125521779060364,0.020475171506404877,-0.00021664844825863838
1733704410671938300,6.017938232421875,-0.003716102335602045,0.015206962823867798,-0.003502311185002327
1733704410681905200,6.0279052734375,-0.0022071553394198418,0.014734518714249134,-0.008287478238344193
1733704410691872000,6.0378720703125,-0.004927982110530138,0.022278599441051483,-0.012029718607664108
1733704410701838000,6.047838134765625,-0.005217734258621931,0.03150778263807297,-0.01661967672407627
1733704410711805200,6.05780517578125,-0.003985460847616196,0.03665165975689888,-0.016819994896650314
1733704410721771000,6.06777099609375,-0.0047655003145337105,0.03983280807733536,-0.017981398850679398
1733704410731738000,6.077738037109375,-0.0031719591934233904,0.0364333838224411,-0.015898358076810837
1733704410741705200,6.087705322265625,0.0013610073365271091,0.0334106981754303,-0.016751369461417198
1733704410751671000,6.097671142578125,0.003144944552332163,0.03194049373269081,-0.012768088839948177
1733704410761638100,6.10763818359375,0.0031071275006979704,0.030693335458636284,-0.007238567806780338
1733704410771604000,6.11760400390625,0.004772959742695093,0.027331819757819176,-0.006509771104902029
1733704410781571000,6.127571044921875,0.004437135066837072,0.022852115333080292,-0.0012441687285900116
1733704410791538000,6.137537841796875,0.0029104070272296667,0.016181718558073044,-0.0022223794367164373
1733704410801504300,6.147504150390625,0.00228296616114676,0.009282800368964672,-0.003441841108724475
1733704410811471000,6.15747119140625,0.0015735001070424914,-0.0019669244065880775,-0.0013315521646291018
1733704410821438000,6.16743798828125,-0.0008718143799342215,-0.01542947068810463,0.0009739464148879051
1733704410831404300,6.177404296875,0.0026379036717116833,-0.026403579860925674,0.0015947611536830664
1733704410841371100,6.18737109375,0.00434765312820673,-0.03347747027873993,0.0002378805074840784
1733704410851337200,6.197337158203125,0.0011677200673148036,-0.03250906988978386,-0.0020080364774912596
1733704410861304000,6.207303955078125,0.0007112542516551912,-0.028018444776535034,-0.000997633207589388
1733704410871271200,6.217271240234375,-0.003112007863819599,-0.023152733221650124,-0.0014225277118384838
1733704410881237000,6.227237060546875,-0.002599349245429039,-0.02812059409916401,0.00006111920811235905
1733704410891204000,6.2372041015625,-0.0032000113278627396,-0.023761827498674393,0.0004178108647465706
1733704410901171200,6.247171142578125,-0.0027848246973007917,-0.017682095989584923,-0.0021561344619840384
1733704410911137000,6.257136962890625,0.0007515900651924312,-0.010989902541041374,-0.009791488759219646
1733704410921104100,6.267104248046875,0.00043573917355388403,-0.0015423381701111794,-0.013743353076279163
1733704410931070200,6.2770703125,-0.0014093891950324178,0.010436083190143108,-0.013766909018158913
1733704410941037000,6.287037109375,-0.004125547129660845,0.011969798244535923,-0.011666473932564259
1733704410951004000,6.29700390625,-0.003692310769110918,0.008853936567902565,-0.002503504976630211
1733704410960970200,6.30697021484375,-0.00344863161444664,0.005872528068721294,0.00478050671517849
1733704410970937000,6.31693701171875,-0.0021600471809506416,-0.001719375140964985,0.0073976898565888405
1733704410980903200,6.326903076171875,0.0022975518368184566,-0.005860058590769768,0.0039140088483691216
1733704410990870000,6.3368701171875,0.004022039473056793,-0.006411226466298103,0.0027108127251267433
1733704411000837000,6.346837158203125,0.005572265945374966,-0.00777716189622879,0.006670400500297546
1733704411010803200,6.35680322265625,0.010254103690385818,-0.013539176434278488,0.0089487349614501
1733704411020770000,6.36677001953125,0.010641060769557953,-0.013890713453292847,0.012628423981368542
1733704411030737200,6.376737060546875,0.009820655919611454,-0.015398828312754631,0.016173800453543663
1733704411040703000,6.386702880859375,0.008191866800189018,-0.017367970198392868,0.012759361416101456
1733704411050670000,6.396670166015625,0.006468505598604679,-0.01889047957956791,0.011454461142420769
1733704411060636200,6.40663623046875,0.00509191770106554,-0.01799565926194191,0.012627050280570984
1733704411070603000,6.41660302734375,0.005009192507714033,-0.021398505195975304,0.016105979681015015
1733704411080570000,6.426570068359375,0.005266720429062843,-0.018515100702643394,0.014295563101768494
1733704411090536200,6.4365361328125,0.005123314447700977,-0.02010929025709629,0.013053301721811295
1733704411100503300,6.44650341796875,0.003032733453437686,-0.020506899803876877,0.01191400084644556
1733704411110469000,6.45646923828125,0.0068234167993068695,-0.017282040789723396,0.00863042101264
1733704411120436200,6.466436279296875,0.007406915538012981,-0.014137912541627884,0.006743571255356073
1733704411130403000,6.476403076171875,0.005852694623172283,-0.01405402272939682,0.007297775242477655
1733704411140369200,6.486369140625,0.004834834486246109,-0.01568387821316719,0.010662944987416267
1733704411150336000,6.4963359375,0.004646081477403641,-0.01805003732442856,0.013033953495323658
1733704411160303000,6.50630322265625,0.0053800493478775024,-0.022770490497350693,0.014057406224310398
1733704411170269000,6.51626904296875,0.004231243394315243,-0.022735854610800743,0.010289497673511505
1733704411180236000,6.526236083984375,0.0075250412337481976,-0.01915736496448517,0.008949395269155502
1733704411190202000,6.5362021484375,0.004983882419764996,-0.018614469096064568,0.009521028026938438
1733704411200169000,6.5461689453125,0.003532992210239172,-0.01904217340052128,0.007036564871668816
1733704411210136000,6.556135986328125,0.0028034953866153955,-0.018103700131177902,0.0019981563091278076
1733704411220102100,6.56610205078125,-0.0014809982385486364,-0.016082361340522766,0.0002535195089876652
1733704411230069200,6.5760693359375,-0.005355574190616608,-0.007337845861911774,-0.0009790172334760427
1733704411240035300,6.586035400390625,-0.0056527829729020596,-0.004119415767490864,-0.0005662271287292242
1733704411250002200,6.596002197265625,-0.00726692471653223,-0.002574414014816284,0.001783845480531454
1733704411259969300,6.60596923828125,-0.003123046364635229,-0.007709521800279617,0.001352413441054523
1733704411269935000,6.61593505859375,-0.0008319254848174751,-0.013680227100849152,0.002051322255283594
1733704411279902200,6.625902099609375,0.001869851490482688,-0.01607760414481163,0.0019064462976530194
1733704411289869300,6.635869384765625,0.004964085761457682,-0.014056842774152756,0.001951236859895289
1733704411299835100,6.645835205078125,0.007229104172438383,-0.007332628592848778,-0.0003768985625356436
1733704411309802200,6.65580224609375,0.005333971232175827,-0.003208870068192482,0.0019362022867426276
1733704411319768000,6.66576806640625,0.0033144960179924965,-0.004042971879243851,0.006083809304982424
1733704411329735200,6.675735107421875,0.0036040716804564,-0.011177903041243553,0.005414943210780621
1733704411339702000,6.685701904296875,0.004367866553366184,-0.01856204867362976,0.0038713752292096615
1733704411349668400,6.69566845703125,0.007849887013435364,-0.014543935656547546,-0.0003635827451944351
1733704411359635200,6.70563525390625,0.006747871171683073,-0.006034336984157562,-0.0015928978100419044
1733704411369602300,6.715602294921875,0.006006091833114624,-0.0019777556881308556,0.001332462765276432
1733704411379568000,6.725568115234375,0.0009812398348003626,-0.0044209398329257965,0.0036550057120621204
1733704411389535200,6.73553515625,-0.000004692061338573694,-0.009838590398430824,0.005700094625353813
1733704411399501000,6.7455009765625,-0.0008963183499872684,-0.01029026135802269,0.003372491803020239
1733704411409468200,6.75546826171875,-0.0006786477752029896,-0.00115131214261055,-0.0032787995878607035
1733704411419435300,6.765435302734375,-0.00451945886015892,0.004057565238326788,-0.004093460738658905
1733704411429401000,6.775401123046875,-0.004915530793368816,0.0058882590383291245,-0.002098655793815851
1733704411439368200,6.7853681640625,-0.005067330785095692,0.01241966150701046,-0.00033750757575035095
1733704411449334300,6.795334228515625,-0.0018050746293738484,0.009641624987125397,-0.0026525703724473715
1733704411459301000,6.805301025390625,-0.001414122642017901,0.007690859958529472,-0.005873397924005985
1733704411469268000,6.81526806640625,-0.00047071027802303433,0.0061895595863461494,-0.009399352595210075
1733704411479234300,6.825234375,-0.004165313672274351,0.005391676444560289,-0.004388880915939808
1733704411489201400,6.835201416015625,-0.0037494217976927757,0.0018869135528802872,-0.0007416300941258669
1733704411499168300,6.845168212890625,-0.0020234272815287113,-0.00028329622000455856,-0.0009725261479616165
1733704411509134300,6.85513427734375,-0.0011567166075110435,-0.0033490359783172607,0.0014623769093304873
1733704411519101200,6.86510107421875,0.002358389785513282,-0.008060168474912643,0.0039324588142335415
1733704411529067300,6.8750673828125,0.0009917528368532658,-0.01099562831223011,0.002870433498173952
1733704411539034000,6.8850341796875,0.0031678215600550175,-0.009763117879629135,0.003009716747328639
1733704411549001200,6.895001220703125,0.004118206910789013,-0.009880971163511276,0.004153234884142876
1733704411558967000,6.904967041015625,0.004045502282679081,-0.006590370088815689,0.008020943030714989
1733704411568934100,6.91493408203125,0.005097096785902977,-0.005838135257363319,0.009374339133501053
1733704411578900200,6.924900146484375,0.0057676807045936584,-0.004594437777996063,0.008355678990483284
1733704411588867000,6.9348671875,0.005663107614964247,-0.003776104189455509,0.006100902333855629
1733704411598834200,6.944834228515625,0.005553651601076126,-0.010541865602135658,0.003929627127945423
1733704411608800300,6.95480029296875,0.006419799290597439,-0.00937742181122303,0.0029061981476843357
1733704411618767400,6.964767333984375,0.0029345203656703234,-0.000043841078877449036,0.0023482658434659243
1733704411628734200,6.974734130859375,0.0025792571250349283,0.006260494701564312,0.0023126755841076374
1733704411638700300,6.9847001953125,-0.00028257566737011075,0.010652047581970692,-0.0012357202358543873
1733704411648667100,6.994667236328125,-0.0028435015119612217,0.012572471052408218,-0.005722831003367901
1733704411658633200,7.00463330078125,-0.003265080042183399,0.011211330071091652,-0.00487781036645174
1733704411668600000,7.01460009765625,-0.000901404011528939,0.003716851584613323,-0.0009285374544560909
1733704411678567200,7.024567138671875,0.0019172856118530035,-0.0016954904422163963,-0.00047659920528531075
1733704411688533200,7.034533203125,0.0040050288662314415,-0.002898762933909893,0.0021142433397471905
1733704411698500000,7.0445,0.004142980091273785,-0.0014249691739678383,0.0003224685788154602
1733704411708466200,7.054466064453125,0.0015217461623251438,0.002165333367884159,-0.00020565814338624477
1733704411718433000,7.06443310546875,0.00034010165836662054,0.00005957204848527908,0.0018146159127354622
1733704411728400100,7.074400146484375,0.0013026840751990676,-0.0010721785947680473,0.0026090138126164675
1733704411738366200,7.0843662109375,0.003732019569724798,-0.005429642274975777,-0.00032072956673800945
1733704411748333300,7.094333251953125,0.006555590778589249,-0.009140647947788239,-0.000788889592513442
1733704411758300400,7.104300537109375,0.003457535756751895,-0.0013951100409030914,-0.000271171098574996
1733704411768266200,7.114266357421875,0.001098660402931273,0.00741969421505928,-0.0003424249589443207
1733704411778233300,7.1242333984375,-0.0010747454361990094,0.008450071327388287,0.00281288824044168
1733704411788199200,7.13419921875,-0.0027557071298360825,0.011447075754404068,0.0022601396776735783
1733704411798166300,7.144166259765625,-0.002581802662461996,0.009074199013411999,0.0007056526374071836
1733704411808133000,7.154133056640625,0.001616023713722825,0.0029903356917202473,-0.00348777137696743
1733704411818099200,7.16409912109375,0.002846670337021351,0.0018052291125059128,-0.004478200804442167
1733704411828066000,7.174066162109375,0.0027064650785177946,-0.00415810476988554,-0.005588874686509371
1733704411838032100,7.1840322265625,0.000045700755435973406,-0.0023463554680347443,-0.004454634618014097
1733704411847999000,7.1939990234375,-0.0007708787452429533,0.0001657763496041298,-0.0026013182941824198
1733704411857966000,7.203966064453125,0.0006951914401724935,0.001050211489200592,-0.0003352344501763582
1733704411867932200,7.21393212890625,0.0012053995160385966,-0.00001971423625946045,-0.0022730277851223946
1733704411877899300,7.223899169921875,0.000504721887409687,0.0008551338687539101,-0.0024011260829865932
1733704411887866400,7.233866455078125,-0.00003268430009484291,0.0009579863399267197,-0.006039504427462816
1733704411897832200,7.243832275390625,-0.0016465600347146392,0.0007380088791251183,-0.005923390854150057
1733704411907799300,7.25379931640625,-0.0014017433859407902,-0.0034528523683547974,-0.004844724200665951
1733704411917765000,7.26376513671875,-0.000773770036175847,-0.0036946674808859825,-0.002447346691042185
1733704411927732200,7.273732177734375,-0.0007819337770342827,-0.0019990913569927216,-0.003450708230957389
1733704411937699000,7.283698974609375,0.0007797438884153962,-0.0011591296643018723,-0.00344351795502007
1733704411947665200,7.2936650390625,-0.0013495562598109245,-0.0012188609689474106,-0.0036528108175843954
1733704411957632300,7.30363232421875,-0.0005226447246968746,0.0028118332847952843,-0.004915681667625904
1733704411967598000,7.31359814453125,-0.0023506053257733583,0.0006605526432394981,-0.007273665629327297
1733704411977565200,7.323565185546875,-0.0010323405731469393,0.0033133267425000668,-0.0069141387939453125
1733704411987532000,7.333531982421875,-0.001430976903066039,0.005977361463010311,-0.0063830651342868805
1733704411997498400,7.343498291015625,-0.0017630730289965868,0.006493748165667057,-0.00587067287415266
1733704412007465200,7.35346533203125,-0.0004296370316296816,0.01169587392359972,-0.0031607290729880333
1733704412017431300,7.363431396484375,0.001844968879595399,0.012409867718815804,-0.0038752551190555096
1733704412027398100,7.373398193359375,0.003081057220697403,0.005803991574794054,-0.005774376913905144
1733704412037365200,7.383365234375,0.0002503831638023257,0.006376038771122694,-0.00893767923116684
1733704412047331000,7.3933310546875,-0.000030137947760522366,0.005023208446800709,-0.010908272117376328
1733704412057298200,7.403298095703125,-0.003821680322289467,-0.002257607877254486,-0.009518368169665337
1733704412067265300,7.413265380859375,-0.007643819320946932,-0.0032222233712673187,-0.010489139705896378
1733704412077231000,7.423231201171875,-0.0038381621707230806,0.0015533575788140297,-0.009439054876565933
1733704412087198200,7.4331982421875,-0.0035698306746780872,0.006558939814567566,-0.01168700773268938
1733704412097164000,7.4431640625,-0.0018888437189161777,0.009365112520754337,-0.011823361739516258
1733704412107131100,7.453131103515625,-0.003893112065270543,0.011145646683871746,-0.010371481068432331
1733704412117098000,7.463097900390625,-0.0019767016638070345,0.008328821510076523,-0.0055796559900045395
1733704412127064300,7.473064208984375,-0.0033175742719322443,0.009215575642883778,-0.0015192492865025997
1733704412137031400,7.483031494140625,-0.004024643450975418,0.009090406820178032,0.0003090107347816229
1733704412146997200,7.492997314453125,-0.0050708232447505,0.009180109016597271,0.002179395640268922
1733704412156964400,7.50296435546875,-0.00207902817055583,0.0053108022548258305,-0.00022330810315907001
1733704412166931200,7.51293115234375,-0.0018960393499583006,0.005118236877024174,-0.003269479377195239
1733704412176897300,7.522897216796875,-0.0022731428034603596,0.002044948749244213,-0.0037477833684533834
1733704412186864000,7.532864013671875,0.001419274602085352,0.002237732522189617,-0.004144837148487568
1733704412196831200,7.542831298828125,0.001544176833704114,0.0020893942564725876,-0.0023996676318347454
1733704412206797000,7.552797119140625,0.0015041755978018045,0.0024029817432165146,-0.0006324714049696922
1733704412216764200,7.56276416015625,0.00024822878185659647,0.0024951277300715446,0.0016208291053771973
1733704412226730000,7.57272998046875,0.0031468975357711315,0.006457760464400053,0.0015494846738874912
1733704412236697000,7.582697021484375,0.0011663046898320317,0.0038515906780958176,0.0017372375587001443
1733704412246664200,7.592664306640625,0.001366926240734756,0.0015294263139367104,-0.0002459918614476919
1733704412256630500,7.602630615234375,-0.0008810480358079076,-0.005337001755833626,0.0019798781722784042
1733704412266597400,7.612597412109375,0.0014308420941233635,-0.012781336903572083,0.004059806931763887
1733704412276563500,7.6225634765625,-0.0015668119303882122,-0.016771817579865456,0.005162355490028858
1733704412286530300,7.6325302734375,0.001849550986662507,-0.019882958382368088,0.0030277343466877937
1733704412296497400,7.642497314453125,0.0023606116883456707,-0.020405471324920654,0.00402908306568861
1733704412306463200,7.652463134765625,-0.000018056656699627638,-0.018080472946166992,0.00017468328587710857
1733704412316430300,7.662430419921875,-0.004159804433584213,-0.009006550535559654,-0.0036245821975171566
1733704412326396200,7.672396240234375,-0.0072562010027468204,-0.01358802616596222,-0.0026832534931600094
1733704412336363300,7.68236328125,-0.004236975219100714,-0.010054010897874832,-0.00047815614379942417
1733704412346330400,7.692330322265625,-0.0033517484553158283,0.00047177355736494064,-0.0008353760931640863
1733704412356296200,7.702296142578125,-0.00007978844223544002,0.008666053414344788,-0.004677518270909786
1733704412366263300,7.71226318359375,0.0011345825623720884,0.015344479121267796,-0.005844999570399523
1733704412376230100,7.722230224609375,0.0018312656320631504,0.019756536930799484,-0.0077076139859855175
1733704412386196500,7.732196533203125,-0.001081999740563333,0.02074475586414337,-0.008289027959108353
1733704412396163300,7.742163330078125,-0.002904400695115328,0.016981977969408035,-0.005082582589238882
1733704412406129400,7.75212939453125,-0.005959188565611839,0.012683127075433731,-0.003817149205133319
1733704412416096300,7.76209619140625,-0.003770602634176612,0.007237228564918041,-0.0036027643363922834
1733704412426063400,7.7720634765625,-0.007314707152545452,0.006369019392877817,-0.0052257440984249115
1733704412436029400,7.782029541015625,-0.005564744584262371,0.005177521146833897,-0.004099493380635977
1733704412445996300,7.791996337890625,-0.003273115726187825,-0.0007380452007055283,-0.0033534036483615637
1733704412455962400,7.80196240234375,0.0005391992162913084,-0.003436625935137272,0.0017137927934527397
1733704412465929200,7.81192919921875,0.002471303101629019,-0.00559634156525135,-0.0010099539067596197
1733704412475896300,7.821896240234375,0.0033911587670445442,-0.0008556488901376724,-0.002262172056362033
1733704412485862100,7.831862060546875,0.0021328870207071304,0.0019207224249839783,-0.0015522288158535957
1733704412495829200,7.841829345703125,-0.00006129121175035834,0.006040899083018303,0.0012552754487842321
1733704412505796400,7.85179638671875,-0.0010698608821257949,0.0064973835833370686,0.0022478848695755005
1733704412515762400,7.861762451171875,-0.001766810193657875,0.005106148310005665,0.0019219140522181988
1733704412525729500,7.8717294921875,-0.002911738120019436,-0.004734843038022518,0.0017740643816068769
1733704412535695400,7.8816953125,-0.002120779361575842,-0.00983373075723648,0.0019136141054332256
1733704412545662500,7.891662353515625,-0.0015650257701054215,-0.015922287479043007,-0.0020912326872348785
1733704412555629300,7.90162939453125,-0.004513411317020655,-0.02021237276494503,-0.001974586397409439
1733704412565595400,7.911595458984375,-0.004511584993451834,-0.021330446004867554,0.0032829854171723127
1733704412575562200,7.921562255859375,-0.004811989609152079,-0.017134102061390877,0.005650801584124565
1733704412585528300,7.9315283203125,-0.00877344235777855,-0.00541672483086586,0.005992218852043152
1733704412595495200,7.9414951171875,-0.013066457584500313,0.0071280947886407375,0.004442526027560234
1733704412605462300,7.951462158203125,-0.016977962106466293,0.01788467913866043,0.0042485762387514114
1733704412615428000,7.961427978515625,-0.020195061340928078,0.028668615967035294,0.0015324184205383062
1733704412625395200,7.971395263671875,-0.022753790020942688,0.029101723805069923,0.0014890518505126238
1733704412635361500,7.981361572265625,-0.020092759281396866,0.023757822811603546,0.00018170615658164024
1733704412645328400,7.991328369140625,-0.018641397356987,0.013000290840864182,0.0010641098488122225
1733704412655295500,8.00129541015625,-0.01671886071562767,0.00033616088330745697,-0.0006096868310123682
1733704412665261300,8.01126123046875,-0.012139204889535904,-0.010415174067020416,-0.0016464281361550093
1733704412675228400,8.021228515625,-0.008336743339896202,-0.016788916662335396,-0.0012291108723729849
1733704412685195300,8.0311953125,-0.0061949691735208035,-0.017377780750393867,0.0011825502151623368
1733704412695161300,8.041161376953125,-0.0040564509108662605,-0.014896247535943985,0.000534336781129241
1733704412705128400,8.05112841796875,-0.003895063418895006,-0.015123149380087852,0.0017194434767588973
1733704412715094300,8.06109423828125,-0.006301762070506811,-0.009040754288434982,0.0019852269906550646
1733704412725061400,8.071061279296876,-0.004206143785268068,-0.007570574060082436,0.0056996773928403854
1733704412735028200,8.0810283203125,-0.0018449850613251328,-0.010861443355679512,0.006355613935738802
1733704412744994300,8.090994384765626,0.003662188770249486,-0.011752652004361153,0.005636953748762608
1733704412754961200,8.100961181640624,0.009640186093747616,-0.010311881080269814,-0.00016900408081710339
1733704412764927500,8.110927490234374,0.014820207841694355,-0.00000815466046333313,-0.0032259963918477297
1733704412774894300,8.120894287109374,0.011833206750452518,0.007099023554474115,-0.005781565792858601
1733704412784861400,8.130861328125,0.004575180821120739,0.011914290487766266,-0.007242990657687187
1733704412794827300,8.1408271484375,0.0018012323416769505,0.013900209218263626,-0.006836059503257275
1733704412804794400,8.15079443359375,-0.0033211521804332733,0.0180494524538517,-0.010634960606694221
1733704412814760200,8.16076025390625,-0.006673273164778948,0.023200804367661476,-0.013442998751997948
1733704412824727300,8.170727294921875,-0.0096045583486557,0.027974652126431465,-0.016716748476028442
1733704412834694400,8.1806943359375,-0.012286894023418427,0.03214702755212784,-0.018796676769852638
1733704412844660200,8.19066015625,-0.012734763324260712,0.03194291517138481,-0.021208882331848145
1733704412854627300,8.20062744140625,-0.011908385902643204,0.032804448157548904,-0.025314945727586746
1733704412864594200,8.21059423828125,-0.009662007912993431,0.030266989022493362,-0.026728283613920212
1733704412874560300,8.220560302734375,-0.009179709479212761,0.03078337572515011,-0.025829467922449112
1733704412884527000,8.230527099609375,-0.008923226036131382,0.027721693739295006,-0.02526208385825157
1733704412894493400,8.240493408203125,-0.010935244150459766,0.027411967515945435,-0.02278827503323555
1733704412904460500,8.25046044921875,-0.008355697616934776,0.02501654624938965,-0.022120798006653786
1733704412914427400,8.260427490234376,-0.006380164530128241,0.024158477783203125,-0.02648678421974182
1733704412924393500,8.2703935546875,-0.006187698803842068,0.03207647055387497,-0.030914323404431343
1733704412934360300,8.2803603515625,-0.008783482015132904,0.03816206008195877,-0.02976091019809246
1733704412944326400,8.290326416015626,-0.015665732324123383,0.041229091584682465,-0.02537524327635765
1733704412954293200,8.300293212890624,-0.014098462648689747,0.04030311107635498,-0.021555468440055847
1733704412964260400,8.31026025390625,-0.01646527461707592,0.0356556698679924,-0.01904347911477089
1733704412974226200,8.32022607421875,-0.01694251224398613,0.029652103781700134,-0.016497762873768806
1733704412984193300,8.330193359375,-0.015493541955947876,0.026568030938506126,-0.015543628484010696
1733704412994159000,8.3401591796875,-0.014229604974389076,0.025237515568733215,-0.011783511377871037
1733704413004126200,8.350126220703125,-0.008774017915129662,0.013941487297415733,-0.00651211105287075
1733704413014093300,8.36009326171875,-0.0006234139436855912,0.01055154949426651,-0.005820222198963165
1733704413024059400,8.370059326171875,0.003975376486778259,0.012073052115738392,-0.006111847702413797
1733704413034026500,8.380026611328125,0.012514801695942879,0.013397974893450737,-0.00845622830092907
1733704413043992300,8.389992431640625,0.014975236728787422,0.01605025678873062,-0.00493969302624464
1733704413053959400,8.39995947265625,0.01240821648389101,0.01910277083516121,-0.002827007556334138
1733704413063926300,8.40992626953125,0.011772708967328072,0.019675862044095993,0.0006394240772351623
1733704413073892400,8.419892333984375,0.009695976972579956,0.021146461367607117,0.00417929794639349
1733704413083859200,8.429859130859375,0.010225670412182808,0.02767137810587883,0.006028774660080671
1733704413093826300,8.439826416015626,0.012353003956377506,0.03279370069503784,0.006618398707360029
1733704413103792400,8.44979248046875,0.011663376353681087,0.036214280873537064,0.005017462186515331
1733704413113759200,8.45975927734375,0.011665773577988148,0.035510942339897156,0.004777777474373579
1733704413123725300,8.469725341796876,0.013144022785127163,0.040782347321510315,0.0021846694871783257
1733704413133692200,8.479692138671876,0.011771430261433125,0.03965263441205025,0.003435289952903986
1733704413143659300,8.4896591796875,0.012306156568229198,0.037155576050281525,0.006078700534999371
1733704413153625300,8.499625244140624,0.012314412742853165,0.03261568769812584,0.012257766909897327
1733704413163592400,8.509592529296874,0.009698731824755669,0.03052871860563755,0.016582287847995758
1733704413173558300,8.519558349609374,0.011527525261044502,0.02630787529051304,0.01816314086318016
1733704413183525400,8.529525390625,0.008690930902957916,0.014992675743997097,0.02273642085492611
1733704413193492500,8.539492431640625,0.0038266663905233145,0.0031029931269586086,0.026880832388997078
1733704413203458300,8.549458251953125,0.00410081259906292,-0.012896187603473663,0.026707660406827927
1733704413213425400,8.55942529296875,0.004517330788075924,-0.030227508395910263,0.0240815170109272
1733704413223391200,8.56939111328125,0.0036853961646556854,-0.04397442936897278,0.021097442135214806
1733704413233358300,8.5793583984375,0.005737894214689732,-0.05347365513443947,0.019167982041835785
1733704413243325200,8.5893251953125,0.0013143125688657165,-0.06084704399108887,0.016798747703433037
1733704413253291000,8.599291015625,-0.0005126158939674497,-0.060772739350795746,0.014006422832608223
1733704413263258000,8.609258056640625,-0.0018213503062725067,-0.05119667202234268,0.010293636471033096
1733704413273224200,8.61922412109375,-0.0074494085274636745,-0.04228626936674118,0.007572419010102749
1733704413283191300,8.62919140625,-0.004426509141921997,-0.031393539160490036,0.0010292223887518048
1733704413293158400,8.639158447265626,-0.0092300521209836,-0.020746754482388496,-0.006171965040266514
1733704413303124200,8.649124267578125,-0.009933956898748875,-0.015033721923828125,-0.004690399393439293
1733704413313091300,8.65909130859375,-0.00912116002291441,-0.003607962280511856,-0.0025385653134435415
1733704413323058200,8.66905810546875,-0.005042805802077055,0.012985065579414368,-0.005892859771847725
1733704413333024300,8.679024169921876,-0.0036555654369294643,0.02250107377767563,-0.00664387084543705
1733704413342991000,8.6889912109375,-0.0012702338863164186,0.03446456417441368,-0.007406233809888363
1733704413352957200,8.698957275390624,-0.003977603279054165,0.04602161794900894,-0.010785252787172794
1733704413362924000,8.708924072265624,-0.005251700524240732,0.04594618082046509,-0.013633808121085167
1733704413372891100,8.71889111328125,-0.002723562065511942,0.040443822741508484,-0.015255672857165337
1733704413382857000,8.72885693359375,0.0004661060229409486,0.035877034068107605,-0.015442892909049988
1733704413392824000,8.738823974609375,0.002714879345148802,0.027529621496796608,-0.014000790193676949
1733704413402790400,8.748790283203125,0.0011804705718532205,0.014259842224419117,-0.006627949886023998
1733704413412757200,8.75875732421875,-0.001959129935130477,0.005979808513075113,0.0011301047634333372
1733704413422724400,8.768724365234375,-0.0022577750496566296,-0.005193437449634075,0.0029869815334677696
1733704413432690200,8.778690185546875,-0.0027371440082788467,-0.01373233087360859,0.0015672503504902124
1733704413442657300,8.7886572265625,-0.004939524922519922,-0.011881299316883087,0.000129220774397254
1733704413452623000,8.798623046875,-0.006366979330778122,-0.010174745693802834,-0.0036878876853734255
1733704413462590200,8.808590087890625,-0.008603432215750217,-0.0031641852110624313,-0.009694390930235386
1733704413472557300,8.818557373046875,-0.0064832903444767,0.006395764648914337,-0.01010771282017231
1733704413482523100,8.828523193359375,0.0007034133886918426,0.019935406744480133,-0.010392175987362862
1733704413492490200,8.838490234375,0.0026222211308777332,0.02725403942167759,-0.010421469807624817
1733704413502456000,8.8484560546875,0.007202633190900087,0.03020632639527321,-0.011469021439552307
1733704413512423200,8.858423095703126,0.004769835155457258,0.034211717545986176,-0.008123558014631271
1733704413522390000,8.86839013671875,0.0037941148038953543,0.03789670020341873,-0.007340156473219395
1733704413532356400,8.8783564453125,0.0024279130157083273,0.04617646709084511,-0.007744956761598587
1733704413542323200,8.8883232421875,0.0014226003549993038,0.04560679942369461,-0.009050221182405949
1733704413552290300,8.898290283203124,0.0017634849064052105,0.04420863837003708,-0.004991031251847744
1733704413562256100,8.908256103515624,0.004113458096981049,0.035210881382226944,-0.004154798574745655
1733704413572223200,8.91822314453125,0.0022316686809062958,0.027933526784181595,-0.006073073484003544
1733704413582189000,8.92818896484375,-0.0003793691867031157,0.02354305051267147,-0.006913749501109123
1733704413592156200,8.93815625,0.0001796283759176731,0.01740899123251438,-0.0029618844855576754
1733704413602123300,8.948123291015625,-0.00008725764928385615,0.012477505952119827,-0.0006950683891773224
1733704413612089000,8.958089111328125,-0.0029632053337991238,0.00915547925978899,0.0007158743683248758
1733704413622056200,8.96805615234375,-0.005572180263698101,0.004271962214261293,0.0023087775334715843
1733704413632022000,8.97802197265625,-0.00842229463160038,-0.005980674177408218,0.0067778280936181545
1733704413641989000,8.987989013671875,-0.009502310305833817,-0.020834220573306084,0.011634167283773422
1733704413651956000,8.9979560546875,-0.0048252674750983715,-0.02491125464439392,0.011538825929164886
1733704413661922300,9.00792236328125,-0.0007371308747678995,-0.02091316506266594,0.0046790242195129395
1733704413671889400,9.017889404296875,0.0002580923610366881,-0.015092028304934502,0.0018723185639828444
1733704413681855200,9.027855224609375,0.0001920055947266519,-0.009950337931513786,0.001266677863895893
1733704413691822300,9.037822265625,-0.0015875186072662473,-0.003658886067569256,0.0064553143456578255
1733704413701789200,9.0477890625,-0.006590182427316904,-0.0017327750101685524,0.009568311274051666
1733704413711755300,9.05775537109375,-0.009757214225828648,-0.005550416186451912,0.009382955729961395
1733704413721722000,9.06772216796875,-0.01199390273541212,-0.01236407458782196,0.010606620460748672
1733704413731688200,9.077688232421876,-0.013110832311213017,-0.019611867144703865,0.009379968047142029
1733704413741655000,9.087655029296876,-0.010481083765625954,-0.026088865473866463,0.007648844737559557
1733704413751622100,9.0976220703125,-0.004453018773347139,-0.024105874821543694,0.004419762175530195
1733704413761588200,9.107588134765624,-0.00036954437382519245,-0.020943069830536842,0.008065080270171165
1733704413771555000,9.11755517578125,0.0026403602678328753,-0.01684206910431385,0.014251869171857834
1733704413781521200,9.127521240234374,0.00347918551415205,-0.01575222611427307,0.016792144626379013
1733704413791488300,9.13748828125,0.0020477366633713245,-0.01749100349843502,0.016508519649505615
1733704413801455400,9.147455322265625,0.0039528608322143555,-0.0167275108397007,0.016055842861533165
1733704413811421200,9.157421142578125,0.005826927721500397,-0.014853445813059807,0.013996154069900513
1733704413821388300,9.16738818359375,0.01289720181375742,-0.010807448998093605,0.012536496855318546
1733704413831355100,9.177355224609375,0.015565156936645508,-0.005945581942796707,0.011299725621938705
1733704413841321200,9.1873212890625,0.017324060201644897,-0.005072453059256077,0.012265898287296295
1733704413851288000,9.1972880859375,0.017199957743287086,-0.004389352165162563,0.014457146637141705
1733704413861254100,9.207254150390625,0.014430422335863113,-0.008827339857816696,0.018155232071876526
1733704413871221200,9.21722119140625,0.012508951127529144,-0.013288665562868118,0.022072210907936096
1733704413881188000,9.22718798828125,0.0073193213902413845,-0.00842754915356636,0.023834142833948135
1733704413891154200,9.237154296875,0.010220303200185299,-0.00409325398504734,0.026526598259806633
1733704413901121000,9.24712109375,0.009233643300831318,0.00017077848315238953,0.029004398733377457
1733704413911087400,9.25708740234375,0.009978262707591057,0.001821671612560749,0.034511812031269073
1733704413921054200,9.26705419921875,0.012688622809946537,-0.005201389081776142,0.043308936059474945
1733704413931021300,9.277021240234374,0.012209786102175713,-0.018051141873002052,0.0522419773042202
1733704413940987100,9.286987060546876,0.01253747008740902,-0.036730989813804626,0.054818566888570786
1733704413950954200,9.296954345703124,0.013646409846842289,-0.06062806397676468,0.05616186186671257
1733704413960920000,9.306920166015624,0.015832951292395592,-0.07872812449932098,0.05531686916947365
1733704413970887200,9.31688720703125,0.0163677129894495,-0.09209852665662766,0.05679705739021301
1733704413980854300,9.326854248046875,0.016444507986307144,-0.10587635636329651,0.06007348746061325
1733704413990820000,9.336820068359375,0.01230142917484045,-0.12077247351408005,0.06926964968442917
1733704414000787200,9.346787109375,0.013872817158699036,-0.13283613324165344,0.07565996795892715
1733704414010753300,9.356753173828125,0.014249388128519058,-0.13479942083358765,0.07600138336420059
1733704414020720000,9.36672021484375,0.0130278579890728,-0.13841603696346283,0.0691031664609909
1733704414030687000,9.37668701171875,0.010543661192059517,-0.14209918677806854,0.05866677314043045
1733704414040653300,9.3866533203125,0.007017146330326796,-0.14508505165576935,0.052949532866477966
1733704414050620400,9.396620361328125,0.008674430660903454,-0.13932356238365173,0.04723998159170151
1733704414060586200,9.406586181640625,0.006139151286333799,-0.12459588050842285,0.037996500730514526
1733704414070553300,9.41655322265625,0.005686413496732712,-0.09894698113203049,0.022209815680980682
1733704414080520200,9.426520263671875,0.0051619308069348335,-0.06970799714326859,0.006636149249970913
1733704414090486300,9.436486328125,0.004292941186577082,-0.03835008293390274,-0.009828045964241028
1733704414100453000,9.446453125,0.004279855638742447,-0.009155390784144402,-0.022692613303661346
1733704414110419200,9.456419189453126,0.0026065916754305363,0.01985042914748192,-0.031338565051555634
1733704414120386000,9.466385986328126,0.0028023840859532356,0.045802801847457886,-0.03488687798380852
1733704414130353200,9.476353271484374,-0.0019191342871636152,0.05799342691898346,-0.03134940192103386
1733704414140319200,9.4863193359375,-0.009388898499310017,0.06261000037193298,-0.024995524436235428
1733704414150286000,9.4962861328125,-0.013886178843677044,0.056539054960012436,-0.02416887879371643
1733704414160252200,9.506252197265624,-0.014957301318645477,0.04860419034957886,-0.026497771963477135
1733704414170219300,9.51621923828125,-0.014005221426486969,0.04170553758740425,-0.027425616979599
1733704414180186400,9.526186279296875,-0.014462425373494625,0.030199553817510605,-0.02868303470313549
1733704414190152200,9.536152099609374,-0.013293830677866936,0.023821551352739334,-0.02705317921936512
1733704414200119300,9.546119384765625,-0.013368185609579086,0.019593648612499237,-0.026503847911953926
1733704414210086100,9.556086181640625,-0.015420684590935707,0.012418294325470924,-0.02026938833296299
1733704414220052200,9.56605224609375,-0.01374782994389534,0.0036873091012239456,-0.013144298456609249
1733704414230019000,9.57601904296875,-0.008497940376400948,-0.002537829801440239,-0.014076405204832554
1733704414239985200,9.585985107421875,-0.001329715014435351,-0.01864227093756199,-0.013900469988584518
1733704414249952300,9.5959521484375,0.005092497915029526,-0.018248122185468674,-0.010021308436989784
1733704414259919400,9.60591943359375,0.005910887382924557,-0.013995585963129997,-0.0028867004439234734
1733704414269885200,9.61588525390625,0.006432334426790476,-0.003767183981835842,0.002958139171823859
1733704414279852300,9.625852294921875,0.008977927267551422,0.003227952867746353,0.0040827239863574505
1733704414289818400,9.635818359375,0.01076863706111908,0.013053685426712036,0.0022334251552820206
1733704414299785500,9.645785400390626,0.009631427936255932,0.02078263834118843,0.000293537974357605
1733704414309752300,9.65575244140625,0.00518101966008544,0.019792739301919937,-0.0002787753473967314
1733704414319718400,9.665718505859376,0.003585223574191332,0.013030990958213806,0.0026845731772482395
1733704414329685200,9.675685302734376,0.004305608570575714,0.0012158770114183426,0.004520822316408157
1733704414339651300,9.6856513671875,0.005969835910946131,-0.010525546967983246,0.0064858789555728436
1733704414349618400,9.695618408203124,0.009971767663955688,-0.015300063416361809,0.0033777039498090744
1733704414359585300,9.705585205078124,0.010749554261565208,-0.015752986073493958,0.0025270229671150446
1733704414369551400,9.71555126953125,0.006184362806379795,-0.017120253294706345,0.0037352992221713066
1733704414379518200,9.725518310546875,0.004769561346620321,-0.016909614205360413,0.0059636738151311874
1733704414389484300,9.735484375,0.005177823826670647,-0.015252329409122467,0.005411867052316666
1733704414399451100,9.745451171875,0.004780090879648924,-0.008472349494695663,0.0020187092013657093
1733704414409418200,9.755418212890625,0.003774747485294938,-0.0010932618752121925,-0.0014173011295497417
1733704414419384300,9.76538427734375,-0.000591362186241895,0.0011235550045967102,-0.00023311679251492023
1733704414429351400,9.775351318359375,-0.00008962262654677033,0.0021246373653411865,-0.0025095867458730936
1733704414439317200,9.785317138671875,-0.0005062348209321499,-0.002988494001328945,-0.004658817779272795
1733704414449284400,9.795284423828125,0.004151900298893452,0.0016533955931663513,-0.007221844047307968
1733704414459251500,9.80525146484375,0.003852406982332468,0.0025757448747754097,-0.007642108481377363
1733704414469217300,9.81521728515625,0.004488636273890734,-0.00036438461393117905,-0.006824784446507692
1733704414479184400,9.825184326171875,0.0034374562092125416,-0.0034336596727371216,-0.008937420323491096
1733704414489150200,9.835150146484375,0.004621497355401516,-0.004482678137719631,-0.015379341319203377
1733704414499117300,9.845117431640626,0.0022615990601480007,-0.003299325704574585,-0.020588040351867676
1733704414509084200,9.855084228515626,-0.0011879935627803206,0.004506398923695087,-0.02499397285282612
1733704414519050200,9.86505029296875,-0.006662442814558744,0.014316240325570107,-0.02491762861609459
1733704414529017000,9.87501708984375,-0.007765524554997683,0.022497471421957016,-0.022894425317645073
1733704414538983400,9.8849833984375,-0.011211063712835312,0.029625460505485535,-0.024264926090836525
1733704414548950500,9.894950439453124,-0.008363611064851284,0.038225606083869934,-0.02525988407433033
1733704414558917400,9.90491748046875,-0.007151948753744364,0.04494071751832962,-0.02581673301756382
1733704414568883500,9.914883544921874,-0.003105541691184044,0.0551651269197464,-0.02930760383605957
1733704414578850300,9.924850341796875,-0.003449745010584593,0.06921151280403137,-0.03175298869609833
1733704414588816400,9.93481640625,-0.00492273923009634,0.07060594856739044,-0.03243529051542282
1733704414598783200,9.944783203125,-0.006770829204469919,0.07109498232603073,-0.02609064429998398
1733704414608750300,9.954750244140625,-0.004246152471750975,0.07089763879776001,-0.024979306384921074
1733704414618716200,9.964716064453125,-0.0026328396052122116,0.06212813779711723,-0.02322503551840782
1733704414628683300,9.974683349609375,0.002007985021919012,0.043295860290527344,-0.02200823649764061
1733704414638649300,9.9846494140625,0.00817322451621294,0.03289639577269554,-0.020965436473488808
1733704414648616200,9.9946162109375,0.008204116486012936,0.025990286841988564,-0.02139766700565815
1733704414658583300,10.004583251953125,0.006971496157348156,0.02258879691362381,-0.01942584663629532
1733704414668549400,10.01454931640625,0.006255905143916607,0.019600730389356613,-0.0188966765999794
1733704414678516500,10.0245166015625,0.0016512367874383926,0.009258915670216084,-0.01563739962875843
1733704414688482300,10.034482421875,-0.007769961375743151,-0.00020808912813663483,-0.01383044570684433
1733704414698449400,10.044449462890626,-0.010408317670226097,-0.006168194115161896,-0.007580806966871023
1733704414708416300,10.054416259765626,-0.014025157317519188,-0.008074484765529633,-0.007871357724070549
1733704414718382300,10.06438232421875,-0.01364379283040762,-0.0031415103003382683,-0.008468704298138618
1733704414728349200,10.07434912109375,-0.012949506752192974,-0.000787009485065937,-0.007257499266415834
1733704414738316300,10.08431640625,-0.010318074375391006,0.0024601323530077934,-0.005805009976029396
1733704414748282400,10.094282470703124,-0.002768545178696513,-0.0006243409588932991,-0.0051117888651788235
1733704414758249200,10.104249267578124,-0.0004307124763727188,0.0002841632813215256,-0.005334444344043732
1733704414768215300,10.11421533203125,0.004122493788599968,0.0018322588875889778,-0.005097690038383007
1733704414778182100,10.12418212890625,0.004791996441781521,0.004533609841018915,-0.003984889946877956
1733704414788149200,10.134149169921875,0.003520870115607977,0.010764074511826038,-0.00008628866635262966
1733704414798115300,10.144115234375,0.0011938868556171656,0.008058755658566952,0.0005500213010236621
1733704414808082400,10.15408251953125,0.0002151750959455967,0.004666155204176903,-0.000011106720194220543
1733704414818048300,10.16404833984375,-0.002886035479605198,-0.002512320876121521,0.00398979801684618
1733704414828015400,10.174015380859375,-0.0034690015017986298,-0.008773945271968842,0.005278501659631729
1733704414837982500,10.183982421875,-0.006233197636902332,-0.017125120386481285,0.0062554096803069115
1733704414847948300,10.1939482421875,-0.0076585207134485245,-0.027295999228954315,0.0043786801397800446
1733704414857915400,10.203915283203125,-0.011587383225560188,-0.03541841730475426,0.0054773855954408646
1733704414867881200,10.213881103515625,-0.01322176493704319,-0.04457729309797287,0.005400952883064747
1733704414877848300,10.223848388671875,-0.014893101528286934,-0.04859703406691551,0.005503705702722073
1733704414887815200,10.233815185546876,-0.013458456844091415,-0.04882659763097763,0.0034256407525390387
1733704414897781200,10.24378125,-0.01064938586205244,-0.04719352722167969,0.005509081296622753
1733704414907748000,10.253748046875,-0.006708972156047821,-0.03118846006691456,0.010258030146360397
1733704414917714400,10.26371435546875,-0.001151363831013441,-0.014090247452259064,0.010000037029385567
1733704414927681300,10.273681396484376,0.0026236670091748238,-0.005204078741371632,0.012791828252375126
1733704414937648400,10.2836484375,0.009638299234211445,0.00007109995931386948,0.010401487350463867
1733704414947614500,10.293614501953124,0.01062686461955309,0.005093022715300322,0.0101785808801651
1733704414957581300,10.303581298828124,0.011363675817847252,0.011469239369034767,0.009652790613472462
1733704414967547400,10.31354736328125,0.01730092614889145,0.014887405559420586,0.008311356417834759
1733704414977514200,10.32351416015625,0.01602189615368843,0.021850164979696274,0.005272239912301302
1733704414987481300,10.3334814453125,0.01613268256187439,0.0282707791775465,0.00500672310590744
1733704414997447200,10.343447265625,0.014280199073255062,0.027973394840955734,0.005935720168054104
1733704415007414300,10.353414306640625,0.01173448283225298,0.03132631629705429,0.005596699193120003
1733704415017380400,10.36338037109375,0.01006088126450777,0.031391777098178864,0.007208189927041531
1733704415027347200,10.37334716796875,0.011153842322528362,0.02565426006913185,0.00994538702070713
1733704415037314300,10.383314208984375,0.006405313033610582,0.018834875896573067,0.014379570260643959
1733704415047280400,10.3932802734375,0.005722744856029749,0.005869808606803417,0.019783390685915947
1733704415057247500,10.40324755859375,0.0034228700678795576,-0.009755242615938187,0.02563963085412979
1733704415067213300,10.41321337890625,0.0035216733813285828,-0.02579013630747795,0.028960326686501503
1733704415077180400,10.423180419921875,0.007321021519601345,-0.03885788470506668,0.030001653358340263
1733704415087147300,10.433147216796876,0.008573239669203758,-0.04692833125591278,0.029881810769438744
1733704415097113300,10.44311328125,0.01218896172940731,-0.0505857840180397,0.030584271997213364
1733704415107080200,10.453080078125,0.011809460818767548,-0.05026194453239441,0.03214462101459503
1733704415117046300,10.46304638671875,0.009087968617677689,-0.04867558926343918,0.036336347460746765
1733704415127013000,10.47301318359375,0.008620583452284336,-0.0454595573246479,0.03884690999984741
1733704415136980200,10.482980224609374,0.011473258957266808,-0.04683694988489151,0.039373524487018585
1733704415146946300,10.4929462890625,0.011715339496731758,-0.05188257619738579,0.037629686295986176
1733704415156913400,10.502913330078124,0.014940771274268627,-0.053253255784511566,0.03373239189386368
1733704415166879500,10.51287939453125,0.019244171679019928,-0.05624398589134216,0.03430337458848953
1733704415176846300,10.522846435546874,0.01939711533486843,-0.053611867129802704,0.029175495728850365
1733704415186813400,10.5328134765625,0.01614353246986866,-0.05111382156610489,0.025865452364087105
1733704415196779300,10.542779296875,0.01157738734036684,-0.051143888384103775,0.020153963938355446
1733704415206746400,10.552746337890625,0.0003862524463329464,-0.0514320433139801,0.014839094132184982
1733704415216712200,10.562712158203125,-0.007035837043076754,-0.04856054112315178,0.008799780160188675
1733704415226679300,10.57267919921875,-0.010671851225197315,-0.042646992951631546,0.004359757993370295
1733704415236646400,10.582646484375,-0.016904085874557495,-0.03269448131322861,-0.003185606561601162
1733704415246612200,10.5926123046875,-0.017486784607172012,-0.020803464576601982,-0.004932107869535685
1733704415256579000,10.6025791015625,-0.018011173233389854,-0.011071832850575447,-0.006991883274167776
1733704415266545400,10.61254541015625,-0.017213555052876472,-0.012631379067897797,-0.0034605315886437893
1733704415276512300,10.62251220703125,-0.014513867907226086,-0.017289521172642708,0.0037659367080777884
1733704415286479400,10.632479248046875,-0.014093620702624321,-0.015261257067322731,0.0067739770747721195
1733704415296445200,10.642445068359375,-0.009541292674839497,-0.016841886565089226,0.004234675318002701
1733704415306412300,10.652412353515626,-0.006920475512742996,-0.01223754696547985,0.0021116032730787992
1733704415316378000,10.662378173828126,-0.0027321691159158945,-0.00325777567923069,0.002046802546828985
1733704415326345200,10.67234521484375,-0.001537741394713521,-0.0010444223880767822,0.00006940541788935661
1733704415336312300,10.682312255859374,0.002287533599883318,-0.007554654031991959,0.0003452438395470381
1733704415346278100,10.692278076171876,0.005450836382806301,-0.0030629662796854973,-0.000282463151961565
1733704415356245200,10.702245361328124,0.009787052869796753,0.001519157551229,-0.0012642552610486746
1733704415366211000,10.712211181640624,0.008127104490995407,0.005869430489838123,-0.001602743286639452
1733704415376178200,10.72217822265625,0.0020555988885462284,0.006481179501861334,0.002589921932667494
1733704415386145000,10.73214501953125,-0.0031663277186453342,0.003480063285678625,0.004832037258893251
1733704415396111400,10.742111328125,-0.0037206080742180347,0.00022510066628456116,0.00798630341887474
1733704415406078200,10.752078125,-0.004660704173147678,-0.0004505431279540062,0.00688615208491683
1733704415416044300,10.762044189453125,-0.00028434861451387405,-0.00029197894036769867,0.0027898100670427084
1733704415426011100,10.77201123046875,0.0023385987151414156,0.0028220554813742638,-0.0017016110941767693
1733704415435978200,10.781978271484375,0.001695164479315281,0.00672129588201642,-0.0034469179809093475
1733704415445944300,10.7919443359375,0.0013537472113966942,0.006062962580472231,-0.0037257508374750614
1733704415455911200,10.8019111328125,0.0009262303938157856,0.0019997330382466316,-0.0016202342230826616
1733704415465877200,10.811877197265625,0.006629656068980694,0.0009344685822725296,-0.0027227827813476324
1733704415475844000,10.821843994140625,0.005268452223390341,0.004855479579418898,-0.0034566496033221483
1733704415485811200,10.831811279296875,0.008189407177269459,0.014706512913107872,-0.004387957043945789
1733704415495777000,10.841777099609375,0.0026945960707962513,0.019840776920318604,-0.0008460420649498701
1733704415505744100,10.851744140625,0.002802986651659012,0.014926180243492126,0.0022884984500706196
1733704415515710200,10.861710205078126,0.004011157900094986,0.01237022690474987,0.002253564540296793
1733704415525677300,10.87167724609375,0.006290823686867952,0.007516083773225546,0.0034485249780118465
1733704415535644400,10.88164453125,0.009826594032347202,0.001751837320625782,0.001859430456534028
1733704415545610200,10.8916103515625,0.012234624475240707,-0.00014433357864618301,-0.00030039320699870586
1733704415555577300,10.901577392578124,0.013540768064558506,-0.0003763316199183464,0.0006187364924699068
1733704415565543200,10.911543212890624,0.013206275179982185,-0.0006525013595819473,0.002386809093877673
1733704415575510300,10.92151025390625,0.009511196054518223,0.0030639320611953735,0.0038632145151495934
1733704415585477000,10.93147705078125,0.005548412911593914,0.008239518851041794,0.0005774064920842648
1733704415595443200,10.941443115234375,0.002200961345806718,0.00548509182408452,-0.0006059021688997746
1733704415605410000,10.95141015625,0.0019532875157892704,0.001924179494380951,-0.0022581275552511215
1733704415615376100,10.961376220703125,0.0016560368239879608,0.005959862843155861,-0.0038179769180715084
1733704415625343000,10.971343017578125,0.002905858214944601,0.010671260766685009,-0.007041200529783964
1733704415635310000,10.98131005859375,0.0029192049987614155,0.012933862395584583,-0.009461531415581703
1733704415645276400,10.9912763671875,0.0039786105044186115,0.014224696904420853,-0.008890016004443169
1733704415655243300,11.0012431640625,0.003974943421781063,0.017101937904953957,-0.007281300611793995
1733704415665209300,11.011209228515625,0.005921980366110802,0.014474996365606785,-0.004965148866176605
1733704415675176200,11.02117626953125,0.0036143427714705467,0.009952055290341377,0.0013738846173509955
1733704415685143300,11.031143310546875,0.0050394004210829735,0.009128871373832226,0.003341428004205227
1733704415695109000,11.041109130859375,0.005500135477632284,0.010772403329610825,0.00003733299672603607
1733704415705076200,11.051076171875,0.003975742030888796,0.011820090934634209,-0.0009405799210071564
1733704415715042000,11.0610419921875,0.0038396157324314117,0.008814903907477856,-0.0007776343263685703
1733704415725009200,11.071009033203126,0.002382600447162986,0.0006323410198092461,0.0028101762291043997
1733704415734976300,11.080976318359374,0.00639436487108469,-0.007912449538707733,0.0035905081313103437
1733704415744942000,11.090942138671876,0.007686796598136425,-0.017072658985853195,0.0030000852420926094
1733704415754909200,11.1009091796875,0.00829989742487669,-0.027150636538863182,0.005407998338341713
1733704415764875300,11.110875244140624,0.006622904911637306,-0.03740859776735306,0.009445084258913994
1733704415774842400,11.12084228515625,0.005844103172421455,-0.046399179846048355,0.015361923724412918
1733704415784809200,11.130809326171875,0.003939144313335419,-0.05907103046774864,0.021905843168497086
1733704415794775300,11.140775390625,0.005888015031814575,-0.06586652249097824,0.023559771478176117
1733704415804742100,11.1507421875,0.006400407291948795,-0.06348912417888641,0.024529162794351578
1733704415814708200,11.160708251953125,0.0025042961351573467,-0.06549461930990219,0.026826197281479836
1733704415824675000,11.170675048828125,-0.0051168715581297874,-0.07553020864725113,0.0328177772462368
1733704415834642200,11.18064208984375,-0.00890745222568512,-0.08677030354738235,0.039337314665317535
1733704415844608300,11.190608154296875,-0.010583912022411823,-0.09499601274728775,0.038860611617565155
1733704415854575000,11.2005751953125,-0.00944875180721283,-0.09223305433988571,0.03275351598858833
1733704415864541200,11.210541259765625,-0.00681648263707757,-0.08072473853826523,0.02323671244084835
1733704415874508000,11.220508056640625,-0.005598731338977814,-0.06314211338758469,0.016335945576429367
1733704415884475100,11.23047509765625,-0.004858372732996941,-0.039662353694438934,0.013095944188535213
1733704415894441200,11.240441162109375,-0.0039318278431892395,-0.009636297821998596,0.006267815828323364
1733704415904408300,11.250408203125,-0.0012058161664754152,0.016201158985495567,-0.0019576232880353928
1733704415914374100,11.2603740234375,-0.0012431106297299266,0.03830663487315178,-0.008021727204322815
1733704415924341200,11.27034130859375,-0.0007898407056927681,0.05119606852531433,-0.00888991728425026
1733704415934308400,11.280308349609374,0.0012797113740816712,0.053367361426353455,-0.003521752543747425
1733704415944274200,11.290274169921876,0.006609762087464333,0.052353229373693466,0.00019761803559958935
1733704415954241300,11.3002412109375,0.012475631199777126,0.050244785845279694,0.0009912085952237248
1733704415964207000,11.31020703125,0.01180664449930191,0.0450524240732193,0.0005877396324649453
1733704415974174200,11.32017431640625,0.010866040363907814,0.03960829973220825,-0.0011516683734953403
1733704415984141000,11.33014111328125,0.008161600679159164,0.03688468411564827,-0.00462602823972702
1733704415994107100,11.340107177734374,0.0044046854600310326,0.030728058889508247,-0.002629674505442381
1733704416004074000,11.350073974609375,0.007911003194749355,0.025363389402627945,-0.003635816741734743
1733704416014040300,11.360040283203125,0.006772512570023537,0.016667190939188004,-0.0025201328098773956
1733704416024007200,11.370007080078125,0.007350685074925423,0.00972539559006691,-0.0035856631584465504
1733704416033974300,11.379974365234375,0.006439334247261286,0.003266803454607725,-0.0014214464463293552
1733704416043940400,11.3899404296875,0.0040997471660375595,-0.005537606775760651,0.004663609899580479
1733704416053907200,11.3999072265625,0.0014353834558278322,-0.009658057242631912,0.008625711314380169
1733704416063873300,11.409873291015625,0.001889985054731369,-0.007017266005277634,0.008076833561062813
1733704416073840000,11.419840087890625,0.0055255405604839325,0.00285618519410491,0.0055534727871418
1733704416083807200,11.42980712890625,0.004482913762331009,0.011768453754484653,0.0028769958298653364
1733704416093773000,11.43977294921875,0.0031018469016999006,0.017916500568389893,0.004391619004309177
1733704416103740200,11.449740234375,0.0004778341972269118,0.013368886895477772,0.006010821089148521
1733704416113706000,11.4597060546875,0.0026046023704111576,-0.0034351833164691925,0.005738641135394573
1733704416123673000,11.469673095703126,0.006029427517205477,-0.014713935554027557,0.0036126398481428623
1733704416133640200,11.47964013671875,0.006033485289663076,-0.019425831735134125,-0.0009009307250380516
1733704416143606300,11.489606201171876,0.004309355281293392,-0.018092120066285133,-0.000405316473916173
1733704416153573400,11.499573486328124,-0.004586228169500828,-0.020349090918898582,0.004915296100080013
1733704416163539200,11.509539306640624,-0.009604688733816147,-0.020380781963467598,0.007209343370050192
1733704416173506300,11.51950634765625,-0.01395436841994524,-0.019512364640831947,0.007976500317454338
1733704416183473200,11.52947314453125,-0.015692614018917084,-0.014210276305675507,0.005526125431060791
1733704416193439200,11.539439208984374,-0.014420046471059322,-0.0060111768543720245,0.00032809912227094173
1733704416203406000,11.549406005859375,-0.011708948761224747,-0.002847074531018734,-0.003512445604428649
1733704416213372200,11.5593720703125,-0.009652660228312016,-0.00045399926602840424,-0.005123492330312729
1733704416223339000,11.569339111328125,-0.007285641971975565,-0.0021530957892537117,-0.004802847746759653
1733704416233306000,11.57930615234375,-0.005631723441183567,-0.0004449300467967987,-0.0025131586007773876
1733704416243272200,11.589272216796875,-0.006106299348175526,-0.002341100014746189,-0.003738745115697384
1733704416253238800,11.59923876953125,-0.004570173565298319,-0.006747214123606682,-0.0032726097851991653
1733704416263204900,11.609204833984375,-0.0031347298063337803,-0.010279364883899689,-0.004125087521970272
1733704416273171700,11.619171630859375,-0.003900890238583088,-0.006915278732776642,-0.006030096672475338
1733704416283138800,11.629138916015625,0.0002238136949017644,0.0008350526914000511,-0.006693490780889988
1733704416293104600,11.639104736328125,0.0002804939867928624,0.003151935525238514,-0.005613876972347498
1733704416303071700,11.64907177734375,0.0009854326490312815,0.00024083442986011505,-0.001875597983598709
1733704416313037600,11.65903759765625,0.006022176239639521,-0.005587700754404068,0.0023515205830335617
1733704416323004700,11.669004638671876,0.007336180191487074,-0.012356124818325043,0.0018029094208031893
1733704416332971800,11.6789716796875,0.008254967629909515,-0.01572083681821823,0.000644648214802146
1733704416342937600,11.6889375,0.006748950574547052,-0.015073155984282494,0.00183508126065135
1733704416352904700,11.69890478515625,0.0040099723264575005,-0.01302354782819748,0.006741662509739399
1733704416362870800,11.708870849609376,0.0025343147572129965,-0.010955870151519775,0.008889235556125641
1733704416372838000,11.718837890625,-0.0005246283253654838,-0.010299298912286758,0.006013400852680206
1733704416382804700,11.7288046875,0.0005587455816566944,-0.011416761204600334,-0.00016193720512092113
1733704416392770800,11.738770751953124,-0.002066441811621189,-0.002487548626959324,-0.005605955608189106
1733704416402738000,11.748738037109375,0.0002837976790033281,0.005806867033243179,-0.0071023860946297646
1733704416412703700,11.758703857421875,-0.0036216103471815586,0.013260423205792904,-0.008549517020583153
1733704416422670800,11.7686708984375,-0.005725773982703686,0.018945205956697464,-0.0076706730760633945
1733704416432637700,11.7786376953125,-0.005953370593488216,0.023051224648952484,-0.009064425714313984
