time,seconds_elapsed,z,y,x
1733699913665774000,0.021774169921875,0.02200687676668167,0.012463275343179703,-0.001573365181684494
1733699913675729200,0.031729248046875,0.010559357702732086,0.0035742362961173058,0.0014374487800523639
1733699913685684200,0.041684326171875,-0.0037801675498485565,-0.006399568170309067,-0.00551952701061964
1733699913695639000,0.05163916015625,-0.012039696797728539,-0.007411431986838579,-0.01217909436672926
1733699913705594000,0.061593994140625,-0.012629319913685322,-0.007342989090830088,-0.013400153256952763
1733699913715549200,0.071549072265625,-0.010000338777899742,-0.0051698763854801655,-0.008302172645926476
1733699913725503200,0.081503173828125,-0.006919593550264835,-0.0017197513952851295,-0.0053045186214149
1733699913735458000,0.0914580078125,-0.005447930656373501,0.002188171027228236,-0.0014756920281797647
1733699913745413000,0.1014130859375,-0.0066533624194562435,0.0075032408349215984,-0.000862878980115056
1733699913755368000,0.111367919921875,-0.00718883890658617,0.014479047618806362,-0.000690394314005971
1733699913765323000,0.121322998046875,-0.006277238950133324,0.01864556223154068,-0.0009005176834762096
1733699913775278000,0.131278076171875,0.002695041010156274,0.020196760073304176,-0.002624204847961664
1733699913785233000,0.14123291015625,0.009895163588225842,0.020609550178050995,0.0022632284089922905
1733699913795188000,0.15118798828125,0.016733627766370773,0.018118832260370255,0.004761739633977413
1733699913805142000,0.16114208984375,0.01678156480193138,0.014493737369775772,0.0027555807027965784
1733699913815097000,0.17109716796875,0.011726528406143188,0.012362770736217499,0.0018451352370902896
1733699913825052000,0.181052001953125,0.0022768338676542044,0.012012830935418606,-0.0006619645282626152
1733699913835007000,0.191007080078125,-0.0013188739540055394,0.013614087365567684,-0.002907764632254839
1733699913844962000,0.200962158203125,-0.004721328616142273,0.01554700918495655,-0.005739237647503614
1733699913854917000,0.210917236328125,-0.006271735765039921,0.013576862402260303,-0.006215298548340797
1733699913864872000,0.220871826171875,-0.004953471012413502,0.009409015066921711,-0.004824862349778414
1733699913874827000,0.230826904296875,-0.00504304189234972,-0.0013619165401905775,-0.00593391340225935
1733699913884782000,0.240781982421875,-0.005288851447403431,-0.011355961672961712,-0.004076625220477581
1733699913894736100,0.250736083984375,-0.004262112081050873,-0.01963929459452629,-0.0028480656910687685
1733699913904691000,0.26069091796875,-0.002712418558076024,-0.02426147647202015,-0.0005987598560750484
1733699913914646000,0.27064599609375,0.0001208488829433918,-0.029873495921492577,-0.0012593993451446295
1733699913924601000,0.28060107421875,-0.00013295048847794533,-0.03734392672777176,0.0009843138977885246
1733699913934556000,0.290555908203125,0.001225688960403204,-0.037895359098911285,0.0029596672393381596
1733699913944511000,0.300510986328125,-0.0009125631768256426,-0.04021390527486801,0.009148587472736835
1733699913954466000,0.310466064453125,0.002168801613152027,-0.04295491799712181,0.012162530794739723
1733699913964421000,0.320421142578125,0.003812771290540695,-0.038957513868808746,0.01545552909374237
1733699913974375000,0.330375,0.0069498056545853615,-0.03717382624745369,0.014490710571408272
1733699913984330000,0.340330078125,0.01331875566393137,-0.032393187284469604,0.011359632015228271
1733699913994285000,0.35028515625,0.017081376165151596,-0.025111814960837364,0.0072824470698833466
1733699914004240100,0.360240234375,0.014927677810192108,-0.014719096012413502,0.005249655805528164
1733699914014195000,0.37019482421875,0.009165551513433456,-0.004697240889072418,0.0029578255489468575
1733699914024150000,0.38014990234375,0.0033891559578478336,0.0027657351456582546,-0.002109903609380126
1733699914034105000,0.39010498046875,-0.0043028416112065315,0.010464520193636417,-0.002517965156584978
1733699914044060000,0.400059814453125,-0.006422718055546284,0.019276920706033707,-0.004741172306239605
1733699914054015000,0.410014892578125,-0.003967916127294302,0.029340578243136406,-0.004233619663864374
1733699914063969000,0.419968994140625,-0.0026147637981921434,0.03412095084786415,-0.0051737152971327305
1733699914073924000,0.429924072265625,-0.002552532823756337,0.031348951160907745,-0.0036451052874326706
1733699914083879000,0.43987890625,-0.0025631855241954327,0.023517129942774773,-0.003714080899953842
1733699914093834000,0.449833984375,-0.002247690688818693,0.00849925447255373,-0.004782386124134064
1733699914103789000,0.4597890625,-0.005835501477122307,-0.00525197759270668,-0.003226833650842309
1733699914113744100,0.469744140625,-0.004980623722076416,-0.014699678868055344,0.0023517569061368704
1733699914123699000,0.479698974609375,0.0011238742154091597,-0.01865340769290924,0.0022004893980920315
1733699914133654000,0.489654052734375,0.003840828314423561,-0.017312634736299515,0.004733621142804623
1733699914143608000,0.499608154296875,0.005704242270439863,-0.014203394763171673,0.0037511810660362244
1733699914153563100,0.509563232421875,0.0026472059544175863,-0.008444850333034992,0.0009017324773594737
1733699914163518000,0.51951806640625,-0.000328876543790102,-0.008027533069252968,-0.0002333067823201418
1733699914173473000,0.52947314453125,0.000189558370038867,-0.013310231268405914,-0.001893497770652175
1733699914183428000,0.539427978515625,-0.0035047787241637707,-0.02171996235847473,-0.002416276605799794
1733699914193383000,0.5493828125,-0.004311877302825451,-0.025488171726465225,-0.0006952944677323103
1733699914203338000,0.559337890625,-0.0037323732394725084,-0.02454674430191517,0.003381738904863596
1733699914213293000,0.56929296875,0.000013602431863546371,-0.01972319930791855,0.0061747245490550995
1733699914223248100,0.579248046875,0.0016112327575683594,-0.016097038984298706,0.00679524103179574
1733699914233202000,0.589201904296875,0.0038940254598855972,-0.017081810161471367,0.005177329294383526
1733699914243157000,0.599156982421875,0.004177119117230177,-0.016411758959293365,0.000747959828004241
1733699914253112000,0.609112060546875,0.00021290406584739685,-0.012750212103128433,0.00047900096978992224
1733699914263067000,0.61906689453125,-0.0007988307625055313,-0.01188814640045166,-0.00042381067760288715
1733699914273022000,0.62902197265625,0.00068420241586864,-0.014003814198076725,-0.0010472333524376154
1733699914282977000,0.63897705078125,-0.000645247520878911,-0.015119144693017006,-0.0030765619594603777
1733699914292932000,0.64893212890625,-0.0008743535727262497,-0.014970465563237667,-0.0036887312307953835
1733699914302887000,0.658886962890625,-0.0001238747499883175,-0.014211464673280716,-0.0017651300877332687
1733699914312841000,0.668841064453125,0.004110007546842098,-0.008696580305695534,-0.0010957466438412666
1733699914322796000,0.678796142578125,0.004220528993755579,0.0005075702210888267,0.00017671170644462109
1733699914332751000,0.688751220703125,0.0037540120538324118,0.007910292595624924,0.0018577404553070664
1733699914342706000,0.698705810546875,-0.0007379417074844241,0.014401480555534363,0.0004537219647318125
1733699914352661200,0.7086611328125,-0.004375968594104052,0.016605261713266373,-0.0011186257470399141
1733699914362616000,0.718615966796875,-0.0033724894747138023,0.014939453452825546,-0.0014166333712637424
1733699914372571000,0.72857080078125,-0.001984641421586275,0.007284920196980238,-0.0022356470581144094
1733699914382526000,0.73852587890625,-0.0021612090058624744,-0.005495323333889246,-0.002049225615337491
1733699914392480300,0.748480224609375,-0.0004560027737170458,-0.015770046040415764,-0.0003807574976235628
1733699914402435000,0.75843505859375,0.0008774420712143183,-0.018620161339640617,0.0020861285738646984
1733699914412390000,0.768389892578125,0.003924462012946606,-0.014501016587018967,0.0019034147262573242
1733699914422345000,0.778344970703125,0.003079174319282174,-0.013449334539473057,0.0020703948102891445
1733699914432300000,0.788300048828125,0.0023597681429237127,-0.011316589079797268,0.0002455529756844044
1733699914442255000,0.798255126953125,0.004091089591383934,-0.011713134124875069,0.000423185876570642
1733699914452210000,0.8082099609375,0.00596710667014122,-0.01639692112803459,0.000421099248342216
1733699914462165000,0.8181650390625,0.0029769090469926596,-0.022851092740893364,-0.001069471938535571
1733699914472119000,0.828119140625,-0.0017739629838615656,-0.02371908910572529,-0.002076119417324662
1733699914482074000,0.83807421875,-0.0048523107543587685,-0.018957888707518578,-0.0030819952953606844
1733699914492029000,0.84802880859375,-0.007139988709241152,-0.012493577785789967,-0.0032678882125765085
1733699914501984000,0.85798388671875,-0.007554110139608383,-0.0033600006718188524,-0.0030183501075953245
1733699914511939000,0.86793896484375,-0.0033407355658710003,0.0014535437803715467,-0.002528263721615076
1733699914521894000,0.877893798828125,0.001977331005036831,0.003091387916356325,0.001978603657335043
1733699914531849000,0.887848876953125,0.004882777109742165,0.006199758034199476,0.0016835524002090096
1733699914541804000,0.897803955078125,0.004960275255143642,0.004055380821228027,0.0018262978410348296
1733699914551758000,0.907758056640625,0.0045569883659482,-0.002542781876400113,0.0021540892776101828
1733699914561713000,0.917712890625,0.0034930550027638674,-0.006746049039065838,0.003186863148584962
1733699914571668000,0.92766796875,0.004223272204399109,-0.009801208041608334,0.003008160972967744
1733699914581623000,0.937623046875,0.004645915701985359,-0.007255491800606251,0.001500811893492937
1733699914591578000,0.947578125,0.0008166427724063396,-0.0009244448156096041,0.002853209152817726
1733699914601533000,0.957532958984375,-0.0016441179905086756,0.005890850443392992,0.002632166724652052
1733699914611488000,0.967488037109375,-0.0018454436212778091,0.014000965282320976,0.0009659613715484738
1733699914621442000,0.977442138671875,-0.0019594270270317793,0.018730739131569862,0.0016093810554593801
1733699914631397000,0.987397216796875,-0.0019607783760875463,0.020332787185907364,-0.0003603622317314148
1733699914641352000,0.99735205078125,0.0007042468059808016,0.01892104558646679,0.00043432507663965225
1733699914651307000,1.00730712890625,-0.0003339918330311775,0.013595793396234512,-0.0005477312952280045
1733699914661262000,1.017261962890625,-0.000019206199795007706,0.00527794286608696,-0.0010862224735319614
1733699914671217000,1.027216796875,-0.0024709394201636314,-0.0056493827141821384,-0.0010298348497599363
1733699914681172200,1.037172119140625,-0.0009646556572988629,-0.010705926455557346,-0.0004311562515795231
1733699914691127000,1.047126953125,0.002580554224550724,-0.009420960210263729,0.0015650176210328937
1733699914701081000,1.0570810546875,0.004100686404854059,-0.005685877054929733,0.00042944576125591993
1733699914711036000,1.067035888671875,0.004118294455111027,0.00029595656087622046,0.00041646917816251516
1733699914720991200,1.0769912109375,0.0026045539416372776,-0.00105879339389503,-0.00017581786960363388
1733699914730946000,1.086946044921875,-0.001021781237795949,-0.0012507648207247257,0.0016786527121439576
1733699914740901000,1.096901123046875,-0.00203644554130733,-0.006919302977621555,0.0006032682722434402
1733699914750856000,1.10685595703125,-0.0035292699467390776,-0.013742205686867237,0.0003090709215030074
1733699914760811000,1.11681103515625,-0.0025412370450794697,-0.014222373254597187,0.00008989265188574791
1733699914770766000,1.12676611328125,-0.0018554490525275469,-0.01353476569056511,0.0036329671274870634
1733699914780719900,1.136719970703125,-0.001951322890818119,-0.01224659476429224,0.0015639571938663721
1733699914790675200,1.14667529296875,0.0012410799972712994,-0.009703882969915867,0.0029516383074223995
1733699914800630000,1.156630126953125,0.0017643910832703114,-0.005023111589252949,0.001882645534351468
1733699914810585000,1.166585205078125,0.0025630926247686148,-0.0011451649479568005,0.002033584052696824
1733699914820540000,1.176539794921875,0.002999318530783057,0.001047681667841971,0.0017851111479103565
1733699914830495200,1.1864951171875,0.0005324189551174641,0.0064336690120399,0.0011979596456512809
1733699914840450000,1.196449951171875,-0.0008553541265428066,0.009460884146392345,-0.0006489425431936979
1733699914850404000,1.206404052734375,-0.0031248796731233597,0.011538799852132797,-0.001766684465110302
1733699914860359000,1.21635888671875,-0.005476716905832291,0.012013108469545841,-0.0014441758394241333
1733699914870314200,1.226314208984375,-0.00478519219905138,0.007958009839057922,-0.0007311108056455851
1733699914880269000,1.23626904296875,-0.0039553516544401646,0.004239171277731657,0.0011738482862710953
1733699914890223900,1.246223876953125,-0.003382881637662649,0.004412648733705282,0.001041686744429171
1733699914900179200,1.25617919921875,-0.001810817513614893,0.010539517737925053,0.0036406656727194786
1733699914910134000,1.266134033203125,-0.0019946482498198748,0.01946411095559597,0.005735866725444794
1733699914920089000,1.276089111328125,-0.0018630881095305085,0.03872915357351303,0.009514093399047852
1733699914930043000,1.28604296875,-0.000693504698574543,0.06381207704544067,0.01715632528066635
1733699914939998200,1.295998291015625,-0.0036938218399882317,0.0867602750658989,0.02851870283484459
1733699914949953000,1.305953125,-0.014815249480307102,0.10619450360536575,0.04036320373415947
1733699914959908000,1.315908203125,-0.03036251850426197,0.11065822839736938,0.05539967864751816
1733699914969863200,1.32586328125,-0.04491666704416275,0.1006656289100647,0.0760100856423378
1733699914979818000,1.33581787109375,-0.05575892701745033,0.07888896018266678,0.09656542539596558
1733699914989773000,1.34577294921875,-0.05647110193967819,0.044363100081682205,0.11287268996238708
1733699914999727000,1.35572705078125,-0.04651061072945595,0.012435263022780418,0.12791608273983002
1733699915009682200,1.36568212890625,-0.02513575181365013,-0.021852338686585426,0.13222944736480713
1733699915019637000,1.375636962890625,0.008144441060721874,-0.06034860014915466,0.12172194570302963
1733699915029592000,1.385592041015625,0.04345105215907097,-0.056991834193468094,0.08804141730070114
1733699915039547000,1.395546875,0.06200236827135086,-0.10167195647954941,0.05059124529361725
1733699915049502200,1.405502197265625,0.05845591798424721,-0.11207301169633865,0.017225343734025955
1733699915059457000,1.41545703125,0.03368638828396797,-0.06665253639221191,0.008795640431344509
1733699915069412000,1.425412109375,-0.003540757577866316,0.0030382878612726927,0.01562856324017048
1733699915079366000,1.435365966796875,-0.033462703227996826,0.077560193836689,0.013420268893241882
1733699915089321200,1.4453212890625,-0.06312591582536697,0.1597374975681305,0.012819383293390274
1733699915099276000,1.455276123046875,-0.09635790437459946,0.24311521649360657,0.022570013999938965
1733699915109231000,1.465231201171875,-0.1264418512582779,0.30007973313331604,0.029612325131893158
1733699915119186200,1.475186279296875,-0.15170326828956604,0.32533663511276245,0.0284876711666584
1733699915129141000,1.48514111328125,-0.1604103296995163,0.3108136057853699,0.018284188583493233
1733699915139096000,1.495095947265625,-0.1587197482585907,0.2640586197376251,0.003957713022828102
1733699915149050000,1.505050048828125,-0.14009851217269897,0.20547892153263092,-0.0009748716838657856
1733699915159005200,1.515005126953125,-0.12190433591604233,0.15244020521640778,0.0057022059336304665
1733699915168960000,1.5249599609375,-0.09722913056612015,0.10201597213745117,0.013499906286597252
1733699915178915000,1.5349150390625,-0.08188585937023163,0.04727177321910858,0.012350485660135746
1733699915188870000,1.544869873046875,-0.06943555176258087,0.0015291385352611542,0.0050516570918262005
1733699915198825200,1.5548251953125,-0.0572366826236248,-0.021311728283762932,-0.0021585854701697826
1733699915208780000,1.564780029296875,-0.05310121178627014,-0.028081856667995453,-0.010086232796311378
1733699915218734000,1.574734130859375,-0.0535731203854084,-0.016704833135008812,-0.011871881783008575
1733699915228689000,1.58468896484375,-0.06391101330518723,-0.006573180202394724,-0.014448456466197968
1733699915238644200,1.594644287109375,-0.07688460499048233,-0.013318434357643127,-0.014928624033927917
1733699915248599000,1.60459912109375,-0.09743016958236694,-0.014011077582836151,-0.016395244747400284
1733699915258553900,1.614553955078125,-0.12199357151985168,-0.009033629670739174,-0.010728036984801292
1733699915268509200,1.62450927734375,-0.14149855077266693,0.014549322426319122,-0.0030926859471946955
1733699915278464000,1.634464111328125,-0.15712624788284302,0.03754385560750961,-0.002466576872393489
1733699915288418000,1.64441796875,-0.16212452948093414,0.05953631177544594,-0.012306330725550652
1733699915298372900,1.654372802734375,-0.17343471944332123,0.08851310610771179,-0.028079168871045113
1733699915308328200,1.664328125,-0.18218958377838135,0.10576412081718445,-0.047164641320705414
1733699915318283000,1.674282958984375,-0.1956811547279358,0.11870335787534714,-0.0625542551279068
1733699915328238000,1.684238037109375,-0.20845139026641846,0.1269090622663498,-0.07215519994497299
1733699915338193200,1.694193115234375,-0.22073708474636078,0.13132138550281525,-0.07976358383893967
1733699915348148200,1.704148193359375,-0.23582303524017334,0.12557797133922577,-0.08132697641849518
1733699915358102000,1.71410205078125,-0.24719126522541046,0.13760028779506683,-0.08891698718070984
1733699915368057000,1.72405712890625,-0.25662893056869507,0.1649511605501175,-0.10244781523942947
1733699915378012000,1.734011962890625,-0.26055070757865906,0.20462241768836975,-0.12294137477874756
1733699915387967200,1.74396728515625,-0.26415345072746277,0.24516956508159637,-0.13694506883621216
1733699915397922000,1.753922119140625,-0.26929813623428345,0.2857398986816406,-0.14238058030605316
1733699915407876900,1.763876953125,-0.27374154329299927,0.32513850927352905,-0.13741940259933472
1733699915417832200,1.773832275390625,-0.2790282070636749,0.3430996537208557,-0.12382449209690094
1733699915427786000,1.783785888671875,-0.28102776408195496,0.35865071415901184,-0.10874638706445694
1733699915437741000,1.793740966796875,-0.2723029851913452,0.3531552851200104,-0.09955582022666931
1733699915447696000,1.80369580078125,-0.2530999183654785,0.33734139800071716,-0.10648921132087708
1733699915457651200,1.813651123046875,-0.22829310595989227,0.3219033181667328,-0.11988943815231323
1733699915467606000,1.82360595703125,-0.20469747483730316,0.31695324182510376,-0.13321106135845184
1733699915477561000,1.83356103515625,-0.1840377300977707,0.3282674252986908,-0.13442546129226685
1733699915487516200,1.84351611328125,-0.16389445960521698,0.3371693789958954,-0.1254032552242279
1733699915497470200,1.85347021484375,-0.15027159452438354,0.33034637570381165,-0.10019590705633163
1733699915507425000,1.863425048828125,-0.13569200038909912,0.3121378421783447,-0.06904652714729309
1733699915517380000,1.873380126953125,-0.12117990851402283,0.28073251247406006,-0.041861772537231445
1733699915527335200,1.883335205078125,-0.10302910208702087,0.23779234290122986,-0.024014657363295555
1733699915537290000,1.8932900390625,-0.07970700412988663,0.19160513579845428,-0.023372303694486618
1733699915547245000,1.9032451171875,-0.04601040482521057,0.13583478331565857,-0.027224285528063774
1733699915557200000,1.913199951171875,-0.0058720409870147705,0.07506704330444336,-0.028898080810904503
1733699915567154200,1.923154296875,0.03240315616130829,0.017979536205530167,-0.02670111134648323
1733699915577109000,1.93310888671875,0.06583994626998901,-0.032283902168273926,-0.014995187520980835
1733699915587064000,1.94306396484375,0.08575630187988281,-0.06686721742153168,0.00145797710865736
1733699915597019000,1.953018798828125,0.09624409675598145,-0.08913736790418625,0.014141814783215523
1733699915606974200,1.96297412109375,0.09251590818166733,-0.11025795340538025,0.022841356694698334
1733699915616929000,1.972928955078125,0.087038055062294,-0.12064561247825623,0.03360292315483093
1733699915626884000,1.982884033203125,0.07505467534065247,-0.12505890429019928,0.04137570410966873
1733699915636838000,1.992837890625,0.06271358579397202,-0.12417658418416977,0.047843724489212036
1733699915646793200,2.002793212890625,0.051637258380651474,-0.12241842597723007,0.052099086344242096
1733699915656748000,2.012748046875,0.04450717940926552,-0.12357556819915771,0.05427195876836777
1733699915666703000,2.022703125,0.04075653851032257,-0.1244225800037384,0.055317044258117676
1733699915676658200,2.032658203125,0.042943526059389114,-0.12733794748783112,0.05479160323739052
1733699915686613000,2.042613037109375,0.045636385679244995,-0.13059768080711365,0.055915068835020065
1733699915696568000,2.052568115234375,0.043236877769231796,-0.13289624452590942,0.059400081634521484
1733699915706522000,2.062522216796875,0.04238854721188545,-0.134552463889122,0.06134364753961563
1733699915716477200,2.072477294921875,0.039510201662778854,-0.13917997479438782,0.06490615755319595
1733699915726432000,2.082431884765625,0.040458403527736664,-0.14132218062877655,0.06438096612691879
1733699915736387000,2.092386962890625,0.04267708584666252,-0.1418106108903885,0.06237134709954262
1733699915746342000,2.102341796875,0.0463426373898983,-0.1400366723537445,0.061586908996105194
1733699915756296700,2.112296630859375,0.05410681664943695,-0.1374744325876236,0.05470024049282074
1733699915766250500,2.12225048828125,0.05774786323308945,-0.1352594792842865,0.04227352514863014
1733699915776205800,2.132205810546875,0.05842297524213791,-0.13079974055290222,0.033383626490831375
1733699915786160600,2.14216064453125,0.05526229739189148,-0.12667714059352875,0.02737392671406269
1733699915796115700,2.15211572265625,0.04815245419740677,-0.11847062408924103,0.02514086663722992
1733699915806070500,2.162070556640625,0.04332009702920914,-0.11063433438539505,0.02512425184249878
1733699915816025900,2.17202587890625,0.037060871720314026,-0.09566310793161392,0.026286190375685692
1733699915825980700,2.181980712890625,0.03352685645222664,-0.0793595016002655,0.024139149114489555
1733699915835934700,2.191934814453125,0.032838162034749985,-0.06833294779062271,0.020049599930644035
1733699915845889500,2.2018896484375,0.036865703761577606,-0.060332607477903366,0.01596088334918022
1733699915855844900,2.211844970703125,0.0389549545943737,-0.06108894571661949,0.011995702050626278
1733699915865799700,2.221799560546875,0.0429493747651577,-0.06558682769536972,0.009051207453012466
1733699915875754500,2.23175439453125,0.04691535606980324,-0.07306604832410812,0.007606709375977516
1733699915885709800,2.241709716796875,0.05170854553580284,-0.0736757442355156,0.009096533060073853
1733699915895663600,2.25166357421875,0.05662447586655617,-0.06837259232997894,0.008413964882493019
1733699915905618700,2.26161865234375,0.05885878577828407,-0.06093168631196022,0.00470323022454977
1733699915915573500,2.271573486328125,0.059414323419332504,-0.05690392106771469,0.0005313882138580084
1733699915925528800,2.28152880859375,0.05681021511554718,-0.05161094292998314,0.00048214709386229515
1733699915935483600,2.291483642578125,0.057375337928533554,-0.05041864514350891,0.004820702597498894
1733699915945438700,2.301438720703125,0.05541205406188965,-0.05625895783305168,0.01313589047640562
1733699915955393800,2.311393798828125,0.05476357415318489,-0.06687059253454208,0.023046843707561493
1733699915965347800,2.321347900390625,0.05156344175338745,-0.07964835315942764,0.03019845485687256
1733699915975302700,2.331302734375,0.053570397198200226,-0.08871641755104065,0.03716954588890076
1733699915985257700,2.3412578125,0.05759721249341965,-0.09681283682584763,0.040113743394613266
1733699915995212800,2.351212890625,0.0647139772772789,-0.10155646502971649,0.03984982520341873
1733699916005167600,2.361167724609375,0.07312912493944168,-0.10539776086807251,0.039363909512758255
1733699916015122700,2.371122802734375,0.08207415044307709,-0.11214248090982437,0.03868027776479721
1733699916025077500,2.381077392578125,0.09264504909515381,-0.12098059058189392,0.040497954934835434
1733699916035031800,2.39103173828125,0.09939137101173401,-0.13145186007022858,0.04330252856016159
1733699916044986600,2.400986572265625,0.10885100811719894,-0.14286108314990997,0.043543923646211624
1733699916054941700,2.410941650390625,0.11652730405330658,-0.15862353146076202,0.034459881484508514
1733699916064896500,2.420896484375,0.11617767810821533,-0.16691824793815613,0.020666047930717468
1733699916074851800,2.430851806640625,0.11156827956438065,-0.15968136489391327,0.009354004636406898
1733699916084806700,2.440806640625,0.10170169919729233,-0.1257895678281784,0.0009492659009993076
1733699916094760700,2.4507607421875,0.08902718126773834,-0.0806569755077362,-0.0053483108058571815
1733699916104715500,2.460715576171875,0.06859338283538818,-0.02590359002351761,-0.012463942170143127
1733699916114670800,2.4706708984375,0.03862803056836128,0.028137274086475372,-0.018815580755472183
1733699916124625700,2.480625732421875,0.01459909975528717,0.08401040732860565,-0.024297570809721947
1733699916134580700,2.490580810546875,-0.004060338716953993,0.1269802302122116,-0.025656582787632942
1733699916144535800,2.500535888671875,-0.009894127026200294,0.15952609479427338,-0.024927884340286255
1733699916154489900,2.51048974609375,-0.01140413898974657,0.177282452583313,-0.021609853953123093
1733699916164444700,2.520444580078125,0.0003280059900134802,0.18687833845615387,-0.027607416734099388
1733699916174399500,2.5303994140625,0.010638699866831303,0.1833840012550354,-0.03759480267763138
1733699916184354800,2.540354736328125,0.01795073226094246,0.17436566948890686,-0.04739160090684891
1733699916194309600,2.5503095703125,0.022208062931895256,0.15863624215126038,-0.04841692000627518
1733699916204264700,2.5602646484375,0.027678336948156357,0.14558996260166168,-0.043775975704193115
1733699916214219500,2.570219482421875,0.03285578638315201,0.12444739043712616,-0.036251746118068695
1733699916224173800,2.580173828125,0.032954175025224686,0.09808186441659927,-0.024839049205183983
1733699916234128600,2.590128662109375,0.02840736322104931,0.07067181169986725,-0.008381512016057968
1733699916244083700,2.600083740234375,0.03390158712863922,0.04895589128136635,0.0076110223308205605
1733699916254038500,2.61003857421875,0.048480793833732605,0.021384717896580696,0.019213350489735603
1733699916263993900,2.619993896484375,0.07046343386173248,-0.0013084860984236002,0.02279217727482319
1733699916273948700,2.62994873046875,0.0981999859213829,-0.021341050043702126,0.023054763674736023
1733699916283902700,2.63990283203125,0.1265069842338562,-0.04044283926486969,0.01835055649280548
1733699916293857500,2.649857421875,0.1534648835659027,-0.06888661533594131,0.010691515170037746
1733699916303812900,2.659812744140625,0.1744677573442459,-0.11095228046178818,0.009544743224978447
1733699916313767700,2.669767578125,0.1843925565481186,-0.16320110857486725,0.015629267320036888
1733699916323722500,2.679722412109375,0.18577887117862701,-0.21281413733959198,0.03534235805273056
1733699916333677800,2.689677734375,0.17999981343746185,-0.23720389604568481,0.06048659235239029
1733699916343632000,2.6996318359375,0.1663123071193695,-0.25268539786338806,0.08938801288604736
1733699916353586700,2.709586669921875,0.1596599966287613,-0.2552039325237274,0.1178409606218338
1733699916363541500,2.71954150390625,0.16356289386749268,-0.2584814131259918,0.1383173018693924
1733699916373496800,2.729496826171875,0.1750008910894394,-0.27414610981941223,0.14746633172035217
1733699916383451600,2.73945166015625,0.18693500757217407,-0.32034483551979065,0.15444143116474152
1733699916393406700,2.74940673828125,0.19858740270137787,-0.40125352144241333,0.15046720206737518
1733699916403361800,2.75936181640625,0.21081678569316864,-0.48867252469062805,0.1321161389350891
1733699916413315800,2.76931591796875,0.21639716625213623,-0.568581759929657,0.08994950354099274
1733699916423270700,2.779270751953125,0.20418572425842285,-0.6237067580223083,0.02946312725543976
1733699916433225700,2.789225830078125,0.16068245470523834,-0.631649374961853,-0.03190276026725769
1733699916443180800,2.799180908203125,0.06783821433782578,-0.5721095204353333,-0.08468229323625565
1733699916453135600,2.809135498046875,-0.043770067393779755,-0.43558576703071594,-0.1097322553396225
1733699916463090700,2.819090576171875,-0.15366770327091217,-0.25779375433921814,-0.128068208694458
1733699916473044700,2.829044677734375,-0.25445395708084106,-0.08589015901088715,-0.12791001796722412
1733699916482999800,2.838999755859375,-0.332931786775589,0.04662477970123291,-0.10252571851015091
1733699916492954600,2.84895458984375,-0.3704322874546051,0.1389738917350769,-0.06636398285627365
1733699916502909700,2.85890966796875,-0.36252081394195557,0.1848621666431427,-0.02945251204073429
1733699916512864500,2.868864501953125,-0.31284859776496887,0.17700983583927155,-0.001778805861249566
1733699916522819800,2.87881982421875,-0.22735187411308289,0.16107457876205444,0.00109339808113873
1733699916532773600,2.888773681640625,-0.12211465835571289,0.11638221144676208,-0.008179995231330395
1733699916542728700,2.898728759765625,0.0020212442614138126,-0.0025610525626689196,0.0016397947911173105
1733699916552683500,2.90868359375,0.11373791843652725,-0.09980371594429016,0.01188923604786396
1733699916562638800,2.918638916015625,0.20138141512870789,-0.1476469188928604,0.017342353239655495
1733699916572593700,2.92859375,0.27300024032592773,-0.1803542673587799,0.023288926109671593
1733699916582548700,2.938548828125,0.32251060009002686,-0.19701655209064484,0.03570482134819031
1733699916592502500,2.94850244140625,0.3507196009159088,-0.20394183695316315,0.05261828750371933
1733699916602457900,2.958457763671875,0.356966495513916,-0.20533274114131927,0.06349154561758041
1733699916612412700,2.96841259765625,0.3549880385398865,-0.19813553988933563,0.06801892071962357
1733699916622367700,2.97836767578125,0.3481808304786682,-0.17900459468364716,0.07371655106544495
1733699916632322800,2.98832275390625,0.3125869035720825,-0.16157394647598267,0.06771378964185715
1733699916642277600,2.998277587890625,0.24875034391880035,-0.1310116946697235,0.05627907067537308
1733699916652231700,3.008231689453125,0.16976283490657806,-0.08398560434579849,0.05021665245294571
1733699916662186500,3.0181865234375,0.104518823325634,-0.01864360272884369,0.050016507506370544
1733699916672141800,3.028141845703125,0.0679411068558693,0.04614551365375519,0.04077267646789551
1733699916682096600,3.0380966796875,0.05753415450453758,0.10633958876132965,0.0248270146548748
1733699916692051700,3.0480517578125,0.06438913196325302,0.15635748207569122,0.012193775735795498
1733699916702006500,3.058006591796875,0.06702280789613724,0.18057920038700104,0.0035319747403264046
1733699916711960800,3.0679609375,0.06024719402194023,0.18480883538722992,-0.0019575990736484528
1733699916721915600,3.07791552734375,0.03704435005784035,0.17017225921154022,-0.0077643017284572124
1733699916731870700,3.08787060546875,0.013676176778972149,0.14314863085746765,-0.012106053531169891
1733699916741825500,3.097825439453125,-0.010348224081099033,0.11408974975347519,-0.015005531720817089
1733699916751780900,3.10778076171875,-0.024534083902835846,0.08629433810710907,-0.015355738811194897
1733699916761735700,3.117735595703125,-0.028973659500479698,0.04986938461661339,-0.014942769892513752
1733699916771689700,3.127689697265625,-0.02501913160085678,0.014674112200737,-0.011883595958352089
1733699916781644800,3.137644775390625,-0.014334384351968765,-0.02855975553393364,-0.006855490151792765
1733699916791599900,3.147599853515625,-0.004562447778880596,-0.08547098189592361,-0.0008162395097315311
1733699916801554700,3.1575546875,0.0015363134443759918,-0.14469370245933533,0.002350999740883708
1733699916811509800,3.167509765625,0.009148160926997662,-0.20323078334331512,0.008253363892436028
1733699916821464800,3.17746484375,0.015997499227523804,-0.25605878233909607,0.01387086883187294
1733699916831419000,3.1874189453125,0.019540036097168922,-0.3028249442577362,0.017624327912926674
1733699916841373700,3.197373779296875,0.02584303356707096,-0.3439137637615204,0.02046496793627739
1733699916851328800,3.207328857421875,0.025911476463079453,-0.36753201484680176,0.023032255470752716
1733699916861283800,3.217283935546875,0.025199471041560173,-0.38246238231658936,0.0241232942789793
1733699916871238700,3.22723876953125,0.0210952740162611,-0.38453033566474915,0.022170664742588997
1733699916881194000,3.237194091796875,0.014813700690865517,-0.3718842566013336,0.018645022064447403
1733699916891147800,3.247147705078125,0.010097509250044823,-0.33093976974487305,0.018168583512306213
1733699916901102800,3.257102783203125,0.0008544053416699171,-0.2617725431919098,0.01637754589319229
1733699916911057700,3.2670576171875,-0.010930881835520267,-0.1700889766216278,0.017295004799962044
1733699916921013000,3.277012939453125,-0.02014731615781784,-0.07486771047115326,0.012068986892700195
1733699916930967800,3.2869677734375,-0.022479712963104248,0.005115004722028971,0.007667846977710724
1733699916940922600,3.296922607421875,-0.016948310658335686,0.06587249040603638,0.0012393128126859665
1733699916950876700,3.306876708984375,-0.009802517481148243,0.10152662545442581,-0.0027173454873263836
1733699916960832000,3.31683203125,-0.002580823376774788,0.11482272297143936,-0.0012661891523748636
1733699916970786800,3.326786865234375,0.000948397908359766,0.10727186501026154,-0.0013783082831650972
1733699916980741600,3.33674169921875,0.0008711498230695724,0.08612596988677979,-0.001344823045656085
1733699916990696700,3.34669677734375,-0.001289738924242556,0.05412914976477623,-0.000665983185172081
1733699917000651800,3.35665185546875,-0.0006072926335036755,0.020262684673070908,-0.0014776564203202724
1733699917010605800,3.366605712890625,0.00038287066854536533,-0.010068588890135288,0.0003138520987704396
1733699917020560600,3.376560546875,0.004441641271114349,-0.029214365407824516,-0.0006812091451138258
1733699917030515700,3.386515625,0.0054770782589912415,-0.038420647382736206,0.001323884935118258
1733699917040470800,3.396470703125,0.006975751370191574,-0.036385346204042435,0.0011826764093711972
1733699917050425900,3.40642578125,0.005710483528673649,-0.026265066117048264,0.002711597131565213
1733699917060380700,3.416380615234375,0.0018244367092847824,-0.01347681786864996,0.0015361978439614177
1733699917070334700,3.426334716796875,-0.00014310656115412712,-0.004703032784163952,0.000534582999534905
1733699917080289800,3.436289794921875,-0.001506966189481318,0.007059527561068535,0.000843563349917531
1733699917090244900,3.446244873046875,-0.0018947224598377943,0.01883283071219921,0.0017738054739311337
1733699917100199700,3.45619970703125,-0.0030319513753056526,0.029768992215394974,0.002121133264154196
1733699917110154800,3.46615478515625,-0.002929419744759798,0.034646302461624146,-0.0012144760694354773
1733699917120109800,3.47610986328125,-0.0028313754592090845,0.03205657750368118,-0.0020721149630844593
1733699917130064000,3.48606396484375,-0.0014752938877791166,0.013993954285979271,-0.0054735043086111546
1733699917140018700,3.496018798828125,0.0011285734362900257,-0.012040001340210438,-0.007862513884902
1733699917149973800,3.505973876953125,0.0012153924908488989,-0.042614687234163284,-0.006811630446463823
1733699917159928800,3.5159287109375,0.00020554172806441784,-0.0707891583442688,-0.0075514065101742744
1733699917169883600,3.525883544921875,0.00015867012552917004,-0.09181774407625198,-0.00950590055435896
1733699917179837700,3.535837646484375,-0.0008536940440535545,-0.10670357942581177,-0.010676983743906021
1733699917189792800,3.545792724609375,-0.00112001015804708,-0.11304988712072372,-0.009193336591124535
1733699917199747800,3.555747802734375,-0.00047814659774303436,-0.11105658113956451,-0.00956654641777277
1733699917209702700,3.56570263671875,-0.0002416579518467188,-0.10738275200128555,-0.009923942387104034
1733699917219657700,3.57565771484375,0.0006368006579577923,-0.1038975864648819,-0.008960351347923279
1733699917229612800,3.58561279296875,0.00038832775317132473,-0.10002774745225906,-0.009492983110249043
1733699917239566800,3.59556689453125,-0.000696336617693305,-0.09479763358831406,-0.010926397517323494
1733699917249521700,3.605521728515625,0.001975879305973649,-0.09299254417419434,-0.011532267555594444
1733699917259476700,3.615476806640625,-0.00020601321011781693,-0.08800605684518814,-0.010914271697402
1733699917269431800,3.625431884765625,0.0002693610731512308,-0.08662440627813339,-0.010728915221989155
1733699917279387000,3.635386962890625,0.0025771872606128454,-0.08398837596178055,-0.007744594942778349
1733699917289341700,3.645341796875,0.003494912525638938,-0.08413245528936386,-0.008175760507583618
1733699917299295700,3.655295654296875,0.0031595767941325903,-0.08041967451572418,-0.005541261285543442
1733699917309250800,3.665250732421875,0.0009033468086272478,-0.0757753849029541,-0.006821975111961365
1733699917319206000,3.675205810546875,-0.00033475831151008606,-0.06307046115398407,-0.004829420708119869
1733699917329160700,3.68516064453125,-0.0020290613174438477,-0.05385485291481018,-0.005894685164093971
1733699917339115800,3.69511572265625,-0.0010563039686530828,-0.04240250587463379,-0.005513166543096304
1733699917349070800,3.70507080078125,-0.0006365898298099637,-0.027745798230171204,-0.003166389185935259
1733699917359024600,3.715024658203125,-0.0003616947215050459,-0.015530087985098362,-0.0032649561762809753
1733699917368979700,3.724979736328125,-0.0018900828436017036,-0.006794653832912445,-0.002529391087591648
1733699917378934800,3.734934814453125,-0.0014472908806055784,0.0037629257421940565,0.002198651432991028
1733699917388889900,3.744889892578125,-0.0013887013774365187,0.01293591782450676,0.0033462075516581535
1733699917398844700,3.7548447265625,0.0011872383765876293,0.01757272146642208,0.003985376097261906
1733699917408798700,3.764798828125,0.0016184039413928986,0.02075626514852047,0.004655693657696247
1733699917418753800,3.77475390625,0.0045299287885427475,0.019038941711187363,0.004539376124739647
1733699917428708900,3.784708984375,0.004063076339662075,0.012749355286359787,0.006155648268759251
1733699917438663700,3.79466357421875,0.0025647010188549757,0.007243035361170769,0.004550539888441563
1733699917448618800,3.80461865234375,0.003755932906642556,0.005195064470171928,0.003933485597372055
1733699917458573800,3.81457373046875,0.0009234549943357706,0.005724876653403044,0.006175017450004816
1733699917468527900,3.82452783203125,-0.0014856404159218073,0.006507313344627619,0.006035201251506805
1733699917478482700,3.834482666015625,-0.0007439501350745559,0.006497459951788187,0.005811229348182678
1733699917488437800,3.844437744140625,-0.001782316598109901,0.009942258708178997,0.008300219662487507
1733699917498392800,3.854392822265625,-0.0029534068889915943,0.010137906298041344,0.007875620387494564
1733699917508347600,3.86434765625,-0.001952590886503458,0.01504584588110447,0.00998777337372303
1733699917518302700,3.874302734375,0.0013603519182652235,0.022119587287306786,0.011769244447350502
1733699917528256800,3.8842568359375,0.004154540598392487,0.03707323595881462,0.01338178850710392
1733699917538211800,3.8942119140625,0.0028359259013086557,0.051613278687000275,0.014734407886862755
1733699917548166700,3.904166748046875,-0.0017050299793481827,0.06289283186197281,0.01524733193218708
1733699917558121700,3.914121826171875,-0.00400221673771739,0.07302919030189514,0.015562864951789379
1733699917568076800,3.924076904296875,-0.004897305276244879,0.08302456885576248,0.013944461941719055
1733699917578030800,3.93403076171875,-0.006518390495330095,0.09183312207460403,0.014122555032372475
1733699917587985700,3.943985595703125,-0.0051564499735832214,0.08908820152282715,0.010705187916755676
1733699917597940700,3.953940673828125,-0.009074529632925987,0.07977838814258575,0.00820831023156643
1733699917607895800,3.963895751953125,-0.014701789245009422,0.07429946213960648,0.005298539996147156
1733699917617851000,3.973850830078125,-0.015884265303611755,0.07302174717187881,0.00365600548684597
1733699917627805700,3.9838056640625,-0.016616635024547577,0.0757104754447937,0.0011409161379560828
1733699917637759700,3.993759765625,-0.01461801491677761,0.07711131125688553,0.00020468421280384064
1733699917647714800,4.00371484375,-0.011790003627538681,0.0666368305683136,-0.00014498899690806866
1733699917657670000,4.013669921875,-0.010260474868118763,0.041972171515226364,-0.00021541188471019268
1733699917667624700,4.023624755859375,-0.00663005281239748,0.014901670627295971,-0.0013653647620230913
1733699917677579800,4.033579833984375,-0.006371315103024244,-0.006330570671707392,-0.00025299168191850185
1733699917687533800,4.043533935546875,-0.002295879879966378,-0.026959950104355812,-0.0005222372710704803
1733699917697489000,4.053489013671875,0.0004988193977624178,-0.045469045639038086,-0.0012972895056009293
1733699917707443700,4.063443603515625,-0.0006047945935279131,-0.06432288885116577,-0.0013233884237706661
1733699917717398800,4.073398681640625,-0.001130757387727499,-0.07626629620790482,-0.003962756134569645
1733699917727353900,4.083353759765625,-0.001006121514365077,-0.08191299438476562,-0.002873523160815239
1733699917737308700,4.09330859375,-0.002472915221005678,-0.07004416733980179,0.00025599822402000427
1733699917747262700,4.1032626953125,-0.0021096598356962204,-0.05379995331168175,-0.0007586660794913769
1733699917757217500,4.113217529296875,0.00006883707828819752,-0.03599228337407112,0.001507737091742456
1733699917767172600,4.123172607421875,0.00044434284791350365,-0.01660979725420475,0.005230836570262909
1733699917777127700,4.133127685546875,-0.0010205568978562951,0.0010790338274091482,0.007111230865120888
1733699917787082800,4.143082763671875,-0.0024405543226748705,0.019023679196834564,0.01043006218969822
1733699917797036500,4.15303662109375,0.000027205562219023705,0.03805135190486908,0.01384161226451397
1733699917806991600,4.16299169921875,0.0008216265123337507,0.05196929723024368,0.020123478025197983
1733699917816946700,4.17294677734375,0.0005278699100017548,0.0630602240562439,0.02071407623589039
1733699917826901800,4.18290185546875,-0.0039483713917434216,0.06981479376554489,0.021411824971437454
1733699917836856600,4.192856689453125,-0.008903343230485916,0.0755404382944107,0.01869533583521843
1733699917846811600,4.202811767578125,-0.007908918894827366,0.07668506354093552,0.016249755397439003
1733699917856765700,4.212765625,-0.013477401807904243,0.07305574417114258,0.0064218719489872456
1733699917866720800,4.222720703125,-0.03824853152036667,0.08658966422080994,-0.03605501353740692
1733699917876675600,4.232675537109375,-0.022205501794815063,0.05870058760046959,-0.02680455520749092
1733699917886630700,4.242630615234375,-0.0014003550168126822,0.0328250490128994,-0.005624966695904732
1733699917896585700,4.252585693359375,0.00019336631521582603,0.007846716791391373,0.0005989724304527044
1733699917906539800,4.262539794921875,-0.009200135245919228,-0.01169715728610754,-0.0046314760111272335
1733699917916494600,4.27249462890625,-0.008723422884941101,-0.022158877924084663,-0.00507446750998497
1733699917926449700,4.28244970703125,-0.0021302355453372,-0.021635033190250397,-0.0017409888096153736
1733699917936404700,4.29240478515625,0.001291333232074976,-0.01944594830274582,0.0006517338333651423
1733699917946359600,4.302359619140625,0.0034972294233739376,-0.012388304807245731,0.0005204400513321161
1733699917956314600,4.312314697265625,-0.0036171923857182264,-0.004250808153301477,-0.0022377644199877977
1733699917966268400,4.322268310546875,-0.004476861096918583,-0.0011964291334152222,-0.0016723752487450838
1733699917976223700,4.3322236328125,-0.004881572909653187,-0.010280481539666653,-0.002168389968574047
1733699917986178600,4.342178466796875,-0.0027513105887919664,-0.01817062869668007,0.000994646456092596
1733699917996133600,4.352133544921875,-0.001604496967047453,-0.02573554590344429,0.0002824867842718959
1733699918006088700,4.362088623046875,0.0026304619386792183,-0.024615420028567314,0.0048964135348796844
1733699918016042800,4.372042724609375,0.004589749500155449,-0.013025343418121338,0.005159000866115093
1733699918025997600,4.38199755859375,0.003935410641133785,0.002166658639907837,0.0012625301023945212
1733699918035952600,4.39195263671875,0.0019696613308042288,0.012555519118905067,-0.0015058871358633041
1733699918045907700,4.40190771484375,0.0026181412395089865,0.019679473713040352,-0.005640178918838501
1733699918055862800,4.41186279296875,0.0013837134465575218,0.010395104065537453,-0.006930714473128319
1733699918065817600,4.421817626953125,0.002164818812161684,-0.008298422209918499,-0.006788767874240875
1733699918075771600,4.431771728515625,0.0016924189403653145,-0.02275434322655201,-0.006933233235031366
1733699918085726700,4.441726806640625,0.002384574618190527,-0.03400406613945961,-0.00487913703545928
1733699918095681800,4.451681884765625,0.002648663707077503,-0.03614529222249985,-0.00013669254258275032
1733699918105636600,4.46163671875,0.0028318893164396286,-0.025312084704637527,0.0026316633448004723
1733699918115591400,4.47159130859375,0.0037462476175278425,-0.013155855238437653,0.004093230701982975
1733699918125545700,4.481545654296875,0.00581712182611227,0.0010132270399481058,0.0036982842721045017
1733699918135500500,4.49150048828125,0.005387159064412117,0.00739109143614769,0.002178605878725648
1733699918145455600,4.50145556640625,0.00736029539257288,0.008200958371162415,0.0013809893280267715
1733699918155410400,4.511410400390625,0.005474861711263657,0.005115121137350798,0.0011554413940757513
1733699918165365800,4.52136572265625,0.00439441716298461,0.002922806888818741,-0.0008619031868875027
1733699918175319600,4.531319580078125,0.001198765356093645,-0.0004308871575631201,-0.00041956081986427307
1733699918185274600,4.541274658203125,-0.0014667925424873829,0.0016381227178499103,-0.0015066631603986025
1733699918195229400,4.5512294921875,-0.0007387516088783741,0.006402676459401846,-0.000430430518463254
1733699918205184800,4.561184814453125,-0.003549451706930995,0.011210480704903603,0.0009086068021133542
1733699918215139600,4.5711396484375,-0.0006090137176215649,0.018865909427404404,0.00068043009378016
1733699918225093600,4.58109375,0.0011657169088721275,0.023187687620520592,0.0016692618373781443
1733699918235048400,4.59104833984375,0.0008578249253332615,0.022374792024493217,0.002123898593708873
1733699918245003800,4.601003662109375,0.0054712193086743355,0.015869755297899246,0.001832815003581345
1733699918254958600,4.61095849609375,0.00413353368639946,0.004287793301045895,0.0015516569837927818
1733699918264913700,4.62091357421875,0.0031902422197163105,-0.010922584682703018,0.000823016045615077
1733699918274868700,4.63086865234375,0.004476006142795086,-0.023556962609291077,0.0015510336961597204
1733699918284822800,4.64082275390625,0.003660279791802168,-0.02856903150677681,0.0019875257275998592
1733699918294777600,4.650777587890625,0.002554943785071373,-0.02791253663599491,0.00003142561763525009
1733699918304732700,4.660732666015625,-0.00023551657795906067,-0.019394949078559875,-0.0010615356732159853
1733699918314687700,4.670687744140625,0.0004437591414898634,-0.008802800439298153,-0.002718401374295354
1733699918324642600,4.680642578125,0.0004416287411004305,0.003122036112472415,-0.002398555865511298
1733699918334596600,4.6905966796875,-0.001368038821965456,0.01010984554886818,-0.0011510986369103193
1733699918344551700,4.7005517578125,-0.0022996123880147934,0.013087259605526924,-0.0015857266262173653
1733699918354506800,4.7105068359375,0.00031295279040932655,0.012424740940332413,-0.0004439402837306261
1733699918364461600,4.720461669921875,-0.0016772274393588305,0.008038514293730259,-0.0015131994150578976
1733699918374416600,4.730416748046875,-0.0004035981837660074,0.0010718015255406499,-0.0017327070236206055
1733699918384370700,4.74037060546875,0.0005082681309431791,-0.005572518799453974,0.00010673841461539268
1733699918394325800,4.75032568359375,0.002809888916090131,-0.006228554993867874,-0.0004195838700979948
1733699918404280600,4.760280517578125,0.0031366588082164526,-0.006846408359706402,-0.0001684478484094143
1733699918414235600,4.770235595703125,0.0025043203495442867,-0.009487847797572613,0.0011365646496415138
1733699918424190700,4.780190673828125,0.0028518629260361195,-0.009546437300741673,0.000276896171271801
1733699918434144800,4.790144775390625,0.004472300410270691,-0.011516951955854893,0.00007651373744010925
1733699918444099600,4.800099609375,0.002382251201197505,-0.013034687377512455,-0.0005621123127639294
1733699918454054700,4.8100546875,0.0013694388326257467,-0.01585875265300274,-0.00011255242861807346
1733699918464009700,4.820009765625,-0.00036827370058745146,-0.018538160249590874,-0.0011216241400688887
1733699918473964800,4.82996484375,-0.002226059790700674,-0.02223525196313858,-0.0019870975520461798
1733699918483919600,4.839919677734375,0.0010000935290008783,-0.02373248152434826,0.00011972920037806034
1733699918493873700,4.849873779296875,0.002468900289386511,-0.027990691363811493,-0.0016871851403266191
1733699918503828500,4.859828369140625,0.0005266568623483181,-0.030970236286520958,-0.0025721534620970488
1733699918513783800,4.86978369140625,-0.00006075366400182247,-0.0300983265042305,-0.0017690793611109257
1733699918523738600,4.879738525390625,0.0027898941189050674,-0.02715606614947319,0.00007116468623280525
1733699918533693400,4.889693359375,0.0015878533013164997,-0.016653800383210182,0.00021080952137708664
1733699918543647500,4.8996474609375,0.001621142728254199,-0.007100241724401712,-0.0010579205118119717
1733699918553602800,4.909602783203125,-0.0001205874141305685,0.00015168794197961688,-0.0013003405183553696
1733699918563557600,4.9195576171875,0.00046557444147765636,0.005597852170467377,-0.001733370590955019
1733699918573512400,4.929512451171875,-0.0017307117814198136,0.0051843877881765366,-0.0026246581692248583
1733699918583467800,4.9394677734375,-0.0005935420049354434,0.001178727368824184,-0.0008616454433649778
1733699918593421800,4.949421875,0.000480002723634243,-0.00462185638025403,-0.00104781542904675
1733699918603376600,4.959376708984375,0.0035370453260838985,-0.012084566056728363,0.00043769588228315115
1733699918613331500,4.96933154296875,0.004642986226826906,-0.015015139244496822,0.00019947951659560204
1733699918623286800,4.979286865234375,0.004200901836156845,-0.018670860677957535,-0.00032702740281820297
1733699918633241600,4.98924169921875,0.0034235899802297354,-0.01806938461959362,-0.0013059456832706928
1733699918643195600,4.999195556640625,0.00136017263866961,-0.016849124804139137,-0.0012992878910154104
1733699918653150500,5.009150390625,0.0008263187482953072,-0.018494298681616783,-0.0022413760889321566
1733699918663105800,5.019105712890625,0.002328607952222228,-0.013925113715231419,-0.0032461865339428186
1733699918673060600,5.029060546875,0.000981208635494113,-0.009719602763652802,-0.0018542625475674868
1733699918683015700,5.039015625,0.004195377696305513,-0.007302250247448683,-0.004181599244475365
1733699918692969500,5.048969482421875,0.0028380146250128746,-0.005016933660954237,-0.0023772490676492453
1733699918702924800,5.0589248046875,0.0012885872274637222,-0.005373796913772821,-0.003039045026525855
1733699918712879600,5.068879638671875,-0.0003870996879413724,-0.006019281689077616,-0.0015766562428325415
1733699918722834700,5.078834716796875,-0.0001008098479360342,-0.00915568694472313,-0.0022730727214366198
1733699918732789800,5.088789794921875,-0.0003175884485244751,-0.008913949131965637,-0.0009340641554445028
1733699918742743800,5.098743896484375,0.0004888167604804039,-0.008354950696229935,-0.0016738900449126959
1733699918752698600,5.10869873046875,0.0002234429121017456,-0.005315573886036873,-0.0015098003204911947
1733699918762654000,5.118654052734375,0.002257299143821001,-0.0035008962731808424,-0.0010184471029788256
1733699918772608800,5.12860888671875,0.002787824021652341,-0.000994470901787281,0.00024393643252551556
1733699918782563600,5.1385634765625,0.002455727895721793,0.002993612550199032,-0.0002764454111456871
1733699918792517600,5.148517578125,0.0011324519291520119,0.003424760652706027,0.0012412688229233027
1733699918802472700,5.15847265625,0.001365478616207838,0.002667091554030776,-0.00046315439976751804
1733699918812427800,5.168427734375,0.00235687755048275,-0.0017305512446910143,-0.0007275834213942289
1733699918822382600,5.178382568359375,0.0014729744289070368,-0.006579368840903044,-0.001022661803290248
1733699918832338000,5.188337890625,0.0012042613234370947,-0.00976530835032463,-0.0017939130775630474
1733699918842292700,5.198292724609375,0.0023460544180125,-0.007866776548326015,0.0004392529372125864
1733699918852246800,5.208246826171875,0.0015268258284777403,-0.005162317771464586,0.0009715968044474721
1733699918862201600,5.21820166015625,0.004057361278682947,-0.0005835452466271818,0.0031085172668099403
1733699918872157000,5.228156982421875,0.004017885774374008,0.002344949636608362,0.0018375696381554008
1733699918882111700,5.23811181640625,0.003031717147678137,0.0014810202410444617,0.0006218366324901581
1733699918892066800,5.24806689453125,0.0034723058342933655,0.0009412388899363577,0.0016530121210962534
1733699918902020600,5.2580205078125,0.002017154823988676,0.0004560109518934041,0.00037070002872496843
1733699918911976000,5.267975830078125,0.0008772546425461769,-0.002413036534562707,-0.0013542321976274252
1733699918921930800,5.2779306640625,-0.0017084084684029222,-0.0021195560693740845,-0.002411506837233901
1733699918931885800,5.2878857421875,-0.003597646951675415,-0.003883876372128725,-0.0029165588784962893
1733699918941840600,5.297840576171875,-0.005238686688244343,-0.004435150418430567,-0.0016140069346874952
1733699918951795000,5.307794921875,-0.005885592661798,-0.0015995411667972803,-0.0005834822077304125
1733699918961749800,5.317749755859375,-0.004181169904768467,0.0015174224972724915,-0.0006748284213244915
1733699918971704800,5.327704833984375,-0.0012176521122455597,0.002990890294313431,-0.00041299848817288876
1733699918981659600,5.33765966796875,0.0024774838238954544,0.00322737917304039,0.0011404233518987894
1733699918991614700,5.34761474609375,0.004129611887037754,0.001589760067872703,0.0009203765075653791
1733699919001568800,5.35756884765625,0.005473976023495197,-0.004814343061298132,0.0019547482952475548
1733699919011523800,5.36752392578125,0.004614116623997688,-0.010657212696969509,0.0004639100516214967
1733699919021478700,5.377478759765625,0.00312061607837677,-0.01917373389005661,0.00013687391765415668
1733699919031433700,5.387433837890625,0.004388834815472364,-0.023269474506378174,-0.0003440666478127241
1733699919041388800,5.397388916015625,-0.00047942379023879766,-0.022270256653428078,-0.0006223670206964016
1733699919051342800,5.4073427734375,0.00016194023191928864,-0.020420167595148087,-0.00296599930152297
1733699919061297700,5.417297607421875,-0.002416798612102866,-0.017286691814661026,-0.0025356323458254337
1733699919071252700,5.427252685546875,-0.0037392699159681797,-0.012191171757876873,-0.004115508869290352
1733699919081207800,5.437207763671875,-0.004070301074534655,-0.010977302677929401,-0.003218556521460414
1733699919091162600,5.44716259765625,-0.004312435165047646,-0.010692324489355087,-0.0028797851409763098
1733699919101116700,5.45711669921875,-0.0019864304922521114,-0.014931278303265572,-0.002863806439563632
1733699919111071700,5.46707177734375,-0.0035993170458823442,-0.018105605617165565,-0.0026532309129834175
1733699919121026800,5.47702685546875,-0.0026906465645879507,-0.021474504843354225,-0.002865751273930073
1733699919130981600,5.486981689453125,-0.0020635260734707117,-0.018820205703377724,-0.0019497163593769073
1733699919140937000,5.49693701171875,0.0005005653947591782,-0.01079743355512619,-0.0010532962623983622
1733699919150890800,5.506890869140625,0.002831659745424986,0.000339323072694242,0.0007077690679579973
1733699919160845800,5.516845703125,0.0017685256898403168,0.011168002150952816,0.0001495706383138895
1733699919170800600,5.526800537109375,0.003210124559700489,0.017856843769550323,0.0008776000468060374
1733699919180756000,5.536755859375,0.003737962804734707,0.021496320143342018,0.00014017079956829548
1733699919190709800,5.546709716796875,0.0033775658812373877,0.020230067893862724,0.0012813853099942207
1733699919200664800,5.556664794921875,-0.0002685678191483021,0.016918694600462914,0.0001934841275215149
1733699919210619600,5.56661962890625,0.0002965743187814951,0.010580041445791721,0.0008282887283712626
1733699919220575000,5.576574951171875,0.001120023662224412,0.003749299328774214,0.0022176599595695734
1733699919230529800,5.58652978515625,0.0029219654388725758,0.001578882453031838,0.0033952505327761173
1733699919240483800,5.59648388671875,0.0017059659585356712,-0.001453392906114459,0.002820274094119668
1733699919250438700,5.606438720703125,0.0022044708020985126,-0.001865521539002657,0.00232434063218534
1733699919260394000,5.61639404296875,0.0019418830052018166,-0.001460454659536481,0.0024476449470967054
1733699919270348800,5.626348876953125,-0.0004847453674301505,-0.002055078512057662,0.001216431730426848
1733699919280303600,5.6363037109375,-0.002050151349976659,0.0008895786595530808,0.0001242693979293108
1733699919290257700,5.646257568359375,-0.0010587082942947745,0.0026334349531680346,-0.0000055730342864990234
1733699919300212700,5.656212646484375,-0.0022190476302057505,0.0013351438101381063,0.0008676773868501186
1733699919310167800,5.666167724609375,-0.001184870139695704,0.0019308102782815695,-0.00137919164262712
1733699919320122600,5.67612255859375,-0.0022061923518776894,-0.001275103073567152,-0.0006982213817536831
1733699919330078000,5.686077880859375,-0.002325592329725623,-0.004543737042695284,-0.001166047528386116
1733699919340031700,5.69603173828125,-0.0012651217402890325,-0.006698234472423792,-0.0022640691604465246
1733699919349986800,5.70598681640625,-0.00036064209416508675,-0.010346830822527409,-0.0012925323098897934
1733699919359941600,5.715941650390625,0.001572280190885067,-0.011493321508169174,-0.0009212875738739967
1733699919369896700,5.725896728515625,0.004116061143577099,-0.012246930040419102,0.0019370676018297672
1733699919379851800,5.735851806640625,0.002698993543162942,-0.012415241450071335,0.00124331412371248
1733699919389805800,5.745805908203125,0.003475021803751588,-0.01020633615553379,0.0013701643329113722
1733699919399760600,5.7557607421875,0.003148784628137946,-0.00547922495752573,0.0020729724783450365
1733699919409715700,5.7657158203125,0.002797808265313506,-0.0025400370359420776,0.0004274790408089757
1733699919419670800,5.7756708984375,0.003378909779712558,0.0009897166164591908,0.0001177533995360136
1733699919429625900,5.7856259765625,0.0004401705227792263,0.0026089155580848455,0.0012230896390974522
1733699919439579600,5.79557958984375,-0.002071989234536886,0.004970074165612459,0.001513640396296978
1733699919449534700,5.80553466796875,0.00020969239994883537,0.006315791979432106,-0.0007071751169860363
1733699919459489800,5.81548974609375,-0.003313936060294509,0.006898225285112858,0.0010736805852502584
1733699919469444900,5.82544482421875,-0.0011916253715753555,0.007230459712445736,-0.0004623783752322197
1733699919479399700,5.835399658203125,-0.0008233101107180119,0.007565485313534737,-0.0008405472617596388
1733699919489353700,5.845353759765625,-0.003407140960916877,0.005848921835422516,-0.00007278169505298138
1733699919499308800,5.855308837890625,-0.0027213769499212503,0.0011159516870975494,-0.0007399036549031734
1733699919509264000,5.865263916015625,-0.0013600996462628245,-0.0011404252145439386,-0.0020188125781714916
1733699919519218700,5.87521875,-0.0006631504511460662,-0.0061152102425694466,-0.0001338273286819458
1733699919529173800,5.885173828125,-0.0005684124771505594,-0.0100869657471776,-0.001045079668983817
1733699919539127800,5.8951279296875,-0.0013620344689115882,-0.012930689379572868,-0.001652546925470233
1733699919549083000,5.905082763671875,0.0001838458701968193,-0.013647200539708138,-0.0009244841057807207
1733699919559037700,5.91503759765625,0.0000432310625910759,-0.014423245564103127,0.0014483924023807049
1733699919568992800,5.92499267578125,0.0011823675595223904,-0.013484957627952099,-0.0005963803268969059
1733699919578946800,5.93494677734375,0.0015453563537448645,-0.009150396101176739,-0.0001606871373951435
1733699919588901600,5.944901611328125,0.00007112463936209679,-0.006289337296038866,0.0015869649359956384
1733699919598856700,5.954856689453125,-0.0004796171560883522,-0.0035795706789940596,0.0008127839537337422
1733699919608811800,5.964811767578125,-0.0014578376431018114,-0.006212415639311075,0.0011712583946064115
1733699919618766800,5.974766845703125,-0.0009049654472619295,-0.010727006010711193,0.0003233079332858324
1733699919628720600,5.984720703125,0.00022181798703968525,-0.013493231497704983,0.0007900956552475691
1733699919638675700,5.99467578125,0.0008119745180010796,-0.01275313924998045,-0.0024720102082937956
1733699919648630800,6.004630859375,0.0014282031916081905,-0.007713762577623129,-0.0009215569589287043
1733699919658585900,6.0145859375,0.0013475094456225634,0.00464676646515727,-0.00006508431397378445
1733699919668540700,6.024540771484375,0.0000687276478856802,0.02114734798669815,-0.0006009908393025398
1733699919678494700,6.03449462890625,-0.0005499245598912239,0.034408822655677795,-0.0005157697014510632
1733699919688449800,6.04444970703125,-0.001627449062652886,0.037023842334747314,-0.0017058525700122118
1733699919698404900,6.05440478515625,-0.002106818137690425,0.03959272801876068,-0.001277616247534752
1733699919708359700,6.064359619140625,-0.0012726472923532128,0.03324287012219429,0.0004402011400088668
1733699919718315000,6.07431494140625,-0.0010153859620913863,0.022506337612867355,0.0010055901948362589
1733699919728268800,6.084268798828125,0.0036462764255702496,0.0082770474255085,-0.00022408808581531048
1733699919738223900,6.094223876953125,0.0025354716926813126,-0.005457140505313873,0.0014976456295698881
1733699919748178700,6.1041787109375,0.002841440262272954,-0.01530936174094677,0.00007870816625654697
1733699919758133800,6.1141337890625,0.001247538486495614,-0.02169828489422798,0.0003785800654441118
1733699919768088300,6.12408837890625,0.0012852223590016365,-0.023378372192382812,0.0016876945737749338
1733699919778042400,6.13404248046875,0.0012231706641614437,-0.018523164093494415,0.00010923901572823524
1733699919787997200,6.1439970703125,-0.0006652158917859197,-0.01201208122074604,-0.0009023116435855627
1733699919797952500,6.153952392578125,0.0005366685800254345,-0.007106537465006113,0.0006417890544980764
1733699919807907300,6.1639072265625,0.0007278586272150278,-0.004250810947269201,-0.0025765395257622004
1733699919817861400,6.173861328125,-0.0016948189586400986,-0.0029056479688733816,-0.0002960746642202139
1733699919827816200,6.183816162109375,-0.0018219419289380312,-0.0036861796397715807,-0.0016097635962069035
1733699919837771500,6.193771484375,-0.00048530136700719595,-0.0076007600873708725,-0.0017876627389341593
1733699919847726300,6.203726318359375,-0.001646352233365178,-0.008970404043793678,-0.0021112782415002584
1733699919857681200,6.21368115234375,-0.0026226670015603304,-0.01142210979014635,-0.0014659941662102938
1733699919867635200,6.22363525390625,-0.0009203143417835236,-0.00579341733828187,-0.000149961793795228
1733699919877590500,6.233590576171875,0.000661603407934308,-0.001998679479584098,0.0014386138645932078
1733699919887545300,6.24354541015625,0.0013989065773785114,0.0009263959946110845,0.00030391267500817776
1733699919897500200,6.253500244140625,0.0008830521255731583,0.0028249635361135006,-0.001129667041823268
1733699919907455200,6.263455322265625,0.00023121456615626812,0.0016101724468171597,-0.00030696881003677845
1733699919917409500,6.273409423828125,0.00027355877682566643,0.000840785214677453,0.0013045099331066012
1733699919927364400,6.2833642578125,-0.0015764597337692976,0.0005426540737971663,0.00021565426141023636
1733699919937319200,6.293319091796875,-0.0024683524388819933,0.00047580874525010586,-0.000026160618290305138
1733699919947274200,6.303274169921875,-0.0011980417184531689,-0.00012303440598770976,0.0018284580437466502
1733699919957228500,6.313228515625,-0.0002547500189393759,0.0000319615937769413,0.00024041510187089443
1733699919967183400,6.323183349609375,0.0015085248742252588,-0.0004802037146873772,0.0011255776043981314
1733699919977138200,6.33313818359375,0.0016094585880637169,-0.00043599522905424237,0.0010608627926558256
1733699919987093200,6.34309326171875,0.0039206985384225845,0.0014636374544352293,0.002507409080862999
1733699919997048300,6.35304833984375,0.00023515010252594948,0.0073633380234241486,0.0004929940914735198
1733699920007002400,6.36300244140625,0.0015879326965659857,0.011919474229216576,0.0017047881847247481
1733699920016957200,6.372957275390625,-0.0009178355103358626,0.014423911459743977,0.0010922611691057682
1733699920026912300,6.382912353515625,-0.002039289101958275,0.015749488025903702,-0.00016177818179130554
1733699920036867300,6.392867431640625,-0.003957564011216164,0.012541178613901138,-0.0010699161794036627
1733699920046822400,6.402822509765625,-0.0034670066088438034,0.005999841261655092,-0.0007203561253845692
1733699920056776200,6.412776123046875,-0.0022771062795072794,-0.0007571314345113933,-0.0017504668794572353
1733699920066731300,6.422731201171875,-0.003633247222751379,-0.008002035319805145,-0.002052544616162777
1733699920076686300,6.432686279296875,-0.0010550408624112606,-0.015186178497970104,-0.0010349508374929428
1733699920086641400,6.442641357421875,0.0006986563093960285,-0.018162855878472328,0.0011331444839015603
1733699920096595200,6.45259521484375,0.0006680299993604422,-0.01751251332461834,0.0001925160177052021
1733699920106550300,6.46255029296875,0.0015919685829430819,-0.015449811704456806,0.0008092876523733139
1733699920116505300,6.47250537109375,0.0014369727578014135,-0.00945823173969984,0.001958441687747836
1733699920126460400,6.48246044921875,0.0004092466551810503,-0.006877710577100515,0.0012170220725238323
1733699920136415200,6.492415283203125,0.0003112424165010452,-0.003009469248354435,-0.000288995448499918
1733699920146369300,6.502369384765625,-0.0017298376187682152,-0.006369662005454302,-0.0013043750077486038
1733699920156324400,6.512324462890625,-0.002359941601753235,-0.009916193783283234,-0.000612219562754035
1733699920166279400,6.522279541015625,-0.0019531375728547573,-0.014411773532629013,0.0005112166982144117
1733699920176234200,6.532234130859375,-0.003737988183274865,-0.016419529914855957,0.00029123970307409763
1733699920186189300,6.542189208984375,-0.0014506166335195303,-0.014964563772082329,0.000565876835025847
1733699920196143400,6.552143310546875,-0.000979237025603652,-0.010153030976653099,0.0004191366024315357
1733699920206098400,6.562098388671875,0.001413213787600398,-0.003760992782190442,-0.00018108612857759
1733699920216053200,6.57205322265625,0.0013453031424432993,0.004373366478830576,-0.00043781474232673645
1733699920226008300,6.58200830078125,0.00001918594352900982,0.010426690801978111,-0.0003363201394677162
1733699920235962400,6.59196240234375,-0.000610385206528008,0.01297586876899004,-0.00013844738714396954
1733699920245917400,6.60191748046875,-0.0021400866098701954,0.013818963430821896,-0.0007412771228700876
1733699920255872300,6.611872314453125,-0.004057828802615404,0.012732925824820995,-0.0009498028084635735
1733699920265827300,6.621827392578125,-0.0006656494224444032,0.010118911042809486,-0.0005034359637647867
1733699920275782400,6.631782470703125,0.0012614137958735228,0.007541769649833441,-0.0014248897787183523
1733699920285736400,6.641736328125,0.0010423590429127216,0.004477801267057657,0.00026004668325185776
1733699920295691300,6.651691162109375,-0.0007278441917151213,-0.00004318071296438575,0.001935707638040185
1733699920305646300,6.661646240234375,-0.0012454133247956634,-0.0003249823930673301,0.001004459336400032
1733699920315601400,6.671601318359375,-0.00037216278724372387,0.000850270560476929,0.0016153884353116155
1733699920325555200,6.68155517578125,-0.0007984156254678965,0.002835923573002219,0.0029177265241742134
1733699920335510300,6.69151025390625,-0.0007049386622384191,0.0010060654021799564,0.0003123560454696417
1733699920345465300,6.70146533203125,-0.002347692847251892,-0.003573731752112508,0.0005680655594915152
1733699920355420400,6.71142041015625,-0.003005227306857705,-0.01046998705714941,0.0001968208234757185
1733699920365375200,6.721375244140625,-0.0006997807649895549,-0.01518943626433611,-0.0011762154754251242
1733699920375329300,6.731329345703125,-0.001960521098226309,-0.017854727804660797,-0.0003482387401163578
1733699920385284400,6.741284423828125,-0.0024437853135168552,-0.018794210627675056,-0.0023958601523190737
1733699920395239400,6.751239501953125,-0.00414075143635273,-0.014173624105751514,-0.002607581438496709
1733699920405194200,6.7611943359375,-0.004573211073875427,-0.008827371522784233,-0.000981614924967289
1733699920415149300,6.7711494140625,-0.003916475921869278,0.0010918386979028583,-0.0006553777493536472
1733699920425103400,6.781103271484375,-0.002980467863380909,0.010028835386037827,-0.0007075280882418156
1733699920435058400,6.791058349609375,-0.00141905655618757,0.013426762074232101,0.0006546787917613983
1733699920445013200,6.80101318359375,0.0004532721359282732,0.014282804913818836,-0.00018025818280875683
1733699920454968300,6.81096826171875,0.0004519405774772167,0.010806580074131489,0.0014959354884922504
1733699920464922400,6.82092236328125,0.0024954616092145443,0.003890166524797678,0.00038757803849875927
1733699920474877400,6.83087744140625,0.001235253643244505,-0.0020904941484332085,0.0006885152542963624
1733699920484832300,6.840832275390625,0.0008186702616512775,-0.009387372061610222,0.0016590524464845657
1733699920494787300,6.850787353515625,-0.0017267790390178561,-0.010358626954257488,-0.000982004450634122
1733699920504742400,6.860742431640625,0.0008108459878712893,-0.008564455434679985,-0.0015812856145203114
1733699920514696400,6.870696533203125,-0.0014174208045005798,-0.006536724045872688,-0.00003931531682610512
1733699920524651300,6.8806513671875,-0.0017998270923271775,-0.0028745087329298258,-0.0017573232762515545
1733699920534606300,6.8906064453125,-0.0034336764365434647,0.001040604431182146,-0.0017373496666550636
1733699920544561400,6.9005615234375,-0.0017264222260564566,0.0001710614305920899,-0.0006208166014403105
1733699920554515500,6.910515380859375,-0.002525104209780693,-0.0012145813088864088,-0.00010203290730714798
1733699920564470300,6.92047021484375,-0.001005682279355824,-0.0030788753647357225,0.00014333100989460945
1733699920574425300,6.93042529296875,0.0005727733951061964,-0.007712508551776409,-0.0009674734901636839
1733699920584380400,6.94038037109375,-0.000666312756948173,-0.010585037060081959,-0.0011519126128405333
1733699920594335200,6.950335205078125,-0.0019265206065028906,-0.011194368824362755,0.0003714156337082386
1733699920604289300,6.960289306640625,0.0009043251629918814,-0.00694795697927475,0.0006146280793473125
1733699920614244000,6.970244140625,0.00008034310303628445,-0.0020786330569535494,-0.0021390803158283234
1733699920624199400,6.980199462890625,0.002481328323483467,0.003356017405167222,-0.0006447057239711285
1733699920634154200,6.990154296875,0.0018126084469258785,0.007836519740521908,0.00037049129605293274
1733699920644108300,7.0001083984375,0.003295637434348464,0.011393992230296135,0.0025805863551795483
1733699920654063000,7.01006298828125,0.0021502117160707712,0.013671527616679668,0.0009531285613775253
1733699920664018400,7.020018310546875,0.00036852993071079254,0.014151427894830704,0.0010936844628304243
1733699920673973200,7.02997314453125,-0.0011169813806191087,0.013211598619818687,0.00016290973871946335
1733699920683928300,7.03992822265625,-0.0011996778193861246,0.011541650630533695,-0.00033167493529617786
1733699920693882000,7.049882080078125,0.0026054466143250465,0.010530182160437107,0.0011058994568884373
1733699920703837400,7.05983740234375,0.0010750140063464642,0.0070260800421237946,0.0024799476377665997
1733699920713792300,7.069792236328125,0.001918969675898552,0.005274252500385046,0.0014916483778506517
1733699920723747300,7.079747314453125,0.0008820721413940191,0.002036380348727107,0.001448875991627574
1733699920733701000,7.089701171875,-0.0020774989388883114,0.003847862360998988,0.0014534033834934235
1733699920743656400,7.099656494140625,-0.004109210334718227,0.0051766326650977135,-0.0011680591851472855
1733699920753611300,7.109611328125,-0.004882326349616051,0.006870402954518795,0.00200243410654366
1733699920763566800,7.11956689453125,-0.0019975928589701653,0.0035997782833874226,0.001722030807286501
1733699920773522000,7.12952197265625,-0.0010788023937493563,-0.006647532805800438,0.00014650472439825535
1733699920783476200,7.139476318359375,-0.004575089551508427,-0.01608464866876602,-0.000784778269007802
1733699920793431000,7.14943115234375,-0.0037026377394795418,-0.024480795487761497,0.00043548212852329016
1733699920803385900,7.1593857421875,-0.0029543661512434483,-0.02784043550491333,0.000801785965450108
1733699920813341000,7.1693408203125,-0.0012267734855413437,-0.02447073720395565,0.0014920772518962622
1733699920823295200,7.179295166015625,-0.0005596184637397528,-0.01516686286777258,0.0013103884411975741
1733699920833250000,7.18925,-0.0015708208084106445,-0.003065725089982152,0.001129027223214507
1733699920843204900,7.199204833984375,-0.0024341177195310593,0.007066578138619661,-0.00017677363939583302
1733699920853160000,7.209159912109375,-0.0026879170909523964,0.014912783168256283,0.0014592062216252089
1733699920863114200,7.2191142578125,-0.002786054275929928,0.021230172365903854,-0.0004869271069765091
1733699920873069000,7.229069091796875,-0.004024956841021776,0.022776402533054352,0.00018951576203107834
1733699920883024000,7.23902392578125,-0.0036709560081362724,0.020437592640519142,-0.0004030531272292137
1733699920892979000,7.24897900390625,-0.004079218488186598,0.015637511387467384,-0.00005790754221379757
1733699920902934000,7.25893408203125,-0.002957761287689209,0.008710362948477268,-0.0008223315235227346
1733699920912888000,7.26888818359375,-0.0016291103092953563,0.006561990827322006,-0.0009134116116911173
1733699920922843000,7.2788427734375,-0.0012534704292193055,0.0038546642754226923,-0.00031019188463687897
1733699920932798000,7.2887978515625,-0.00048807787243276834,0.0014916412765160203,-0.0002550643403083086
1733699920942753000,7.2987529296875,0.0016991416923701763,0.0012894452083855867,0.0008170120418071747
1733699920952707000,7.30870703125,-0.00048225349746644497,0.0009549522073939443,0.0006295255152508616
1733699920962662000,7.318661865234375,0.001953341532498598,-0.001802647951990366,0.0010724852327257395
1733699920972617000,7.328616943359375,0.0001301413867622614,-0.0072538722306489944,-0.0014125104062259197
1733699920982572000,7.338572021484375,0.0004959921352565289,-0.011230362579226494,-0.0016299081034958363
1733699920992527000,7.348527099609375,-0.00011254008859395981,-0.013122006319463253,0.00012591411359608173
1733699921002481000,7.35848095703125,0.0011207363568246365,-0.012669657357037067,-0.0003931415267288685
1733699921012436000,7.36843603515625,0.0006954295095056295,-0.01316314097493887,-0.0013396290596574545
1733699921022391000,7.37839111328125,0.0024042187724262476,-0.013718756847083569,-0.0016754157841205597
1733699921032346000,7.38834619140625,0.004554188810288906,-0.014761650003492832,-0.002029615920037031
1733699921042300000,7.3982998046875,0.0030268325936049223,-0.01223499234765768,-0.0014541572891175747
1733699921052255000,7.4082548828125,0.0037517447490245104,-0.009924166835844517,-0.00032444437965750694
1733699921062210000,7.4182099609375,0.0033788641449064016,-0.010372351855039597,-0.0008530349005013704
1733699921072165000,7.4281650390625,0.004894202575087547,-0.014734343625605106,0.0011163727613165975
1733699921082120000,7.438119873046875,0.003212118288502097,-0.019275836646556854,0.0003663626266643405
1733699921092074000,7.448073974609375,0.004508545622229576,-0.02611563168466091,0.002078242599964142
1733699921102029000,7.458029052734375,0.006298455409705639,-0.02984565496444702,0.002261920366436243
1733699921111984000,7.467984130859375,0.006106441840529442,-0.030410513281822205,0.0013202265836298466
1733699921121939000,7.47793896484375,0.0053768339566886425,-0.03060733713209629,0.001102295471355319
1733699921131893000,7.48789306640625,0.007981671020388603,-0.0324595645070076,0.004123651422560215
1733699921141848000,7.49784814453125,0.005281093530356884,-0.03125086426734924,0.003409437369555235
1733699921151803100,7.50780322265625,0.0044557806104421616,-0.0282801054418087,0.003449118696153164
1733699921161758000,7.517758056640625,0.004260708577930927,-0.027632176876068115,0.001643703319132328
1733699921171712000,7.5277119140625,0.002540040062740445,-0.032741717994213104,0.0029481197707355022
1733699921181667000,7.5376669921875,0.0034926149528473616,-0.037479422986507416,0.002474576234817505
1733699921191622100,7.5476220703125,0.005212483927607536,-0.046631909906864166,0.0027973512187600136
1733699921201577000,7.557576904296875,0.004476132337003946,-0.052695006132125854,0.001934671774506569
1733699921211532000,7.567531982421875,0.003734175581485033,-0.05660372972488403,0.0004970974987372756
1733699921221486000,7.577486083984375,0.004566781222820282,-0.0577579028904438,0.0019733458757400513
1733699921231441000,7.58744091796875,0.004342010244727135,-0.051936764270067215,0.0004060756182298064
1733699921241396000,7.59739599609375,0.004817808046936989,-0.03561088815331459,0.0014087356394156814
1733699921251351000,7.60735107421875,0.007692424580454826,-0.0006220123614184558,0.0037432624958455563
1733699921261305000,7.61730517578125,0.007426236756145954,0.05622900277376175,0.007047032471746206
1733699921271260000,7.627260009765625,0.0010463681537657976,0.1305953860282898,0.0014421434607356787
1733699921281215000,7.637215087890625,-0.01718536578118801,0.2109472155570984,-0.0057742237113416195
1733699921291170000,7.647170166015625,-0.03364210203289986,0.28425684571266174,-0.021816307678818703
1733699921301124000,7.6571240234375,-0.04885587468743324,0.335103303194046,-0.03835241124033928
1733699921311079000,7.667078857421875,-0.06362923234701157,0.35092273354530334,-0.05173772573471069
1733699921321034000,7.677033935546875,-0.0752793550491333,0.32359012961387634,-0.0596960112452507
1733699921330989000,7.686989013671875,-0.07514992356300354,0.27779147028923035,-0.055685825645923615
1733699921340944100,7.696944091796875,-0.06215289607644081,0.23249563574790955,-0.04684839025139809
1733699921350898000,7.70689794921875,-0.033232565969228745,0.19918881356716156,-0.03410835936665535
1733699921360853000,7.71685302734375,0.005217492580413818,0.17688500881195068,-0.02828782983124256
1733699921370808000,7.72680810546875,0.039964817464351654,0.15964557230472565,-0.02015373855829239
1733699921380763100,7.73676318359375,0.05902373045682907,0.13837623596191406,-0.008055530488491058
1733699921390717000,7.746717041015625,0.051435716450214386,0.11099504679441452,0.0016642846167087555
1733699921400672000,7.756672119140625,0.025991471484303474,0.0650114119052887,0.008408816531300545
1733699921410627000,7.766626953125,-0.0064772553741931915,0.0028921100310981274,0.007783772423863411
1733699921420582100,7.77658203125,-0.019155636429786682,-0.06543917208909988,0.0014758853940293193
1733699921430536000,7.786535888671875,-0.016510052606463432,-0.10999386012554169,-0.00019897660240530968
1733699921440491000,7.796490966796875,-0.0075842710211873055,-0.12665483355522156,0.001313015352934599
1733699921450446000,7.806446044921875,0.0033227053936570883,-0.12586626410484314,0.006938410457223654
1733699921460401200,7.816401123046875,0.011067082174122334,-0.10921324789524078,0.00542227178812027
1733699921470356000,7.82635595703125,0.0120383370667696,-0.08203569054603577,0.00336870807223022
1733699921480310000,7.83631005859375,0.005462136119604111,-0.0584266223013401,0.0018912623636424541
1733699921490265000,7.84626513671875,0.001084964256733656,-0.0351247601211071,-0.0006430016364902258
1733699921500220200,7.85622021484375,-0.0011332194553688169,-0.02364266663789749,-0.001888372004032135
1733699921510175000,7.866175048828125,-0.00382674066349864,-0.017361067235469818,-0.0014183241873979568
1733699921520129000,7.87612890625,-0.004295830614864826,-0.016731062904000282,-0.0036351007875055075
1733699921530084000,7.886083984375,-0.001863831770606339,-0.018244003877043724,-0.006495867855846882
1733699921540039200,7.8960390625,0.0003776203375309706,-0.017972465604543686,-0.007096487563103437
1733699921549994000,7.905993896484375,0.0039342716336250305,-0.015911977738142014,-0.009422225877642632
1733699921559948000,7.915947998046875,0.009145506657660007,-0.015174996107816696,-0.010773437097668648
1733699921569903000,7.925903076171875,0.01126591581851244,-0.0171824861317873,-0.01199289783835411
1733699921579858200,7.935858154296875,0.01554789301007986,-0.027038833126425743,-0.012631373479962349
1733699921589813000,7.94581298828125,0.014272772707045078,-0.03905421495437622,-0.009709619916975498
1733699921599767000,7.95576708984375,0.013273159973323345,-0.046080537140369415,-0.0029037208296358585
1733699921609721900,7.965721923828125,0.011368467472493649,-0.05149048566818237,0.001587167615070939
1733699921619677200,7.97567724609375,0.01094780769199133,-0.0586431585252285,0.004046558402478695
1733699921629632000,7.985632080078125,0.006223892793059349,-0.06823186576366425,0.0022883396595716476
1733699921639586800,7.9955869140625,0.0029453046154230833,-0.0706624761223793,0.0017868287395685911
1733699921649540900,8.005540771484375,-0.0008694074349477887,-0.06822941452264786,0.0007671044440940022
1733699921659496200,8.01549609375,-0.004545700270682573,-0.06506176292896271,0.00008716108277440071
1733699921669451000,8.025450927734376,-0.003872453235089779,-0.05443734675645828,0.0007620060350745916
1733699921679405800,8.03540576171875,-0.002561811124905944,-0.034189026802778244,-0.0003564076032489538
1733699921689360000,8.04535986328125,0.004482516087591648,-0.0050929272547364235,-0.003329294268041849
1733699921699315000,8.05531494140625,0.006399691104888916,0.023612365126609802,-0.00747963972389698
1733699921709270000,8.06527001953125,0.008434612303972244,0.041501618921756744,-0.018457723781466484
1733699921719224800,8.075224853515625,0.008154482580721378,0.05337464436888695,-0.02456853725016117
1733699921729179000,8.085178955078124,0.007067913189530373,0.06285016983747482,-0.0343007892370224
1733699921739134000,8.095134033203125,0.007255761418491602,0.07699580490589142,-0.041077204048633575
1733699921749089000,8.105089111328125,0.006550556514412165,0.10763999819755554,-0.04991117864847183
1733699921759043800,8.1150439453125,0.007156576961278915,0.14238521456718445,-0.05971917882561684
1733699921768998400,8.124998291015626,-0.00019507925026118755,0.182340607047081,-0.07616154104471207
1733699921778953200,8.134953125,-0.013931801542639732,0.21416601538658142,-0.09730056673288345
1733699921788908300,8.144908203125,-0.04009735956788063,0.22334353625774384,-0.12036194652318954
1733699921798863000,8.154863037109376,-0.07312589138746262,0.21362155675888062,-0.13938753306865692
1733699921808818400,8.164818359375,-0.11491435021162033,0.19787773489952087,-0.1430818736553192
1733699921818772200,8.174772216796875,-0.16195958852767944,0.18654218316078186,-0.12642814218997955
1733699921828727300,8.184727294921874,-0.20113149285316467,0.19181948900222778,-0.09328775107860565
1733699921838682000,8.19468212890625,-0.22443415224552155,0.21298837661743164,-0.05252312868833542
1733699921848637400,8.204637451171875,-0.22809307277202606,0.24535271525382996,-0.022236596792936325
1733699921858591200,8.21459130859375,-0.2047071009874344,0.28713658452033997,-0.008173051290214062
1733699921868546300,8.22454638671875,-0.16397938132286072,0.3263457715511322,-0.015682632103562355
1733699921878501000,8.234501220703125,-0.11182351410388947,0.34808802604675293,-0.036859408020973206
1733699921888456400,8.24445654296875,-0.06707735359668732,0.3443681001663208,-0.057864025235176086
1733699921898410200,8.25441015625,-0.03396619111299515,0.34134620428085327,-0.06800492107868195
1733699921908365300,8.264365234375,-0.01966235600411892,0.3273574113845825,-0.06235369294881821
1733699921918320000,8.274320068359375,-0.018915288150310516,0.3224213123321533,-0.048732079565525055
1733699921928275500,8.284275390625,-0.021840238943696022,0.30180925130844116,-0.035427991300821304
1733699921938229200,8.294229248046875,-0.030330482870340347,0.25355657935142517,-0.024639148265123367
1733699921948184300,8.304184326171875,-0.04165317863225937,0.1880183070898056,-0.017604142427444458
1733699921958139100,8.31413916015625,-0.0473337359726429,0.17457908391952515,-0.035586416721343994
1733699921968094500,8.324094482421875,-0.04450652375817299,0.14847823977470398,-0.07287972420454025
1733699921978048300,8.33404833984375,-0.041844602674245834,0.10151442885398865,-0.1392936408519745
1733699921988003300,8.34400341796875,-0.04342492297291756,0.04776518791913986,-0.22027850151062012
1733699921997958100,8.353958251953125,-0.06937474757432938,0.06188352033495903,-0.29097774624824524
1733699922007913500,8.36391357421875,-0.11299199610948563,0.18761268258094788,-0.34117114543914795
1733699922017868300,8.373868408203125,-0.16115590929985046,0.3719118535518646,-0.3533744812011719
1733699922027822300,8.383822265625,-0.21028776466846466,0.6355762481689453,-0.30758944153785706
1733699922037777200,8.393777099609375,-0.2612234652042389,0.8746609091758728,-0.23521903157234192
1733699922047732500,8.403732421875,-0.29872289299964905,1.030066728591919,-0.1507379561662674
1733699922057687300,8.413687255859376,-0.3047335743904114,1.0856684446334839,-0.08090386539697647
1733699922067641300,8.423641357421875,-0.29039618372917175,1.0529274940490723,-0.046444691717624664
1733699922077596200,8.43359619140625,-0.2634409964084625,0.9561750292778015,-0.03432849049568176
1733699922087551200,8.44355126953125,-0.257503479719162,0.8580117225646973,-0.034939952194690704
1733699922097506300,8.45350634765625,-0.26625722646713257,0.7722393274307251,-0.04465793818235397
1733699922107460400,8.46346044921875,-0.25962862372398376,0.6980052590370178,-0.04584623873233795
1733699922117415200,8.473415283203124,-0.22043295204639435,0.6332245469093323,-0.04264983534812927
1733699922127370200,8.483370361328125,-0.15909849107265472,0.5644007325172424,-0.03302943333983421
1733699922137325300,8.4933251953125,-0.09565094113349915,0.4800220727920532,-0.021329183131456375
1733699922147279400,8.503279296875,-0.0521753653883934,0.3897712826728821,-0.0074589066207408905
1733699922157234200,8.513234130859376,-0.03340567275881767,0.3019484877586365,0.012010931968688965
1733699922167189200,8.523189208984375,-0.018796367570757866,0.20680785179138184,0.017316214740276337
1733699922177144300,8.533144287109375,0.004415423143655062,0.13262830674648285,0.0024433359503746033
1733699922187098400,8.543098388671876,0.029501868411898613,0.09930843114852905,-0.015829410403966904
1733699922197053200,8.55305322265625,0.054284803569316864,0.09615043550729752,-0.016062971204519272
1733699922207008300,8.56300830078125,0.06195417791604996,0.10493380576372147,-0.00030105188488960266
1733699922216963300,8.57296337890625,0.04483882337808609,0.11818808317184448,0.016916170716285706
1733699922226917400,8.58291748046875,0.01339354831725359,0.12178681045770645,0.029133956879377365
1733699922236872200,8.5928720703125,-0.014057356864213943,0.13703496754169464,0.033145252615213394
1733699922246827300,8.6028271484375,-0.04276463761925697,0.17022621631622314,0.03226960450410843
1733699922256782300,8.6127822265625,-0.05560298264026642,0.2072647511959076,0.032465796917676926
1733699922266736400,8.622736328125,-0.03666258230805397,0.2255324423313141,0.039073098450899124
1733699922276691200,8.632691162109374,-0.017901914194226265,0.21104201674461365,0.04933209344744682
1733699922286646300,8.642646240234376,-0.010321225970983505,0.20537081360816956,0.06335603445768356
1733699922296601300,8.652601318359375,-0.021000932902097702,0.21417362987995148,0.07446019351482391
1733699922306556200,8.66255615234375,-0.035219281911849976,0.2198786437511444,0.0822877585887909
1733699922316510200,8.67251025390625,-0.04016865789890289,0.22402262687683105,0.0914045199751854
1733699922326465300,8.68246533203125,-0.029056617990136147,0.21710719168186188,0.09375528991222382
1733699922336420400,8.69242041015625,-0.007973563857376575,0.1810324341058731,0.08842276781797409
1733699922346375200,8.702375244140624,0.021666886284947395,0.1262568086385727,0.09262656420469284
1733699922356329200,8.7123291015625,0.04115692526102066,0.06781921535730362,0.10614123195409775
1733699922366284300,8.7222841796875,0.06234423816204071,0.009486930444836617,0.11290912330150604
1733699922376239400,8.7322392578125,0.07962873578071594,-0.037200551480054855,0.10622265189886093
1733699922386194200,8.742194091796875,0.08907150477170944,-0.08668394386768341,0.08899146318435669
1733699922396148200,8.752148193359375,0.09535345435142517,-0.1312684267759323,0.07298294454813004
1733699922406103300,8.762103271484374,0.09154433757066727,-0.13583441078662872,0.03751389682292938
1733699922416058400,8.772058349609376,0.09142247587442398,-0.1562129408121109,0.006680196616798639
1733699922426013200,8.78201318359375,0.10605095326900482,-0.19171980023384094,0.0004361491883173585
1733699922435967200,8.79196728515625,0.12925150990486145,-0.22897954285144806,0.016906356438994408
1733699922445922300,8.80192236328125,0.15037064254283905,-0.2465476095676422,0.05036604776978493
1733699922455877400,8.81187744140625,0.15797027945518494,-0.24904313683509827,0.08816074579954147
1733699922465832200,8.821832275390625,0.15419498085975647,-0.237967848777771,0.1235983669757843
1733699922475786200,8.8317861328125,0.14519695937633514,-0.20780809223651886,0.1417492926120758
1733699922485741300,8.8417412109375,0.12732821702957153,-0.1370534896850586,0.14525721967220306
1733699922495696400,8.8516962890625,0.10065741091966629,-0.04359584301710129,0.14091049134731293
1733699922505651200,8.861651123046874,0.07787539809942245,0.015736723318696022,0.1299601048231125
1733699922515605200,8.871605224609375,0.07092025130987167,0.023529818281531334,0.10010742396116257
1733699922525560300,8.881560302734375,0.07839307934045792,0.0008753729052841663,0.05224962532520294
1733699922535515400,8.891515380859374,0.08924093097448349,-0.06331001222133636,0.004367739427834749
1733699922545470200,8.90147021484375,0.0871327668428421,-0.13708330690860748,-0.04000105336308479
1733699922555424300,8.91142431640625,0.07866176962852478,-0.1864650398492813,-0.06451354920864105
1733699922565379300,8.92137939453125,0.06730151921510696,-0.24729403853416443,-0.05642766132950783
1733699922575334400,8.93133447265625,0.061666540801525116,-0.31307700276374817,-0.045850541442632675
1733699922585289200,8.941289306640625,0.07104459404945374,-0.36493968963623047,-0.03691110759973526
1733699922595243300,8.9512431640625,0.0970691442489624,-0.4083128273487091,-0.02925698831677437
1733699922605198300,8.9611982421875,0.12373245507478714,-0.45496848225593567,-0.029665786772966385
1733699922615153400,8.9711533203125,0.14158432185649872,-0.4957236647605896,-0.04558483511209488
1733699922625108200,8.981108154296875,0.16056600213050842,-0.53178870677948,-0.06415452063083649
1733699922635062300,8.991062255859376,0.16879087686538696,-0.5717988014221191,-0.06686409562826157
1733699922645017300,9.001017333984375,0.1519399881362915,-0.5977068543434143,-0.06395299732685089
1733699922654972400,9.010972412109375,0.12285500019788742,-0.5998698472976685,-0.06508313119411469
1733699922664927200,9.02092724609375,0.09603510051965714,-0.5652410387992859,-0.08194280415773392
1733699922674881300,9.03088134765625,0.08148836344480515,-0.5305973291397095,-0.10422489792108536
1733699922684836000,9.040836181640625,0.07027379423379898,-0.5118012428283691,-0.11429856717586517
1733699922694791400,9.05079150390625,0.058992765843868256,-0.5031088590621948,-0.11126089096069336
1733699922704746200,9.060746337890626,0.053150590509176254,-0.5008094906806946,-0.11523859202861786
1733699922714700300,9.0707001953125,0.05581552907824516,-0.4964805543422699,-0.13313663005828857
1733699922724655000,9.080655029296874,0.06942055374383926,-0.49318593740463257,-0.17193914949893951
1733699922734610400,9.0906103515625,0.09094809740781784,-0.4890456199645996,-0.21422238647937775
1733699922744565200,9.100565185546875,0.10965041071176529,-0.48714756965637207,-0.2411203235387802
1733699922754519300,9.110519287109375,0.0959443524479866,-0.5015159249305725,-0.21606701612472534
1733699922764473600,9.1204736328125,0.03917188197374344,-0.5130191445350647,-0.15471018850803375
1733699922774429000,9.130428955078125,-0.027519147843122482,-0.4716857969760895,-0.08736979961395264
1733699922784383700,9.1403837890625,-0.06395678222179413,-0.3508078455924988,-0.03285754844546318
1733699922794337800,9.150337890625,-0.05791613832116127,-0.17279766499996185,0.004769762046635151
1733699922804292600,9.160292724609375,-0.03185843676328659,0.012098950333893299,0.03953440114855766
1733699922814248000,9.170248046875,-0.00388901075348258,0.14090704917907715,0.08502088487148285
1733699922824202800,9.18020263671875,0.004583303816616535,0.20463383197784424,0.1296520084142685
1733699922834156800,9.19015673828125,-0.012740813195705414,0.22038540244102478,0.16544942557811737
1733699922844111600,9.200111572265625,-0.044933103024959564,0.2593860626220703,0.17227590084075928
1733699922854067000,9.21006689453125,-0.0798032134771347,0.30360835790634155,0.16849873960018158
1733699922864021800,9.220021728515626,-0.10704895108938217,0.3266196548938751,0.1816723346710205
1733699922873975800,9.229975830078125,-0.11843526363372803,0.32384634017944336,0.1989828497171402
1733699922883930600,9.2399306640625,-0.11499258875846863,0.2821236550807953,0.20349210500717163
1733699922893886000,9.249885986328126,-0.09215647727251053,0.20136237144470215,0.19000817835330963
1733699922903840800,9.2598408203125,-0.04715012013912201,0.08758361637592316,0.1603085994720459
1733699922913794800,9.269794921875,0.017313409596681595,-0.03967757150530815,0.13161860406398773
1733699922923749600,9.27974951171875,0.07486751675605774,-0.1530640572309494,0.11033701151609421
1733699922933705000,9.289705078125,0.12684756517410278,-0.25138387084007263,0.08595254272222519
1733699922943659800,9.29965966796875,0.16318079829216003,-0.33477118611335754,0.06548082083463669
1733699922953613800,9.30961376953125,0.1896049529314041,-0.3927149176597595,0.04906482994556427
1733699922963568600,9.319568603515625,0.19475629925727844,-0.42505794763565063,0.04294701665639877
1733699922973524000,9.32952392578125,0.18098677694797516,-0.42050421237945557,0.04313039407134056
1733699922983478800,9.339478759765624,0.15419431030750275,-0.3857198655605316,0.05033690854907036
1733699922993432800,9.349432861328125,0.12273884564638138,-0.3334265649318695,0.05551777780056
1733699923003387600,9.3593876953125,0.09049089252948761,-0.2762679159641266,0.06030534207820892
1733699923013343000,9.369343017578124,0.0656680017709732,-0.22115890681743622,0.0640825480222702
1733699923023297800,9.3792978515625,0.05021660029888153,-0.17978882789611816,0.06241380795836449
1733699923033251800,9.389251953125,0.03639877215027809,-0.15830570459365845,0.05521756410598755
1733699923043206700,9.39920654296875,0.030580297112464905,-0.16512340307235718,0.04387383162975311
1733699923053162000,9.409161865234376,0.03180082514882088,-0.1802522838115692,0.032570309937000275
1733699923063116800,9.41911669921875,0.028725672513246536,-0.19732874631881714,0.025761405006051064
1733699923073070800,9.42907080078125,0.030791180208325386,-0.2115088850259781,0.022758930921554565
1733699923083025700,9.439025634765626,0.037524715065956116,-0.22599035501480103,0.02109578624367714
1733699923092980700,9.448980712890625,0.04415437579154968,-0.24099519848823547,0.015680287033319473
1733699923102935800,9.458935791015625,0.052168894559144974,-0.25879472494125366,0.007347256876528263
1733699923112889900,9.468889892578124,0.06045219674706459,-0.2709712088108063,0.0046075014397501945
1733699923122844700,9.4788447265625,0.06096937879920006,-0.2807213068008423,0.004124137572944164
1733699923132799700,9.4887998046875,0.06089917570352554,-0.28876614570617676,0.0073792776092886925
1733699923142754800,9.4987548828125,0.06454451382160187,-0.28513333201408386,0.012198533862829208
1733699923152708900,9.508708984375,0.06456780433654785,-0.2807062566280365,0.01806490868330002
1733699923162663700,9.51866357421875,0.06207215413451195,-0.2618827819824219,0.021351249888539314
1733699923172618800,9.52861865234375,0.060684360563755035,-0.2405221313238144,0.021076828241348267
1733699923182573800,9.53857373046875,0.05687018483877182,-0.21213550865650177,0.022458476945757866
1733699923192528000,9.54852783203125,0.05801520124077797,-0.18622072041034698,0.013388404622673988
1733699923202482700,9.558482666015625,0.06017502397298813,-0.16419237852096558,0.005316363647580147
1733699923212437800,9.568437744140626,0.06139235198497772,-0.1478046178817749,-0.003954633139073849
1733699923222392800,9.578392822265625,0.06161845475435257,-0.13317987322807312,-0.010282836854457855
1733699923232347000,9.588346923828125,0.05656834691762924,-0.11402683705091476,-0.01230995636433363
1733699923242301700,9.5983017578125,0.05105693265795708,-0.1001371219754219,-0.013556316494941711
1733699923252256800,9.6082568359375,0.04577166214585304,-0.08107301592826843,-0.012809114530682564
1733699923262211800,9.6182119140625,0.047474753111600876,-0.06588687747716904,-0.011420808732509613
1733699923272166000,9.628165771484374,0.04982569441199303,-0.05032392218708992,-0.003582064528018236
1733699923282120700,9.63812060546875,0.05490913614630699,-0.03544750437140465,0.0014358635526150465
1733699923292075800,9.64807568359375,0.060703884810209274,-0.02674490213394165,0.004216399975121021
1733699923302030800,9.65803076171875,0.06255558133125305,-0.028265034779906273,0.0027458027470856905
1733699923311985000,9.66798486328125,0.05533106252551079,-0.028494825586676598,-0.003258179174736142
1733699923321939700,9.677939697265625,0.03949963301420212,-0.025766950100660324,-0.0035276913549751043
1733699923331894800,9.687894775390625,0.016524972394108772,-0.02022281102836132,-0.0028613738249987364
1733699923341849900,9.697849853515624,-0.006584341637790203,-0.017735950648784637,0.0029842648655176163
1733699923351804000,9.707803955078125,-0.024546891450881958,-0.019338570535182953,0.008196723647415638
1733699923361758700,9.7177587890625,-0.036255743354558945,-0.01811458170413971,0.01395554281771183
1733699923371713800,9.7277138671875,-0.03619947284460068,-0.025761330500245094,0.017948949709534645
1733699923381668900,9.7376689453125,-0.02882464788854122,-0.04292726889252663,0.01888531818985939
1733699923391622700,9.74762255859375,-0.017978083342313766,-0.07014065980911255,0.018869949504733086
1733699923401577700,9.75757763671875,-0.0021189588587731123,-0.10425388813018799,0.0133276442065835
1733699923411532800,9.76753271484375,0.010518355295062065,-0.13474230468273163,0.013610734604299068
1733699923421486800,9.77748681640625,0.020760338753461838,-0.1610223799943924,0.015156966634094715
1733699923431441700,9.787441650390624,0.02766476199030876,-0.17432813346385956,0.01704668253660202
1733699923441396700,9.797396728515626,0.027914300560951233,-0.18116606771945953,0.02107924036681652
1733699923451351800,9.807351806640625,0.033138733357191086,-0.18104875087738037,0.020834676921367645
1733699923461305900,9.817305908203124,0.03489242494106293,-0.17932675778865814,0.018505476415157318
1733699923471260700,9.8272607421875,0.03689410537481308,-0.17030146718025208,0.017227130010724068
1733699923481215700,9.8372158203125,0.032346226274967194,-0.15878888964653015,0.015294208191335201
1733699923491170800,9.8471708984375,0.028309212997555733,-0.1538788229227066,0.011662558652460575
1733699923501124900,9.857124755859376,0.029042646288871765,-0.1322169303894043,0.01517606619745493
1733699923511079700,9.86707958984375,0.03183336555957794,-0.1116424947977066,0.011414817534387112
1733699923521034800,9.87703466796875,0.03312259912490845,-0.09459453076124191,0.0068941013887524605
1733699923530989800,9.88698974609375,0.03264012932777405,-0.07851644605398178,0.004877511411905289
1733699923540944000,9.89694384765625,0.02602723427116871,-0.06353909522294998,0.0022018335293978453
1733699923550898700,9.906898681640625,0.017439184710383415,-0.04801257327198982,-0.0010376274585723877
1733699923560853800,9.916853759765624,0.010939206928014755,-0.030815210193395615,-0.005758613348007202
1733699923570808600,9.92680859375,0.006851899437606335,0.0011827887501567602,-0.011292214505374432
1733699923580763000,9.936762939453125,0.001547681400552392,0.007851609960198402,-0.011316982097923756
1733699923590717700,9.9467177734375,-0.0005068518221378326,0.007592180278152227,-0.006152798421680927
1733699923600672800,9.9566728515625,0.0011714722495526075,0.0035785301588475704,0.0011426657438278198
1733699923610627600,9.966627685546875,0.0027730632573366165,0.001680985908024013,0.003288363106548786
1733699923620582000,9.976581787109374,0.00806130189448595,-0.0019353204406797886,0.0012896605767309666
1733699923630536700,9.98653662109375,0.010554144158959389,0.000726082012988627,0.0030226539820432663
1733699923640491800,9.99649169921875,0.016182467341423035,0.018323451280593872,0.006147873587906361
1733699923650446600,10.006446533203125,0.014825440011918545,0.05628043785691261,0.00896353367716074
1733699923660401000,10.01640087890625,0.011949492618441582,0.12284774333238602,0.013805161230266094
1733699923670355700,10.026355712890625,0.007392408791929483,0.2159423828125,0.01785190775990486
1733699923680310800,10.036310791015625,-0.0066986423917114735,0.3097122609615326,0.019742751494050026
1733699923690265600,10.046265625,-0.02480347827076912,0.39130905270576477,0.023574914783239365
1733699923700220000,10.056219970703125,-0.04435054957866669,0.447812020778656,0.025611700490117073
1733699923710174700,10.0661748046875,-0.05314002186059952,0.46853360533714294,0.02840360999107361
1733699923720129800,10.0761298828125,-0.049559932202100754,0.44023963809013367,0.029812421649694443
1733699923730083600,10.08608349609375,-0.03812091052532196,0.36215394735336304,0.024246005341410637
1733699923740039000,10.096038818359375,-0.02331053838133812,0.24839062988758087,0.017215527594089508
1733699923749993700,10.10599365234375,-0.01505147386342287,0.12648603320121765,0.012450169771909714
1733699923759948800,10.11594873046875,-0.011794161051511765,0.011263838037848473,0.007093487307429314
1733699923769902600,10.125902587890625,-0.010715635493397713,-0.08573801070451736,0.005494381301105022
1733699923779857400,10.135857421875,-0.010319889523088932,-0.16243784129619598,0.004588373936712742
1733699923789812200,10.145812255859376,-0.005975294858217239,-0.21661584079265594,0.0066124871373176575
1733699923799767600,10.155767578125,0.0021369599271565676,-0.25157487392425537,0.007672957144677639
1733699923809721300,10.165721435546875,0.010478213429450989,-0.26251155138015747,0.004395753610879183
1733699923819676400,10.175676513671876,0.01259010098874569,-0.24660982191562653,0.001450830139219761
1733699923829631200,10.18563134765625,0.00995752215385437,-0.20238254964351654,-0.00035726791247725487
1733699923839586600,10.195586669921875,0.0046341298148036,-0.1431245505809784,-0.0008052117191255093
1733699923849540400,10.205540283203124,-0.0030679458286613226,-0.08033714443445206,-0.001679382985457778
1733699923859495400,10.215495361328125,-0.010641176253557205,-0.01735871098935604,-0.0020090823527425528
1733699923869450200,10.2254501953125,-0.01311483420431614,0.0265260711312294,-0.00032561318948864937
1733699923879405600,10.235405517578124,-0.012692988850176334,0.03879312053322792,0.0015178268076851964
1733699923889359400,10.245359375,-0.014339441433548927,0.030210580676794052,0.00385592645034194
1733699923899314400,10.255314453125,-0.009101803414523602,0.007492484524846077,-0.0007864958606660366
1733699923909269200,10.265269287109374,-0.005666814744472504,-0.013110142201185226,-0.0004348806105554104
1733699923919223600,10.2752236328125,-0.0015847213799133897,-0.03441782668232918,-0.0005014596972614527
1733699923929178400,10.285178466796875,0.002764220582321286,-0.056835517287254333,-0.002066599437966943
1733699923939133400,10.295133544921875,0.006709221284836531,-0.07204757630825043,-0.005145976319909096
1733699923949088300,10.305088134765626,0.010926734656095505,-0.08106467872858047,-0.005911666434258223
1733699923959042600,10.31504248046875,0.012025821954011917,-0.08529377728700638,-0.005818722303956747
1733699923968997400,10.324997314453125,0.013810775242745876,-0.08228383213281631,-0.0030254845041781664
1733699923978952400,10.334952392578124,0.014158318750560284,-0.07433269917964935,-0.0016627449076622725
1733699923988907300,10.3449072265625,0.014210918918251991,-0.07801922410726547,-0.000584994675591588
1733699923998861600,10.354861572265625,0.015137964859604836,-0.08242382109165192,-0.0030108678620308638
1733699924008816400,10.36481640625,0.011144074611365795,-0.086717888712883,-0.004635721445083618
1733699924018771500,10.374771484375,0.011708399280905724,-0.08946094661951065,-0.004462881945073605
1733699924028726300,10.384726318359375,0.009916954673826694,-0.09708548337221146,-0.0065661147236824036
1733699924038680600,10.3946806640625,0.0067102424800395966,-0.1004682257771492,-0.008129922673106194
1733699924048635400,10.404635498046876,0.004030917771160603,-0.10081853717565536,-0.00827087089419365
1733699924058590500,10.414590576171875,0.0006652150768786669,-0.09687572717666626,-0.0072202542796730995
1733699924068545300,10.424545166015625,-0.0014913040213286877,-0.08753955364227295,-0.006880300119519234
1733699924078499300,10.434499267578126,-0.0012108732480555773,-0.07860171794891357,-0.0060592470690608025
1733699924088454400,10.444454345703125,-0.0020969936158508062,-0.06903703510761261,-0.006902091205120087
1733699924098409500,10.454409423828125,-0.0013326663756743073,-0.05374090000987053,-0.004074613098055124
1733699924108363300,10.46436328125,0.0010579500813037157,-0.04288102313876152,-0.0038070164155215025
1733699924118318300,10.474318359375,0.0020888596773147583,-0.03276820108294487,-0.0041873157024383545
1733699924128273400,10.4842734375,0.005386651493608952,-0.026740746572613716,-0.002858728403225541
1733699924138228500,10.494228515625,0.006658044643700123,-0.0226698387414217,-0.0016637679655104876
1733699924148182300,10.504182373046875,0.0076804449781775475,-0.024229850620031357,-0.0008989502675831318
1733699924158137300,10.514137451171875,0.007476447150111198,-0.024702295660972595,-0.0032364067155867815
1733699924168092400,10.524092529296874,0.009589369408786297,-0.025815818458795547,-0.005698352120816708
1733699924178047500,10.534047607421876,0.004005253314971924,-0.02468370832502842,-0.0013659216929227114
1733699924188001300,10.544001220703125,-0.0015212181024253368,-0.022528918460011482,0.0016762169543653727
1733699924197956400,10.553956298828124,-0.0029539987444877625,-0.03167954087257385,-0.0016657840460538864
1733699924207911400,10.563911376953126,0.0003704032860696316,-0.03993413969874382,-0.0023741000331938267
1733699924217866500,10.573866455078125,0.001046313438564539,-0.04090512916445732,-0.0045120855793356895
1733699924227820300,10.5838203125,0.0025906572118401527,-0.0416547954082489,-0.0038927975110709667
1733699924237775400,10.593775390625,0.00332542322576046,-0.03689466044306755,-0.004929832182824612
1733699924247730400,10.60373046875,0.0006647175177931786,-0.031159089878201485,-0.003892494598403573
1733699924257684500,10.6136845703125,0.003250646870583296,-0.02518428862094879,-0.0008482353296130896
1733699924267639300,10.623639404296876,0.0026193740777671337,-0.022853529080748558,-0.0009290440939366817
1733699924277594400,10.633594482421875,0.005131800193339586,-0.022556321695446968,-0.002089116955175996
1733699924287549400,10.643549560546875,0.004139181226491928,-0.025210347026586533,-0.000374610535800457
1733699924297503500,10.65350341796875,0.004639322869479656,-0.029562750831246376,-0.0016489331610500813
1733699924307458300,10.663458251953125,0.005101751536130905,-0.03226901590824127,-0.0026253992691636086
1733699924317413400,10.673413330078125,0.00269531924277544,-0.03395559638738632,-0.003037923015654087
1733699924327368400,10.683368408203124,0.0020412609446793795,-0.034519586712121964,-0.001698927255347371
1733699924337322500,10.693322509765625,0.0003597408067435026,-0.037482086569070816,-0.0031881670001894236
1733699924347277300,10.70327734375,0.0017013824544847012,-0.0405595563352108,-0.002111221430823207
1733699924357232400,10.713232421875,0.003030033316463232,-0.041907381266355515,-0.0015253257006406784
1733699924367187500,10.7231875,0.0019163137767463923,-0.04210199415683746,-0.002711539389565587
1733699924377141500,10.7331416015625,0.0029640013817697763,-0.04296805337071419,-0.0021323019172996283
1733699924387096300,10.743096435546875,0.003770614042878151,-0.04391951858997345,-0.0008841147646307945
1733699924397051400,10.753051513671876,0.004243324976414442,-0.04194425418972969,-0.0007413693238049746
1733699924407005400,10.76300537109375,0.0030178155284374952,-0.04235447198152542,-0.0034682475961744785
1733699924416960500,10.77296044921875,0.003609303617849946,-0.037263840436935425,-0.0027694343589246273
1733699924426915300,10.782915283203126,0.0029892621096223593,-0.03444347530603409,-0.002475723624229431
1733699924436870400,10.792870361328125,0.002728005638346076,-0.02993314526975155,-0.00257505988702178
1733699924446824400,10.802824462890625,0.000567971495911479,-0.027155468240380287,-0.001283593475818634
1733699924456779500,10.812779541015624,0.0007802254986017942,-0.02560257911682129,-0.0011200753506273031
1733699924466734300,10.822734375,0.0006264476105570793,-0.027492279186844826,-0.003720255335792899
1733699924476689400,10.832689453125,0.0001995428465306759,-0.031280893832445145,-0.0025881456676870584
1733699924486643500,10.8426435546875,0.0008135752286761999,-0.034872137010097504,-0.0030519594438374043
1733699924496598500,10.8525986328125,0.0025872401893138885,-0.03894464299082756,-0.0024705911055207253
1733699924506553300,10.86255322265625,0.003427983494475484,-0.044160693883895874,-0.002435066271573305
1733699924516507400,10.87250732421875,0.0057342806831002235,-0.046873658895492554,-0.0020334613509476185
1733699924526462200,10.882462158203126,0.007733406499028206,-0.04816894233226776,-0.003148395800963044
1733699924536417500,10.89241748046875,0.007228471338748932,-0.049754589796066284,-0.0032754286658018827
1733699924546372400,10.902372314453125,0.007168988697230816,-0.04658007249236107,-0.0019314887467771769
1733699924556326400,10.912326416015626,0.008204692043364048,-0.03251565247774124,-0.007800030522048473
1733699924566281200,10.92228125,0.012075450271368027,-0.021313445642590523,-0.012736898846924305
1733699924576236500,10.932236572265625,0.008345692418515682,-0.02213183604180813,-0.006112552247941494
1733699924586191400,10.94219140625,0.004521111957728863,-0.0227695070207119,-0.003595849499106407
1733699924596145400,10.9521455078125,0.002731201471760869,-0.0227199736982584,-0.0031170127913355827
1733699924606100200,10.962100341796875,0.0013725338503718376,-0.024659452959895134,-0.0035958723165094852
1733699924616055600,10.9720556640625,0.00141008454374969,-0.030252624303102493,-0.0014906434807926416
1733699924626009300,10.98200927734375,0.0017415827605873346,-0.029448382556438446,-0.002124228747561574
1733699924635964400,10.99196435546875,0.0013927086256444454,-0.028111476451158524,-0.0016102385707199574
1733699924645919200,11.001919189453124,0.002552531659603119,-0.02262970805168152,-0.0012398529797792435
1733699924655874600,11.01187451171875,0.0001149405725300312,-0.013713712804019451,0.000028877053409814835
1733699924665828400,11.021828369140625,-0.0029758261516690254,-0.007691534701734781,-0.0007254378870129585
1733699924675783400,11.031783447265624,-0.0008202636381611228,-0.006221203599125147,-0.0010948183480650187
1733699924685738200,11.04173828125,-0.0011570336064323783,-0.010082610882818699,-0.000496643828228116
1733699924695693600,11.051693603515625,0.0009940015152096748,-0.012591575272381306,-0.0007405893411487341
1733699924705647400,11.0616474609375,0.001089524943381548,-0.02029627189040184,0.000029130373150110245
1733699924715602400,11.0716025390625,0.0014008483849465847,-0.02768760919570923,0.0004568339791148901
1733699924725557200,11.08155712890625,-0.00010958057828247547,-0.027652081102132797,0.0015898157143965364
1733699924735511600,11.091511474609375,0.0003852348309010267,-0.02494710683822632,0.002005801536142826
1733699924745466400,11.10146630859375,0.0036802946124225855,-0.02143065817654133,0.0014643864706158638
1733699924755421400,11.11142138671875,0.0033050549682229757,-0.018279606476426125,0.000837478437460959
1733699924765377000,11.121376953125,0.0010290711652487516,-0.01758757047355175,0.0006331352051347494
1733699924775331000,11.1313310546875,0.0006125527434051037,-0.015747858211398125,0.00027707056142389774
1733699924785286000,11.141285888671876,0.000206448370590806,-0.015456258319318295,-0.0026120287366211414
1733699924795241000,11.151240966796875,-0.0008297876920551062,-0.01483174692839384,-0.000015180092304944992
1733699924805196000,11.161196044921875,-0.00035429024137556553,-0.017033472657203674,-0.0016958715859800577
1733699924815150000,11.171150146484376,-0.0025436750147491693,-0.019940845668315887,-0.00110784568823874
1733699924825105000,11.18110498046875,-0.0028654648922383785,-0.02340072952210903,-0.0013759590219706297
1733699924835060000,11.19106005859375,-0.0033435022924095392,-0.02495068870484829,-0.0013394737616181374
1733699924845013800,11.201013671875,-0.0018937838030979037,-0.030989136546850204,-0.002297501778230071
1733699924854969000,11.210968994140625,-0.001993386074900627,-0.03385895863175392,-0.0010937531478703022
1733699924864924000,11.220923828125,0.0022298055700957775,-0.037062324583530426,0.00022176909260451794
1733699924874879000,11.23087890625,0.002077206503599882,-0.03432566300034523,-0.000051737530156970024
1733699924884832800,11.240832763671875,0.003578979754820466,-0.033641889691352844,0.00032288325019180775
1733699924894788000,11.2507880859375,0.004043168388307095,-0.031301770359277725,0.00019052415154874325
1733699924904743000,11.260742919921874,0.00253159087151289,-0.028588294982910156,0.001052222098223865
1733699924914698000,11.270697998046876,0.0034328047186136246,-0.02573232166469097,0.0009880400029942393
1733699924924651800,11.28065185546875,0.003541763639077544,-0.025368262082338333,0.00041901704389601946
1733699924934607000,11.290607177734374,0.0007686140015721321,-0.024876108393073082,-0.0012388008181005716
1733699924944562000,11.30056201171875,-0.00002519809640944004,-0.02262323908507824,0.0005641365423798561
1733699924954516000,11.310515869140625,-0.0010031108977273107,-0.019583772867918015,-0.0009871546644717455
1733699924964470800,11.320470703125,-0.0022232660558074713,-0.015430000610649586,-0.0004948875866830349
1733699924974426000,11.330426025390626,-0.0005353546002879739,-0.01802285574376583,-0.0013681380078196526
1733699924984381000,11.340380859375,-0.0023351020645350218,-0.015963029116392136,0.0006989217363297939
1733699924994335000,11.3503349609375,-0.0015422790311276913,-0.017685027793049812,0.0021724486723542213
1733699925004289800,11.360289794921876,0.00035920110531151295,-0.01910516433417797,0.0015272506279870868
1733699925014245000,11.3702451171875,0.0016183438710868359,-0.02384532429277897,0.00179862673394382
1733699925024199000,11.380198974609375,0.0027871651109308004,-0.020198442041873932,0.0011982280993834138
1733699925034154000,11.390154052734376,0.0021322935353964567,-0.021526293829083443,-0.00006464286707341671
1733699925044108800,11.40010888671875,0.0003357348032295704,-0.019728591665625572,0.0006546342046931386
1733699925054064000,11.410064208984375,-0.0013119630748406053,-0.018347209319472313,-0.0003669543657451868
1733699925064018000,11.420017822265624,0.00023945793509483337,-0.012542896904051304,0.001266686012968421
1733699925073973000,11.429972900390625,-0.0009581656195223331,-0.00917879119515419,0.0011803996749222279
1733699925083927800,11.439927734375,-0.0019970026332885027,-0.005275407340377569,0.0033556618727743626
1733699925093883100,11.449883056640624,-0.001628687372431159,-0.001829543150961399,0.002298919716849923
1733699925103837000,11.4598369140625,-0.00026438990607857704,0.0003723077825270593,0.0009206116665154696
1733699925113792000,11.4697919921875,0.0001808907836675644,-0.0022461123298853636,0.00113046879414469
1733699925123746800,11.479746826171874,-0.0009724193951115012,-0.005323355086147785,0.0017095550429075956
1733699925133700900,11.489700927734376,0.00024464516900479794,-0.008894920349121094,0.0023330010008066893
1733699925143656000,11.499656005859375,0.001049509271979332,-0.012531813234090805,0.0014185078907757998
1733699925153611000,11.509611083984375,0.000504892785102129,-0.01804109290242195,0.003586054779589176
1733699925163565800,11.51956591796875,0.0015951674431562424,-0.02401987463235855,0.0010476326569914818
1733699925173520000,11.529519775390625,-0.00009087985381484032,-0.028502773493528366,0.0016942480579018593
1733699925183475000,11.539474853515625,0.000023043714463710785,-0.03123817779123783,0.0015201412606984377
1733699925193430000,11.549429931640624,-0.001107468269765377,-0.03118864633142948,0.001604297198355198
1733699925203383800,11.5593837890625,-0.0005446879658848047,-0.0329023078083992,0.0009798117680475116
1733699925213339000,11.5693388671875,-0.0009095410350710154,-0.031781915575265884,0.0016495967283844948
1733699925223294000,11.5792939453125,-0.0014469703892245889,-0.027189303189516068,0.0018379739485681057
1733699925233249000,11.5892490234375,-0.00035720481537282467,-0.0235437024384737,0.000419840682297945
1733699925243202800,11.599202880859375,0.0005450434982776642,-0.020740939304232597,0.0037856162525713444
1733699925253158000,11.609157958984374,0.0025999387726187706,-0.017161916941404343,0.0033789516892284155
1733699925263113000,11.619113037109376,0.0026613955851644278,-0.012624775059521198,0.005285319872200489
1733699925273068000,11.629068115234375,0.0037610146682709455,-0.006811360362917185,0.006123682949692011
1733699925283021800,11.639021728515624,0.003168937284499407,-0.002013816963881254,0.00516918022185564
1733699925292977000,11.648976806640626,0.001551866065710783,0.001941510010510683,0.005366787314414978
1733699925302932000,11.658931884765625,0.0012448751367628574,0.002131386660039425,0.003276919713243842
1733699925312886000,11.668885986328124,0.0005455291830003262,0.0010259086266160011,0.002517918823286891
1733699925322840800,11.6788408203125,0.0012515517883002758,-0.00025432294933125377,0.0037838625721633434
1733699925332796000,11.6887958984375,0.0015429016202688217,0.0026415984611958265,0.0011630458757281303
1733699925342751000,11.6987509765625,0.002107644220814109,0.003181477775797248,0.002846646821126342
1733699925352705000,11.708705078125,0.0032219106797128916,0.0006554694846272469,0.002040241612121463
1733699925362659800,11.718659912109375,0.003515817690640688,0.0007016438758000731,0.0024298399221152067
1733699925372615000,11.728614990234375,0.0015868903137743473,0.0002273349091410637,0.000640462152659893
1733699925382569000,11.73856884765625,-0.000630158232524991,0.0010706392349675298,0.0015080405864864588
1733699925392524000,11.74852392578125,0.0003032796084880829,0.007024668622761965,0.0023370825219899416
1733699925402478800,11.758478759765625,-0.004768790677189827,0.015733925625681877,0.0017850450240075588
1733699925412434000,11.768433837890624,-0.005296362563967705,0.026595095172524452,0.0010476157767698169
1733699925422387700,11.7783876953125,-0.004153718706220388,0.038511764258146286,0.0028083152137696743
