time,seconds_elapsed,z,y,x
1733700049814481000,0.01948095703125,-0.005261852405965328,-0.012107539921998978,-0.013261893764138222
1733700049824435000,0.02943505859375,-0.006333503872156143,-0.01925716921687126,-0.014709880575537682
1733700049834389000,0.039388916015625,-0.007685857359319925,-0.029012061655521393,-0.013712259009480476
1733700049844343800,0.04934375,-0.008423690684139729,-0.04175999388098717,-0.01115109771490097
1733700049854298000,0.059298095703125,-0.0026387725956737995,-0.04510199651122093,-0.011501036584377289
1733700049864253000,0.0692529296875,0.001772753894329071,-0.06266135722398758,-0.007626742590218782
1733700049874207000,0.07920703125,0.003668392077088356,-0.06955868005752563,-0.00485705491155386
1733700049884162300,0.089162353515625,0.005588131956756115,-0.07635636627674103,-0.006541915237903595
1733700049894116000,0.0991162109375,0.002766246208921075,-0.08652378618717194,-0.00823302287608385
1733700049904071200,0.1090712890625,0.00616084411740303,-0.10037330538034439,-0.01147464755922556
1733700049914025000,0.11902490234375,0.005037790164351463,-0.12164663523435593,-0.012997442856431007
1733700049923979000,0.12897900390625,0.006424510385841131,-0.14068494737148285,-0.008885856717824936
1733700049933934300,0.138934326171875,0.006376839708536863,-0.1493665874004364,-0.007414726540446281
1733700049943888100,0.14888818359375,0.007372856605798006,-0.14905333518981934,-0.01045930478721857
1733700049953843200,0.15884326171875,0.009538272395730019,-0.14049233496189117,-0.015454861335456371
1733700049963797000,0.168796875,0.010210979729890823,-0.133249893784523,-0.01866496354341507
1733700049973752000,0.178751953125,0.007023442070931196,-0.12904450297355652,-0.023628830909729004
1733700049983706000,0.1887060546875,0.003579176962375641,-0.12324787676334381,-0.029482819139957428
1733700049993660200,0.19866015625,-0.00010823598131537437,-0.12438824772834778,-0.03310897946357727
1733700050003615200,0.208615234375,-0.00011782324872910976,-0.13335004448890686,-0.03429195657372475
1733700050013569000,0.218569091796875,0.003852417226880789,-0.1476680040359497,-0.03785233572125435
1733700050023524000,0.228524169921875,0.006932906340807676,-0.16017402708530426,-0.04315062239766121
1733700050033478100,0.23847802734375,0.013127950951457024,-0.1861822009086609,-0.04769317805767059
1733700050043433200,0.24843310546875,0.016599103808403015,-0.21351464092731476,-0.04923831671476364
1733700050053387300,0.25838720703125,0.020496906712651253,-0.24287758767604828,-0.04922686517238617
1733700050063342000,0.268342041015625,0.02517395094037056,-0.2711830139160156,-0.05471653863787651
1733700050073296100,0.278296142578125,0.02994154393672943,-0.286963552236557,-0.0647507980465889
1733700050083250000,0.28825,0.040489256381988525,-0.286700576543808,-0.08348635584115982
1733700050093205200,0.298205322265625,0.04251459240913391,-0.28837117552757263,-0.08102133125066757
1733700050103159300,0.3081591796875,0.03523643687367439,-0.2787087559700012,-0.08158563077449799
1733700050113114000,0.318114013671875,0.027684511616826057,-0.2624874413013458,-0.08310895413160324
1733700050123068200,0.328068115234375,0.017513766884803772,-0.23422348499298096,-0.0891433134675026
1733700050133023000,0.33802294921875,0.0026211042422801256,-0.19077827036380768,-0.09118622541427612
1733700050142977300,0.347977294921875,-0.003960230387747288,-0.12050672620534897,-0.07633160054683685
1733700050152932000,0.35793212890625,-0.008857251144945621,-0.019400883466005325,-0.04919052496552467
1733700050162886100,0.36788623046875,-0.005069161765277386,0.1284891963005066,-0.025478418916463852
1733700050172840200,0.377840087890625,-0.0017817560583353043,0.3251492381095886,-0.00784270092844963
1733700050182795000,0.387794921875,-0.012063298374414444,0.5597243309020996,0.0013665594160556793
1733700050192749000,0.3977490234375,-0.03244100883603096,0.78197181224823,0.010952607728540897
1733700050202704100,0.4077041015625,-0.05526603013277054,0.9373692870140076,0.03592737019062042
1733700050212658200,0.417658203125,-0.06895041465759277,1.0266422033309937,0.07217219471931458
1733700050222613000,0.427613037109375,-0.07898972928524017,1.0420528650283813,0.10190713405609131
1733700050232567000,0.437567138671875,-0.09814585000276566,0.9793908596038818,0.10886331647634506
1733700050242521000,0.44752099609375,-0.12633967399597168,0.8518781661987305,0.10197979211807251
1733700050252476200,0.45747607421875,-0.14650726318359375,0.700092613697052,0.0942172035574913
1733700050262430200,0.46743017578125,-0.1573834866285324,0.5450831651687622,0.0912357047200203
1733700050272385000,0.477385009765625,-0.1635899841785431,0.39252156019210815,0.0962219387292862
1733700050282339000,0.487339111328125,-0.16936863958835602,0.2546443045139313,0.10075560957193375
1733700050292294100,0.497294189453125,-0.15862810611724854,0.1460733413696289,0.09785302728414536
1733700050302248200,0.507248291015625,-0.12262164056301117,0.08069435507059097,0.08875959366559982
1733700050312202200,0.5172021484375,-0.08116047829389572,0.02965434268116951,0.08008221536874771
1733700050322157000,0.527156982421875,-0.04949721693992615,0.016175996512174606,0.06210534647107124
1733700050332111000,0.537111083984375,0.003048284910619259,0.004936923738569021,0.047599904239177704
1733700050342066200,0.547066162109375,0.05269971489906311,-0.0014313098508864641,0.04361751303076744
1733700050352020000,0.55702001953125,0.08916931599378586,-0.008507328107953072,0.053209152072668076
1733700050361975300,0.566975341796875,0.10942570865154266,-0.010629698634147644,0.06137031316757202
1733700050371929000,0.57692919921875,0.12245043367147446,-0.019059667363762856,0.06764418631792068
1733700050381884200,0.58688427734375,0.12179170548915863,-0.027352452278137207,0.06656413525342941
1733700050391838000,0.596837890625,0.10189922899007797,-0.03459039330482483,0.07723994553089142
1733700050401792000,0.6067919921875,0.05990809574723244,-0.05134767293930054,0.09588761627674103
1733700050411747300,0.616747314453125,0.016451697796583176,-0.018099438399076462,0.09479118883609772
1733700050421701000,0.626701171875,-0.014366135001182556,0.03375091031193733,0.08153186738491058
1733700050431656200,0.63665625,-0.029278239235281944,0.08808845281600952,0.06761818379163742
1733700050441610000,0.64660986328125,-0.028776632621884346,0.1439363658428192,0.06095265969634056
1733700050451565000,0.65656494140625,-0.024805860593914986,0.1780402809381485,0.05946262180805206
1733700050461519400,0.666519287109375,-0.021222975105047226,0.1913955956697464,0.05708833783864975
1733700050471473200,0.67647314453125,-0.024231014773249626,0.17852240800857544,0.047430649399757385
1733700050481428200,0.68642822265625,-0.029085423797369003,0.14446265995502472,0.038705360144376755
1733700050491382000,0.696382080078125,-0.039742596447467804,0.1004355326294899,0.03693222627043724
1733700050501337000,0.706337158203125,-0.050579529255628586,0.07245470583438873,0.04407911002635956
1733700050511291100,0.716291015625,-0.05210684984922409,0.07394794374704361,0.05995767563581467
1733700050521246200,0.72624609375,-0.04828694835305214,0.09654513001441956,0.08041031658649445
1733700050531200300,0.7362001953125,-0.032432351261377335,0.11053817719221115,0.09641458839178085
1733700050541155000,0.746155029296875,-0.010871666483581066,0.11249227821826935,0.10468747466802597
1733700050551109000,0.756109130859375,0.011768131516873837,0.09986303746700287,0.1040579080581665
1733700050561063200,0.766063232421875,0.03347316011786461,0.07751152664422989,0.09960674494504929
1733700050571018200,0.776018310546875,0.046448346227407455,0.037596069276332855,0.09261035919189453
1733700050580972300,0.78597216796875,0.047312941402196884,-0.005232503637671471,0.0889139175415039
1733700050590927000,0.795927001953125,0.034197404980659485,-0.03176291286945343,0.09689993411302567
1733700050600881200,0.805881103515625,0.015349822118878365,-0.040349967777729034,0.10184777528047562
1733700050610836000,0.8158359375,0.006733429618179798,-0.025923093780875206,0.09976518154144287
1733700050620790000,0.8257900390625,0.007446352392435074,0.0009224771056324244,0.09376510232686996
1733700050630745000,0.8357451171875,0.017693929374217987,0.02077447809278965,0.0848536342382431
1733700050640699100,0.84569921875,0.02783152274787426,0.035680945962667465,0.0726989135146141
1733700050650653200,0.855653076171875,0.028947919607162476,0.04119874909520149,0.06111736223101616
1733700050660608000,0.86560791015625,0.024168875068426132,0.04650675877928734,0.06134823337197304
1733700050670562000,0.87556201171875,0.009497522376477718,0.04796004667878151,0.06495308876037598
1733700050680517000,0.88551708984375,-0.008070552721619606,0.0423508957028389,0.07307866215705872
1733700050690471200,0.89547119140625,-0.01748988777399063,0.055380679666996,0.0802827775478363
1733700050700426000,0.905426025390625,-0.023235393688082695,0.09510231018066406,0.08849477767944336
1733700050710380000,0.915380126953125,-0.02217891812324524,0.14830508828163147,0.09194250404834747
1733700050720334000,0.925333984375,-0.02536299265921116,0.19327960908412933,0.08581754565238953
1733700050730289200,0.9352890625,-0.03053911216557026,0.20985272526741028,0.06484808772802353
1733700050740243200,0.9452431640625,-0.037657469511032104,0.19320239126682281,0.03055812045931816
1733700050750198000,0.955197998046875,-0.0515943244099617,0.16805016994476318,-0.02961067669093609
1733700050760152000,0.965152099609375,-0.058645185083150864,0.15559571981430054,-0.10527428239583969
1733700050770107100,0.975107177734375,-0.06128304451704025,0.17108306288719177,-0.17247329652309418
1733700050780061000,0.98506103515625,-0.06189730390906334,0.22241100668907166,-0.21893520653247833
1733700050790016300,0.995016357421875,-0.07966911047697067,0.24499167501926422,-0.25835558772087097
1733700050799970000,1.004969970703125,-0.08852651715278625,0.2346409559249878,-0.27216923236846924
1733700050809924000,1.014924072265625,-0.07696067541837692,0.20697258412837982,-0.23859766125679016
1733700050819879200,1.024879150390625,-0.054414741694927216,0.17787589132785797,-0.15954472124576569
1733700050829833000,1.0348330078125,-0.03969917818903923,0.17238205671310425,-0.0632975623011589
1733700050839788300,1.044788330078125,-0.034016795456409454,0.17647531628608704,0.01749226450920105
1733700050849742000,1.0547421875,-0.034218400716781616,0.16199198365211487,0.03938717767596245
1733700050859697200,1.064697265625,-0.027030261233448982,0.12285882234573364,-0.020304163917899132
1733700050869651200,1.074651123046875,-0.006907950155436993,0.07031012326478958,-0.1347109079360962
1733700050879605000,1.08460498046875,0.02350015565752983,0.014464203268289566,-0.24540027976036072
1733700050889560600,1.094560546875,0.05117732286453247,-0.05509223788976669,-0.2988147437572479
1733700050899514600,1.1045146484375,0.06949520856142044,-0.13546694815158844,-0.2674102187156677
1733700050909469700,1.1144697265625,0.08435910940170288,-0.21442222595214844,-0.18596941232681274
1733700050919423500,1.124423583984375,0.09643681347370148,-0.25628742575645447,-0.11710873991250992
1733700050929378600,1.134378662109375,0.09886854141950607,-0.24341583251953125,-0.095024473965168
1733700050939332600,1.14433251953125,0.09625465422868729,-0.174017995595932,-0.11215530335903168
1733700050949287700,1.15428759765625,0.10446171462535858,-0.10354142636060715,-0.12186892330646515
1733700050959241700,1.16424169921875,0.11246997117996216,-0.07389922440052032,-0.08964353799819946
1733700050969195500,1.174195556640625,0.11204972118139267,-0.10756930708885193,-0.02431912161409855
1733700050979150600,1.184150634765625,0.1107286661863327,-0.18028107285499573,0.04362688213586807
1733700050989104400,1.1941044921875,0.09990158677101135,-0.20928263664245605,0.07856143265962601
1733700050999059700,1.204059814453125,0.09058571606874466,-0.19101819396018982,0.07112982869148254
1733700051009013800,1.214013671875,0.086684450507164,-0.17176701128482819,0.04559065029025078
1733700051018968600,1.223968505859375,0.07435214519500732,-0.16182561218738556,0.027585888281464577
1733700051028922600,1.233922607421875,0.05556727573275566,-0.17075812816619873,0.030812039971351624
1733700051038876400,1.24387646484375,0.02539725974202156,-0.1814022660255432,0.03957408294081688
1733700051048831700,1.253831787109375,-0.0077676186338067055,-0.19928885996341705,0.04028035327792168
1733700051058785800,1.263785888671875,-0.021589821204543114,-0.17763406038284302,0.028373554348945618
1733700051068740600,1.27374072265625,-0.0168728306889534,-0.14312109351158142,0.009952468797564507
1733700051078694700,1.283694580078125,0.007734239567071199,-0.13967664539813995,-0.010032860562205315
1733700051088649500,1.2936494140625,0.04851149395108223,-0.18131516873836517,-0.03641786053776741
1733700051098603800,1.303603759765625,0.09978280961513519,-0.2750392258167267,-0.07354823499917984
1733700051108558600,1.31355859375,0.1468946635723114,-0.3907298743724823,-0.11795830726623535
1733700051118512600,1.3235126953125,0.19251340627670288,-0.4912368655204773,-0.1585063636302948
1733700051128466700,1.333466796875,0.23605503141880035,-0.5800088047981262,-0.17783984541893005
1733700051138421500,1.34342138671875,0.28685057163238525,-0.6370601058006287,-0.16794084012508392
1733700051148375600,1.35337548828125,0.3563750386238098,-0.6680837869644165,-0.14171110093593597
1733700051158330600,1.36333056640625,0.4289834797382355,-0.7100993394851685,-0.10885247588157654
1733700051168284700,1.37328466796875,0.4987335205078125,-0.7683711647987366,-0.09013950824737549
1733700051178239500,1.383239501953125,0.5505722165107727,-0.7817621231079102,-0.09488051384687424
1733700051188193500,1.393193603515625,0.5696868300437927,-0.750383734703064,-0.0928511917591095
1733700051198147600,1.403147705078125,0.5608200430870056,-0.6616564989089966,-0.10209061950445175
1733700051208102700,1.4131025390625,0.5221123099327087,-0.5573905110359192,-0.1040608212351799
1733700051218056700,1.423056640625,0.45612868666648865,-0.47370824217796326,-0.08629699796438217
1733700051228011500,1.433011474609375,0.3777824640274048,-0.4182441830635071,-0.06420820951461792
1733700051237965600,1.442965576171875,0.29869818687438965,-0.34710192680358887,-0.054208334535360336
1733700051247920600,1.452920654296875,0.2418266385793686,-0.2522185742855072,-0.06690015643835068
1733700051257874700,1.462874755859375,0.22059616446495056,-0.18759948015213013,-0.07981937378644943
1733700051267829800,1.472829833984375,0.21887657046318054,-0.15200074017047882,-0.09357380121946335
1733700051277783600,1.482783447265625,0.21872317790985107,-0.1422593742609024,-0.11333847790956497
1733700051287737600,1.492737548828125,0.22895210981369019,-0.1688574254512787,-0.1367519199848175
1733700051297692400,1.5026923828125,0.22561663389205933,-0.21575239300727844,-0.1396694779396057
1733700051307646500,1.512646484375,0.19465579092502594,-0.2587728202342987,-0.12507429718971252
1733700051317601800,1.522601806640625,0.14492471516132355,-0.27090293169021606,-0.10427067428827286
1733700051327555600,1.5325556640625,0.11040269583463669,-0.2597392201423645,-0.08497820049524307
1733700051337510700,1.5425107421875,0.10653871297836304,-0.25950250029563904,-0.07217125594615936
1733700051347464400,1.55246435546875,0.12949702143669128,-0.26960626244544983,-0.06974964588880539
1733700051357418500,1.56241845703125,0.1675681173801422,-0.29173582792282104,-0.068659208714962
1733700051367373800,1.572373779296875,0.19353340566158295,-0.33543482422828674,-0.061609815806150436
1733700051377327600,1.58232763671875,0.19467616081237793,-0.39932510256767273,-0.05260343849658966
1733700051387282700,1.59228271484375,0.16507671773433685,-0.4661555290222168,-0.04478786140680313
1733700051397236500,1.602236572265625,0.10946992039680481,-0.5202312469482422,-0.0366368442773819
1733700051407191600,1.612191650390625,0.054204534739255905,-0.5653966069221497,-0.030507849529385567
1733700051417145900,1.622145751953125,0.0046265991404652596,-0.6136228442192078,-0.02811131626367569
1733700051427100700,1.6321005859375,-0.019998852163553238,-0.6393750905990601,-0.03478199988603592
1733700051437054700,1.6420546875,-0.01709427684545517,-0.6432275176048279,-0.04773905873298645
1733700051447008500,1.652008544921875,-0.0005485903238877654,-0.6278001070022583,-0.04761175811290741
1733700051456963600,1.661963623046875,0.010592231526970863,-0.5913879871368408,-0.041913364082574844
1733700051466917600,1.671917724609375,0.02417914569377899,-0.5434034466743469,-0.03852742165327072
1733700051476872700,1.681872802734375,0.024169007316231728,-0.4750994145870209,-0.028865622356534004
1733700051486826800,1.69182666015625,0.001096711028367281,-0.38405072689056396,-0.011043214239180088
1733700051496781600,1.701781494140625,-0.04128030687570572,-0.2787884771823883,0.006551758386194706
1733700051506735600,1.711735595703125,-0.07305474579334259,-0.1923247128725052,0.03265766054391861
1733700051516689700,1.721689697265625,-0.0912657082080841,-0.12166832387447357,0.064595066010952
1733700051526644700,1.731644775390625,-0.0978221446275711,-0.06215546652674675,0.09401846677064896
1733700051536598800,1.741598876953125,-0.09645700454711914,-0.026548702269792557,0.12062214314937592
1733700051546553600,1.7515537109375,-0.10449335724115372,-0.019720889627933502,0.14460070431232452
1733700051556507600,1.761507568359375,-0.11463987827301025,-0.03907100111246109,0.16132187843322754
1733700051566462500,1.77146240234375,-0.130442276597023,-0.05169065669178963,0.16279886662960052
1733700051576416800,1.781416748046875,-0.13471823930740356,-0.06351137161254883,0.1580231785774231
1733700051586371600,1.79137158203125,-0.12719081342220306,-0.09090571105480194,0.15600290894508362
1733700051596325600,1.80132568359375,-0.10274433344602585,-0.1296127289533615,0.15391948819160461
1733700051606279700,1.81127978515625,-0.06837170571088791,-0.1594816893339157,0.14971648156642914
1733700051616234500,1.821234375,-0.047444190829992294,-0.1573738306760788,0.1379360407590866
1733700051626188500,1.8311884765625,-0.08036112785339355,-0.14180925488471985,0.10881225764751434
1733700051636143600,1.8411435546875,-0.1634746640920639,-0.08817632496356964,0.08568213880062103
1733700051646097700,1.85109765625,-0.2601125240325928,0.007697207387536764,0.07065632194280624
1733700051656052500,1.861052490234375,-0.3425101935863495,0.15239986777305603,0.07119585573673248
1733700051666006500,1.871006591796875,-0.38462063670158386,0.3027054965496063,0.08439368009567261
1733700051675960600,1.880960693359375,-0.3823213577270508,0.3947775959968567,0.10979434847831726
1733700051685915600,1.89091552734375,-0.34445920586586,0.4045974612236023,0.13885876536369324
1733700051695869700,1.90086962890625,-0.29465851187705994,0.35969558358192444,0.16597490012645721
1733700051705824500,1.910824462890625,-0.25530683994293213,0.2843576967716217,0.18493607640266418
1733700051715778600,1.920778564453125,-0.23130255937576294,0.22330167889595032,0.18838155269622803
1733700051725733600,1.930733642578125,-0.23143786191940308,0.20520257949829102,0.1720965951681137
1733700051735687700,1.940687744140625,-0.24103137850761414,0.18700860440731049,0.13963952660560608
1733700051745642800,1.950642822265625,-0.2409546673297882,0.14203554391860962,0.11696404218673706
1733700051755596500,1.960596435546875,-0.22066643834114075,0.08553078770637512,0.09677229076623917
1733700051765550600,1.970550537109375,-0.18409378826618195,0.057826995849609375,0.07387709617614746
1733700051775505700,1.980505615234375,-0.13908129930496216,0.09921284765005112,0.03290221095085144
1733700051785459500,1.99045947265625,-0.08762983232736588,0.15016286075115204,-0.004905887879431248
1733700051795414800,2.000414794921875,-0.04911679029464722,0.15146410465240479,-0.038310401141643524
1733700051805368600,2.01036865234375,-0.030317801982164383,0.11050202697515488,-0.048421625047922134
1733700051815323600,2.02032373046875,-0.02606806345283985,0.040339626371860504,-0.031881362199783325
1733700051825277400,2.03027734375,-0.021355867385864258,-0.02087792567908764,-0.0013221199624240398
1733700051835231500,2.0402314453125,-0.023227136582136154,-0.028260355815291405,0.03345585986971855
1733700051845186800,2.050186767578125,-0.021179432049393654,0.011626604944467545,0.05926961451768875
1733700051855140600,2.060140625,0.006530091632157564,0.04561861976981163,0.06563514471054077
1733700051865095700,2.070095703125,0.04866582527756691,0.07655069977045059,0.06688523292541504
1733700051875049500,2.080049560546875,0.06886603683233261,0.09317632764577866,0.07001866400241852
1733700051885004000,2.090004150390625,0.051080651581287384,0.09264209866523743,0.08274217694997787
1733700051894958000,2.0999580078125,0.0014517111703753471,0.08149386942386627,0.08696901053190231
1733700051904913000,2.109912841796875,-0.05116382986307144,0.051716532558202744,0.08168502897024155
1733700051914867000,2.119866943359375,-0.09370370209217072,0.006033039651811123,0.0815344825387001
1733700051924821000,2.129821044921875,-0.11808573454618454,0.00956012960523367,0.0875372514128685
1733700051934776000,2.139776123046875,-0.11584934592247009,0.05398087948560715,0.09003850817680359
1733700051944730000,2.149730224609375,-0.0846211239695549,0.07906545698642731,0.0859428346157074
1733700051954685000,2.159684814453125,-0.04080439731478691,0.06887105852365494,0.07746689766645432
1733700051964639000,2.169638916015625,-0.0035571614280343056,0.03753550723195076,0.068337582051754
1733700051974594000,2.179593994140625,0.018256520852446556,-0.014296913519501686,0.059588707983493805
1733700051984548000,2.189548095703125,0.019773459061980247,-0.05572131648659706,0.050129957497119904
1733700051994502100,2.199502197265625,0.0009169492404907942,-0.10764645040035248,0.051468051970005035
1733700052004457000,2.20945703125,-0.026830259710550308,-0.14477330446243286,0.0431336872279644
1733700052014411000,2.219410888671875,-0.06129702180624008,-0.17609235644340515,0.023539649322628975
1733700052024365800,2.22936572265625,-0.0934658795595169,-0.23405764997005463,0.014922726899385452
1733700052034320100,2.239320068359375,-0.1240307167172432,-0.26359304785728455,0.009355073794722557
1733700052044275000,2.24927490234375,-0.1331573724746704,-0.27218201756477356,-0.00044242991134524345
1733700052054229000,2.25922900390625,-0.12421992421150208,-0.3033619523048401,-0.028098462149500847
1733700052064184000,2.26918408203125,-0.09784611314535141,-0.3642788231372833,-0.0541556291282177
1733700052074137900,2.279137939453125,-0.05956596881151199,-0.4395114779472351,-0.06578127294778824
1733700052084092000,2.289091796875,-0.020757853984832764,-0.5116122961044312,-0.06456633657217026
1733700052094047000,2.299046875,0.00015995721332728863,-0.5726812481880188,-0.06707031279802322
1733700052104001000,2.3090009765625,-0.005234542302787304,-0.6047347784042358,-0.07550294697284698
1733700052113956000,2.3189560546875,-0.005007517524063587,-0.6199315190315247,-0.07638764381408691
1733700052123910000,2.328909912109375,0.008504295721650124,-0.6128232479095459,-0.06787218898534775
1733700052133865000,2.338864990234375,0.018514452502131462,-0.5957723259925842,-0.05814487487077713
1733700052143819000,2.348819091796875,0.017823360860347748,-0.5455672144889832,-0.05325477570295334
1733700052153773000,2.35877294921875,-0.008199985139071941,-0.4354309141635895,-0.06391255557537079
1733700052163728000,2.368727783203125,0.0005354497116059065,-0.3602575957775116,-0.07601502537727356
1733700052173682000,2.378681884765625,0.022136615589261055,-0.30385321378707886,-0.07885138690471649
1733700052183637000,2.388636962890625,0.03872811049222946,-0.26797083020210266,-0.07419565320014954
1733700052193590800,2.3985908203125,0.044584404677152634,-0.2451827973127365,-0.07057511061429977
1733700052203546000,2.408546142578125,0.0470329150557518,-0.25773242115974426,-0.06258615851402283
1733700052213500000,2.4185,0.04616339132189751,-0.2829689383506775,-0.056062884628772736
1733700052223455000,2.428455078125,0.03770412504673004,-0.3202875554561615,-0.04503766447305679
1733700052233409000,2.438408935546875,0.029390402138233185,-0.3509354591369629,-0.040119849145412445
1733700052243362800,2.44836279296875,0.02580631896853447,-0.3827975392341614,-0.03508594259619713
1733700052253318100,2.458318115234375,0.027766142040491104,-0.40940141677856445,-0.026959380134940147
1733700052263272000,2.46827197265625,0.02977949194610119,-0.42638546228408813,-0.02853543870151043
1733700052273227000,2.47822705078125,0.03200270235538483,-0.446175217628479,-0.02595294639468193
1733700052283181000,2.48818115234375,0.03320325165987015,-0.45950964093208313,-0.0294981487095356
1733700052293136000,2.498135986328125,0.03262162581086159,-0.46756863594055176,-0.02980990521609783
1733700052303090200,2.508090087890625,0.02938428707420826,-0.48529836535453796,-0.03209729492664337
1733700052313044000,2.5180439453125,0.025302983820438385,-0.4889198839664459,-0.037351857870817184
1733700052322999000,2.5279990234375,0.021694133058190346,-0.491381973028183,-0.037601929157972336
1733700052332953000,2.537953125,0.01728527434170246,-0.4693692624568939,-0.03972812369465828
1733700052342908000,2.547907958984375,0.016357162967324257,-0.4192906618118286,-0.049561578780412674
1733700052352862000,2.557862060546875,0.01680472493171692,-0.3495807647705078,-0.05837685987353325
1733700052362817000,2.567817138671875,0.016410311684012413,-0.25825589895248413,-0.0639500543475151
1733700052372771000,2.57777099609375,0.008101500570774078,-0.15431055426597595,-0.06097595766186714
1733700052382726000,2.587725830078125,-0.0025343652814626694,-0.03816370666027069,-0.04441589117050171
1733700052392680000,2.597679931640625,-0.011772742494940758,0.08164860308170319,-0.018092866986989975
1733700052402634000,2.607634033203125,-0.012069685384631157,0.2140021175146103,0.002702424768358469
1733700052412589000,2.617589111328125,-0.0046607693657279015,0.3602202534675598,0.015889091417193413
1733700052422543000,2.627543212890625,-0.0032873768359422684,0.4952699542045593,0.027634162455797195
1733700052432498000,2.637497802734375,-0.002863676752895117,0.601355791091919,0.03766445070505142
1733700052442452000,2.647451904296875,-0.009145008400082588,0.6650710701942444,0.04342566803097725
1733700052452406800,2.65740673828125,-0.0643141120672226,0.699581503868103,0.05274685472249985
1733700052462361000,2.667361083984375,-0.09468426555395126,0.6688187718391418,0.06555026769638062
1733700052472315100,2.677315185546875,-0.06139009818434715,0.5943187475204468,0.060300931334495544
1733700052482270000,2.68727001953125,-0.03768716752529144,0.4733172357082367,0.047971561551094055
1733700052492224000,2.69722412109375,-0.02452993579208851,0.319283127784729,0.031980711966753006
1733700052502178800,2.7071787109375,-0.014123632572591305,0.1473742127418518,0.018611907958984375
1733700052512132900,2.7171328125,0.00011147488839924335,-0.029541805386543274,0.00864342786371708
1733700052522088000,2.727087890625,0.007974990643560886,-0.19012562930583954,0.005854832008481026
1733700052532042000,2.7370419921875,0.01245709415525198,-0.3252231776714325,0.005783532280474901
1733700052541997000,2.7469970703125,0.01251621637493372,-0.426504522562027,0.0024553798139095306
1733700052551950800,2.756950927734375,0.01129994634538889,-0.4908757507801056,-0.001377562526613474
1733700052561905000,2.76690478515625,0.0062718987464904785,-0.5128510594367981,-0.007254626601934433
1733700052571860000,2.77685986328125,0.004383185878396034,-0.4991123080253601,-0.010387497022747993
1733700052581814000,2.78681396484375,0.0031333647202700377,-0.4497620761394501,-0.011440777219831944
1733700052591769000,2.79676904296875,0.0067323604598641396,-0.3768013119697571,-0.011795510537922382
1733700052601723000,2.806722900390625,0.0036300441715866327,-0.2955791652202606,-0.012300712056457996
1733700052611678000,2.816677978515625,0.002137340372428298,-0.22174935042858124,-0.011871264316141605
1733700052621632000,2.826632080078125,-0.00143821956589818,-0.15714424848556519,-0.011441431008279324
1733700052631586000,2.8365859375,-0.0024036155082285404,-0.10836099833250046,-0.008188378997147083
1733700052641541000,2.846541015625,-0.0021649962291121483,-0.07407892495393753,-0.003642629599198699
1733700052651495000,2.856494873046875,-0.0021860189735889435,-0.05172358825802803,0.00007199728861451149
1733700052661450000,2.866449951171875,0.0012475945986807346,-0.04528060182929039,-0.00017967121675610542
1733700052671403800,2.87640380859375,0.0005895141512155533,-0.05008050054311752,0.0018028812482953072
1733700052681359000,2.886359130859375,-0.0003103679046034813,-0.06660408526659012,0.0006491998210549355
1733700052691313200,2.896313232421875,-0.00037361576687544584,-0.09547710418701172,0.00013724341988563538
1733700052701268000,2.90626806640625,0.0006988390814512968,-0.1349124014377594,0.0009106254437938333
1733700052711222000,2.916221923828125,0.0027298955246806145,-0.17961682379245758,0.00010833714623004198
1733700052721175800,2.92617578125,0.0022209654562175274,-0.2276056557893753,0.0006465619662776589
1733700052731131100,2.936131103515625,0.0039557525888085365,-0.26696687936782837,0.001082811038941145
1733700052741085000,2.9460849609375,0.005022615194320679,-0.2960062325000763,0.0028998858761042356
1733700052751040000,2.9560400390625,0.006670709233731031,-0.31469935178756714,0.000611503841355443
1733700052760994000,2.965994140625,0.008835060521960258,-0.3226163983345032,0.0020653235260397196
1733700052770948900,2.975948974609375,0.007241292856633663,-0.31841614842414856,0.0008220631862059236
1733700052780903200,2.985903076171875,0.007751287892460823,-0.3002685606479645,0.0036543351598083973
1733700052790857000,2.99585693359375,0.007242897991091013,-0.272247850894928,-0.0003842511214315891
1733700052800812000,3.00581201171875,0.003523260820657015,-0.2386496663093567,-0.002287878654897213
1733700052810766000,3.01576611328125,0.001336532412096858,-0.20729762315750122,-0.0004072519950568676
1733700052820721000,3.025720947265625,-0.000115156639367342,-0.18132753670215607,-0.0012583981733769178
1733700052830675000,3.035675048828125,-0.0020924126729369164,-0.1589849591255188,0.00042602792382240295
1733700052840630000,3.045630126953125,0.0009278783109039068,-0.1437215805053711,-0.0006528187077492476
1733700052850584000,3.055583984375,-0.00029478978831321,-0.1378834843635559,0.001628807163797319
1733700052860539000,3.065538818359375,-0.0006079776212573051,-0.13304080069065094,0.0019928612746298313
1733700052870493000,3.075492919921875,0.0021064479369670153,-0.1308913379907608,0.0025593400932848454
1733700052880447000,3.085447021484375,0.002927766414359212,-0.13137070834636688,0.0005465229041874409
1733700052890401500,3.095401611328125,0.00424044206738472,-0.13144788146018982,0.0010153858456760645
1733700052900355600,3.10535546875,0.004144301638007164,-0.13312168419361115,0.00026117870584130287
1733700052910310400,3.115310302734375,0.0038359160535037518,-0.13377678394317627,0.0012509297812357545
1733700052920264400,3.125264404296875,0.0063315643928945065,-0.13421007990837097,0.0006115047726780176
1733700052930219500,3.135219482421875,0.00402299128472805,-0.1373705267906189,0.0003234712639823556
1733700052940173300,3.14517333984375,0.004336445592343807,-0.13518460094928741,-0.0015330181922763586
1733700052950127600,3.155127685546875,0.005291455425322056,-0.1297759860754013,-0.0016022603958845139
1733700052960082400,3.16508251953125,0.003740163752809167,-0.125110924243927,-0.0022507403045892715
1733700052970036500,3.175036376953125,0.004186376463621855,-0.11900864541530609,-0.0046325018629431725
1733700052979991600,3.184991455078125,0.0017823409289121628,-0.11474598944187164,-0.0052602095529437065
1733700052989945300,3.1949453125,0.001490060705691576,-0.11105800420045853,-0.005749480798840523
1733700052999900700,3.204900634765625,0.0018061778973788023,-0.10821560770273209,-0.004568368196487427
1733700053009854500,3.2148544921875,0.00004915683530271053,-0.10843324661254883,-0.005587341263890266
1733700053019809500,3.2248095703125,0.0002305181697010994,-0.10775094479322433,-0.006775643676519394
1733700053029763600,3.234763671875,0.0002426360733807087,-0.10702118277549744,-0.0060054101049900055
1733700053039717400,3.24471728515625,0.0004165405407547951,-0.09973078221082687,-0.0037446527276188135
1733700053049672700,3.254672607421875,0.001456243684515357,-0.08966455608606339,-0.002901931293308735
1733700053059626500,3.26462646484375,0.0007054985035210848,-0.07762866467237473,-0.0024007242172956467
1733700053069581600,3.27458154296875,-0.00023659830912947655,-0.06386928260326385,-0.0018246104009449482
1733700053079535400,3.284535400390625,0.0015461216680705547,-0.05215137451887131,-0.002383341547101736
1733700053089490400,3.294490478515625,0.002922044601291418,-0.045939851552248,-0.002871087519451976
1733700053099444500,3.304444580078125,0.0007726072799414396,-0.04118504375219345,-0.002548578893765807
1733700053109398500,3.3143984375,0.0010526354890316725,-0.042805083096027374,-0.002834554063156247
1733700053119353600,3.324353515625,0.0027309597935527563,-0.05404016003012657,-0.0007045576348900795
1733700053129307400,3.334307373046875,0.002458918606862426,-0.06406892091035843,-0.0011669793166220188
1733700053139262500,3.344262451171875,0.0028589253779500723,-0.07523901760578156,-0.0017099978867918253
1733700053149216500,3.354216552734375,0.003487170208245516,-0.08646024018526077,-0.002355717122554779
1733700053159171600,3.364171630859375,0.0020397421903908253,-0.0974108949303627,-0.003607402555644512
1733700053169125600,3.374125732421875,0.0009197508916258812,-0.10778447240591049,-0.0022437190636992455
1733700053179080400,3.38408056640625,0.0024225725792348385,-0.11167427897453308,-0.005512216594070196
1733700053189034500,3.394034423828125,0.0002014930360019207,-0.11125257611274719,-0.0065620834939181805
1733700053198988500,3.403988525390625,-0.0013157096691429615,-0.10923337191343307,-0.0074172248132526875
1733700053208943600,3.413943603515625,0.00041840458288788795,-0.10533992946147919,-0.007543652318418026
1733700053218897700,3.423897705078125,0.00007139472290873528,-0.10118566453456879,-0.009314920753240585
1733700053228852500,3.4338525390625,-0.00012514577247202396,-0.09712483733892441,-0.006660232320427895
1733700053238806500,3.443806640625,0.0013113634195178747,-0.0953730046749115,-0.00686982274055481
1733700053248761300,3.45376123046875,0.00025795353576540947,-0.09440228343009949,-0.0064496733248233795
1733700053258715400,3.46371533203125,0.001869166037067771,-0.09470588713884354,-0.005091194994747639
1733700053268669700,3.473669677734375,0.0025804906617850065,-0.09602909535169601,-0.0071073537692427635
1733700053278624500,3.48362451171875,0.0033775747288018465,-0.0962703749537468,-0.004166691564023495
1733700053288578600,3.49357861328125,0.0031243080738931894,-0.09345701336860657,-0.005565383471548557
1733700053298533400,3.503533447265625,0.0036454887595027685,-0.09034217894077301,-0.004574687220156193
1733700053308487400,3.5134873046875,0.003167717717587948,-0.08349233865737915,-0.004338803701102734
1733700053318442500,3.5234423828125,-0.00011143251322209835,-0.08156553655862808,-0.004687145352363586
1733700053328396500,3.533396484375,0.000009610317647457123,-0.07549650222063065,-0.004219710826873779
1733700053338351600,3.5433515625,-5.096662789583206e-7,-0.07117046415805817,-0.00413582194596529
1733700053348305400,3.553305419921875,0.00022172881290316582,-0.0670083612203598,-0.00479892548173666
1733700053358259500,3.563259521484375,-0.00006615906022489071,-0.06841851025819778,-0.00386016140691936
1733700053368214500,3.573214599609375,0.00002585700713098049,-0.06964997202157974,-0.0019435088615864515
1733700053378168600,3.58316845703125,0.0017867390997707844,-0.06892824918031693,-0.0013344436883926392
1733700053388123400,3.593123291015625,0.0012219464406371117,-0.06873290985822678,0.00005018268711864948
1733700053398077400,3.603077392578125,0.0023782909847795963,-0.06912652403116226,-0.0019956575706601143
1733700053408032500,3.613032470703125,0.0033159072045236826,-0.0699431300163269,-0.000581156462430954
1733700053417986300,3.622986328125,0.0015201375354081392,-0.07009785622358322,-0.0010618569795042276
1733700053427940600,3.632940673828125,0.0006063394248485565,-0.07109146565198898,-0.000909596448764205
1733700053437895400,3.6428955078125,0.0005863658152520657,-0.06865387409925461,-0.00269125122576952
1733700053447849500,3.652849365234375,0.0007809544913470745,-0.06351638585329056,-0.002257882384583354
1733700053457804500,3.662804443359375,-0.001627075718715787,-0.0513252355158329,-0.0049830954521894455
1733700053467758300,3.67275830078125,-0.004812947474420071,-0.030568169429898262,-0.0068200211971998215
1733700053477713700,3.682713623046875,-0.006628690753132105,-0.0047805155627429485,-0.008180630393326283
1733700053487667500,3.69266748046875,-0.007736043073236942,0.020944377407431602,-0.009917180053889751
1733700053497622500,3.70262255859375,-0.005483541637659073,0.048884931951761246,-0.01249512005597353
1733700053507576600,3.71257666015625,-0.0024307616986334324,0.07649482041597366,-0.010511334054172039
1733700053517530400,3.7225302734375,0.0030332456808537245,0.11320063471794128,-0.008237260393798351
1733700053527485700,3.732485595703125,0.011419005692005157,0.16856852173805237,-0.003299153409898281
1733700053537439500,3.742439453125,0.0173256304115057,0.23660697042942047,-0.0014743555802851915
1733700053547394600,3.75239453125,0.01250971108675003,0.30646780133247375,-0.0062127485871315
1733700053557348600,3.7623486328125,0.004739406518638134,0.35621726512908936,-0.012148935347795486
1733700053567303400,3.772303466796875,-0.005248246714472771,0.3709717094898224,-0.01325308158993721
1733700053577257500,3.782257568359375,-0.00969173014163971,0.3490206003189087,-0.008415982127189636
1733700053587212500,3.792212646484375,-0.006675975862890482,0.29545241594314575,-0.002222995040938258
1733700053597166600,3.80216650390625,-0.0032799129839986563,0.2247319221496582,0.0010558887152001262
1733700053607120600,3.81212060546875,0.0030311134178191423,0.14682509005069733,0.004950277972966433
1733700053617075500,3.822075439453125,0.006762202829122543,0.06426789611577988,0.005021650344133377
1733700053627029500,3.832029541015625,0.0074556926265358925,-0.01942441426217556,0.006111877039074898
1733700053636984600,3.841984619140625,0.008081002160906792,-0.10246177762746811,0.0013615968637168407
1733700053646938600,3.851938720703125,0.0032811840064823627,-0.185810849070549,-0.003041796153411269
1733700053656893400,3.8618935546875,0.0023277723230421543,-0.2609095871448517,-0.01123607624322176
1733700053666847500,3.871847412109375,-0.0020830873399972916,-0.31241393089294434,-0.01788925752043724
1733700053676801500,3.881801513671875,-0.004868487827479839,-0.33260950446128845,-0.026384476572275162
1733700053686756600,3.891756591796875,-0.003641563467681408,-0.3251633644104004,-0.031885646283626556
1733700053696710700,3.901710693359375,0.001067704288288951,-0.2988300323486328,-0.03787962347269058
1733700053706665500,3.91166552734375,0.0032248590141534805,-0.26212361454963684,-0.039044611155986786
1733700053716619500,3.92161962890625,0.009557057172060013,-0.2249501496553421,-0.042653728276491165
1733700053726574300,3.93157421875,0.009747075848281384,-0.2096746861934662,-0.03869474306702614
1733700053736528400,3.9415283203125,0.006455674767494202,-0.193755105137825,-0.032289307564496994
1733700053746483500,3.9514833984375,0.005129550583660603,-0.1847769170999527,-0.027009615674614906
1733700053756437500,3.9614375,0.0046973200514912605,-0.17212077975273132,-0.028143856674432755
1733700053766391600,3.9713916015625,0.010688367299735546,-0.16052210330963135,-0.027971841394901276
1733700053776346400,3.981346435546875,0.00966331735253334,-0.15358483791351318,-0.019187670201063156
1733700053786300400,3.991300537109375,0.012054438702762127,-0.13157162070274353,-0.02536136284470558
1733700053796255500,4.00125537109375,0.016929354518651962,-0.07986422628164291,-0.04314301908016205
1733700053806209500,4.01120947265625,0.01775226928293705,-0.08145108073949814,-0.03489872068166733
1733700053816164600,4.02116455078125,0.009717779234051704,-0.10328127443790436,-0.01656578853726387
1733700053826118400,4.031118408203125,0.0022972805891186,-0.10464377701282501,-0.012336277402937412
1733700053836072400,4.041072509765625,0.0010075117461383343,-0.10803105682134628,-0.011017479933798313
1733700053846027500,4.051027587890625,0.004091717302799225,-0.11454375833272934,-0.007975472137331963
1733700053855981600,4.060981689453125,0.007478991523385048,-0.11921041458845139,-0.007537381257861853
1733700053865936600,4.0709365234375,0.010036826133728027,-0.11848428100347519,-0.008239051327109337
1733700053875890400,4.080890380859375,0.012434735894203186,-0.12158926576375961,-0.005066427402198315
1733700053885846000,4.090845947265625,0.015258219093084335,-0.11009177565574646,-0.007954723201692104
1733700053895800000,4.100800048828125,0.014276310801506042,-0.09365261346101761,-0.011585410684347153
1733700053905755400,4.11075537109375,0.017203398048877716,-0.08860724419355392,-0.01878383941948414
1733700053915709200,4.120709228515625,0.012393994256854057,-0.09748809039592743,-0.012587993405759335
1733700053925663200,4.130663330078125,0.0094176409766078,-0.10284371674060822,-0.00693659670650959
1733700053935618000,4.1406181640625,0.005751533433794975,-0.1056930348277092,-0.007194124162197113
1733700053945572000,4.150572021484375,0.005259115714579821,-0.09604761749505997,-0.009708607569336891
1733700053955527200,4.160527099609375,0.00438053859397769,-0.08060181140899658,-0.009001804515719414
1733700053965481200,4.170481201171875,0.0035060918889939785,-0.06327489763498306,-0.01196072343736887
1733700053975436300,4.180436279296875,0.0018605245277285576,-0.04406285285949707,-0.01033646147698164
1733700053985390000,4.19039013671875,0.001711917808279395,-0.02803129330277443,-0.011390588246285915
1733700053995344100,4.20034423828125,0.001973972888663411,-0.01422892790287733,-0.012162372469902039
1733700054005299200,4.21029931640625,0.000793129438534379,-0.0036057070828974247,-0.009787583723664284
1733700054015253000,4.2202529296875,0.0020706476643681526,0.004717203788459301,-0.007768108509480953
1733700054025208300,4.230208251953125,0.0015430771745741367,0.011194213293492794,-0.004751255270093679
1733700054035162000,4.240162109375,0.004071216098964214,0.015641693025827408,-0.004954188130795956
1733700054045117200,4.2501171875,0.00106343743391335,0.015005304478108883,-0.00455894973129034
1733700054055071200,4.2600712890625,0.003250425448641181,0.014647109434008598,-0.002530154073610902
1733700054065026300,4.2700263671875,0.0013337559066712856,0.012489446438848972,-0.004544012248516083
1733700054074980400,4.27998046875,-0.00032273016404360533,0.008855563588440418,-0.005524588283151388
1733700054084934100,4.28993408203125,0.00023106555454432964,0.0070915622636675835,-0.004837323911488056
1733700054094889200,4.29988916015625,0.0014444016851484776,0.0062582590617239475,-0.002077223500236869
1733700054104843300,4.30984326171875,0.0019505461677908897,0.001281202188692987,-0.001783887855708599
1733700054114798000,4.319798095703125,0.001816322561353445,-0.004785212222486734,-0.0014890758320689201
1733700054124752400,4.32975244140625,0.0022810338996350765,-0.009768207557499409,-0.004221697337925434
1733700054134707200,4.339707275390625,0.00182030675932765,-0.013846838846802711,-0.0029766696970909834
1733700054144661200,4.3496611328125,0.0025950241833925247,-0.013137693516910076,-0.004361925646662712
1733700054154615000,4.359614990234375,0.0005854030605405569,-0.008935225196182728,-0.00471079908311367
1733700054164570000,4.369570068359375,0.0014844851102679968,-0.006023260299116373,-0.004470606334507465
1733700054174524200,4.379524169921875,0.0024892957881093025,-0.003388861659914255,-0.0007467083632946014
1733700054184479200,4.389479248046875,0.0008779529016464949,-0.007807046640664339,-0.0023074878845363855
1733700054194433300,4.399433349609375,0.0018649203702807426,-0.01125637348741293,-0.0023080206010490656
1733700054204388000,4.40938818359375,-0.00015695695765316486,-0.01805293932557106,-0.002107317326590419
1733700054214342100,4.419342041015625,0.002621519146487117,-0.02949068322777748,-0.0021422046702355146
1733700054224297000,4.429296875,0.002853080630302429,-0.03426016867160797,-0.000514334999024868
1733700054234251300,4.439251220703125,0.0038762670010328293,-0.043369244784116745,-0.0011183398310095072
1733700054244205300,4.449205322265625,0.005669506266713142,-0.05274653434753418,-0.002305165631696582
1733700054254160100,4.45916015625,0.006108395755290985,-0.0636252835392952,-0.002555502811446786
1733700054264114200,4.4691142578125,0.007111608982086182,-0.07371246814727783,-0.003411104204133153
1733700054274069000,4.479069091796875,0.005264974199235439,-0.07977568358182907,-0.005682780407369137
1733700054284023000,4.48902294921875,0.004975758958607912,-0.0790037289261818,-0.005869199521839619
1733700054293978000,4.49897802734375,0.004248715937137604,-0.07273145765066147,-0.006091839633882046
1733700054303932200,4.50893212890625,0.004701980389654636,-0.0660150796175003,-0.00783446803689003
1733700054313887200,4.51888720703125,0.006104667205363512,-0.057821061462163925,-0.008172158151865005
1733700054323841000,4.528841064453125,0.0043752118945121765,-0.04698710888624191,-0.008672977797687054
1733700054333795000,4.538795166015625,0.006034094840288162,-0.03822584077715874,-0.007133138366043568
1733700054343750100,4.548750244140625,0.007687383331358433,-0.023169469088315964,-0.011453391052782536
1733700054353704200,4.5587041015625,0.018311001360416412,-0.009752729907631874,-0.01921810209751129
1733700054363659300,4.5686591796875,0.016982216387987137,-0.015038284473121166,-0.010771329514682293
1733700054373613000,4.578613037109375,0.0084265461191535,-0.02297397144138813,-0.006055138073861599
1733700054383568100,4.588568115234375,0.0059502096846699715,-0.03329578787088394,-0.006203863769769669
1733700054393522200,4.598522216796875,0.003102758200839162,-0.04117847606539726,-0.001850394532084465
1733700054403476200,4.608476318359375,0.0027059412095695734,-0.04830005764961243,0.0004413280403241515
1733700054413431000,4.61843115234375,0.0029975573997944593,-0.05739874765276909,0.0011129772756248713
1733700054423385000,4.628385009765625,0.0034361856523901224,-0.05886958912014961,0.001597866415977478
1733700054433340200,4.638340087890625,0.0027179315220564604,-0.05831645056605339,-0.000049831345677375793
1733700054443294000,4.6482939453125,0.0012868766207247972,-0.056619878858327866,-0.00006912671960890293
1733700054453249300,4.658249267578125,0.0002735438756644726,-0.050006184726953506,-0.0031826284248381853
1733700054463203000,4.668203125,-0.0009275422198697925,-0.04778623953461647,-0.001521590631455183
1733700054473157000,4.6781572265625,-0.00006308010779321194,-0.04303862154483795,-0.0030901923310011625
1733700054483112200,4.6881123046875,0.0003515745047479868,-0.03835736960172653,-0.0034237660001963377
1733700054493066000,4.69806591796875,-0.0024090581573545933,-0.030854444950819016,-0.002582739805802703
1733700054503021300,4.708021240234375,-0.0016206243308261037,-0.02467433735728264,-0.0026594626251608133
1733700054512975000,4.71797509765625,0.00012534414418041706,-0.02161036990582943,-0.002760929288342595
1733700054522930200,4.72793017578125,0.0019121861550956964,-0.020899560302495956,-0.001460047671571374
1733700054532884200,4.73788427734375,0.0019273662474006414,-0.01826622523367405,-0.001313573680818081
1733700054542839000,4.747839111328125,0.0017061906401067972,-0.01589350961148739,-0.0049834828823804855
1733700054552793300,4.75779345703125,0.0016739664133638144,-0.012911834754049778,-0.0043930597603321075
1733700054562747100,4.7677470703125,0.0030522856395691633,-0.013012278825044632,-0.001697093015536666
1733700054572702200,4.7777021484375,0.001806991407647729,-0.0072808898985385895,-0.00026990496553480625
1733700054582656300,4.78765625,0.0006248177960515022,-0.0058278487995266914,-0.0004191154148429632
1733700054592611000,4.797611083984375,0.002536434680223465,-0.007003367878496647,-0.0006425546016544104
1733700054602565000,4.807565185546875,0.0011779533233493567,-0.011166228912770748,-0.0007701925933361053
1733700054612520200,4.817520263671875,0.0003142901696264744,-0.018200170248746872,-0.0003355646040290594
1733700054622474200,4.82747412109375,0.0008679614402353764,-0.022396396845579147,-0.00111894472502172
1733700054632429000,4.837428955078125,0.0013790219090878963,-0.026126420125365257,0.0002238210290670395
1733700054642383000,4.847383056640625,0.002067318418994546,-0.026962492614984512,-0.0002038092352449894
1733700054652337200,4.857337158203125,0.00040657096542418003,-0.028944682329893112,-0.00021712505258619785
1733700054662292200,4.867292236328125,-0.0002817253116518259,-0.03346674144268036,-0.0009515536949038506
1733700054672246300,4.877246337890625,0.0027779806405305862,-0.038021545857191086,-0.00032890657894313335
1733700054682201000,4.887201171875,0.0044235484674572945,-0.04123231768608093,0.0015124271158128977
1733700054692155100,4.897155029296875,0.0032581493724137545,-0.04555915296077728,-0.00018374016508460045
1733700054702110000,4.90710986328125,0.006172982510179281,-0.04823236167430878,0.00203714263625443
1733700054712064300,4.917064208984375,0.004725820850580931,-0.049542903900146484,0.0029045341070741415
1733700054722018300,4.927018310546875,0.0036072880029678345,-0.053012553602457047,0.00246654124930501
1733700054731973000,4.93697314453125,0.0036693396978080273,-0.0544075146317482,0.001012188964523375
1733700054741927200,4.94692724609375,0.001752133946865797,-0.061599235981702805,0.0004578635562211275
1733700054751882000,4.956882080078125,0.0029359087347984314,-0.06931547820568085,-0.0002992730587720871
1733700054761836000,4.9668359375,0.003297429298982024,-0.0764123797416687,0.0008392042946070433
1733700054771791000,4.976791015625,0.0034955686423927546,-0.07859164476394653,0.0009119085734710097
1733700054781745200,4.9867451171875,0.0040039680898189545,-0.07661270350217819,0.0007479788037016988
1733700054791700200,4.9967001953125,0.0014119131956249475,-0.06089659780263901,-0.0022145214024931192
1733700054801654000,5.006654052734375,0.0011432026512920856,-0.039713144302368164,-0.004326626192778349
1733700054811608000,5.016608154296875,-0.0011090325424447656,-0.013235197402536869,-0.0049410173669457436
1733700054821563100,5.026563232421875,-0.0030037432443350554,0.02020626701414585,-0.0030672410503029823
1733700054831517200,5.03651708984375,-0.0034021520987153053,0.04942940175533295,-0.00488697923719883
1733700054841472300,5.04647216796875,-0.006102327257394791,0.06864479184150696,-0.0061339931562542915
1733700054851426000,5.056426025390625,-0.002315045800060034,0.07691071182489395,-0.0025014409329742193
1733700054861381000,5.066381103515625,-0.0025742987636476755,0.07361295074224472,-0.0011821589432656765
1733700054871335200,5.076335205078125,-0.002302390057593584,0.060955483466386795,-0.001676974119618535
1733700054881289200,5.086289306640625,0.0009097745642066002,0.041125182062387466,-0.00003908085636794567
1733700054891244000,5.096244140625,0.00039738230407238007,0.01786113902926445,0.0001414814032614231
1733700054901197800,5.10619775390625,0.0015633127186447382,-0.006517681293189526,0.0013297100085765123
1733700054911153200,5.116153076171875,0.001361178932711482,-0.02535608410835266,0.0014285133220255375
1733700054921107000,5.12610693359375,0.0027887674514204264,-0.04166032001376152,0.0004558300133794546
1733700054931062000,5.13606201171875,0.0022769079077988863,-0.051121730357408524,-0.0001873234286904335
1733700054941016000,5.14601611328125,0.0012414709199219942,-0.05376594141125679,-0.0012232433073222637
1733700054950971000,5.155970947265625,0.0002702160272747278,-0.04850699380040169,-0.0029814622830599546
1733700054960925200,5.16592529296875,0.00011123716831207275,-0.03999842330813408,-0.0005786374676972628
1733700054970879000,5.17587890625,0.0007818210870027542,-0.027836564928293228,-0.0011815770994871855
1733700054980834000,5.185833984375,0.001409115269780159,-0.018160967156291008,-0.0016768528148531914
1733700054990788000,5.1957880859375,0.0003265403211116791,-0.00794934295117855,-0.0006821623537689447
1733700055000743000,5.205742919921875,-0.0010437836172059178,0.0022691297344863415,-0.0015266381669789553
1733700055010697000,5.215697021484375,0.00040417700074613094,0.012211509048938751,0.0006025590701028705
1733700055020652000,5.225652099609375,0.00031548808328807354,0.01587180234491825,0.000798083608970046
1733700055030606000,5.235606201171875,-0.0005068961763754487,0.018859069794416428,-0.00015479535795748234
1733700055040560000,5.24556005859375,0.0010887375101447105,0.017145154997706413,0.00012466730549931526
1733700055050515000,5.255514892578125,0.0015374801587313414,0.009767399169504642,0.0004852593410760164
1733700055060469000,5.265468994140625,-0.00007878802716732025,0.00322736706584692,0.000847424496896565
1733700055070424000,5.275424072265625,0.0004200220573693514,-0.004660382866859436,0.0021569007076323032
1733700055080378000,5.285378173828125,0.0015722336247563362,-0.013324624858796597,0.00017524254508316517
1733700055090333000,5.2953330078125,-0.000573475263081491,-0.016517754644155502,0.0003965512150898576
1733700055100287000,5.305286865234375,0.0004872677382081747,-0.02210411988198757,-0.0007921382784843445
1733700055110241800,5.31524169921875,-0.00035216077230870724,-0.021761903539299965,0.000024120556190609932
1733700055120196000,5.325196044921875,0.00032134796492755413,-0.023646632209420204,0.0006751662585884333
1733700055130150100,5.335150146484375,-0.0009481810266152024,-0.027447229251265526,-0.001351499231532216
1733700055140105000,5.34510498046875,0.0004020482301712036,-0.026776432991027832,-0.0016771049704402685
1733700055150059000,5.35505908203125,-0.00011780089698731899,-0.02754209190607071,-0.0012233022134751081
1733700055160013800,5.365013916015625,-0.00031408341601490974,-0.02724670246243477,-0.0021865612361580133
1733700055169967900,5.3749677734375,-0.0007540376391261816,-0.027421407401561737,-0.001343138050287962
1733700055179923000,5.3849228515625,-0.0014011857565492392,-0.027272269129753113,-0.003355186665430665
1733700055189877000,5.394876953125,0.00015782867558300495,-0.022336900234222412,-0.0008488856256008148
1733700055199831000,5.4048310546875,0.0006262797396630049,-0.022001950070261955,-0.0018617513123899698
1733700055209785900,5.414785888671875,0.0018345559947192669,-0.020929494872689247,-0.0021168820094317198
1733700055219740000,5.424739990234375,0.0021362912375479937,-0.021588817238807678,-0.0032941261306405067
1733700055229695000,5.434695068359375,0.0034580177161842585,-0.02027667872607708,-0.004830503836274147
1733700055239649000,5.44464892578125,0.0032351110130548477,-0.01681862771511078,-0.005839284975081682
1733700055249604000,5.45460400390625,0.0052228947170078754,-0.021777434274554253,-0.0028632027097046375
1733700055259558000,5.464557861328125,0.002956414595246315,-0.026519576087594032,-0.002640318823978305
1733700055269513000,5.474512939453125,0.0022442853078246117,-0.028145702555775642,-0.001290096202865243
1733700055279467000,5.484467041015625,0.0035367156378924847,-0.03259091451764107,-0.003967057913541794
1733700055289421000,5.494421142578125,0.0014027247671037912,-0.035344354808330536,-0.0034482742194086313
1733700055299376000,5.504376220703125,0.0023504230193793774,-0.03699171543121338,-0.003356152679771185
1733700055309330000,5.514329833984375,0.0013996744528412819,-0.03966206684708595,-0.0028371023945510387
1733700055319285000,5.524284912109375,0.0036672092974185944,-0.04121008515357971,-0.0014544874429702759
1733700055329238800,5.53423876953125,0.0038525653071701527,-0.04660085588693619,-0.001439573708921671
1733700055339194000,5.544194091796875,0.0036020970437675714,-0.05124104022979736,-0.0006275677587836981
1733700055349148200,5.554148193359375,0.0017373517621308565,-0.05039308965206146,-0.0005753699224442244
1733700055359102000,5.56410205078125,0.0021709217689931393,-0.05050366744399071,0.00010940141510218382
1733700055369057000,5.57405712890625,0.002725658006966114,-0.04647963121533394,-0.0008844903204590082
1733700055379010800,5.5840107421875,0.0035404465161263943,-0.04417364299297333,0.00045791349839419127
1733700055388966100,5.593966064453125,0.002802218310534954,-0.03683370351791382,0.0005916042719036341
1733700055398920000,5.603919921875,0.0005848766304552555,-0.02671746164560318,-0.00009078485891222954
1733700055408875000,5.613875,-0.0008961072890087962,-0.015615544281899929,-0.002909474540501833
1733700055418829000,5.6238291015625,0.0010063129011541605,-0.004952658899128437,-0.00031534465961158276
1733700055428783900,5.633783935546875,-0.00003924430347979069,0.0020016536582261324,0.0006295447237789631
1733700055438738200,5.64373828125,0.0004056964535266161,0.007075134664773941,0.0010330673540011048
1733700055448692000,5.65369189453125,0.00027253851294517517,0.007892991416156292,0.0010844663484022021
1733700055458647000,5.66364697265625,0.002160031581297517,0.0058462247252464294,0.0021706551779061556
1733700055468601000,5.67360107421875,0.001063075615093112,0.005916532129049301,0.0011748992837965488
1733700055478556000,5.683555908203125,0.0009320017416030169,0.007934430614113808,0.0027750753797590733
1733700055488510000,5.693510009765625,0.0001703375019133091,0.01607411541044712,0.0020624136086553335
1733700055498465000,5.703465087890625,0.002351504983380437,0.030227379873394966,0.004210533574223518
1733700055508419000,5.713419189453125,0.0026950526516884565,0.04776482656598091,0.004309603478759527
1733700055518373000,5.723373046875,0.001609551953151822,0.06533041596412659,0.004846666008234024
1733700055528328000,5.733327880859375,0.000342686427757144,0.0802297368645668,0.0050309570506215096
1733700055538282000,5.743281982421875,-0.00009741121903061867,0.08795515447854996,0.0030955893453210592
1733700055548237000,5.753237060546875,-0.0007994204061105847,0.08269355446100235,0.002452968619763851
1733700055558191000,5.763191162109375,0.0006549293175339699,0.06939895451068878,0.0029892323072999716
1733700055568146000,5.77314599609375,0.00004772841930389404,0.047877151519060135,0.003817209042608738
1733700055578100000,5.783099853515625,0.002280148444697261,0.024461369961500168,0.003535156138241291
1733700055588054800,5.7930546875,0.0021869379561394453,-0.00136356963776052,0.0011364469537511468
1733700055598009000,5.803009033203125,0.002188743557780981,-0.022767448797822,0.001559477997943759
1733700055607963100,5.812963134765625,0.0008662175387144089,-0.038702741265296936,-0.0008725207298994064
1733700055617918000,5.82291796875,0.002718525705859065,-0.050550322979688644,-0.00016675912775099277
1733700055627872000,5.8328720703125,0.0010694963857531548,-0.05495705455541611,0.0007325904443860054
1733700055637826800,5.842826904296875,0.001277304021641612,-0.054852571338415146,-0.000038659898564219475
1733700055647780900,5.85278076171875,0.0018717213533818722,-0.049907613545656204,0.0001648056786507368
1733700055657736000,5.86273583984375,0.0007438152097165585,-0.042425453662872314,0.0007422749185934663
1733700055667690000,5.87268994140625,0.0013267812319099903,-0.03360959142446518,0.0007513297023251653
1733700055677644000,5.88264404296875,0.0011530490592122078,-0.023318743333220482,0.000028233276680111885
1733700055687598800,5.892598876953125,0.00015356461517512798,-0.017262715846300125,-0.0033542474266141653
1733700055697553000,5.902552978515625,-0.000548306736163795,-0.010466924868524075,-0.0001730776857584715
1733700055707508000,5.912508056640625,-0.0007959806825965643,-0.008843728341162205,-0.0009533839765936136
1733700055717462000,5.9224619140625,0.00105144246481359,-0.009316920302808285,-0.0008135195821523666
1733700055727417000,5.9324169921875,0.001730548683553934,-0.011880478821694851,-0.00019992724992334843
1733700055737371000,5.942370849609375,0.002376054646447301,-0.014406519941985607,0.0009847922483459115
1733700055747326000,5.952325927734375,0.0011877522338181734,-0.017865434288978577,0.0013885274529457092
1733700055757280000,5.962280029296875,-0.0008307363605126739,-0.017241496592760086,0.002567823277786374
1733700055767234000,5.972234130859375,0.0024912909138947725,-0.01380734983831644,0.002737733069807291
1733700055777189000,5.982189208984375,0.000648656627163291,-0.014927826821804047,0.002111987676471472
1733700055787143000,5.992142822265625,0.0004012489225715399,-0.01549001969397068,0.0005287384847179055
1733700055797098000,6.002097900390625,0.0025723630096763372,-0.017601586878299713,0.0010851204860955477
1733700055807051800,6.0120517578125,0.00046926457434892654,-0.020455695688724518,0.0000829729251563549
1733700055817007000,6.022007080078125,0.00034220912493765354,-0.023329174146056175,0.001501445542089641
1733700055826961200,6.031961181640625,-0.0011789886048063636,-0.02528153732419014,-0.0012693072203546762
1733700055836915000,6.0419150390625,0.00016006454825401306,-0.02517063170671463,-0.0011821009684354067
1733700055846870000,6.0518701171875,-0.0005597879644483328,-0.02095724456012249,-0.002080917824059725
1733700055856823800,6.06182373046875,-0.0026454769540578127,-0.01841001585125923,-0.0012893280945718288
1733700055866779100,6.071779052734375,-0.0005447753937914968,-0.014031779952347279,-0.0028904208447784185
1733700055876733200,6.081733154296875,-0.00026087090373039246,-0.012533454224467278,-0.0013624441344290972
1733700055886688000,6.09168798828125,0.0012853604275733232,-0.010841282084584236,-0.0000036992132663726807
1733700055896642300,6.101642333984375,0.0008327767718583345,-0.013293508440256119,-0.0012243962846696377
1733700055906596000,6.11159619140625,0.000967798987403512,-0.0135688791051507,0.00015884952154010534
1733700055916551400,6.121551513671875,0.0008764732629060745,-0.016467943787574768,0.0008742224890738726
1733700055926505200,6.131505126953125,-0.00017387745901942253,-0.012886525131762028,-0.00021501025184988976
1733700055936460300,6.141460205078125,0.0011845296248793602,-0.009645531885325909,0.0016496622702106833
1733700055946414300,6.151414306640625,0.00037333089858293533,-0.006266512908041477,0.00039025337900966406
1733700055956369200,6.161369140625,0.00028381473384797573,-0.0023079905658960342,0.0003692144528031349
1733700055966323200,6.1713232421875,-0.001170004834420979,-0.0004903829540126026,-0.00027740118093788624
1733700055976278300,6.1812783203125,-0.0019606698770076036,-0.0009319898090325296,-0.00033054291270673275
1733700055986232300,6.191232421875,-0.0014661208260804415,-0.0006931042880751193,-0.0003233524039387703
1733700055996186400,6.201186279296875,-0.0006599134067073464,-0.002576373051851988,0.0018946488853543997
1733700056006141200,6.21114111328125,0.0002482244744896889,-0.0055497922003269196,-0.0002649084199219942
1733700056016095200,6.22109521484375,0.0010180904064327478,-0.007174003403633833,0.0023756646551191807
1733700056026050300,6.23105029296875,0.0008063691202551126,-0.015328868292272091,0.0016488879919052124
1733700056036004400,6.24100439453125,-0.001238603494130075,-0.018104203045368195,0.0012433400843292475
1733700056045959200,6.250959228515625,0.0010091043077409267,-0.016614964231848717,0.001366644399240613
1733700056055913200,6.260913330078125,-0.0006729037268087268,-0.017142917960882187,0.0013585316482931376
1733700056065867300,6.2708671875,-0.0001839473843574524,-0.013188655488193035,0.0011329618282616138
1733700056075822300,6.280822265625,0.0009628767147660255,-0.0076215616427361965,0.0009773593628779054
1733700056085776400,6.2907763671875,0.00022651278413832188,-0.004463585093617439,0.001371773425489664
1733700056095731200,6.300731201171875,-0.0010751710506156087,-0.0029900686349719763,0.00139750970993191
1733700056105685200,6.310685302734375,-0.0035324697382748127,-0.00033356534549966455,0.0006994951982051134
1733700056115640000,6.32064013671875,-0.0014921061228960752,-0.0017550219781696796,0.0005596347618848085
1733700056125594000,6.330593994140625,0.0007763744797557592,-0.005589441396296024,0.002105067251250148
1733700056135549200,6.340549072265625,-0.0011734659783542156,-0.006857713218778372,0.002750348299741745
1733700056145503200,6.350503173828125,0.0012305695563554764,-0.008773591369390488,0.0031114728190004826
1733700056155457300,6.360457275390625,0.000377266900613904,-0.010516992770135403,0.00197375426068902
1733700056165412000,6.370412109375,-0.00006029033102095127,-0.009941750206053257,0.00004109833389520645
1733700056175366100,6.3803662109375,0.0005057277157902718,-0.0062420666217803955,0.00016446004156023264
1733700056185321200,6.3903212890625,-0.0011869774898514152,-0.00488678365945816,0.0006688627181574702
1733700056195275300,6.400275146484375,-0.0007284533930942416,-0.002433352405205369,0.0007675741799175739
1733700056205230300,6.410230224609375,-0.0012919784057885408,-0.002843479160219431,-0.0009379142429679632
1733700056215184100,6.42018408203125,-0.002756807953119278,-0.004463448189198971,0.0005904338322579861
1733700056225138200,6.43013818359375,-0.001308048376813531,-0.00615668622776866,0.00011399434879422188
1733700056235093200,6.44009326171875,-0.0016912512946873903,-0.00807413924485445,0.0011782099027186632
1733700056245047300,6.45004736328125,-0.0020113633945584297,-0.009644338861107826,0.0019191013416275382
1733700056255002400,6.46000244140625,0.00038386438973248005,-0.01319009531289339,0.0020513006020337343
1733700056264956200,6.4699560546875,0.000032327137887477875,-0.013101145625114441,0.001951698330231011
1733700056274911200,6.4799111328125,0.0005301518831402063,-0.012888282537460327,0.0030617187730968
1733700056284865000,6.489864990234375,0.0005756919272243977,-0.01220864336937666,0.0022894018329679966
1733700056294820400,6.4998203125,0.0010847148951143026,-0.010927918367087841,0.0013597526121884584
1733700056304774400,6.5097744140625,-0.0019792518578469753,-0.006411197129637003,0.00200157449580729
1733700056314728200,6.519728271484375,0.0004827126394957304,-0.0022651683539152145,0.0033875047229230404
1733700056324683300,6.529683349609375,-0.0011055965442210436,0.004210574086755514,0.0033337087370455265
1733700056334637000,6.539636962890625,1.6065314412117004e-8,0.010988065041601658,0.0029695499688386917
1733700056344592400,6.54959228515625,-0.0012559306342154741,0.01573355123400688,0.0024688756093382835
1733700056354546400,6.55954638671875,-0.0005921544507145882,0.02744554728269577,0.0035042562521994114
1733700056364501200,6.569501220703125,-0.0000925455242395401,0.042529959231615067,0.0055748638696968555
1733700056374455300,6.579455322265625,0.001916881650686264,0.064308762550354,0.009566372260451317
1733700056384409000,6.5894091796875,0.00029528304003179073,0.09485149383544922,0.01127452403306961
1733700056394364400,6.599364501953125,0.0016623116098344326,0.12811805307865143,0.012125620618462563
1733700056404318200,6.609318115234375,0.00042367540299892426,0.16537940502166748,0.013775182887911797
1733700056414273300,6.619273193359375,-0.0019417111761868,0.1921447217464447,0.014217098243534565
1733700056424227300,6.629227294921875,-0.002125735627487302,0.2048511952161789,0.013102032244205475
1733700056434182100,6.63918212890625,-0.0022797617129981518,0.2025292068719864,0.01325794868171215
1733700056444136200,6.64913623046875,-0.00021900772117078304,0.18266628682613373,0.01063899602741003
1733700056454091300,6.65909130859375,-0.0015858912374824286,0.15179768204689026,0.010062156245112419
1733700056464045300,6.66904541015625,-0.0005904017016291618,0.11548946797847748,0.009426193311810493
1733700056473999400,6.678999267578125,-0.00040226802229881287,0.07717177271842957,0.009693260304629803
1733700056483954200,6.6889541015625,0.0018523642793297768,0.03886939212679863,0.00654966477304697
1733700056493908200,6.698908203125,0.0009564049541950226,0.0007404760108329356,0.005276771262288094
1733700056503863300,6.70886328125,-0.0008204560726881027,-0.028043236583471298,0.003265285398811102
1733700056513817300,6.7188173828125,-0.001212828210555017,-0.052165042608976364,0.0011030156165361404
1733700056523772200,6.728772216796875,-0.0000258574727922678,-0.06910141557455063,-0.0005923525895923376
1733700056533726200,6.738726318359375,-0.0019179885275661945,-0.07946821302175522,-0.0027565346099436283
1733700056543680300,6.74868017578125,-0.0018407568568363786,-0.08058886975049973,-0.00308064091950655
1733700056553635300,6.75863525390625,-0.002801715862005949,-0.0776057168841362,-0.002784788142889738
1733700056563589400,6.76858935546875,-0.0015708028804510832,-0.07122371345758438,-0.002188239712268114
1733700056573544200,6.778544189453125,-0.0029009960126131773,-0.06108250841498375,-0.002770963590592146
1733700056583498200,6.788498291015625,0.0003174340818077326,-0.05188101902604103,-0.0031741661950945854
1733700056593453000,6.798453125,-0.0012328787706792355,-0.04214300215244293,-0.0013795583508908749
1733700056603407000,6.808406982421875,0.0011099041439592838,-0.03255322575569153,-0.0011377432383596897
1733700056613362400,6.818362548828125,0.0007015373557806015,-0.019855866208672523,0.0009066195925697684
1733700056623316200,6.828316162109375,0.0004911476280540228,-0.0009189281263388693,0.0023164970334619284
1733700056633270300,6.838270263671875,0.0012729647569358349,0.017099102959036827,0.0030997104477137327
1733700056643225000,6.84822509765625,-0.0005435774801298976,0.041930947452783585,0.0035013151355087757
1733700056653179100,6.85817919921875,-0.00027522677555680275,0.06272842735052109,0.0015913425013422966
1733700056663134500,6.868134521484375,-0.0010683160508051515,0.07835452258586884,-0.0000917753204703331
1733700056673088300,6.878088134765625,-0.0006948946975171566,0.0824461430311203,-0.0005157266277819872
1733700056683043300,6.888043212890625,-0.0027801499236375093,0.07371550053358078,-0.0003913568798452616
1733700056692997000,6.8979970703125,0.0008310165721923113,0.05713382735848427,-0.0002849516458809376
1733700056702951200,6.907951171875,0.00033540232107043266,0.03353529050946236,-0.0002873484045267105
1733700056712906200,6.91790625,0.001079268055036664,0.011326861567795277,0.0013278829865157604
1733700056722860300,6.9278603515625,0.00016660289838910103,-0.011509478092193604,-0.0008178260177373886
1733700056732815400,6.9378154296875,-0.0007131305756047368,-0.02724594809114933,-0.000523037277162075
1733700056742769200,6.94776904296875,0.000999814597889781,-0.03367934748530388,0.0010197319788858294
1733700056752724200,6.95772412109375,0.0033335890620946884,-0.04133410379290581,-0.00022604689002037048
1733700056762678300,6.96767822265625,0.0015940121375024319,-0.040470171719789505,-0.0005363051313906908
1733700056772632300,6.97763232421875,-0.0006660511717200279,-0.038096826523542404,-0.001295184949412942
1733700056782587400,6.98758740234375,-0.0002082537394016981,-0.03326239064335823,-0.000519406283274293
1733700056792541200,6.997541259765625,-0.000491310958750546,-0.03247034549713135,-0.0032201907597482204
1733700056802496300,7.007496337890625,-0.0012452518567442894,-0.02750328555703163,-0.0012553106062114239
1733700056812450000,7.017449951171875,-0.0006232369923964143,-0.023631976917386055,-0.0025867444928735495
1733700056822405400,7.0274052734375,-0.0005875506903976202,-0.022057514637708664,-0.00002851220779120922
1733700056832359400,7.037359375,-0.000035177916288375854,-0.02126495912671089,-0.0010695417877286673
1733700056842314200,7.047314208984375,0.001154189696535468,-0.021752050146460533,-0.003022171324118972
1733700056852268300,7.057268310546875,-0.00028841965831816196,-0.022863898426294327,-0.0010475115850567818
1733700056862222000,7.06722216796875,0.0007203856948763132,-0.024528905749320984,-0.003207867732271552
1733700056872177400,7.077177490234375,0.000035311561077833176,-0.026501808315515518,-0.002612505806609988
1733700056882131500,7.08713134765625,-0.0006304786074906588,-0.02680487558245659,-0.0015831943601369858
1733700056892086300,7.097086181640625,-0.0015915846452116966,-0.02429104410111904,-0.0019533010199666023
1733700056902040600,7.10704052734375,0.0008334896992892027,-0.02415708638727665,-0.0008355721365660429
1733700056911995400,7.116995361328125,0.00011725001968443394,-0.0219110194593668,-0.0018416661769151688
1733700056921949400,7.126949462890625,0.00008875434286892414,-0.018445180729031563,-0.0022802886087447405
1733700056931903500,7.136903564453125,0.0015108997467905283,-0.012298817746341228,-0.0024244862142950296
1733700056941858300,7.1468583984375,0.0008371199946850538,-0.006065689492970705,-0.0009813192300498486
1733700056951812400,7.156812255859375,0.0013878743629902601,-0.0015407016035169363,0.0017551748314872384
1733700056961767400,7.166767333984375,-0.0005604943726211786,0.0007775800186209381,-0.000857652397826314
1733700056971721500,7.176721435546875,0.001560993492603302,0.000052805698942393064,-0.0011691937688738108
1733700056981676300,7.18667626953125,0.00043527549132704735,-0.003235399490222335,-0.0023662846069782972
1733700056991630300,7.19663037109375,0.0015865759924054146,-0.009788768365979195,-0.0020298792514950037
1733700057001585400,7.20658544921875,-0.0000342237763106823,-0.013300412334501743,-0.0020194926764816046
1733700057011539500,7.21653955078125,-0.00008054682984948158,-0.016428370028734207,-0.0035974883940070868
1733700057021493500,7.226493408203125,0.00022864621132612228,-0.017778592184185982,-0.0028619233053177595
1733700057031448300,7.2364482421875,0.0019666373264044523,-0.01780756562948227,-0.0014801293145865202
1733700057041402400,7.24640234375,0.0015269494615495205,-0.017405163496732712,-0.002285735448822379
1733700057051357200,7.256357177734375,0.0009178908076137304,-0.014271167106926441,-0.0022253775969147682
1733700057061311500,7.2663115234375,0.0007602316327393055,-0.012903633527457714,-0.0032589505426585674
1733700057071266300,7.276266357421875,0.0002390414010733366,-0.013222327455878258,-0.0036422775592654943
1733700057081220400,7.286220458984375,0.0007141493260860443,-0.010032925754785538,-0.0033298886846750975
1733700057091174400,7.29617431640625,-0.00010823016054928303,-0.006292944774031639,-0.004004972986876965
1733700057101129200,7.306129150390625,0.001066490076482296,-0.0062268986366689205,-0.004252647049725056
1733700057111083300,7.316083251953125,0.0019338543061167002,-0.004030629061162472,-0.0003772533964365721
1733700057121038300,7.326038330078125,0.0037211014423519373,-0.0028974544256925583,-0.003148538526147604
1733700057130992400,7.335992431640625,0.002583474852144718,-0.00544275576248765,-0.0016834477428346872
1733700057140947500,7.345947509765625,0.0019078310579061508,-0.012782162055373192,-0.0014363063964992762
1733700057150901200,7.3559013671875,0.0007596281357109547,-0.013655113987624645,0.00025199889205396175
1733700057160855300,7.365855224609375,0.0016429987736046314,-0.015001608058810234,0.0003662485396489501
1733700057170810400,7.375810302734375,0.0009047440253198147,-0.019155658781528473,-0.0016614519990980625
1733700057180764400,7.385764404296875,0.0007311059162020683,-0.020988978445529938,-0.000055299606174230576
1733700057190719500,7.395719482421875,0.0018782238475978374,-0.023927979171276093,-0.0011181149166077375
1733700057200673300,7.40567333984375,-0.00006162258796393871,-0.02458391711115837,-0.0029061611276119947
1733700057210628400,7.41562841796875,-0.00040480110328644514,-0.02535291016101837,-0.0035538990050554276
1733700057220582400,7.42558251953125,0.0011909650638699532,-0.025684474036097527,-0.004361901897937059
1733700057230537500,7.435537353515625,0.00018159719184041023,-0.022222992032766342,-0.004483901895582676
1733700057240491300,7.4454912109375,-0.00045330042485147715,-0.018317466601729393,-0.003381886286661029
1733700057250445300,7.4554453125,-0.001986392540857196,-0.014670458622276783,-0.0025944297667592764
1733700057260400400,7.465400390625,-0.0014870497398078442,-0.01059022918343544,-0.0025928320828825235
1733700057270354200,7.475354248046875,0.0015809875912964344,-0.002389847766608,-0.002256228355690837
1733700057280309500,7.4853095703125,0.0012235913891345263,0.0017465740675106645,-0.0016437014564871788
1733700057290263300,7.49526318359375,0.0023631774820387363,0.003492554882541299,-0.0009444723837077618
1733700057300218400,7.50521826171875,0.0007290616631507874,0.0036065380554646254,-0.001510394038632512
1733700057310172400,7.51517236328125,0.0008398173376917839,0.002954138908535242,-0.001146251568570733
1733700057320126200,7.525126220703125,-0.0004342388128861785,0.0006379876867868006,0.0001677520340308547
1733700057330081500,7.53508154296875,0.0013163373805582523,-0.0018229461275041103,-0.0012875823304057121
1733700057340035300,7.545035400390625,0.0015022261068224907,-0.005654968321323395,-0.0024742870591580868
1733700057349990400,7.554990478515625,0.0012556707952171564,-0.008091568015515804,-0.0031964594963937998
1733700057359944400,7.5649443359375,0.0009028019849210978,-0.010310247540473938,-0.0024635575246065855
1733700057369899300,7.574899169921875,0.001010761596262455,-0.009256156161427498,-0.0032868031412363052
1733700057379853600,7.584853515625,-0.0006150982808321714,-0.009117139503359795,-0.0023293965496122837
1733700057389807400,7.594807373046875,-0.0007709325291216373,-0.005005048122256994,-0.0021205951925367117
1733700057399762400,7.604762451171875,0.0005886112339794636,-0.002746687503531575,-0.001746687339618802
1733700057409716500,7.614716552734375,0.0014641860034316778,0.0032764016650617123,0.0003815439995378256
1733700057419671300,7.62467138671875,0.0015105248894542456,0.004611444193869829,-0.0005100823473185301
1733700057429625300,7.634625244140625,0.0004765712656080723,0.0020288610830903053,-0.0016389924567192793
1733700057439580400,7.644580322265625,0.000538090243935585,0.0036677701864391565,0.0003818140830844641
1733700057449534500,7.654534423828125,0.0017430169973522425,-0.00030331226298585534,0.00011233240365982056
1733700057459489300,7.6644892578125,0.0015914831310510635,-0.0009688361897133291,-0.00007675192318856716
1733700057469443300,7.674443359375,0.0016808605287224054,-0.0021124612540006638,-0.0015967462677508593
1733700057479397400,7.6843974609375,0.0007953592576086521,-0.0018378894310444593,0.0004799867747351527
1733700057489352400,7.6943525390625,-0.0011651756940409541,0.0015998780727386475,-0.0006930932868272066
1733700057499306500,7.704306396484375,-0.001806997461244464,0.0018579383613541722,-0.0018624872900545597
1733700057509261300,7.71426123046875,-0.0011550863273441792,0.003158880164846778,-0.0017710886895656586
1733700057519215400,7.72421533203125,0.00030059763230383396,0.002203604206442833,0.00005663861520588398
1733700057529170200,7.734170166015625,0.0017841558437794447,-0.003234888194128871,0.0005729100666940212
1733700057539124500,7.74412451171875,0.00008612452074885368,-0.006596596445888281,0.0003324266290292144
1733700057549078500,7.75407861328125,0.0012472651433199644,-0.01032035518437624,0.0013588769361376762
1733700057559033300,7.764033447265625,0.00041529349982738495,-0.014087130315601826,-0.00029121781699359417
1733700057568987400,7.7739873046875,-0.00017130677588284016,-0.0118030970916152,-0.0002460046671330929
1733700057578942200,7.783942138671875,0.00024308101274073124,-0.006685300264507532,-0.00003694649785757065
1733700057588896300,7.793896240234375,-0.000134399626404047,0.00028417917201295495,-0.0007552085444331169
1733700057598851300,7.803851318359375,0.0005036937072873116,0.0038144653663039207,-0.00127053027972579
1733700057608805400,7.813805419921875,-0.00231615686789155,0.006453734822571278,-0.0013497238978743553
1733700057618759400,7.823759521484375,-0.0006301095709204674,0.006015911232680082,-0.0008453212212771177
1733700057628714200,7.83371435546875,0.0009533676784485579,0.005214757286012173,-0.0014596371911466122
1733700057638668300,7.843668212890625,0.0007696093525737524,0.0008588912314735353,0.0006029811920598149
1733700057648623400,7.853623291015625,0.0006313577760010958,-0.005154729820787907,0.001232806360349059
1733700057658577400,7.863577392578125,0.0012734457850456238,-0.01002085767686367,0.000467946520075202
1733700057668532500,7.873532470703125,-0.0003510696114972234,-0.015698226168751717,0.002154020592570305
1733700057678486300,7.883486328125,0.001191166928038001,-0.015371189452707767,-0.000025776680558919907
1733700057688441300,7.89344140625,-0.0006678581703454256,-0.01573358289897442,-0.00020137359388172626
1733700057698395400,7.9033955078125,0.0009028741624206305,-0.012528734281659126,-0.00011055986396968365
1733700057708349400,7.913349365234375,0.0008571853395551443,-0.008674469776451588,0.001025945646688342
1733700057718304500,7.923304443359375,0.00040950789116322994,-0.0038663982413709164,-0.00016288948245346546
1733700057728258300,7.93325830078125,0.0010146445129066706,0.0009648961713537574,0.0009634522721171379
1733700057738213400,7.94321337890625,0.00215447717346251,0.002963864943012595,-0.0005556147079914808
1733700057748167200,7.953167236328125,-0.0005451961187645793,0.004402588587254286,-0.0012122341431677341
1733700057758122500,7.96312255859375,-0.0012125843204557896,0.005096076056361198,-0.0018364791758358479
1733700057768076500,7.97307666015625,0.0009965850040316582,0.006977344397455454,-0.0011519338004291058
1733700057778030300,7.9830302734375,-0.0007690908387303352,0.008207458071410656,0.0006385095184668899
1733700057787985400,7.9929853515625,-0.0009329885942861438,0.010341789573431015,-0.0005751485005021095
1733700057797939200,8.002939208984374,0.0005455983337014914,0.012530641630291939,-0.0007890001870691776
1733700057807894500,8.01289453125,-0.0007176740327849984,0.013371455483138561,0.0005496706580743194
1733700057817848300,8.022848388671875,0.0003707599826157093,0.01186304073780775,0.0006607244722545147
1733700057827803400,8.032803466796874,0.0009826361201703548,0.009053810499608517,0.00008613523095846176
1733700057837757400,8.04275732421875,0.0012881006114184856,0.004836163017898798,0.001330097671598196
1733700057847711200,8.052711181640625,0.0008426129352301359,-0.0023392033763229847,0.0011590680805966258
1733700057857666300,8.062666259765624,0.00123542919754982,-0.010700730606913567,0.000038676196709275246
1733700057867620400,8.072620361328125,0.00019536702893674374,-0.01291912142187357,0.0016910032136365771
1733700057877575400,8.082575439453125,0.00022492790594696999,-0.014148170128464699,0.0015253545716404915
1733700057887529500,8.092529541015624,0.0020773126743733883,-0.015738770365715027,-0.00004261452704668045
1733700057897484000,8.102484130859375,0.0003044463228434324,-0.012887857854366302,0.0015760546084493399
1733700057907438000,8.11243798828125,-0.0013956917682662606,-0.01195948850363493,0.0012117531150579453
1733700057917393200,8.12239306640625,0.0001697142142802477,-0.013188803568482399,-0.00018906965851783752
1733700057927347200,8.13234716796875,-0.0015089975204318762,-0.009584683924913406,-0.0015108874067664146
1733700057937301200,8.14230126953125,-0.000004311557859182358,-0.008812101557850838,-0.0004999514203518629
1733700057947256000,8.152256103515626,-0.00041185657028108835,-0.007494230754673481,-0.000979492673650384
1733700057957210000,8.162210205078125,-0.0019178740913048387,-0.003941840026527643,-0.0007454007863998413
1733700057967165200,8.172165283203125,-0.0024931267835199833,-0.000737226044293493,-0.004029318690299988
1733700057977119200,8.182119140625,-0.0008054815698415041,-0.0016104765236377716,-0.0026644489262253046
1733700057987074000,8.192073974609375,-0.00038705836050212383,-0.001482559833675623,-0.002713634632527828
1733700057997028000,8.202028076171874,-0.0006547060329467058,-0.0031531606800854206,-0.0014486333820968866
1733700058006982100,8.211982177734376,-0.000352834933437407,-0.005587918218225241,-0.002321225591003895
1733700058016937000,8.22193701171875,0.0007664917502552271,-0.005258218850940466,-0.0006506245117634535
1733700058026891300,8.231891357421874,0.001973086968064308,-0.0038104818668216467,-0.00013011950068175793
1733700058036846000,8.24184619140625,0.0009749343153089285,-0.0005206789937801659,-0.0009019037242978811
1733700058046800100,8.251800048828125,0.002259843982756138,0.0017730696126818657,-0.0002697785384953022
1733700058056755000,8.2617548828125,0.001164752058684826,0.0012878417037427425,-0.00038669141940772533
1733700058066709000,8.271708984375,-0.00042226852383464575,0.002534829545766115,-0.0012552605476230383
1733700058076663000,8.2816630859375,-0.0027671819552779198,0.0008067043963819742,-0.0030422413256019354
1733700058086618000,8.2916181640625,-0.001513139228336513,-0.0023525396827608347,-0.00247312244027853
1733700058096572200,8.301572265625,-0.0006404214072972536,-0.004358432721346617,-0.002821730449795723
1733700058106527000,8.31152685546875,-0.00013591954484581947,-0.006299070082604885,-0.0011137574911117554
1733700058116481000,8.32148095703125,0.00023878738284111023,-0.007088963408023119,-0.0009566310327500105
1733700058126436400,8.331436279296875,0.0012051977682858706,-0.006734408903867006,0.0008379281498491764
1733700058136390100,8.34139013671875,0.0006840170826762915,-0.008372785523533821,0.00037480436731129885
1733700058146345200,8.35134521484375,-0.0008315661689266562,-0.011232702061533928,-0.0012539047747850418
1733700058156299000,8.361299072265625,0.0005335703026503325,-0.010148263536393642,0.000003373716026544571
1733700058166253000,8.371253173828125,0.0016049817204475403,-0.011005171574652195,0.000019499100744724274
1733700058176208100,8.3812080078125,-0.00037321436684578657,-0.0076562464237213135,-0.0004524129908531904
1733700058186162200,8.391162109375,0.0006895565893501043,-0.005269618704915047,-0.0010419741738587618
1733700058196117200,8.4011171875,0.0022171458695083857,-0.001083129784092307,-0.00016339728608727455
1733700058206071000,8.411071044921876,-0.0004509813152253628,0.0012295824708417058,-0.0007706580217927694
1733700058216026000,8.421026123046875,-0.001918383059091866,0.003806989872828126,-0.0010383056942373514
1733700058225980200,8.430980224609375,-0.00042606284841895103,0.006150783505290747,-0.00048418575897812843
1733700058235934000,8.440933837890626,-0.0005522967549040914,0.005821350496262312,0.000805050483904779
1733700058245889300,8.45088916015625,0.0016987728886306286,0.001446607057005167,0.001963305287063122
1733700058255843000,8.460843017578124,0.0006686623673886061,-0.002171030966565013,0.0025643808767199516
1733700058265798100,8.470798095703126,0.0005906205624341965,-0.005526431370526552,0.0010013041319325566
1733700058275752200,8.480752197265625,0.0013821120373904705,-0.007490778807550669,0.0001022210344672203
1733700058285707300,8.490707275390625,-0.0002054197248071432,-0.007848270237445831,-0.0003120782785117626
1733700058295661300,8.500661376953126,-0.0008317951578646898,-0.004262856673449278,-0.0006657461635768414
1733700058305615000,8.510614990234375,-0.000083607854321599,-0.00029656890546903014,0.00047586672008037567
1733700058315570200,8.520570068359374,-0.0010801628232002258,0.003707227297127247,0.00011873687617480755
1733700058325524000,8.53052392578125,0.0002958499826490879,0.0028241968248039484,-0.0004156471695750952
1733700058335479000,8.54047900390625,-0.0027010051999241114,0.0007999280351214111,-0.0005956769455224276
1733700058345433300,8.550433349609374,-0.0013400220777839422,-0.002837182953953743,0.0002299809129908681
1733700058355388200,8.56038818359375,0.0004067453555762768,-0.006997040472924709,0.00020255031995475292
1733700058365342200,8.57034228515625,0.0005557334516197443,-0.014645683579146862,0.0007172190817072988
1733700058375297000,8.580297119140624,0.0002755688037723303,-0.016869422048330307,-0.0008780143689364195
1733700058385251000,8.5902509765625,0.0007391024846583605,-0.018954666331410408,0.0000908002257347107
1733700058395205000,8.600205078125,0.000196083914488554,-0.017929349094629288,0.0007030609995126724
1733700058405160200,8.61016015625,0.00030514923855662346,-0.012349002994596958,0.0010748142376542091
1733700058415114200,8.6201142578125,0.00045615038834512234,-0.006073263473808765,0.0005411168094724417
1733700058425069000,8.630069091796875,-0.0008803521050140262,0.004429774824529886,0.001287591177970171
1733700058435023000,8.640023193359376,-0.00031975656747817993,0.009355558082461357,0.0009855886455625296
1733700058444978200,8.649978271484375,0.0011697406880557537,0.0148805296048522,0.0008323052898049355
1733700058454932200,8.65993212890625,-0.0006233657477423549,0.018061675131320953,0.0007920915959402919
1733700058464886300,8.66988623046875,0.001016996568068862,0.015387340448796749,-0.0012943109031766653
1733700058474841000,8.679841064453125,-0.0007785067427903414,0.011749994941055775,-0.0016895239241421223
1733700058484795100,8.689795166015625,0.00010495842434465885,0.008374907076358795,-0.0017801900394260883
1733700058494750000,8.69975,-0.0002321978099644184,0.006109356414526701,0.00008375616744160652
1733700058504704300,8.709704345703125,0.0004721276927739382,0.000766777724493295,0.00008766981773078442
1733700058514659000,8.7196591796875,0.00009342632256448269,-0.0011978361289948225,-0.0005573476664721966
1733700058524613000,8.729613037109376,-0.0004669823683798313,-0.0021881063003093004,-0.001071152277290821
1733700058534567200,8.739567138671875,-0.0000014617107808589935,-0.0014248443767428398,-0.0003451744560152292
1733700058544522000,8.74952197265625,0.00016526621766388416,0.0004497659974731505,0.0024447699543088675
1733700058554476000,8.75947607421875,0.002342933090403676,0.0024790947791188955,0.0025433069095015526
1733700058564431000,8.76943115234375,0.0009003942832350731,0.004833392798900604,0.0018743457039818168
1733700058574385200,8.77938525390625,0.0011131807696074247,0.005480274558067322,0.0016197474906221032
1733700058584340000,8.789340087890626,0.00007437821477651596,0.008204358629882336,0.0018593552522361279
1733700058594294000,8.7992939453125,-0.0001432020217180252,0.008757230825722218,0.003389074932783842
1733700058604248000,8.809248046875,-0.001077064429409802,0.004281681030988693,0.0015697560738772154
1733700058614203100,8.819203125,-0.00040434999391436577,0.0003814818919636309,0.0001582805998623371
1733700058624157200,8.8291572265625,0.0011552574578672647,-0.005394787061959505,-0.0001012065913528204
1733700058634112000,8.839112060546874,-0.0013507772237062454,-0.011479577980935574,0.0012905613984912634
1733700058644066000,8.849066162109375,-0.00009169080294668674,-0.01636049896478653,0.0002991581568494439
1733700058654021000,8.859021240234375,0.00021856743842363358,-0.017979435622692108,-0.00047555542550981045
1733700058663975200,8.86897509765625,-0.00022359169088304043,-0.01344700250774622,-0.0009573616553097963
1733700058673930200,8.87893017578125,-0.0015325354179367423,-0.010412597097456455,-0.0023049209266901016
1733700058683884000,8.888884033203125,-0.0017127292230725288,-0.005433625541627407,-0.003621094860136509
1733700058693838000,8.898838134765626,-0.0005553194787353277,-0.0020697868894785643,-0.0020788582041859627
1733700058703793200,8.908793212890625,-0.00011702859774231911,-0.000028100796043872833,-0.0015492690727114677
1733700058713747000,8.918746826171875,-0.0007340831216424704,-0.002575414488092065,-0.0005977214314043522
1733700058723702300,8.928702392578124,0.0015038973651826382,-0.0022903922945261,0.000022938940674066544
1733700058733656000,8.938656005859375,0.0014905815478414297,-0.005253957584500313,0.00008605606853961945
1733700058743611100,8.948611083984375,0.0018593089189380407,-0.006463342811912298,-0.0007962572854012251
1733700058753565200,8.958565185546876,0.001217487035319209,-0.004980761092156172,0.00047566858120262623
1733700058763519000,8.96851904296875,0.001809984678402543,-0.003185778856277466,0.0012525322381407022
1733700058773474300,8.978474365234375,-0.00023292610421776772,-0.001836888026446104,-0.002548597753047943
1733700058783428000,8.988427978515626,-0.0008416759083047509,0.0005409292643889785,-0.0020909826271235943
1733700058793383200,8.998383056640625,-0.0006440692814067006,0.001378227025270462,-0.0024877935647964478
1733700058803337200,9.008337158203124,-0.0010670636547729373,0.00028559810016304255,-0.003429764648899436
1733700058813292000,9.0182919921875,-0.0004081976367160678,0.0005913290078751743,-0.001281126169487834
1733700058823246300,9.028246337890625,0.0011520073749125004,0.0015969600062817335,-0.0014609082136303186
1733700058833200000,9.0382001953125,0.002315009944140911,0.002723477315157652,0.0001345914788544178
1733700058843155200,9.0481552734375,0.0014067047741264105,0.002472489606589079,0.0009420014685019851
1733700058853109200,9.058109130859375,0.000608555506914854,-0.00013687548926100135,-0.0003403106238692999
1733700058863064000,9.06806396484375,-0.0006253754254430532,-0.0016924699302762747,0.000007938826456665993
1733700058873018000,9.07801806640625,0.00018023070879280567,-0.0010290765203535557,0.00265006092377007
1733700058882973200,9.08797314453125,0.000916571356356144,-0.0009453470702283084,0.0010376728605479002
1733700058892927500,9.097927490234374,0.00008087139576673508,-0.00012535980204120278,-0.0000025578774511814117
1733700058902881300,9.10788134765625,0.000512375496327877,0.0008667851216159761,-0.0004177805967628956
1733700058912836400,9.11783642578125,-0.0000455568078905344,0.0031951868440955877,0.002424877602607012
1733700058922790400,9.127790283203124,-0.0006674068281427026,0.005060858558863401,-0.00034771300852298737
1733700058932745500,9.137745361328125,-0.0023633078671991825,0.00509920809417963,0.0007859946927055717
1733700058942699500,9.147699462890625,-0.0012992878910154104,0.0050096940249204636,0.00028451671823859215
1733700058952654300,9.157654296875,-0.002300370018929243,0.0035843702498823404,0.0028113238513469696
1733700058962608400,9.1676083984375,0.0004997961223125458,-0.002522981958463788,0.0016274380031973124
1733700058972562400,9.1775625,0.0007599869277328253,-0.004068414214998484,0.0017680529272183776
1733700058982517500,9.187517578125,0.0003695834893733263,-0.008360876701772213,0.0006810982013121247
1733700058992471600,9.197471435546875,0.00028888974338769913,-0.0064125084318220615,0.0010576691711321473
1733700059002426400,9.20742626953125,-0.0008866341086104512,-0.002073770621791482,0.0011053484631702304
1733700059012380400,9.21738037109375,-0.0006458843126893044,0.00013185938587412238,-0.0003127849195152521
1733700059022335200,9.227335205078125,-0.0009947026846930385,0.004645202774554491,0.0007752699311822653
1733700059032289300,9.237289306640625,0.0003251598682254553,0.004227352794259787,0.0010170849272981286
1733700059042244400,9.247244384765626,-0.0016918738838285208,0.004883599001914263,0.00002198689617216587
1733700059052198400,9.257198486328125,-0.0016412738477811217,0.00004623329732567072,0.0005796528421342373
1733700059062152400,9.26715234375,-0.001227590604685247,-0.0038507382851094007,0.00026945117861032486
1733700059072107300,9.277107177734376,-0.001189507427625358,-0.006912308279424906,0.0014612157829105854
1733700059082061300,9.287061279296875,0.0015645946841686964,-0.008823969401419163,0.0014540818519890308
1733700059092016400,9.297016357421874,-0.0007182670524343848,-0.012024023570120335,0.0013704585144296288
1733700059101970400,9.306970458984376,-0.0000746757723391056,-0.009465961717069149,0.0025920213665813208
1733700059111925200,9.31692529296875,0.00011973502114415169,-0.008376196958124638,0.0011445932323113084
1733700059121879300,9.32687939453125,-0.00127718027215451,-0.0040276916697621346,0.0005452129989862442
1733700059131833300,9.336833251953125,-0.0015293816104531288,-0.00113469990901649,0.0013438949827104807
1733700059141788400,9.346788330078125,0.000014331890270113945,0.004038223996758461,0.00001591164618730545
1733700059151742500,9.356742431640624,-0.001726576592773199,0.00996322464197874,0.0014098100364208221
1733700059161697300,9.366697265625,-0.0023392208386212587,0.013806775212287903,0.002472085412591696
1733700059171651300,9.3766513671875,-0.0005051018670201302,0.0164417065680027,0.0004534091567620635
1733700059181606400,9.3866064453125,-0.0012627653777599335,0.016134463250637054,0.0020751822739839554
1733700059191560200,9.396560302734375,-0.0019860798493027687,0.014896626584231853,0.0007784891640767455
1733700059201514500,9.406514404296875,-0.0007299052085727453,0.013059440068900585,0.001368172001093626
1733700059211469300,9.41646923828125,-0.00007050647400319576,0.009241531603038311,0.0008097070967778563
1733700059221423400,9.42642333984375,-0.000021549174562096596,0.006708791013807058,0.0013373114634305239
1733700059231378400,9.43637841796875,-0.0010002609342336655,0.0033918237313628197,0.0006856359541416168
1733700059241332200,9.446332275390626,-0.0026743696071207523,0.0037497319281101227,0.0005856903735548258
1733700059251287600,9.45628759765625,0.00044578989036381245,0.005175321828573942,0.00044667336624115705
1733700059261241300,9.466241455078125,-0.00222469842992723,0.004296201281249523,0.0007810384267941117
1733700059271195400,9.4761953125,-0.001514433417469263,0.005546289496123791,0.0014130065683275461
1733700059281150500,9.486150390625,-0.0008836633060127497,0.006279660388827324,0.0016673512291163206
1733700059291104300,9.496104248046874,-0.0004996355855837464,0.0050165229476988316,0.002010632771998644
1733700059301059600,9.5060595703125,-0.002513361629098654,0.000833761936519295,0.0010718331905081868
1733700059311013400,9.516013427734375,-0.0014800550416111946,-0.002585204318165779,0.0015285653062164783
1733700059320968400,9.525968505859375,-0.0015628805849701166,-0.0007965404656715691,0.0019293923396617174
1733700059330922200,9.535922119140626,-0.0008361039217561483,-0.002752632135525346,0.003405848750844598
1733700059340877300,9.545877197265625,0.000023352447897195816,-0.004954364150762558,0.003114664927124977
1733700059350831400,9.555831298828124,0.0011189768556505442,-0.004132246598601341,0.0028829697985202074
1733700059360785400,9.565785400390626,-0.00038771145045757294,-0.00676067266613245,0.002317235106602311
1733700059370740500,9.575740478515625,-0.0015997160226106644,-0.006329507101327181,0.001115616993047297
1733700059380694300,9.5856943359375,-0.003261065110564232,-0.004886485170572996,-0.0010391680989414454
1733700059390649300,9.5956494140625,-0.0031590659637004137,-0.002138369483873248,0.00039121578447520733
1733700059400603400,9.605603271484375,-0.0027197941672056913,-0.000676218478474766,0.0010293676750734448
1733700059410558500,9.615558349609374,-0.0034931760746985674,0.0015965232159942389,-0.0022138298954814672
1733700059420512500,9.625512451171875,-0.0007794896373525262,0.0032602637074887753,-0.0012659556232392788
1733700059430466300,9.63546630859375,-0.0013717766851186752,0.003187825670465827,0.0006115729920566082
1733700059440421400,9.64542138671875,-0.0021673545707017183,0.0035157878883183002,0.0011164364404976368
1733700059450375400,9.65537548828125,-0.0012975663412362337,0.0009959049057215452,0.0014871484600007534
1733700059460330500,9.66533056640625,-0.0009285320993512869,-0.000029304763302206993,0.0009336398215964437
1733700059470284500,9.675284423828124,0.001501602353528142,-0.0009137405431829393,0.0023035698104649782
1733700059480239400,9.6852392578125,0.0006251223385334015,-0.0011184739414602518,0.001977386884391308
1733700059490193400,9.695193359375,-0.0009224405512213707,-0.0011110170744359493,0.0011422194074839354
1733700059500147500,9.7051474609375,0.0008701393380761147,-0.0020500733517110348,0.00032862299121916294
1733700059510102300,9.715102294921875,0.0005034219939261675,-0.0028527502436190844,-0.0005685959476977587
1733700059520056600,9.725056640625,-0.0009063979377970099,-0.0037487074732780457,-0.0007361592724919319
1733700059530011400,9.735011474609376,0.0004321066662669182,-0.00388053385540843,-0.0014200590085238218
1733700059539965400,9.74496533203125,-0.0021527979988604784,-0.001278391107916832,-0.001033639069646597
1733700059549920300,9.754920166015625,-0.00018738512881100178,0.0026313955895602703,-0.0008573378436267376
1733700059559874300,9.764874267578126,-0.002892744028940797,0.0035736646968871355,0.002293436788022518
1733700059569828400,9.774828369140625,0.0015105265192687511,0.00448100408539176,0.0020795848686248064
1733700059579783400,9.784783447265625,0.000041088322177529335,0.0045766704715788364,0.0017355914460495114
1733700059589737500,9.794737548828126,0.001057350542396307,0.00029057887149974704,-0.0002271581906825304
1733700059599692300,9.8046923828125,0.000347555847838521,-0.00106752198189497,0.0014731985284015536
1733700059609646300,9.814646240234374,0.0008338489569723606,-0.004192208871245384,0.0023922554682940245
1733700059619601400,9.824601318359376,-0.0006652424344792962,-0.003535856958478689,0.0011092801578342915
1733700059629555500,9.834555419921875,-0.0002729587722569704,-0.007616086397320032,0.001688251388259232
1733700059639509500,9.844509521484374,-0.0023298223968595266,-0.007749865297228098,0.00134086434263736
1733700059649464300,9.85446435546875,0.0005985894240438938,-0.009603425860404968,-0.0014775590971112251
1733700059659418400,9.86441845703125,-0.0016170213930308819,-0.009698500856757164,-0.00111962272785604
1733700059669373200,9.874373291015624,-0.002132609486579895,-0.01058213785290718,0.0024876289535313845
1733700059679327500,9.884327392578125,-0.0015993916895240545,-0.009074518457055092,-0.000039604492485523224
1733700059689282300,9.8942822265625,-0.0004291987279430032,-0.006753573194146156,0.0009881093865260482
1733700059699236400,9.904236328125,0.0003392419312149286,-0.00040056154830381274,0.0010279088746756315
1733700059709190400,9.9141904296875,0.0004593506455421448,0.010528785176575184,0.0007863602368161082
1733700059719145200,9.924145263671875,0.0002723550423979759,0.02281181700527668,0.0014115259982645512
1733700059729099300,9.934099365234376,-0.000010472722351551056,0.036618441343307495,-0.00005960417911410332
1733700059739054300,9.944054443359375,0.0003867505583912134,0.04321343079209328,0.0005215605488047004
1733700059749008400,9.95400830078125,-0.0006516160210594535,0.044343676418066025,-0.0005290564149618149
1733700059758963500,9.96396337890625,0.0009379505645483732,0.039746638387441635,-0.00046045961789786816
1733700059768917200,9.973917236328125,0.000024752458557486534,0.028797315433621407,-0.0002559288404881954
1733700059778872600,9.98387255859375,-0.002045205794274807,0.015054243616759777,-0.0009549318347126245
1733700059788826400,9.993826416015626,0.00030902866274118423,-0.00026425934629514813,-0.0006465378683060408
1733700059798780400,10.003780517578125,0.0016201026737689972,-0.012551495805382729,-0.000364833977073431
1733700059808735500,10.013735595703125,0.0017066553700715303,-0.02063179202377796,-0.002556881867349148
1733700059818689300,10.023689208984376,0.0008986503817141056,-0.02561744675040245,-0.0007705120369791985
1733700059828644400,10.033644287109375,0.0011777495965361595,-0.025525834411382675,0.0005522799910977483
1733700059838598400,10.043598388671874,0.00198665470816195,-0.023441774770617485,-0.0007879764307290316
1733700059848553500,10.053553466796876,0.0016518952324986458,-0.016982542350888252,0.0001736910780891776
1733700059858507500,10.063507568359375,0.0012455715332180262,-0.011212661862373352,-0.0005827157292515039
1733700059868461300,10.07346142578125,0.00009748293086886406,-0.003105200594291091,-0.0010128160938620567
1733700059878416400,10.08341650390625,-0.0009949594968929887,0.0016898929607123137,-0.001503298757597804
1733700059888370200,10.0933701171875,-0.002173408167436719,0.00371442805044353,-0.0006215262692421675
1733700059898325500,10.103325439453124,0.0006169562693685293,0.00027873466024175286,-0.0023850591387599707
1733700059908279300,10.113279296875,-0.0018699035281315446,-0.0032478231005370617,-0.0008332349825650454
1733700059918234400,10.123234375,-0.00015077926218509674,-0.008499027229845524,-0.001655440777540207
1733700059928188400,10.1331884765625,0.0012029055505990982,-0.011507066898047924,-0.001235992880538106
1733700059938142200,10.14314208984375,-0.00002841837704181671,-0.012830747291445732,-0.002868363633751869
1733700059948097500,10.15309765625,0.0015644181985408068,-0.01296683494001627,-0.0023067030124366283
1733700059958051300,10.16305126953125,0.0006384288426488638,-0.009570143185555935,-0.0028259726241230965
1733700059968006400,10.17300634765625,0.0009114029817283154,-0.006860110443085432,-0.002098396886140108
1733700059977960400,10.18296044921875,0.0005157326813787222,-0.005714620929211378,0.0003341927658766508
1733700059987915300,10.192915283203124,0.0007383730262517929,-0.003247468499466777,-0.0004346619825810194
1733700059997869600,10.20286962890625,0.0005081312265247107,-0.0075226095505058765,-0.00020264298655092716
1733700060007823400,10.2128232421875,0.0014796522445976734,-0.012669701129198074,-0.002819997491315007
1733700060017778400,10.2227783203125,0.00010414514690637589,-0.012238542549312115,-0.00018335087224841118
1733700060027732500,10.232732421875,0.0011662137694656849,-0.012396734207868576,0.0002699190517887473
1733700060037687300,10.242687255859375,0.0015042978338897228,-0.012002503499388695,0.0006910414667800069
1733700060047641300,10.252641357421876,0.0003359690308570862,-0.011152689345180988,0.0006055539706721902
1733700060057596400,10.262596435546875,0.0003116847947239876,-0.009962191805243492,-0.00020033610053360462
1733700060067550500,10.272550537109375,0.00003524869680404663,-0.009150460362434387,-0.001441901782527566
1733700060077504500,10.28250439453125,-0.0011724005453288555,-0.006963696796447039,-0.003081889357417822
1733700060087459300,10.292459228515625,0.0005005972925573587,-0.004917589947581291,-0.004369527567178011
1733700060097413400,10.302413330078124,-0.00048388249706476927,-0.0027308722492307425,-0.0037846642080694437
1733700060107368400,10.312368408203126,-0.000046058790758252144,-0.000026432040613144636,-0.002691703150048852
1733700060117322500,10.322322509765625,0.0000238087959587574,0.00013899494661018252,-0.0020387505646795034
1733700060127277300,10.33227734375,-0.0018670355202630162,0.0006226249970495701,-0.0025412889663130045
1733700060137231400,10.3422314453125,0.00003261817619204521,-0.0017186994664371014,-0.002458289498463273
1733700060147185400,10.352185302734375,-0.0006195898167788982,-0.0012784788850694895,-0.0003639794886112213
1733700060157140200,10.36214013671875,0.0017446859274059534,-0.004043544176965952,-0.00013345573097467422
1733700060167094500,10.372094482421875,0.0030120841693133116,-0.0062606255523860455,0.0008987854234874249
1733700060177049300,10.38204931640625,0.0025248799938708544,-0.007560318801552057,0.001205709297209978
1733700060187003400,10.39200341796875,0.00156587571837008,-0.008030633442103863,-0.00023452821187675
1733700060196958200,10.401958251953126,0.0009136965963989496,-0.011001477017998695,-0.0019350422080606222
1733700060206912300,10.411912353515625,-0.00023572356440126896,-0.010169239714741707,-0.002183514880016446
1733700060216867300,10.421867431640624,0.0018409190233796835,-0.012204169295728207,-0.002667468274012208
1733700060226821400,10.4318212890625,0.0002536748070269823,-0.00846855342388153,-0.00370237254537642
1733700060236775400,10.441775390625,0.000016439706087112427,-0.006533361971378326,-0.003331599524244666
1733700060246730200,10.451730224609374,0.0005794318858534098,-0.004888860043138266,-0.001997888321056962
1733700060256684300,10.461684326171875,-0.0015429186169058084,-0.00046899268636479974,-0.002796127228066325
1733700060266639400,10.471639404296875,0.0006866797339171171,0.0009941479656845331,-0.000612601637840271
1733700060276593400,10.481593505859376,-0.0003372922074049711,0.001316175446845591,-0.0025506301317363977
1733700060286547500,10.49154736328125,-0.0004938860656693578,-0.0012071696110069752,-0.00044992845505476
1733700060296502300,10.501502197265625,0.0007820157334208488,-0.004685042891651392,-0.002179565140977502
1733700060306456300,10.511456298828126,0.0010738980490714312,-0.007849144749343395,0.0006276731146499515
1733700060316411100,10.5214111328125,0.0016401754692196846,-0.008618297055363655,-0.0001346939243376255
1733700060326365400,10.531365478515625,0.0020417803898453712,-0.00823267176747322,0.00025705713778734207
1733700060336320500,10.541320556640626,0.0006618250627070665,-0.006987239234149456,-0.0008681532926857471
1733700060346274300,10.5512744140625,0.0021942078601568937,-0.004963502753525972,-0.0005983752198517323
1733700060356229400,10.5612294921875,-0.000014854362234473228,-0.002876737155020237,-0.0011445689015090466
1733700060366183200,10.57118310546875,0.0004543946124613285,0.0010530235012993217,-0.003182952292263508
1733700060376137200,10.58113720703125,0.0005454444326460361,0.004388899076730013,-0.0022087160032242537
1733700060386092500,10.591092529296875,-0.0010159669909626245,0.004290894605219364,-0.0008238719310611486
1733700060396046300,10.60104638671875,0.0012705789413303137,0.004636489786207676,0.00013519846834242344
1733700060406001400,10.61100146484375,0.0018727194983512163,0.0019874433055520058,0.0002451870823279023
1733700060415955200,10.620955078125,0.0008983372244983912,-0.0037908104714006186,-0.0007176282815635204
1733700060425910500,10.63091064453125,-0.0008995627285912633,-0.0051775178872048855,-0.0004113649483770132
1733700060435864600,10.640864501953125,-0.0009950806852430105,-0.0075048841536045074,-0.001250709407031536
1733700060445818400,10.650818359375,-0.0006230371072888374,-0.0077152736485004425,-0.0004538914654403925
1733700060455773400,10.6607734375,-0.0010674239601939917,-0.005248643457889557,-0.000903161009773612
1733700060465727200,10.670727294921875,0.0007144971750676632,-0.0038171943742781878,-0.0012315288186073303
1733700060475682300,10.680682373046874,-0.00012073549441993237,-0.0027997593861073256,-0.0014135141391307116
1733700060485636400,10.69063623046875,-0.0007210118928924203,-0.0018554024863988161,-0.0010973969474434853
1733700060495591400,10.70059130859375,-0.0013249886687844992,-0.0028900529723614454,-0.0009344581048935652
1733700060505545500,10.71054541015625,0.0001346899662166834,-0.004381955601274967,0.0007752912351861596
1733700060515499300,10.720499267578125,0.0012945535127073526,-0.009316825307905674,-0.00023908703587949276
1733700060525454300,10.730454345703125,-0.0008237248985096812,-0.01121991965919733,0.0008623963221907616
1733700060535408400,10.740408447265626,0.0007459130138158798,-0.014023683965206146,-0.0007071997970342636
1733700060545363500,10.750363525390625,0.0014055778738111258,-0.01687832549214363,-0.00006324751302599907
1733700060555317500,10.7603173828125,-0.00035751983523368835,-0.01866438239812851,-0.0007078987546265125
1733700060565272300,10.770272216796876,0.0010952344164252281,-0.014757257886230946,-0.0014818133786320686
1733700060575226400,10.780226318359375,0.0008282891940325499,-0.01245024986565113,-0.0008312994614243507
1733700060585180200,10.79018017578125,-0.0011725437361747026,-0.004800586029887199,-0.0009878934361040592
1733700060595135500,10.800135498046876,0.0016088592819869518,0.0021280967630445957,-0.0005072976928204298
1733700060605089500,10.810089599609375,0.00013479962944984436,0.00570418918505311,-0.0007427211385220289
1733700060615044400,10.82004443359375,-0.0003009228967130184,0.009009641595184803,-0.0019199028611183167
1733700060624998400,10.829998291015626,-0.0006652433658018708,0.01202540472149849,-0.001143591245636344
1733700060634953200,10.839953125,-0.00012207799591124058,0.009589479304850101,-0.00011398759670555592
1733700060644907500,10.849907470703124,0.00047953007742762566,0.00871276669204235,-0.0015198704786598682
1733700060654861600,10.859861572265626,-0.0007013808935880661,0.006209784187376499,-0.0015982985496520996
1733700060664816400,10.86981640625,0.00009463797323405743,0.0011926547158509493,-0.00007363874465227127
1733700060674770400,10.8797705078125,-0.0009350411128252745,-0.00028800504514947534,-0.0006223851814866066
1733700060684725200,10.889725341796876,0.00008148746564984322,-0.0029919124208390713,-0.0004572691395878792
1733700060694679300,10.89967919921875,0.00035665882751345634,-0.0032809413969516754,-0.0004264123272150755
1733700060704634400,10.90963427734375,-0.0004068694543093443,-0.0029664221219718456,-0.0014136461541056633
1733700060714588400,10.91958837890625,-0.0003266481216996908,-0.003336068708449602,-0.0010342069435864687
1733700060724542500,10.92954248046875,0.0010922839865088463,-0.0032013128511607647,-0.00041076098568737507
1733700060734497300,10.939497314453124,0.001273872796446085,-0.004207938443869352,-0.001182597130537033
1733700060744451300,10.949451416015625,0.00006479769945144653,-0.008966207504272461,0.0010592518374323845
1733700060754406400,10.959406494140625,0.0003726058639585972,-0.008947628550231457,-0.0001852202694863081
1733700060764360400,10.9693603515625,0.0007292032241821289,-0.008341493085026741,0.002558101899921894
1733700060774315300,10.979315185546875,0.0007020311895757914,-0.004865446127951145,0.0020150779746472836
1733700060784269300,10.989269287109375,0.00035155913792550564,-0.002762347925454378,0.001239565433934331
1733700060794223400,10.999223388671876,0.0018788895104080439,-0.0008277325541712344,0.0016079980414360762
1733700060804178400,11.009178466796875,-0.000617025070823729,0.0012372825294733047,0.00003300444222986698
1733700060814132500,11.019132568359375,-0.00009439117275178432,0.00040882325265556574,-0.0006991492118686438
1733700060824087300,11.02908740234375,-0.0008158416021615267,-0.0021621924825012684,-0.0013465636875480413
1733700060834041300,11.039041259765625,0.0000449127983301878,-0.005137069616466761,0.000207431148737669
1733700060843996200,11.04899609375,-0.0010363307083025575,-0.0037897764705121517,-0.0010375967249274254
1733700060853950200,11.0589501953125,-0.0020698572043329477,-0.005740370601415634,-0.001479458762332797
1733700060863904500,11.068904541015625,-0.002367864828556776,-0.007106571923941374,-0.0024555071722716093
1733700060873859300,11.078859375,-0.001144065405242145,-0.007954288274049759,-0.0008730490226298571
1733700060883813400,11.0888134765625,-0.000060957856476306915,-0.009001709520816803,-0.0010448228567838669
1733700060893768000,11.098767822265625,-0.0020607211627066135,-0.009634413756430149,0.00016671651974320412
1733700060903721700,11.1087216796875,-0.0008894628845155239,-0.010406729765236378,0.0009297122014686465
1733700060913676800,11.1186767578125,-0.002824894618242979,-0.00930385198444128,-0.00006493134424090385
1733700060923630600,11.128630615234375,-0.005243577063083649,-0.009605322033166885,0.0017619971185922623
1733700060933584600,11.138584716796874,-0.007347434759140015,-0.00884163472801447,0.0016825326019898057
1733700060943540000,11.1485400390625,-0.006064323708415031,-0.005725736729800701,0.0005552164511755109
1733700060953493800,11.15849365234375,-0.004203971475362778,-0.003977389540523291,0.001091068726964295
1733700060963448800,11.16844873046875,-0.002145081525668502,0.0013196375221014023,0.0010492571163922548
1733700060973402600,11.178402587890625,0.00043793930672109127,0.009432384744286537,0.002044407883659005
1733700060983357700,11.188357666015625,0.0005982615984976292,0.01780909113585949,0.0033072789665311575
1733700060993311700,11.198311767578126,0.0001984878908842802,0.022339491173624992,0.004413197748363018
1733700061003265800,11.208265869140625,-0.001828177715651691,0.026626648381352425,0.004316524602472782
1733700061013220900,11.218220947265625,-0.002136981813237071,0.02623523399233818,0.004593611694872379
1733700061023174700,11.228174560546876,-0.0030879967380315065,0.023380059748888016,0.003184799337759614
1733700061033129700,11.238129638671875,0.0005892198532819748,0.019465629011392593,0.004256214015185833
1733700061043083800,11.248083740234375,-0.0020188139751553535,0.012831962667405605,0.005405900068581104
1733700061053038800,11.258038818359376,-0.00005906657315790653,0.012619100511074066,0.0031257979571819305
1733700061062993000,11.267992919921875,-0.0004012827994301915,0.006143891718238592,0.0015180475311353803
1733700061072946700,11.27794677734375,-0.0018922273302450776,0.003532800357788801,0.0016430960968136787
1733700061082901800,11.28790185546875,-0.0014813016168773174,0.0014624589821323752,0.0022990326397120953
1733700061092855800,11.297855712890625,-0.001658630440942943,-0.0022131220903247595,0.00265708495862782
1733700061102811000,11.307810791015624,-0.0015329292509704828,-0.005109842400997877,0.003653639927506447
1733700061112765000,11.317764892578126,0.00043388688936829567,-0.010545874014496803,0.0033442757558077574
1733700061122719700,11.3277197265625,0.0014773134607821703,-0.012207685969769955,0.0041948892176151276
1733700061132673800,11.337673828125,0.0014904155395925045,-0.012215675786137581,0.0038832994177937508
1733700061142627800,11.3476279296875,-0.00009682844392955303,-0.01109421905130148,0.002402848331257701
1733700061152582700,11.357582763671875,-0.0008387929992750287,-0.008356330916285515,0.001175737357698381
1733700061162537000,11.367536865234374,-0.0007077654590830207,-0.0026353278663009405,0.0022961292415857315
1733700061172491800,11.37749169921875,0.00010658940300345421,0.0058186231181025505,0.00022242101840674877
1733700061182445800,11.38744580078125,-0.001119263586588204,0.012390505522489548,-0.00018158042803406715
1733700061192400600,11.397400634765624,-0.0012546716025099158,0.018796207383275032,0.0007273562951013446
1733700061202354700,11.407354736328125,-0.0010983439860865474,0.019644157961010933,-0.0005379114300012589
1733700061212308700,11.417308837890625,-0.0011194265680387616,0.01597430184483528,0.00016673561185598373
1733700061222263800,11.427263916015624,-0.0013055815361440182,0.008249802514910698,0.0015366657171398401
1733700061232217900,11.4372177734375,-0.002853074576705694,-0.0036186494398862123,-0.00048128352500498295
1733700061242172700,11.447172607421875,-0.0011081714183092117,-0.01605880819261074,0.00022365525364875793
1733700061252126700,11.457126708984376,0.00003236369229853153,-0.028730293735861778,0.0012545937206596136
1733700061262081800,11.467081787109375,-0.00154902134090662,-0.03711605444550514,0.0005115717649459839
1733700061272035800,11.477035888671875,0.00046129454858601093,-0.03936464339494705,0.002000542124733329
1733700061281990000,11.486989990234376,-0.00003645033575594425,-0.037280187010765076,0.0018434155499562621
1733700061291944700,11.49694482421875,0.00047852355055511,-0.03017665632069111,0.0012474030954763293
1733700061301898800,11.506898681640624,-0.000580615596845746,-0.020943477749824524,0.0022380989976227283
1733700061311853600,11.516853515625,-0.001049432554282248,-0.008884765207767487,0.0012564548524096608
1733700061321808000,11.526807861328125,-0.0017226797062903643,0.004408669658005238,0.0005552445072680712
1733700061331762700,11.5367626953125,-0.0018092059763148427,0.013906282372772694,0.0010710731148719788
1733700061341716700,11.546716796875,0.0004105388652533293,0.01969625987112522,0.0008641454624012113
1733700061351670800,11.5566708984375,-0.002155773574486375,0.024160632863640785,0.001876003690995276
1733700061361625600,11.56662548828125,-0.0006385707529261708,0.027387583628296852,0.0010235258378088474
1733700061371579600,11.57657958984375,-0.0011922168778255582,0.028015729039907455,0.0013826887588948011
1733700061381534700,11.58653466796875,-0.0005051213083788753,0.02641064114868641,0.0009174344595521688
1733700061391488800,11.59648876953125,0.00041000591591000557,0.026126893237233162,0.00010301917791366577
1733700061401443800,11.60644384765625,0.000575388316065073,0.026919448748230934,0.0017821420915424824
1733700061411397600,11.616397705078125,-0.0027542198076844215,0.025732100009918213,0.00022326968610286713
1733700061421351700,11.6263515625,-0.001324368640780449,0.02179727889597416,-0.0003557016607373953
1733700061431306800,11.636306640625,-0.002668977016583085,0.01519713457673788,-0.0007812611293047667
1733700061441260800,11.6462607421875,-0.0009693475440144539,0.006555710453540087,0.001999611733481288
1733700061451216000,11.6562158203125,-0.00039518799167126417,-0.0035295092966407537,0.001567870145663619
1733700061461169700,11.666169677734375,-0.0006740209646522999,-0.01233258843421936,0.0026762778870761395
1733700061471124700,11.676124755859375,0.0001352471299469471,-0.019488688558340073,0.0007444544462487102
1733700061481078800,11.686078857421874,0.0008242067415267229,-0.02477452903985977,0.0009399304399266839
