time,seconds_elapsed,z,y,x
1733699485122506800,0.0195068359375,0.18743209540843964,-0.16439613699913025,0.010059106163680553
1733699485132461800,0.0294619140625,0.171546071767807,-0.1920550912618637,0.02029579132795334
1733699485142416600,0.039416748046875,0.15433353185653687,-0.2143992781639099,0.017739959061145782
1733699485152372700,0.049372802734375,0.14493203163146973,-0.24441365897655487,0.013920003548264503
1733699485162327800,0.059327880859375,0.14522841572761536,-0.2920096814632416,0.004352597985416651
1733699485172282600,0.06928271484375,0.15244661271572113,-0.3579588532447815,-0.020946023985743523
1733699485182238000,0.079238037109375,0.16294611990451813,-0.4309936463832855,-0.05727953091263771
1733699485192192800,0.08919287109375,0.17578977346420288,-0.5108584761619568,-0.09737633913755417
1733699485202147800,0.09914794921875,0.18249428272247314,-0.5831180214881897,-0.12997503578662872
1733699485212102700,0.1091025390625,0.18683862686157227,-0.6246864199638367,-0.16062995791435242
1733699485222058800,0.119058837890625,0.18375442922115326,-0.6137104630470276,-0.16937977075576782
1733699485232013800,0.129013916015625,0.15997745096683502,-0.5495865941047668,-0.15924671292304993
1733699485241969000,0.138968994140625,0.1072963997721672,-0.45827585458755493,-0.13830360770225525
1733699485251923700,0.148923828125,0.0388716459274292,-0.36360564827919006,-0.1073056012392044
1733699485261878800,0.158878662109375,-0.02141406573355198,-0.27372103929519653,-0.0810851901769638
1733699485271833600,0.16883349609375,-0.06475725024938583,-0.20067198574543,-0.06401091068983078
1733699485281789000,0.178788818359375,-0.09557747840881348,-0.14038227498531342,-0.055151909589767456
1733699485291743700,0.18874365234375,-0.11864108592271805,-0.09483510255813599,-0.050135333091020584
1733699485301699600,0.198699462890625,-0.13377636671066284,-0.07444833964109421,-0.04114503413438797
1733699485311655000,0.208655029296875,-0.1373961716890335,-0.07830099016427994,-0.03625382483005524
1733699485321609700,0.218609619140625,-0.12478318810462952,-0.09355105459690094,-0.033005036413669586
1733699485331564500,0.228564453125,-0.10054096579551697,-0.11444435268640518,-0.03001590445637703
1733699485341520000,0.238519775390625,-0.06424740701913834,-0.13997049629688263,-0.031017251312732697
1733699485351474700,0.248474609375,-0.028831783682107925,-0.17484347522258759,-0.030962010845541954
1733699485361429800,0.2584296875,0.001627321937121451,-0.2137051224708557,-0.03351358696818352
1733699485371384800,0.268384765625,0.02697250247001648,-0.23454241454601288,-0.03361190855503082
1733699485381340700,0.278340576171875,0.04507507383823395,-0.23723912239074707,-0.027577189728617668
1733699485391295700,0.288295654296875,0.04938366264104843,-0.2236347645521164,-0.016983820125460625
1733699485401250800,0.298250732421875,0.04865448921918869,-0.20266343653202057,-0.004207305144518614
1733699485411206000,0.308205810546875,0.041691314429044724,-0.1843382716178894,0.005159993655979633
1733699485421160700,0.31816064453125,0.03584035113453865,-0.17480069398880005,0.013103936798870564
1733699485431115800,0.32811572265625,0.03975239768624306,-0.1785859316587448,0.01395141240209341
1733699485441070800,0.33807080078125,0.05126604065299034,-0.18979677557945251,0.007898579351603985
1733699485451026700,0.348026611328125,0.049818940460681915,-0.20667968690395355,-0.020346565172076225
1733699485460981800,0.357981689453125,0.058723222464323044,-0.2508884370326996,-0.03362908214330673
1733699485470936800,0.367936767578125,0.07107679545879364,-0.27792888879776,-0.03644440323114395
1733699485480891600,0.3778916015625,0.07608300447463989,-0.298965722322464,-0.034602824598550797
1733699485490847000,0.387846923828125,0.07212920486927032,-0.3047313094139099,-0.028935935348272324
1733699485500801800,0.3978017578125,0.05663573369383812,-0.28190162777900696,-0.02240639552474022
1733699485510756600,0.407756591796875,0.02650338038802147,-0.23348073661327362,-0.01748502627015114
1733699485520711700,0.417711669921875,-0.006602374836802483,-0.17813092470169067,-0.010310204699635506
1733699485530667800,0.427667724609375,-0.03286542743444443,-0.1222170889377594,-0.004443442448973656
1733699485540622600,0.43762255859375,-0.034418582916259766,-0.09375428408384323,-0.011660076677799225
1733699485550577700,0.44757763671875,-0.009524167515337467,-0.08781349658966064,-0.016971103847026825
1733699485560532700,0.45753271484375,0.015074385330080986,-0.07137113809585571,-0.016685346141457558
1733699485570487800,0.46748779296875,0.03756522387266159,-0.05553525686264038,-0.01958341896533966
1733699485580442600,0.477442626953125,0.0531415194272995,-0.09389569610357285,-0.025631990283727646
1733699485590398000,0.48739794921875,0.05733221769332886,-0.18132607638835907,-0.039476118981838226
1733699485600352800,0.497352783203125,0.05528504401445389,-0.2582743763923645,-0.053010836243629456
1733699485610308600,0.50730859375,0.05074918270111084,-0.297673761844635,-0.06485544890165329
1733699485620264000,0.517263916015625,0.042654771357774734,-0.31609058380126953,-0.06865977495908737
1733699485630218800,0.52721875,0.019222524017095566,-0.3201107680797577,-0.08098393678665161
1733699485640173600,0.537173583984375,-0.006544359028339386,-0.35620802640914917,-0.1014719009399414
1733699485650129000,0.54712890625,0.025756537914276123,-0.40177688002586365,-0.10206011682748795
1733699485660083700,0.557083740234375,0.06242373585700989,-0.46646401286125183,-0.11235536634922028
1733699485670038800,0.567038818359375,0.07575749605894089,-0.5074952840805054,-0.11857128143310547
1733699485679993900,0.576993896484375,0.08466710150241852,-0.586721658706665,-0.12814640998840332
1733699485689949700,0.58694970703125,0.09350479394197464,-0.8603877425193787,-0.20277807116508484
1733699485699904800,0.59690478515625,0.07072171568870544,-0.8345063328742981,-0.22158344089984894
1733699485709859800,0.60685986328125,0.05272113159298897,-0.6966197490692139,-0.18152113258838654
1733699485719814700,0.616814697265625,0.05073521286249161,-0.5380399227142334,-0.12572763860225677
1733699485729769700,0.626769775390625,0.05985591560602188,-0.4326658248901367,-0.09404453635215759
1733699485739724800,0.636724853515625,0.06904248893260956,-0.34659913182258606,-0.07814440131187439
1733699485749679900,0.646679931640625,0.05990626662969589,-0.26563066244125366,-0.0652330070734024
1733699485759635700,0.6566357421875,0.04011179134249687,-0.18560828268527985,-0.047052666544914246
1733699485769590800,0.6665908203125,0.01707322895526886,-0.11911779642105103,-0.020982148125767708
1733699485779545900,0.6765458984375,0.0023326328955590725,-0.07477457076311111,0.0007045048987492919
1733699485789500700,0.686500732421875,0.014027442783117294,-0.06277602165937424,0.014819868840277195
1733699485799455700,0.696455810546875,0.042072393000125885,-0.07859999686479568,0.02017734944820404
1733699485809410800,0.706410888671875,0.07100512087345123,-0.10956409573554993,0.018097124993801117
1733699485819365600,0.71636572265625,0.09233224391937256,-0.14591598510742188,0.009203498251736164
1733699485829320700,0.72632080078125,0.09553276002407074,-0.17771108448505402,-0.0036533100064843893
1733699485839276800,0.73627685546875,0.08466466516256332,-0.20218180119991302,-0.019563566893339157
1733699485849231600,0.746231689453125,0.06491509079933167,-0.22098588943481445,-0.03213459998369217
1733699485859186700,0.756186767578125,0.03787575289607048,-0.22698839008808136,-0.03955549746751785
1733699485869141800,0.766141845703125,0.010293016210198402,-0.21600668132305145,-0.04437868669629097
1733699485879096800,0.776096923828125,-0.012886871583759785,-0.19639675319194794,-0.041759733110666275
1733699485889051600,0.7860517578125,-0.025782350450754166,-0.1767093390226364,-0.034557316452264786
1733699485899006700,0.7960068359375,-0.032944388687610626,-0.16102172434329987,-0.02982913888990879
1733699485908961800,0.8059619140625,-0.030874980613589287,-0.15811768174171448,-0.02516872063279152
1733699485918917600,0.815917724609375,-0.018471308052539825,-0.16840973496437073,-0.021662669256329536
1733699485928872700,0.825872802734375,0.0074599445797502995,-0.19556266069412231,-0.02451816014945507
1733699485938827800,0.835827880859375,0.03325372561812401,-0.2272995412349701,-0.034360140562057495
1733699485948782600,0.845782470703125,0.051255542784929276,-0.27412256598472595,-0.04781092703342438
1733699485958738000,0.855738037109375,0.08891743421554565,-0.3433213233947754,-0.051232289522886276
1733699485968692700,0.865692626953125,0.11319361627101898,-0.40929317474365234,-0.046918854117393494
1733699485978647800,0.875647705078125,0.15093274414539337,-0.48632484674453735,-0.056324075907468796
1733699485988602600,0.8856025390625,0.19001494348049164,-0.5778274536132812,-0.06308455765247345
1733699485998558700,0.895558837890625,0.21507582068443298,-0.6691924929618835,-0.07705789804458618
1733699486008513800,0.905513671875,0.22639882564544678,-0.7581477761268616,-0.09068287909030914
1733699486018468900,0.91546875,0.21807298064231873,-0.8322198390960693,-0.100771464407444
1733699486028423700,0.925423583984375,0.20213407278060913,-0.8693265914916992,-0.11204789578914642
1733699486038378800,0.935378662109375,0.18123704195022583,-0.8810373544692993,-0.12058146297931671
1733699486048333600,0.94533349609375,0.1614290028810501,-0.8488554954528809,-0.12712204456329346
1733699486058289000,0.955288818359375,0.14287902414798737,-0.740043580532074,-0.13873527944087982
1733699486068243700,0.96524365234375,0.11524809896945953,-0.5622066855430603,-0.13904286921024323
1733699486078199800,0.97519970703125,0.06624620407819748,-0.3427254259586334,-0.11130950599908829
1733699486088155000,0.98515478515625,0.004453639034181833,-0.11246950179338455,-0.06131814047694206
1733699486098109700,0.995109619140625,-0.06183616816997528,0.09825844317674637,-0.006966480985283852
1733699486108064800,1.005064697265625,-0.12127318233251572,0.2667989432811737,0.03156350180506706
1733699486118019800,1.015019775390625,-0.1583142876625061,0.3754071593284607,0.04867883771657944
1733699486127974700,1.024974609375,-0.17118194699287415,0.4210869073867798,0.05379748344421387
1733699486137929700,1.0349296875,-0.17056222259998322,0.4297991693019867,0.048489805310964584
1733699486147884800,1.044884765625,-0.15606364607810974,0.4099118709564209,0.045110467821359634
1733699486157840600,1.054840576171875,-0.12315976619720459,0.3589938282966614,0.04422683268785477
1733699486167795700,1.064795654296875,-0.08265606313943863,0.2860063314437866,0.04302739351987839
1733699486177750800,1.074750732421875,-0.041469212621450424,0.20246295630931854,0.03034781664609909
1733699486187705900,1.084705810546875,-0.001285694888792932,0.11623505502939224,0.00834368821233511
1733699486197660700,1.09466064453125,0.02552088536322117,0.02604071982204914,-0.014863629825413227
1733699486207615700,1.10461572265625,0.04646790772676468,-0.05749230086803436,-0.030981717631220818
1733699486217570800,1.11457080078125,0.0577317476272583,-0.12616856396198273,-0.039580266922712326
1733699486227525600,1.124525634765625,0.0629952922463417,-0.18092657625675201,-0.03920865058898926
1733699486237481700,1.134481689453125,0.06133907288312912,-0.22506208717823029,-0.03483467549085617
1733699486247436800,1.144436767578125,0.059298764914274216,-0.266536146402359,-0.03368094563484192
1733699486257391600,1.1543916015625,0.05517725646495819,-0.3006637692451477,-0.029929086565971375
1733699486267347000,1.164346923828125,0.05482639744877815,-0.3262042999267578,-0.02180706150829792
1733699486277301800,1.1743017578125,0.05713961645960808,-0.3275531828403473,-0.01549031026661396
1733699486287256800,1.1842568359375,0.0632607489824295,-0.3179556727409363,-0.009699181653559208
1733699486297211600,1.194211669921875,0.07204758375883102,-0.2990610599517822,-0.00531881395727396
1733699486307167700,1.204167724609375,0.07872550934553146,-0.25558918714523315,-0.009045984596014023
1733699486317122800,1.214122802734375,0.0779433399438858,-0.19993287324905396,-0.009365295991301537
1733699486327078000,1.224077880859375,0.07041863352060318,-0.14565683901309967,-0.003623595694079995
1733699486337032700,1.23403271484375,0.057757169008255005,-0.09026521444320679,0.00467428145930171
1733699486346987800,1.24398779296875,0.03842679038643837,-0.04707977548241615,0.012075774371623993
1733699486356942600,1.253942626953125,0.020485343411564827,-0.021894793957471848,0.017514215782284737
1733699486366897400,1.2638974609375,0.005882164463400841,-0.013574811629951,0.016768530011177063
1733699486376852200,1.273852294921875,-0.002704665530472994,-0.019903814420104027,0.01692858710885048
1733699486386808000,1.28380810546875,-0.006257908884435892,-0.02998933382332325,0.01284148171544075
1733699486396763400,1.293763427734375,-0.007521844934672117,-0.03660382702946663,0.011054232716560364
1733699486406718200,1.30371826171875,-0.0077024963684380054,-0.040862295776605606,0.004078331403434277
1733699486416673300,1.31367333984375,-0.009071361273527145,-0.04739130288362503,-0.002279433188959956
1733699486426628400,1.32362841796875,-0.0027493189554661512,-0.059766046702861786,-0.009782129898667336
1733699486436583200,1.333583251953125,0.0008230453822761774,-0.07595300674438477,-0.015491681173443794
1733699486446538200,1.343538330078125,-0.012648537755012512,-0.06178933382034302,-0.037496160715818405
1733699486456493000,1.3534931640625,-0.01152255292981863,-0.09157253056764603,-0.03887514770030975
1733699486466449200,1.36344921875,0.0003813863731920719,-0.10904703289270401,-0.027245180681347847
1733699486476404200,1.373404296875,0.013263097032904625,-0.12091168761253357,-0.009035017341375351
1733699486486359300,1.383359375,0.019515082240104675,-0.12185617536306381,0.011056982912123203
1733699486496314400,1.393314453125,0.01972626894712448,-0.11726035922765732,0.02423962950706482
1733699486506269200,1.403269287109375,0.025497110560536385,-0.11994391679763794,0.03336552530527115
1733699486516224300,1.413224365234375,0.03296594321727753,-0.1208331435918808,0.032013170421123505
1733699486526179300,1.423179443359375,0.03762040287256241,-0.12218765914440155,0.02405748888850212
1733699486536134100,1.433134033203125,0.04058876633644104,-0.1031884029507637,-0.0016582610551267862
1733699486546090200,1.44309033203125,0.059979576617479324,-0.12588487565517426,-0.021977277472615242
1733699486556045300,1.45304541015625,0.07199203222990036,-0.15743082761764526,-0.022998599335551262
1733699486566000000,1.463000244140625,0.06176501139998436,-0.1655179113149643,-0.02876385673880577
1733699486575955200,1.472955078125,0.0446920171380043,-0.16940319538116455,-0.030114879831671715
1733699486585910300,1.48291015625,0.024493522942066193,-0.16270430386066437,-0.02709663286805153
1733699486595865300,1.492865234375,0.005716639570891857,-0.14038275182247162,-0.023598304018378258
1733699486605820200,1.502820068359375,-0.006352451164275408,-0.11134623736143112,-0.017149707302451134
1733699486615775200,1.512775146484375,-0.013883071951568127,-0.07873769849538803,-0.008706687018275261
1733699486625731300,1.5227314453125,-0.01757100038230419,-0.05106194689869881,-0.003113631159067154
1733699486635686100,1.53268603515625,-0.015006110072135925,-0.032635532319545746,0.002426010323688388
1733699486645641200,1.54264111328125,-0.01200208067893982,-0.022577757015824318,0.0005003925180062652
1733699486655596300,1.55259619140625,-0.013352303765714169,-0.009910431690514088,-0.01784399338066578
1733699486665551000,1.562551025390625,-0.0015763032715767622,-0.0378575436770916,-0.020016029477119446
1733699486675506400,1.57250634765625,0.018779834732413292,-0.06626921147108078,-0.01459489855915308
1733699486685461200,1.582461181640625,0.031340066343545914,-0.08787260949611664,-0.01334165409207344
1733699486695416300,1.592416259765625,0.03901476413011551,-0.11188632994890213,-0.013524878770112991
1733699486705372400,1.602372314453125,0.03665797412395477,-0.13869701325893402,-0.015518111176788807
1733699486715327200,1.6123271484375,0.030345749109983444,-0.15934930741786957,-0.035091280937194824
1733699486725282300,1.6222822265625,0.03311719372868538,-0.18274079263210297,-0.050680503249168396
1733699486735237400,1.6322373046875,0.03690900281071663,-0.19546563923358917,-0.05784786865115166
1733699486745192200,1.642192138671875,0.04121295362710953,-0.19702714681625366,-0.07013794034719467
1733699486755147300,1.652147216796875,0.049090318381786346,-0.2062845528125763,-0.08012107014656067
1733699486765102000,1.66210205078125,0.06061340868473053,-0.21121282875537872,-0.08858773112297058
1733699486775057400,1.672057373046875,0.06942341476678848,-0.2159535139799118,-0.09577293694019318
1733699486785013200,1.68201318359375,0.06796087324619293,-0.2139369249343872,-0.09668257087469101
1733699486794968300,1.69196826171875,0.05917990207672119,-0.19245268404483795,-0.09069205820560455
1733699486804923400,1.70192333984375,0.03751595318317413,-0.14877066016197205,-0.07654630392789841
1733699486814878200,1.711878173828125,0.007605991791933775,-0.09786514192819595,-0.05603943020105362
1733699486824833300,1.721833251953125,-0.02444145642220974,-0.051964323967695236,-0.03533152490854263
1733699486834788400,1.731788330078125,-0.05641057342290878,-0.0004753009998239577,-0.028296520933508873
1733699486844743200,1.7417431640625,-0.07978273183107376,0.04307129606604576,-0.02434716559946537
1733699486854698200,1.7516982421875,-0.08983509987592697,0.07991798967123032,-0.01647326350212097
1733699486864654300,1.761654296875,-0.09236247092485428,0.11051616817712784,-0.0024565812200307846
1733699486874609200,1.771609130859375,-0.09305595606565475,0.14179472625255585,0.012887487187981606
1733699486884564200,1.781564208984375,-0.08376004546880722,0.15487733483314514,0.02480347827076912
1733699486894519300,1.791519287109375,-0.0696231871843338,0.14721515774726868,0.032950885593891144
1733699486904474400,1.801474365234375,-0.0465824268758297,0.11927247792482376,0.03226601704955101
1733699486914429200,1.81142919921875,-0.022684818133711815,0.0701984092593193,0.029053445905447006
1733699486924384300,1.82138427734375,0.002118694595992565,0.011234655976295471,0.019301902502775192
1733699486934339300,1.83133935546875,0.024279389530420303,-0.04737965762615204,0.00785723328590393
1733699486944295200,1.841295166015625,0.04456339031457901,-0.09805162996053696,-0.003190081100910902
1733699486954250200,1.851250244140625,0.061011869460344315,-0.13907389342784882,-0.012420863844454288
1733699486964205300,1.861205322265625,0.07005784660577774,-0.17555199563503265,-0.010994029231369495
1733699486974160100,1.87116015625,0.08062846958637238,-0.20316150784492493,-0.003188303904607892
1733699486984115500,1.881115478515625,0.08228506147861481,-0.2152843326330185,0.001546940067782998
1733699486994070300,1.8910703125,0.08025120198726654,-0.22852131724357605,0.004080139100551605
1733699487004025300,1.901025390625,0.0766911655664444,-0.23182465136051178,0.001176332589238882
1733699487013980200,1.910980224609375,0.08167286962270737,-0.24469757080078125,0.0030964715406298637
1733699487023936300,1.920936279296875,0.08483171463012695,-0.24382363259792328,0.005087582860141993
1733699487033891300,1.930891357421875,0.09082276374101639,-0.23270227015018463,0.0048742638900876045
1733699487043846400,1.940846435546875,0.0911613404750824,-0.21697768568992615,0.004034026991575956
1733699487053801200,1.95080126953125,0.08817034959793091,-0.2003595530986786,0.0011817814083769917
1733699487063756300,1.96075634765625,0.08552703261375427,-0.18819361925125122,0.0014144849264994264
1733699487073711000,1.970711181640625,0.08219008892774582,-0.19038885831832886,0.0037857634015381336
1733699487083666400,1.98066650390625,0.07908759266138077,-0.19634371995925903,0.00479509262368083
1733699487093621200,1.990621337890625,0.08004180341959,-0.2076064944267273,0.00866466574370861
1733699487103577300,2.000577392578125,0.07998627424240112,-0.2150202840566635,0.012969988398253918
1733699487113532400,2.010532470703125,0.07936576008796692,-0.21540963649749756,0.014984670095145702
1733699487123487200,2.0204873046875,0.0884586051106453,-0.2247495949268341,0.013630632311105728
1733699487133442000,2.030442138671875,0.09699536859989166,-0.24419838190078735,0.01580590382218361
1733699487143397400,2.0403974609375,0.10536175966262817,-0.2724741995334625,0.020358415320515633
1733699487153352200,2.050352294921875,0.11151685565710068,-0.2962024211883545,0.021995726972818375
1733699487163307300,2.060307373046875,0.12406527996063232,-0.33216336369514465,0.025101419538259506
1733699487173262300,2.070262451171875,0.13383960723876953,-0.36855465173721313,0.026043381541967392
1733699487183218200,2.08021826171875,0.1372181922197342,-0.40554457902908325,0.016310077160596848
1733699487193173200,2.09017333984375,0.1399892121553421,-0.4475056231021881,-0.005117716733366251
1733699487203128300,2.10012841796875,0.1457291543483734,-0.49854087829589844,-0.03050156868994236
1733699487213083400,2.11008349609375,0.14972150325775146,-0.548265278339386,-0.053633786737918854
1733699487223038200,2.1200380859375,0.15182559192180634,-0.5963861346244812,-0.07095219194889069
1733699487232993300,2.1299931640625,0.14728569984436035,-0.63271164894104,-0.08299553394317627
1733699487242948400,2.1399482421875,0.1411130428314209,-0.6452252864837646,-0.0935465395450592
1733699487252903200,2.149903076171875,0.134039968252182,-0.6415657997131348,-0.09195263683795929
1733699487262859300,2.159859375,0.12857581675052643,-0.6133379936218262,-0.09305885434150696
1733699487272814300,2.169814453125,0.12442206591367722,-0.5724430680274963,-0.09047585725784302
1733699487282769200,2.17976904296875,0.1153925210237503,-0.5068911910057068,-0.08442293107509613
1733699487292724500,2.189724365234375,0.10607278347015381,-0.4259401261806488,-0.0812300592660904
1733699487302679300,2.19967919921875,0.09934601187705994,-0.32831770181655884,-0.09380827099084854
1733699487312634000,2.209634033203125,0.09166092425584793,-0.24050556123256683,-0.11305093765258789
1733699487322589200,2.219589111328125,0.07748792320489883,-0.16851414740085602,-0.13505573570728302
1733699487332545300,2.229545166015625,0.0560888946056366,-0.11181385070085526,-0.1494503915309906
1733699487342500000,2.2395,0.02463674731552601,-0.05565841495990753,-0.14839878678321838
1733699487352455200,2.249455078125,-0.015948761254549026,0.010109411552548409,-0.12344921380281448
1733699487362410200,2.25941015625,-0.06421791762113571,0.0893765315413475,-0.0853077843785286
1733699487372365600,2.269365478515625,-0.11335483938455582,0.17055313289165497,-0.04358963668346405
1733699487382320600,2.279320556640625,-0.15069721639156342,0.2453850954771042,-0.01273113302886486
1733699487392275500,2.289275390625,-0.1687646359205246,0.29490551352500916,0.004983948543667793
1733699487402230500,2.29923046875,-0.17342635989189148,0.3101417124271393,0.005464296787977219
1733699487412186600,2.3091865234375,-0.1621883511543274,0.32606127858161926,0.003189691109582782
1733699487422141400,2.319141357421875,-0.14642785489559174,0.354155033826828,-0.00349137163721025
1733699487432096500,2.329096435546875,-0.12089186161756516,0.3678135871887207,-0.0067526791244745255
1733699487442051600,2.339051513671875,-0.09752336144447327,0.3601497709751129,-0.011048641987144947
1733699487452006700,2.349006591796875,-0.07988737523555756,0.32396620512008667,-0.01269527431577444
1733699487461961500,2.35896142578125,-0.06666690111160278,0.27362000942230225,-0.0127470837906003
1733699487471916500,2.36891650390625,-0.05599562078714371,0.20651499927043915,-0.0050963545218110085
1733699487481871600,2.37887158203125,-0.04322335124015808,0.14054416120052338,0.0029958130326122046
1733699487491827500,2.388827392578125,-0.026619071140885353,0.06299077719449997,0.016874875873327255
1733699487501782500,2.398782470703125,-0.004507200792431831,-0.017347171902656555,0.0305776484310627
1733699487511737600,2.408737548828125,0.02383602410554886,-0.09504569321870804,0.0352080874145031
1733699487521692400,2.4186923828125,0.05409086495637894,-0.1658407747745514,0.03515349328517914
1733699487531647500,2.4286474609375,0.08631058782339096,-0.23060591518878937,0.029299862682819366
1733699487541602600,2.4386025390625,0.11131990700960159,-0.2769433557987213,0.022608842700719833
1733699487551557600,2.4485576171875,0.13065925240516663,-0.3032929301261902,0.017544575035572052
1733699487561512400,2.458512451171875,0.14061875641345978,-0.305808424949646,0.013860323466360569
1733699487571468500,2.468468505859375,0.13702216744422913,-0.2865748107433319,0.012318086810410023
1733699487581423600,2.478423583984375,0.12592464685440063,-0.2586228549480438,0.007647936698049307
1733699487591378400,2.48837841796875,0.10564574599266052,-0.224032923579216,0.005263874772936106
1733699487601333500,2.49833349609375,0.0793089047074318,-0.189603790640831,-0.0010436216834932566
1733699487611288600,2.50828857421875,0.049710001796483994,-0.15275628864765167,-0.006789924576878548
1733699487621243400,2.518243408203125,0.01637185737490654,-0.10876913368701935,-0.008690185844898224
1733699487631198700,2.52819873046875,-0.012995085678994656,-0.05523933470249176,-0.00926356390118599
1733699487641153500,2.538153564453125,-0.035076506435871124,0.001443956047296524,-0.004944440443068743
1733699487651109400,2.548109375,-0.05582386255264282,0.0587056465446949,0.0032572969794273376
1733699487661064700,2.558064697265625,-0.06638012081384659,0.10914094001054764,0.009289204142987728
1733699487671019500,2.56801953125,-0.06926751881837845,0.139645054936409,0.015238706022500992
1733699487680974600,2.577974609375,-0.06161840632557869,0.1595822423696518,0.012474697083234787
1733699487690929700,2.5879296875,-0.05067654326558113,0.14916396141052246,0.009979315102100372
1733699487700884500,2.597884521484375,-0.03439273312687874,0.12287113815546036,0.006750774569809437
1733699487710839600,2.607839599609375,-0.018422022461891174,0.08921065181493759,0.0013639986282214522
1733699487720794400,2.61779443359375,-0.0011305785737931728,0.05530865862965584,-0.002431433880701661
1733699487730750500,2.62775048828125,0.015789814293384552,0.015531949698925018,-0.004127334803342819
1733699487740705500,2.63770556640625,0.026665082201361656,-0.02138816937804222,-0.00734005868434906
1733699487750660600,2.64766064453125,0.03258315846323967,-0.0455547571182251,-0.006423132494091988
1733699487760615700,2.65761572265625,0.03374824300408363,-0.05865113437175751,-0.005617714952677488
1733699487770570500,2.667570556640625,0.029734060168266296,-0.06282270699739456,-0.0018485430628061295
1733699487780525600,2.677525634765625,0.022019412368535995,-0.05845747888088226,0.0022473428398370743
1733699487790480600,2.687480712890625,0.011830691248178482,-0.04849858954548836,0.009367037564516068
1733699487800435500,2.697435546875,0.002508719451725483,-0.03366919234395027,0.013461236841976643
1733699487810391600,2.7073916015625,-0.002266061957925558,-0.01728915236890316,0.018920982256531715
1733699487820346600,2.7173466796875,-0.0037304628640413284,-0.0057999626733362675,0.020095277577638626
1733699487830301400,2.727301513671875,-0.004903052933514118,-0.0024339936207979918,0.020434563979506493
1733699487840256500,2.737256591796875,-0.0004266829928383231,-0.00880740862339735,0.0186244435608387
1733699487850211600,2.747211669921875,0.0031187832355499268,-0.019995348528027534,0.015585244633257389
1733699487860166700,2.757166748046875,0.006708276923745871,-0.03214796259999275,0.0135575570166111
1733699487870121500,2.76712158203125,0.009543212130665779,-0.04470903053879738,0.011301327496767044
1733699487880076500,2.77707666015625,0.015209496952593327,-0.05381253361701965,0.009444487281143665
1733699487890032600,2.78703271484375,0.017582371830940247,-0.05987735092639923,0.005207131616771221
1733699487899987500,2.796987548828125,0.023117970675230026,-0.06306079775094986,0.00162981147877872
1733699487909942500,2.806942626953125,0.027925774455070496,-0.06328556686639786,0.00034456991124898195
1733699487919897600,2.816897705078125,0.030910978093743324,-0.060848042368888855,-0.0028578059282153845
1733699487929852400,2.826852294921875,0.03188889101147652,-0.052655890583992004,-0.005900733172893524
1733699487939807700,2.836807861328125,0.027766795828938484,-0.03876630216836929,-0.007953716441988945
1733699487949762600,2.846762451171875,0.02207268960773945,-0.02184963971376419,-0.012447535060346127
1733699487959718400,2.856718505859375,0.013633133843541145,-0.001988317584618926,-0.013618793338537216
1733699487969673700,2.866673828125,0.0009658081689849496,0.01930472068488598,-0.010636584833264351
1733699487979628500,2.876628662109375,-0.011961637064814568,0.04360451549291611,-0.0020666946657001972
1733699487989583600,2.88658349609375,-0.02714085578918457,0.06359180063009262,0.00519681116566062
1733699487999538700,2.89653857421875,-0.03829225152730942,0.07662581652402878,0.011937253177165985
1733699488009493500,2.906493408203125,-0.04310937598347664,0.08184907585382462,0.019594106823205948
1733699488019448600,2.916448486328125,-0.03933914750814438,0.07722065597772598,0.022704649716615677
1733699488029403400,2.9264033203125,-0.0327768512070179,0.06346569210290909,0.019936826080083847
1733699488039359500,2.936359375,-0.019932616502046585,0.04063701257109642,0.014646269381046295
1733699488049314600,2.946314453125,-0.004010109230875969,0.011666882783174515,0.007047738879919052
1733699488059269600,2.95626953125,0.011230772361159325,-0.022569559514522552,0.0002933734795078635
1733699488069224700,2.966224609375,0.022377165034413338,-0.05491045489907265,-0.005715250037610531
1733699488079179500,2.976179443359375,0.02879747562110424,-0.07950857281684875,-0.013370547443628311
1733699488089134300,2.98613427734375,0.02904168702661991,-0.09209147840738297,-0.017619354650378227
1733699488099089700,2.996089599609375,0.024814702570438385,-0.09324869513511658,-0.022566301748156548
1733699488109044500,3.00604443359375,0.016758639365434647,-0.0867369994521141,-0.02052498795092106
1733699488119000300,3.016000244140625,0.006011296063661575,-0.0733218640089035,-0.01859961822628975
1733699488128955600,3.02595556640625,-0.0019763230811804533,-0.056964728981256485,-0.014731641858816147
1733699488138910500,3.035910400390625,-0.010023602284491062,-0.04258164018392563,-0.0062108878046274185
1733699488148865500,3.045865478515625,-0.011994607746601105,-0.030645087361335754,0.002212424762547016
1733699488158820600,3.055820556640625,-0.010250112041831017,-0.01621484011411667,0.00761230755597353
1733699488168775700,3.065775634765625,-0.0022385246120393276,-0.01057479903101921,0.008330295793712139
1733699488178730500,3.07573046875,0.011979793198406696,-0.0073900241404771805,0.002154387068003416
1733699488188685600,3.085685546875,0.02496962808072567,-0.008885655552148819,-0.010964610613882542
1733699488198641700,3.0956416015625,0.03175230696797371,-0.013051546178758144,-0.02778599224984646
1733699488208596500,3.105596435546875,0.029723510146141052,-0.02731890045106411,-0.03657708689570427
1733699488218551600,3.115551513671875,0.023552820086479187,-0.03495434671640396,-0.037797145545482635
1733699488228506600,3.125506591796875,0.015960147604346275,-0.019938377663493156,-0.030689166858792305
1733699488238461400,3.13546142578125,0.005126946605741978,0.006668536923825741,-0.014828057959675789
1733699488248416800,3.145416748046875,-0.004588531330227852,0.0410374291241169,0.0022385427728295326
1733699488258371600,3.15537158203125,-0.014697536826133728,0.061053331941366196,0.01134225632995367
1733699488268326400,3.165326416015625,-0.021885942667722702,0.07449750602245331,0.001967396354302764
1733699488278282800,3.17528271484375,-0.028385741636157036,0.07582778483629227,-0.021058551967144012
1733699488288237600,3.185237548828125,-0.03815102204680443,0.06587289273738861,-0.06176416948437691
1733699488298192400,3.1951923828125,-0.04468652233481407,0.05280115455389023,-0.10004645586013794
1733699488308147500,3.2051474609375,-0.059312604367733,0.051340676844120026,-0.12923283874988556
1733699488318102500,3.2151025390625,-0.07861560583114624,0.07964827865362167,-0.1331612467765808
1733699488328057600,3.2250576171875,-0.1033363938331604,0.1382945477962494,-0.11339658498764038
1733699488338012400,3.235012451171875,-0.12719030678272247,0.20169925689697266,-0.07440562546253204
1733699488347967700,3.2449677734375,-0.14010904729366302,0.23862692713737488,-0.03597008436918259
1733699488357923600,3.254923583984375,-0.13908542692661285,0.24584262073040009,-0.011023599654436111
1733699488367878700,3.264878662109375,-0.12698616087436676,0.21328067779541016,-0.0023337050806730986
1733699488377833700,3.274833740234375,-0.1034063845872879,0.16006362438201904,-0.008282730355858803
1733699488387788500,3.28478857421875,-0.06876958161592484,0.09214501827955246,-0.01650044694542885
1733699488397743600,3.29474365234375,-0.03292064368724823,0.03103044256567955,-0.02238144911825657
1733699488407698700,3.30469873046875,0.003622453659772873,-0.02475798688828945,-0.01974412053823471
1733699488417653500,3.314653564453125,0.036127135157585144,-0.06971682608127594,-0.016209278255701065
1733699488427608800,3.32460888671875,0.06404824554920197,-0.10527588427066803,-0.009674147702753544
1733699488437564700,3.334564697265625,0.08315220475196838,-0.12134355306625366,-0.002754711080342531
1733699488447519500,3.34451953125,0.09025298804044724,-0.1268770694732666,0.0002152459928765893
1733699488457474800,3.354474853515625,0.08643089234828949,-0.128410205245018,-0.0005756078753620386
1733699488467429600,3.3644296875,0.07370524108409882,-0.12593026459217072,0.0032220599241554737
1733699488477384400,3.374384521484375,0.058430880308151245,-0.12304507941007614,0.006091833580285311
1733699488487339800,3.38433984375,0.04352010786533356,-0.11545320600271225,0.007969362661242485
1733699488497294600,3.394294677734375,0.031005697324872017,-0.10457322746515274,0.009836932644248009
1733699488507249700,3.404249755859375,0.01922573707997799,-0.08896097540855408,0.011495815590023994
1733699488517205800,3.414205810546875,0.010280374437570572,-0.07825644314289093,0.011729536578059196
1733699488527160600,3.42416064453125,0.004186529666185379,-0.06612015515565872,0.011798245832324028
1733699488537115600,3.43411572265625,-0.000018617603927850723,-0.0458274744451046,0.010614079423248768
1733699488547070700,3.44407080078125,-0.006315662059932947,-0.017714878544211388,0.006150621920824051
1733699488557025800,3.45402587890625,-0.010067685507237911,0.011312657035887241,0.005248485133051872
1733699488566980600,3.463980712890625,-0.009476197883486748,0.03558923304080963,0.0049440860748291016
1733699488576935400,3.473935302734375,-0.00676690973341465,0.05108816549181938,0.005808234214782715
1733699488586890800,3.483890869140625,0.0011757018510252237,0.05143064633011818,0.007082024589180946
1733699488596846600,3.4938466796875,0.009204421192407608,0.03256317600607872,0.0074380794540047646
1733699488606801700,3.5038017578125,0.017188578844070435,-0.01100320927798748,0.008354739286005497
1733699488616756700,3.5137568359375,0.025465823709964752,-0.0530104860663414,0.006278748624026775
1733699488626711600,3.523711669921875,0.03399486467242241,-0.08562382310628891,0.0041319746524095535
1733699488636666600,3.53366650390625,0.04728243872523308,-0.10876509547233582,-0.0005573194939643145
1733699488646621700,3.54362158203125,0.05307774245738983,-0.12274296581745148,-0.0025123460218310356
1733699488656576500,3.553576416015625,0.05633562430739403,-0.1316310465335846,-0.00040438794530928135
1733699488666532600,3.56353271484375,0.058371610939502716,-0.12604853510856628,0.0001458211336284876
1733699488676487700,3.57348779296875,0.055429086089134216,-0.11561053991317749,-0.0017663284670561552
1733699488686442500,3.5834423828125,0.04863962158560753,-0.09533349424600601,-0.0044345492497086525
1733699488696397600,3.5933974609375,0.03995596244931221,-0.07519254833459854,-0.007531900890171528
1733699488706352600,3.6033525390625,0.02895391173660755,-0.05646999552845955,-0.010503455996513367
1733699488716307700,3.6133076171875,0.017048602923750877,-0.043888840824365616,-0.012975972145795822
1733699488726262500,3.623262451171875,0.009413054212927818,-0.043526917695999146,-0.005768925882875919
1733699488736217900,3.6332177734375,0.0032172983046621084,-0.03536638244986534,0.002324705710634589
1733699488746173700,3.643173583984375,0.0018388458993285894,-0.03306621313095093,0.009026017971336842
1733699488756128500,3.65312841796875,0.007406504824757576,-0.038852181285619736,0.010297868400812149
1733699488766083800,3.663083740234375,0.011568226851522923,-0.052088357508182526,0.004486318677663803
1733699488776038700,3.67303857421875,0.020765790715813637,-0.06893961876630783,0.000275992788374424
1733699488785993500,3.682993408203125,0.029886050149798393,-0.08371669799089432,-0.007883399724960327
1733699488795948800,3.69294873046875,0.03530405834317207,-0.09712567180395126,-0.01233130693435669
1733699488805903600,3.702903564453125,0.040782179683446884,-0.10638947784900665,-0.012445556931197643
1733699488815858700,3.712858642578125,0.04594473913311958,-0.11022865772247314,-0.012839523144066334
1733699488825814800,3.722814697265625,0.04286852106451988,-0.10978097468614578,-0.01407656166702509
1733699488835769600,3.73276953125,0.04006362333893776,-0.1053895577788353,-0.015467483550310135
1733699488845724700,3.742724609375,0.036376480013132095,-0.1014784425497055,-0.013972118496894836
1733699488855679700,3.7526796875,0.03202091157436371,-0.08839183300733566,-0.010091322474181652
1733699488865634600,3.762634521484375,0.025133177638053894,-0.06597733497619629,-0.0028693622443825006
1733699488875589600,3.772589599609375,0.018324557691812515,-0.036016590893268585,0.009203698486089706
1733699488885544400,3.78254443359375,0.013702908530831337,-0.013540045358240604,0.019138887524604797
1733699488895499800,3.792499755859375,0.012834897264838219,0.002334716496989131,0.024623915553092957
1733699488905454600,3.80245458984375,0.01482774131000042,0.00013601075625047088,0.024308331310749054
1733699488915410400,3.812410400390625,0.02036558836698532,-0.014300028793513775,0.020206928253173828
1733699488925365800,3.82236572265625,0.024776848033070564,-0.024493809789419174,0.015202848240733147
1733699488935320600,3.832320556640625,0.02932247705757618,-0.03709381818771362,0.012656306847929955
1733699488945275600,3.842275634765625,0.03162690997123718,-0.05071322247385979,0.009430419653654099
1733699488955230700,3.852230712890625,0.031511642038822174,-0.0626702681183815,0.0011614938266575336
1733699488965185500,3.862185546875,0.027675095945596695,-0.06988158077001572,-0.005451134871691465
1733699488975140600,3.872140625,0.018219683319330215,-0.061261098831892014,-0.011247828602790833
1733699488985096700,3.8820966796875,0.003957657143473625,-0.03604282811284065,-0.010946092195808887
1733699488995051500,3.892051513671875,-0.016204016283154488,-0.007379896007478237,-0.0031444095075130463
1733699489005006600,3.902006591796875,-0.03012435883283615,0.0237527247518301,0.0066797249019145966
1733699489014961700,3.911961669921875,-0.034747783094644547,0.0496191680431366,0.01636296883225441
1733699489024916700,3.921916748046875,-0.034552574157714844,0.06660667806863785,0.021746549755334854
1733699489034871600,3.93187158203125,-0.02802828885614872,0.06800872832536697,0.02211366593837738
1733699489044826600,3.94182666015625,-0.01786433532834053,0.05503539741039276,0.01784408837556839
1733699489054781700,3.95178173828125,-0.0030459407716989517,0.031935129314661026,0.011706310324370861
1733699489064737500,3.961737548828125,0.00890819076448679,0.004217479843646288,0.005548016168177128
1733699489074692600,3.971692626953125,0.02127750776708126,-0.023347189649939537,0.0010624813148751855
1733699489084647700,3.981647705078125,0.028758328408002853,-0.04395206645131111,-0.0015197196044027805
1733699489094602500,3.9916025390625,0.03216280788183212,-0.05518234521150589,-0.004265609662979841
1733699489104557600,4.0015576171875,0.03206746652722359,-0.05856828764081001,-0.0006173453293740749
1733699489114512600,4.0115126953125,0.02839198336005211,-0.0572940930724144,-0.0005456586368381977
1733699489124467700,4.0214677734375,0.023911479860544205,-0.052267640829086304,0.003186761634424329
1733699489134422500,4.031422607421875,0.021817773580551147,-0.046756453812122345,0.005305411294102669
1733699489144378600,4.041378662109375,0.019408412277698517,-0.04026153311133385,0.0053703924641013145
1733699489154333700,4.051333740234375,0.018476411700248718,-0.03312666714191437,0.008280066773295403
1733699489164288500,4.06128857421875,0.017541110515594482,-0.026775028556585312,0.006941028870642185
1733699489174243600,4.07124365234375,0.016472170129418373,-0.02692163735628128,0.007376141846179962
1733699489184198700,4.08119873046875,0.016853269189596176,-0.025445714592933655,0.005781174637377262
1733699489194153500,4.091153564453125,0.01942392811179161,-0.023995166644454002,0.002296676393598318
1733699489204108800,4.10110888671875,0.019337376579642296,-0.021884078159928322,0.000517418491654098
1733699489214063600,4.111063720703125,0.019047509878873825,-0.023724006488919258,0.00016801292076706886
1733699489224019500,4.12101953125,0.01251717284321785,-0.02258284203708172,-0.0014455963391810656
1733699489233974800,4.130974853515625,0.008154463954269886,-0.018624847754836082,0.004618887789547443
1733699489243929600,4.1409296875,0.0033365385606884956,-0.014948355033993721,0.008486863225698471
1733699489253884700,4.150884765625,0.002738748677074909,-0.009973115287721157,0.012250754050910473
1733699489263839700,4.16083984375,0.0029350235126912594,-0.007060416042804718,0.014759983867406845
1733699489273794600,4.170794677734375,0.005094173364341259,-0.005122218281030655,0.012982860207557678
1733699489283749600,4.18074951171875,0.00810833927243948,-0.005717168096452951,0.00872180238366127
1733699489293704700,4.19070458984375,0.013317140750586987,-0.009745398536324501,0.005186376627534628
1733699489303660500,4.20066064453125,0.015666048973798752,-0.014020570553839207,0.002087788889184594
1733699489313615600,4.21061572265625,0.015302740968763828,-0.016587719321250916,-0.0009625479578971863
1733699489323570700,4.22057080078125,0.013824685476720333,-0.014875042252242565,-0.000770800281316042
1733699489333525800,4.23052587890625,0.010147467255592346,-0.015042929910123348,0.0006983320927247405
1733699489343480600,4.24048046875,0.007016921415925026,-0.014765162020921707,0.0024328487925231457
1733699489353435400,4.250435302734375,0.0070157116279006,-0.01726660691201687,0.0033932137303054333
1733699489363390700,4.260390625,0.007742487825453281,-0.020481308922171593,0.004278714768588543
1733699489373345300,4.27034521484375,0.012452404946088791,-0.03018184006214142,0.00035306939389556646
1733699489383301400,4.28030126953125,0.018896721303462982,-0.0435573011636734,-0.0013905020896345377
1733699489393256200,4.290256103515625,0.02190192975103855,-0.05749831348657608,-0.0074114492163062096
1733699489403211300,4.300211181640625,0.024760833010077477,-0.07263226062059402,-0.007696940563619137
1733699489413166300,4.310166259765625,0.029422111809253693,-0.08586563169956207,-0.00792805477976799
1733699489423121200,4.32012109375,0.02970680221915245,-0.09445831924676895,-0.004162877332419157
1733699489433076200,4.330076171875,0.03315446153283119,-0.09941893070936203,-0.0016566538251936436
1733699489443031300,4.34003125,0.03529005125164986,-0.0971408560872078,-0.002736299065873027
1733699489452986400,4.349986328125,0.0361415334045887,-0.09612428396940231,-0.009249487891793251
1733699489462942500,4.3599423828125,0.03747950494289398,-0.0840308740735054,-0.021061405539512634
1733699489472897300,4.369897216796875,0.04198620095849037,-0.07364127039909363,-0.027868159115314484
1733699489482852000,4.37985205078125,0.03054818883538246,-0.05648971349000931,-0.027876149863004684
1733699489492807200,4.38980712890625,0.013969723135232925,-0.030115127563476562,-0.023091427981853485
1733699489502762200,4.39976220703125,0.00099853053689003,-0.0019335562828928232,-0.01247180812060833
1733699489512717300,4.40971728515625,-0.011729267425835133,0.027453597635030746,-0.004080367274582386
1733699489522672000,4.419672119140625,-0.01957600563764572,0.045258957892656326,0.009216262958943844
1733699489532627500,4.42962744140625,-0.021290991455316544,0.05626337230205536,0.012475697323679924
1733699489542583300,4.439583251953125,-0.021284600719809532,0.06368959695100784,0.013164923526346684
1733699489552538000,4.4495380859375,-0.016974467784166336,0.06251651793718338,0.009452847763895988
1733699489562493400,4.459493408203125,-0.008946103043854237,0.051833514124155045,0.0039206636138260365
1733699489572448300,4.4694482421875,-0.003245145548135042,0.03866291791200638,-0.00013034860603511333
1733699489582403000,4.479403076171875,0.0017786414828151464,0.021902047097682953,-0.001129033975303173
1733699489592358400,4.4893583984375,0.009039733558893204,0.005585209000855684,-0.002017350634559989
1733699489602313200,4.499313232421875,0.013636349700391293,-0.008337797597050667,0.0013803103938698769
1733699489612268300,4.509268310546875,0.012095656245946884,-0.016136040911078453,0.00680492352694273
1733699489622224400,4.519224365234375,0.013437889516353607,-0.025163358077406883,0.010893940925598145
1733699489632179200,4.52917919921875,0.013091802597045898,-0.03437452390789986,0.01395583339035511
1733699489642134300,4.53913427734375,0.01409448217600584,-0.04335523769259453,0.011887356638908386
1733699489652089300,4.54908935546875,0.010710314847528934,-0.05215641111135483,0.011937432922422886
1733699489662044200,4.559044189453125,0.00912040751427412,-0.05523902177810669,0.0073147183284163475
1733699489671999200,4.568999267578125,0.004337497521191835,-0.05351882427930832,0.00110345846042037
1733699489681954000,4.5789541015625,-0.0007510044379159808,-0.04204725846648216,0.00366728357039392
1733699489691909400,4.588909423828125,-0.0052228085696697235,-0.023416010662913322,0.00800025463104248
1733699489701865200,4.598865234375,-0.004305882379412651,-0.004136057570576668,0.01569705829024315
1733699489711820300,4.6088203125,-0.0036716931499540806,0.012635961174964905,0.019443316385149956
1733699489721775400,4.618775390625,-0.0013653957284986973,0.016590753570199013,0.02013706974685192
1733699489731730200,4.628730224609375,0.005754953250288963,0.008553622290492058,0.017165599390864372
1733699489741685200,4.638685302734375,0.01316546555608511,-0.005912934895604849,0.01182223204523325
1733699489751640300,4.648640380859375,0.01810997910797596,-0.027256077155470848,0.004676429554820061
1733699489761595100,4.65859521484375,0.022116439417004585,-0.04207683354616165,-0.00006080162711441517
1733699489771550200,4.66855029296875,0.024284061044454575,-0.04887275770306587,0.0014378386549651623
1733699489781506300,4.67850634765625,0.020090915262699127,-0.052267223596572876,0.0022032312117516994
1733699489791461000,4.688461181640625,0.014056684449315071,-0.048605628311634064,0.004435479640960693
1733699489801416200,4.698416259765625,0.010020929388701916,-0.04441061615943909,0.005360661540180445
1733699489811371300,4.708371337890625,0.005687115713953972,-0.03866508975625038,0.005623537115752697
1733699489821326300,4.718326416015625,0.005242101848125458,-0.029906751587986946,0.006600384600460529
1733699489831281200,4.72828125,0.002936228411272168,-0.02060980163514614,0.006523274816572666
1733699489841236500,4.738236572265625,0.0015588414389640093,-0.01136224064975977,0.008115578442811966
1733699489851191300,4.74819140625,0.00467051612213254,-0.0032261842861771584,0.009405387565493584
1733699489861147100,4.758147216796875,0.005790375173091888,0.0009611038258299232,0.00817873515188694
1733699489871102200,4.768102294921875,0.00881691463291645,0.002482588868588209,0.004999004304409027
1733699489881057300,4.778057373046875,0.011179137974977493,-0.0010178701486438513,0.0019949586130678654
1733699489891012000,4.78801220703125,0.010961034335196018,-0.005834422539919615,0.0004793033003807068
1733699489900967400,4.797967529296875,0.006373739801347256,-0.006761735305190086,-0.0007526751141995192
1733699489910922200,4.807922119140625,0.004258772358298302,-0.010840345174074173,0.00006499537266790867
1733699489920877300,4.817877197265625,-0.0016462546773254871,-0.013743989169597626,-0.00011982792057096958
1733699489930832100,4.82783203125,-0.002028502756729722,-0.013779751025140285,-0.0011004202533513308
1733699489940788200,4.837788330078125,-0.0033033580984920263,-0.013987477868795395,-0.000497480621561408
1733699489950743300,4.847743408203125,-0.001428977120667696,-0.010170127265155315,0.000908113201148808
1733699489960698400,4.857698486328125,0.001852836343459785,-0.006921336520463228,0.002568327821791172
1733699489970653200,4.867653076171875,0.006965506821870804,-0.00700729014351964,0.0040748026221990585
1733699489980608300,4.877608154296875,0.010753853246569633,-0.00889227632433176,0.004252435173839331
1733699489990563000,4.88756298828125,0.011608583852648735,-0.01355445571243763,0.0026284412015229464
1733699490000518400,4.897518310546875,0.010050102137029171,-0.018420318141579628,0.00013598869554698467
1733699490010473200,4.90747314453125,0.009080939926207066,-0.019925368949770927,-0.00011758389882743359
1733699490020429300,4.91742919921875,0.005321089178323746,-0.02372516691684723,0.00019240810070186853
1733699490030384400,4.92738427734375,0.00024325819686055183,-0.02252804860472679,0.0018541344907134771
1733699490040339200,4.937339111328125,-0.0008326589595526457,-0.02306733839213848,0.0018650534329935908
1733699490050294300,4.947294189453125,-0.0012159922625869513,-0.02133958414196968,0.0018283708486706018
1733699490060249300,4.957249267578125,-0.0011898933444172144,-0.020630383864045143,0.002968203742057085
1733699490070204200,4.9672041015625,0.0011875000782310963,-0.019745178520679474,0.006017613224685192
1733699490080159200,4.9771591796875,0.006257892586290836,-0.020698590204119682,0.004369649104773998
1733699490090114300,4.9871142578125,0.011052744463086128,-0.021116601303219795,0.00472430931404233
1733699490100070100,4.997070068359375,0.013538804836571217,-0.02126706950366497,0.00429074652493
1733699490110025200,5.007025146484375,0.017216350883245468,-0.019072920083999634,0.004237305372953415
1733699490119980300,5.016980224609375,0.016359079629182816,-0.017528552561998367,0.003129163756966591
1733699490129935400,5.026935302734375,0.016719812527298927,-0.017357487231492996,0.0032380307093262672
1733699490139890200,5.03689013671875,0.011098679155111313,-0.017873607575893402,0.001286200014874339
1733699490149845200,5.04684521484375,0.0053020743653178215,-0.017941990867257118,-0.000047153327614068985
1733699490159800300,5.05680029296875,0.0013960161013528705,-0.015491086058318615,-0.00009349244646728039
1733699490169755100,5.066755126953125,0.00028142938390374184,-0.013756430707871914,-0.0002622890751808882
1733699490179711200,5.076711181640625,-0.0023111579939723015,-0.014250979758799076,0.0010738188866525888
1733699490189666300,5.086666259765625,-0.0027193466667085886,-0.014358638785779476,-0.0003831181675195694
1733699490199621000,5.09662109375,-0.0014633999671787024,-0.0138102937489748,0.002070452319458127
1733699490209576400,5.106576416015625,0.0008249270031228662,-0.017373932525515556,0.0013023659121245146
1733699490219531300,5.11653125,0.005697712767869234,-0.01757979393005371,0.0021638984326273203
1733699490229486300,5.126486328125,0.008042456582188606,-0.01975334994494915,0.003401435911655426
1733699490239441200,5.136441162109375,0.012044919654726982,-0.02035948634147644,0.003046436235308647
1733699490249396200,5.146396240234375,0.017005760222673416,-0.02412477880716324,0.002704520244151354
1733699490259352300,5.156352294921875,0.021798118948936462,-0.027281157672405243,-0.0006244312971830368
1733699490269307400,5.166307373046875,0.0202750563621521,-0.02906014956533909,-0.005448481068015099
1733699490279262200,5.17626220703125,0.019769854843616486,-0.032877255231142044,-0.0057973554357886314
1733699490289217300,5.18621728515625,0.014538468793034554,-0.02993120811879635,-0.005328342318534851
1733699490299172000,5.196172119140625,0.007163643836975098,-0.019213315099477768,-0.0010696810204535723
1733699490309127400,5.20612744140625,0.0024539115838706493,-0.0014069953467696905,0.0051105814054608345
1733699490319082200,5.216082275390625,-0.00282074511051178,0.016231652349233627,0.0012487315107136965
1733699490329037300,5.226037353515625,-0.007959309965372086,0.049594249576330185,-0.022658970206975937
1733699490338993400,5.235993408203125,-0.009118317626416683,0.0656999796628952,-0.034375280141830444
1733699490348948200,5.2459482421875,-0.015889743342995644,0.0901227667927742,-0.038074035197496414
1733699490358903300,5.2559033203125,-0.036597684025764465,0.12939026951789856,-0.04238809272646904
1733699490368858000,5.265858154296875,-0.06480709463357925,0.1662432700395584,-0.036504849791526794
1733699490378813200,5.275813232421875,-0.09951873868703842,0.205630362033844,-0.02484952099621296
1733699490388768300,5.285768310546875,-0.1241370290517807,0.2484895884990692,-0.011591280810534954
1733699490398723000,5.29572314453125,-0.13904806971549988,0.2952839732170105,0.008819452486932278
1733699490408678100,5.30567822265625,-0.1446722447872162,0.34011921286582947,0.03221171721816063
1733699490418633200,5.31563330078125,-0.13719674944877625,0.36902064085006714,0.0441751666367054
1733699490428589000,5.325589111328125,-0.11809810250997543,0.37247076630592346,0.04286321997642517
1733699490438544400,5.33554443359375,-0.09144838154315948,0.33554762601852417,0.03438025340437889
1733699490448499200,5.345499267578125,-0.06050797551870346,0.280807226896286,0.013334727846086025
1733699490458454000,5.3554541015625,-0.03541247546672821,0.20674124360084534,-0.002121193567290902
1733699490468409000,5.3654091796875,-0.013707516714930534,0.11973226815462112,-0.01646748185157776
1733699490478364200,5.3753642578125,0.0021055354736745358,0.031580038368701935,-0.019856087863445282
1733699490488319200,5.3853193359375,0.014121966436505318,-0.03727537766098976,-0.021651476621627808
1733699490498274000,5.395274169921875,0.02598661556839943,-0.0818023681640625,-0.02197505161166191
1733699490508230100,5.405230224609375,0.034632716327905655,-0.11142393201589584,-0.021312270313501358
1733699490518185200,5.415185302734375,0.03942880406975746,-0.12265074998140335,-0.01443598885089159
1733699490528140000,5.42514013671875,0.04230199381709099,-0.11362605541944504,-0.01089584082365036
1733699490538095400,5.435095458984375,0.04250386357307434,-0.09628594666719437,-0.005307730752974749
1733699490548050200,5.44505029296875,0.03730027377605438,-0.07266620546579361,-0.001973492559045553
1733699490558005000,5.4550048828125,0.028005575761198997,-0.046169351786375046,0.0009567835368216038
1733699490567960300,5.464960205078125,0.017956722527742386,-0.01801748014986515,0.006101163104176521
1733699490577915100,5.4749150390625,0.008817020803689957,0.006349111441522837,0.01264881156384945
1733699490587871000,5.48487109375,0.002071252092719078,0.022776737809181213,0.013320612721145153
1733699490597826300,5.494826416015625,-0.00401194067671895,0.03576710447669029,0.012059872969985008
1733699490607781000,5.504781005859375,-0.006455390714108944,0.04240035265684128,0.010347753763198853
1733699490617736200,5.514736083984375,-0.010356921702623367,0.047133855521678925,0.007131454534828663
1733699490627691300,5.524691162109375,-0.012866099365055561,0.05188841372728348,0.006939099170267582
1733699490637646000,5.53464599609375,-0.015018465928733349,0.05170385539531708,0.00891489814966917
1733699490647601200,5.54460107421875,-0.013781446032226086,0.04617681726813316,0.0073293657042086124
1733699490657556000,5.554555908203125,-0.00938616506755352,0.0271967314183712,0.007975980639457703
1733699490667512000,5.564511962890625,-0.003317544236779213,0.0061715408228337765,0.006379761733114719
1733699490677467100,5.574467041015625,0.0053049721755087376,-0.011855929158627987,0.002651602728292346
1733699490687422200,5.584422119140625,0.012183540500700474,-0.024199560284614563,-0.0003430007491260767
1733699490697377300,5.594377197265625,0.014994241297245026,-0.025278139859437943,-0.0007035927847027779
1733699490707332000,5.60433203125,0.016896504908800125,-0.01869315467774868,-0.00026530143804848194
1733699490717287200,5.614287109375,0.015873052179813385,-0.00891615729779005,-0.0016413566190749407
1733699490727242200,5.6242421875,0.01466823648661375,0.004600184038281441,-0.006992978509515524
1733699490737197000,5.634197021484375,0.008775460533797741,0.017926109954714775,-0.007080064620822668
1733699490747153400,5.6441533203125,0.004911833442747593,0.03242534399032593,-0.009472602978348732
1733699490757108200,5.654108154296875,-0.0031508863903582096,0.04217224568128586,-0.01084120199084282
1733699490767063000,5.66406298828125,-0.010989721864461899,0.04882676526904106,-0.0077743506990373135
1733699490777018000,5.67401806640625,-0.018024727702140808,0.050104282796382904,0.0003203278174623847
1733699490786973200,5.68397314453125,-0.0178784541785717,0.04637335613369942,0.004998300690203905
1733699490796928300,5.69392822265625,-0.017535705119371414,0.03832048922777176,0.011984570883214474
1733699490806883000,5.703883056640625,-0.012373838573694229,0.023181011900305748,0.016268828883767128
1733699490816838100,5.713838134765625,-0.004325765185058117,0.0014858378563076258,0.013050133362412453
1733699490826794200,5.723794189453125,0.005766888149082661,-0.02499210275709629,0.010616163723170757
1733699490836749000,5.7337490234375,0.016036570072174072,-0.0494372583925724,0.006648053415119648
1733699490846704000,5.7437041015625,0.025570876896381378,-0.06325283646583557,0.004601280204951763
1733699490856659200,5.7536591796875,0.030054308474063873,-0.07150889933109283,0.0016859178431332111
1733699490866614000,5.763614013671875,0.03275827318429947,-0.07121049612760544,-0.00012507918290793896
1733699490876569300,5.7735693359375,0.032131895422935486,-0.0667228028178215,0.0025348858907818794
1733699490886524200,5.783524169921875,0.028110593557357788,-0.05951395630836487,0.0023943493142724037
1733699490896479200,5.793479248046875,0.022750450298190117,-0.0375727042555809,-0.0004088939167559147
1733699490906434000,5.80343408203125,0.015583689324557781,-0.025333836674690247,0.003952669911086559
1733699490916390100,5.81339013671875,0.011361779645085335,-0.015100374817848206,0.004010993055999279
1733699490926345200,5.82334521484375,0.0054816631600260735,-0.0007881895289756358,0.004782187752425671
1733699490936300300,5.83330029296875,0.002155108842998743,0.013339080847799778,0.0031331584323197603
1733699490946255000,5.843255126953125,-0.0002967207692563534,0.02498011663556099,0.0007927162805572152
1733699490956210200,5.853210205078125,-0.0031391126103699207,0.03400503471493721,-0.00014311866834759712
1733699490966165000,5.8631650390625,-0.005544537212699652,0.034237779676914215,0.003103880677372217
1733699490976120300,5.873120361328125,-0.004344250541180372,0.034663621336221695,0.007823001593351364
1733699490986075100,5.8830751953125,-0.0035597882233560085,0.03451582044363022,0.009340034797787666
1733699490996031200,5.89303125,0.00033455213997513056,0.02778228558599949,0.005134637001901865
1733699491005986300,5.902986328125,0.00612902594730258,0.008797995746135712,0.004740690812468529
1733699491015941000,5.912941162109375,0.00831654667854309,-0.010223631747066975,0.001758483238518238
1733699491025896200,5.922896240234375,0.0056480588391423225,-0.015906017273664474,-0.008333565667271614
1733699491035851300,5.932851318359375,-0.000526213669218123,-0.010638552717864513,-0.015813851729035378
1733699491045806000,5.94280615234375,-0.009723777882754803,0.009408612735569477,-0.017155922949314117
1733699491055761200,5.95276123046875,-0.016815509647130966,0.035190410912036896,-0.006703815422952175
1733699491065716200,5.96271630859375,-0.025029925629496574,0.0634625181555748,0.005860348232090473
1733699491075672000,5.972672119140625,-0.025534063577651978,0.07841750234365463,0.015703126788139343
1733699491085627100,5.982627197265625,-0.02047508768737316,0.08031867444515228,0.01548055000603199
1733699491095582200,5.992582275390625,-0.01662575453519821,0.07151559740304947,0.009597893804311752
1733699491105537300,6.002537353515625,-0.006715776864439249,0.0519581064581871,0.005494220647960901
1733699491115492000,6.0124921875,-0.0025900076143443584,0.032540999352931976,-0.002188200131058693
1733699491125447200,6.022447265625,0.003004139056429267,0.021255090832710266,-0.006258566863834858
1733699491135402200,6.03240234375,0.006060648709535599,0.0153250303119421,-0.004534436389803886
1733699491145357000,6.042357177734375,0.006266659591346979,0.013118845410645008,-0.002547267358750105
1733699491155313200,6.052313232421875,0.004704716149717569,0.00900372862815857,0.001642417861148715
1733699491165268200,6.062268310546875,0.0039647785015404224,0.002165385289117694,0.0006864641327410936
1733699491175223000,6.07222314453125,0.0033277501352131367,-0.003090096637606621,-0.0012163643259555101
1733699491185178400,6.082178466796875,0.0014762480277568102,-0.00382239930331707,-0.0036103581078350544
1733699491195133200,6.09213330078125,0.0007193777710199356,-0.005057573318481445,-0.003160017542541027
1733699491205088300,6.102088134765625,-0.00034112913999706507,-0.004199714865535498,-0.0028713971842080355
1733699491215043000,6.11204296875,0.000905496533960104,-0.003026859136298299,-0.00436649564653635
1733699491224998100,6.121998046875,-0.00022602372337132692,-0.0005594239919446409,-0.0024466966278851032
1733699491234954200,6.131954345703125,0.0013665466103702784,0.0051607792265713215,0.0003906352212652564
1733699491244909300,6.141909423828125,0.0021592462435364723,0.0039893463253974915,0.0020249609369784594
1733699491254864100,6.151864013671875,0.005184597335755825,-0.001264803810045123,0.002829235512763262
1733699491264819200,6.161819091796875,0.007765266578644514,-0.0042745498940348625,0.004676267504692078
1733699491274774000,6.17177392578125,0.00829976238310337,-0.005572574678808451,0.0012090981472283602
1733699491284729300,6.181729248046875,0.0067143794149160385,-0.009223644621670246,0.0013820022577419877
1733699491294684200,6.19168408203125,0.002788080833852291,-0.012095064856112003,0.0020536514930427074
1733699491304639000,6.201638916015625,0.0032065920531749725,-0.015821043401956558,0.004343695938587189
1733699491314595300,6.21159521484375,0.0029040570370852947,-0.014665497466921806,0.006479551084339619
1733699491324550100,6.221550048828125,0.0035598166286945343,-0.013833829201757908,0.007916850037872791
1733699491334505000,6.2315048828125,0.0064123282209038734,-0.014582443982362747,0.009191704913973808
1733699491344460300,6.241460205078125,0.00872827135026455,-0.01786983199417591,0.0051492201164364815
1733699491354415000,6.2514150390625,0.013558179140090942,-0.02303317002952099,0.00048336165491491556
1733699491364370200,6.2613701171875,0.015872303396463394,-0.02299616113305092,-0.005885684862732887
1733699491374325500,6.271325439453125,0.011659716255962849,-0.020486930385231972,-0.00569127406924963
1733699491384280300,6.2812802734375,0.004697680473327637,-0.011971472762525082,-0.004589524120092392
1733699491394235600,6.291235595703125,-0.0026936568319797516,-0.0009142942144535482,0.0017906107241287827
1733699491404191500,6.30119140625,-0.009816404432058334,0.005198284517973661,0.004845732357352972
1733699491414146600,6.311146484375,-0.012029757723212242,0.006623874418437481,0.004467563703656197
1733699491424101600,6.3211015625,-0.009311026893556118,0.013016830198466778,0.003803379600867629
1733699491434056400,6.331056396484375,-0.008642041124403477,0.014437094330787659,0.005614861845970154
1733699491444011500,6.341011474609375,-0.0040434906259179115,0.011423353105783463,0.004108442924916744
1733699491453966600,6.350966552734375,0.001900152419693768,0.003496187971904874,0.000211439561098814
1733699491463921700,6.360921630859375,0.005191359203308821,-0.004955686628818512,0.0006416180403903127
1733699491473876500,6.37087646484375,0.008410587906837463,-0.013225601054728031,-0.0003805032465606928
1733699491483832600,6.38083251953125,0.010699698701500893,-0.02016003057360649,0.0013277051039040089
1733699491493787600,6.39078759765625,0.010761484503746033,-0.02756361849606037,0.0005942705320194364
1733699491503742500,6.400742431640625,0.012748130597174168,-0.03512757271528244,0.0011156124528497458
1733699491513697500,6.410697509765625,0.013731103390455246,-0.03446764126420021,0.002954258816316724
1733699491523652600,6.420652587890625,0.014055815525352955,-0.027452297508716583,0.0027580889873206615
1733699491533607400,6.430607421875,0.011207563802599907,-0.023486584424972534,-0.000189497834071517
1733699491543562800,6.440562744140625,0.00608720863237977,-0.015441451221704483,-0.0010692360810935497
1733699491553517600,6.450517578125,0.0034650606103241444,-0.00837901420891285,-0.0034666138235479593
1733699491563473400,6.460473388671875,0.0015065011102706194,-0.004102022387087345,-0.0009119478054344654
1733699491573428700,6.4704287109375,-0.00033587380312383175,-0.00414889445528388,-0.0023101074621081352
1733699491583383600,6.480383544921875,-0.0013956730253994465,-0.009172200225293636,-0.000028302660211920738
1733699491593338400,6.49033837890625,-0.0038649558555334806,-0.009711223654448986,0.0024929121136665344
1733699491603293700,6.500293701171875,-0.0016490223351866007,-0.009775870479643345,0.0036539677530527115
1733699491613248500,6.51024853515625,0.000982979778200388,-0.008859743364155293,0.0060974182561039925
1733699491623203600,6.52020361328125,0.004278897307813168,-0.01021026261150837,0.006450642831623554
1733699491633158400,6.530158447265625,0.007752724923193455,-0.013546670787036419,0.007022423669695854
1733699491643113700,6.54011376953125,0.013411150313913822,-0.017247255891561508,0.005380521062761545
1733699491653069600,6.550069580078125,0.0191984660923481,-0.021802593022584915,0.0025370640214532614
1733699491663024600,6.560024658203125,0.021504446864128113,-0.02622554637491703,0.0034018149599432945
1733699491672979700,6.569979736328125,0.017132602632045746,-0.02894223853945732,0.005104107782244682
1733699491682934500,6.5799345703125,0.01597151719033718,-0.02530369907617569,0.008462837897241116
1733699491692889300,6.589889404296875,0.016167525202035904,-0.02838018164038658,0.009180027060210705
1733699491702844700,6.5998447265625,0.01463833823800087,-0.035865262150764465,0.005633761640638113
1733699491712799500,6.609799560546875,0.013308888301253319,-0.04555970057845116,-0.00011067674495279789
1733699491722754600,6.619754638671875,0.006545450538396835,-0.04734634608030319,-0.005095127038657665
1733699491732710700,6.629710693359375,0.0010604041162878275,-0.035158924758434296,-0.006207263097167015
1733699491742665500,6.63966552734375,-0.010177243500947952,-0.009216424077749252,-0.0044847652316093445
1733699491752620500,6.64962060546875,-0.021086616441607475,0.01583513244986534,-0.0034631765447556973
1733699491762575600,6.65957568359375,-0.02265484817326069,0.03324847295880318,-0.0004461782518774271
1733699491772530400,6.669530517578125,-0.01779884099960327,0.04640502110123634,0.006562196649610996
1733699491782485500,6.679485595703125,-0.012863717041909695,0.04860572889447212,0.009996017441153526
1733699491792440600,6.689440673828125,-0.0046430714428424835,0.0340704619884491,0.010935313999652863
1733699491802395600,6.699395751953125,0.005581531673669815,0.011792849749326706,0.007025901228189468
1733699491812351500,6.7093515625,0.012104412540793419,-0.008422939106822014,0.0014819985954090953
1733699491822306600,6.719306640625,0.01814422756433487,-0.020595503970980644,-0.0016191876493394375
1733699491832261600,6.72926171875,0.01700253039598465,-0.024440309032797813,-0.00046523986384272575
1733699491842216400,6.739216552734375,0.013953312300145626,-0.026511333882808685,0.0008013281039893627
1733699491852171800,6.749171875,0.010800662450492382,-0.02827940694987774,0.00016456632874906063
1733699491862126600,6.759126708984375,0.0074430955573916435,-0.03263504058122635,-0.0005487496964633465
1733699491872081400,6.769081298828125,0.005293658934533596,-0.037061747163534164,-0.0025290760677307844
1733699491882036500,6.779036376953125,0.0021520883310586214,-0.03574081137776375,0.0004071551375091076
1733699491891991600,6.788991455078125,0.002727064536884427,-0.033059004694223404,0.0025842892937362194
1733699491901947400,6.798947509765625,0.0033461861312389374,-0.02494105137884617,0.005854522343724966
1733699491911902700,6.80890283203125,0.006273000035434961,-0.012597566470503807,0.0070723858661949635
1733699491921857500,6.818857421875,0.009287461638450623,-0.0017367573454976082,0.00904883537441492
1733699491931812600,6.8288125,0.011576448567211628,0.003933645319193602,0.0027797543443739414
1733699491941767400,6.838767333984375,0.010929971933364868,0.00828309915959835,-0.0019695458468049765
1733699491951722500,6.848722412109375,0.007692900486290455,0.017777536064386368,-0.005703830160200596
1733699491961677600,6.858677490234375,0.0014423722168430686,0.02563948929309845,-0.002902708947658539
1733699491971633400,6.86863330078125,-0.0042354874312877655,0.029219044372439384,-0.0014339752960950136
1733699491981588500,6.87858837890625,-0.01212733332067728,0.023063309490680695,-0.00009699747897684574
1733699491991543600,6.88854345703125,-0.013673031702637672,0.018558040261268616,0.0005589391803368926
1733699492001498400,6.898498291015625,-0.012981841340661049,0.016302181407809258,0.0023535722866654396
1733699492011453700,6.90845361328125,-0.00823369063436985,0.014122383669018745,0.004214855842292309
1733699492021408500,6.918408447265625,-0.004217430949211121,0.012602122500538826,0.004089468624442816
1733699492031363600,6.928363525390625,0.004745704121887684,0.006272055208683014,0.004257514141499996
1733699492041318700,6.938318603515625,0.009733857586979866,0.0014955380465835333,0.001322396332398057
1733699492051273500,6.9482734375,0.013925140723586082,-0.0034132006112486124,-0.0004323604516685009
1733699492061229600,6.9582294921875,0.011076288297772408,-0.0037033772096037865,0.00030946533661335707
1733699492071184600,6.9681845703125,0.004726514220237732,-0.007655508350580931,0.0005329045234248042
1733699492081139500,6.978139404296875,0.00019555469043552876,-0.01053775567561388,0.0016638925299048424
1733699492091094500,6.988094482421875,-0.007014421280473471,-0.014803074300289154,0.0043366411700844765
1733699492101049600,6.998049560546875,-0.006020477972924709,-0.019433917477726936,0.00442101527005434
1733699492111004700,7.008004638671875,-0.004367986228317022,-0.021659785881638527,0.004043378867208958
1733699492120959500,7.01795947265625,0.000016675912775099277,-0.020037975162267685,0.004712962545454502
1733699492130914600,7.02791455078125,0.004411956761032343,-0.018109047785401344,0.003614408429712057
1733699492140870700,7.03787060546875,0.008447911590337753,-0.011694449931383133,0.0031290510669350624
1733699492150825500,7.047825439453125,0.01149217039346695,-0.004839739762246609,0.0023641909938305616
1733699492160780500,7.057780517578125,0.013202181085944176,-0.0036896741949021816,0.0004968073917552829
1733699492170735600,7.067735595703125,0.012938528321683407,-0.0019951045978814363,0.0009239783976227045
1733699492180690400,7.0776904296875,0.00943916104733944,0.002221281873062253,-0.000500950263813138
1733699492190645500,7.0876455078125,0.0005013258196413517,0.00005852867616340518,-0.000640499871224165
1733699492200600600,7.0976005859375,-0.0050697289407253265,0.0010372701799497008,0.0002827289281412959
1733699492210555600,7.1075556640625,-0.011552128940820694,0.004422680474817753,0.0018763645784929395
1733699492220510500,7.117510498046875,-0.014668242074549198,0.008748049847781658,0.0010688458569347858
1733699492230466600,7.127466552734375,-0.013294316828250885,0.010956075973808765,0.0010296973632648587
1733699492240421600,7.137421630859375,-0.006555395200848579,0.010556884109973907,0.00014652032405138016
1733699492250376400,7.14737646484375,-0.0008229411905631423,0.008850330486893654,-0.00023324647918343544
1733699492260331500,7.15733154296875,-0.0009150352561846375,0.007541782688349485,-0.0018101525492966175
1733699492270286600,7.16728662109375,0.0017531858757138252,0.007643515709787607,-0.002403504680842161
1733699492280241400,7.177241455078125,0.000542492838576436,0.007866239175200462,-0.0023104476276785135
1733699492290196700,7.18719677734375,-0.0015326421707868576,0.010892655700445175,-0.0010955135803669691
1733699492300151600,7.197151611328125,-0.004714710172265768,0.010960924439132214,0.00025438633747398853
1733699492310107400,7.207107421875,-0.003301370656117797,0.014040869660675526,0.00006530201062560081
1733699492320062700,7.217062744140625,-0.0012415254022926092,0.012994901277124882,-0.0005798602942377329
1733699492330017500,7.227017578125,-0.00013205246068537235,0.0055311257019639015,-0.0032464833930134773
1733699492339972600,7.23697265625,-0.0010078236227855086,0.0017833507154136896,-0.0013687454629689455
1733699492349927700,7.246927734375,0.0013916845200583339,0.0022139837965369225,0.001117049134336412
1733699492359882500,7.256882568359375,0.003451002761721611,0.0007090395665727556,0.00279360543936491
1733699492369837800,7.266837890625,0.007973582483828068,0.0016017311718314886,0.0045832497999072075
1733699492379792600,7.276792724609375,0.007652918808162212,0.003023942466825247,0.007808450609445572
1733699492389748700,7.286748779296875,0.00968997087329626,0.0017152652144432068,0.005292030051350594
1733699492399703800,7.296703857421875,0.0064733861945569515,-0.0050890278071165085,0.0027970278169959784
1733699492409658600,7.30665869140625,0.007615882437676191,-0.015704654157161713,0.00044226087629795074
1733699492419614000,7.316614013671875,0.00262510497123003,-0.023796964436769485,-0.0055678728967905045
1733699492429568800,7.32656884765625,-0.0032825854141265154,-0.02653229609131813,-0.0066856020130217075
1733699492439523600,7.336523681640625,-0.013664638623595238,-0.02221330814063549,-0.006015078630298376
1733699492449479000,7.34647900390625,-0.017806386575102806,-0.010539340786635876,-0.00424753874540329
1733699492459433700,7.356433837890625,-0.019117655232548714,0.0012734325136989355,0.0010989013826474547
1733699492469388800,7.366388916015625,-0.01639643870294094,0.014355945400893688,0.005593518260866404
1733699492479345000,7.376344970703125,-0.007874315604567528,0.028045687824487686,0.009346886537969112
1733699492489299700,7.3862998046875,-0.0015248070703819394,0.02795301005244255,0.011691267602145672
1733699492499254800,7.3962548828125,0.008009514771401882,0.014895361848175526,0.008013540878891945
1733699492509209900,7.4062099609375,0.015138797461986542,-0.006545214913785458,0.0032459499780088663
1733699492519165000,7.4161650390625,0.017638830468058586,-0.024680214002728462,-0.000299219973385334
1733699492529119700,7.42611962890625,0.01541136298328638,-0.03145875781774521,0.004363442305475473
1733699492539074600,7.436074462890625,0.011471779085695744,-0.030256005004048347,0.0045934030786156654
1733699492549030000,7.44602978515625,0.0070772962644696236,-0.026753416284918785,0.0030615529976785183
1733699492558985700,7.45598583984375,0.0039069559425115585,-0.020473826676607132,-0.00026594684459269047
1733699492568940500,7.4659404296875,0.0027636606246232986,-0.007953507825732231,-0.0024279009085148573
1733699492578896000,7.475895751953125,-0.0010611909674480557,0.010327045805752277,-0.003974552266299725
1733699492588850700,7.4858505859375,-0.004904665052890778,0.019120005890727043,-0.003265086095780134
1733699492598805800,7.4958056640625,-0.009108863770961761,0.020408770069479942,-0.003095409134402871
1733699492608760800,7.5057607421875,-0.010221798904240131,0.01961834356188774,-0.002043726621195674
1733699492618715600,7.515715576171875,-0.011328071355819702,0.017454402521252632,0.0017986175371333957
1733699492628670700,7.525670654296875,-0.00649949349462986,0.01310412771999836,-0.00024163024500012398
1733699492638625800,7.535625732421875,-0.0034925141371786594,0.004072437062859535,-0.0016952089499682188
1733699492648581600,7.54558154296875,0.0006787950405851007,-0.004284029360860586,0.001603915123268962
1733699492658536700,7.55553662109375,0.006339558865875006,-0.006556634325534105,0.004060197155922651
1733699492668491800,7.56549169921875,0.0075180078856647015,-0.013133044354617596,0.0018463112646713853
1733699492678446800,7.57544677734375,0.007772618439048529,-0.023810692131519318,0.0013679189141839743
1733699492688401700,7.585401611328125,0.006105745676904917,-0.025310849770903587,0.004952533636242151
1733699492698357000,7.59535693359375,0.007811201736330986,-0.02466258406639099,0.0052174534648656845
1733699492708311800,7.605311767578125,0.004037502221763134,-0.019805511459708214,0.005129302851855755
1733699492718266600,7.6152666015625,0.00749374320730567,-0.01386376190930605,0.007105191703885794
1733699492728222700,7.62522265625,0.0045701246708631516,-0.0055664172396063805,0.006169623229652643
1733699492738177800,7.635177734375,0.0020587167236953974,0.003979164641350508,0.003875826019793749
1733699492748132600,7.645132568359375,-0.001762653118930757,0.013165206648409367,0.0029154904186725616
1733699492758088000,7.655087890625,-0.009021144360303879,0.024322278797626495,0.003133893245831132
1733699492768042800,7.665042724609375,-0.01823834516108036,0.029371896758675575,0.004458283074200153
1733699492777997800,7.674997802734375,-0.024345066398382187,0.02815913036465645,0.006959531921893358
1733699492787952600,7.68495263671875,-0.03340380638837814,0.020375510677695274,0.006935563404113054
1733699492797907700,7.69490771484375,-0.04068077355623245,0.006163459736853838,0.005258893594145775
1733699492807863800,7.70486376953125,-0.04928597807884216,-0.00861016009002924,-0.00013320846483111382
1733699492817818600,7.714818603515625,-0.05918564274907112,-0.009921775199472904,-0.007508663460612297
1733699492827773700,7.724773681640625,-0.06268370151519775,-0.0003066980862058699,-0.012903961353003979
1733699492837728800,7.734728759765625,-0.05945263430476189,0.02948972024023533,-0.015529514290392399
1733699492847683600,7.74468359375,-0.04533548280596733,0.0731021836400032,-0.013773960061371326
1733699492857639000,7.754638916015625,-0.029567014425992966,0.10874524712562561,-0.015705959871411324
1733699492867593700,7.76459375,-0.016567857936024666,0.1292680948972702,-0.01646043360233307
1733699492877548800,7.774548828125,-0.014841912314295769,0.13821953535079956,-0.020906824618577957
1733699492887504000,7.78450390625,-0.022635120898485184,0.13189347088336945,-0.026419835165143013
1733699492897459700,7.794459716796875,-0.027301032096147537,0.12114162743091583,-0.025831228122115135
1733699492907414800,7.804414794921875,-0.03358982130885124,0.1115017831325531,-0.017049454152584076
1733699492917369900,7.814369873046875,-0.03664214536547661,0.10088329762220383,-0.0016910841222852468
1733699492927324700,7.82432470703125,-0.03424663469195366,0.08456876873970032,0.013857781887054443
1733699492937279700,7.83427978515625,-0.029862551018595695,0.05306461080908775,0.017225170508027077
1733699492947234800,7.84423486328125,-0.0209305752068758,0.017095424234867096,0.013470912352204323
1733699492957190000,7.85418994140625,-0.008911832235753536,-0.01951530948281288,0.0045366366393864155
1733699492967144700,7.864144775390625,0.0029546809382736683,-0.04611203074455261,-0.007426549680531025
1733699492977099800,7.874099853515625,0.013810811564326286,-0.05977493152022362,-0.013578830286860466
1733699492987055900,7.884055908203125,0.0240061916410923,-0.06124313175678253,-0.013526098802685738
1733699492997010700,7.8940107421875,0.02802264876663685,-0.05626372992992401,-0.010470977053046227
1733699493006965800,7.9039658203125,0.029439983889460564,-0.039567574858665466,-0.006913261022418737
1733699493016920800,7.9139208984375,0.029198547825217247,-0.024768363684415817,-0.0036095292307436466
1733699493026875600,7.923875732421875,0.02193291112780571,-0.013549000024795532,-0.0035639889538288116
1733699493036830700,7.933830810546875,0.011639629490673542,-0.010969347320497036,-0.001542148645967245
1733699493046785800,7.943785888671875,0.0027031260542571545,-0.007251041475683451,-0.0006502559408545494
1733699493056740900,7.953740966796875,-0.0030631087720394135,-0.004247019533067942,0.0018440352287143469
1733699493066696700,7.96369677734375,-0.005916685797274113,-0.0008861104142852128,0.0035394036676734686
1733699493076651800,7.97365185546875,-0.00841190479695797,-0.0007058063638396561,0.0032332371920347214
1733699493086606800,7.98360693359375,-0.006823329720646143,-0.004231032449752092,0.00187768810428679
1733699493096561700,7.993561767578125,-0.005983920767903328,-0.013136292807757854,-0.00015951739624142647
1733699493106516700,8.003516845703125,-0.0035348781384527683,-0.012323496863245964,-0.002266343915835023
1733699493116471800,8.013471923828124,0.0001118705840781331,-0.01050489116460085,-0.0040953210555016994
1733699493126426600,8.023426513671875,0.0033012721687555313,-0.008920044638216496,-0.001823910977691412
1733699493136382000,8.0333818359375,0.006127213127911091,-0.005023414734750986,0.0005016890354454517
1733699493146336800,8.043336669921874,0.009720883332192898,-0.00479251891374588,0.003599477931857109
1733699493156292600,8.053292724609374,0.009227346628904343,-0.004397434648126364,0.0077207679860293865
1733699493166248000,8.063248046875,0.01168411411345005,-0.00590797932818532,0.007160705514252186
1733699493176202800,8.07320263671875,0.012295185588300228,-0.005369929596781731,0.0053640808910131454
1733699493186157800,8.08315771484375,0.015080851502716541,-0.010649113915860653,0.0037837610580027103
1733699493196113000,8.09311279296875,0.015092262998223305,-0.016564246267080307,0.0018947666976600885
1733699493206067700,8.103067626953125,0.016098670661449432,-0.014884858392179012,0.0005815619369968772
1733699493216022800,8.113022705078125,0.01546835619956255,-0.015117478556931019,0.0008191083325073123
1733699493225977600,8.1229775390625,0.014963421039283276,-0.015530268661677837,-0.0009630790445953608
1733699493235933700,8.13293359375,0.008379560895264149,-0.01839473471045494,-0.005123826675117016
1733699493245888800,8.142888671875,0.0019054162548854947,-0.016795773059129715,-0.009354524314403534
1733699493255843600,8.152843505859375,-0.005822942592203617,-0.010199450887739658,-0.01236153207719326
1733699493265799000,8.162798828125,-0.014943203888833523,-0.0022837375290691853,-0.01031302846968174
1733699493275753700,8.172753662109375,-0.020984409376978874,0.011126238852739334,-0.007865509018301964
1733699493285708500,8.18270849609375,-0.019909292459487915,0.021782610565423965,-0.0035719608422368765
1733699493295663900,8.192663818359375,-0.01832721196115017,0.024244854226708412,-0.0009116986766457558
1733699493305618700,8.20261865234375,-0.015415843576192856,0.020115623250603676,0.0018904793541878462
1733699493315573800,8.21257373046875,-0.01375635713338852,0.012329918332397938,0.0023009772412478924
1733699493325529900,8.22252978515625,-0.0065658213570714,0.0018786084838211536,0.001471935072913766
1733699493335484700,8.232484619140624,0.00027605355717241764,-0.003230795031413436,0.0005436056526377797
1733699493345439700,8.242439697265626,0.009938535280525684,-0.0073863910511136055,0.002704760991036892
1733699493355394800,8.252394775390625,0.013920455239713192,-0.01484774611890316,0.0026581822894513607
1733699493365350000,8.262349853515625,0.01923985406756401,-0.0227874293923378,0.0010866507655009627
1733699493375304400,8.272304443359374,0.022597644478082657,-0.026659855619072914,-0.00018020067363977432
1733699493385259300,8.28225927734375,0.02334519475698471,-0.030345402657985687,-0.0020036669448018074
1733699493395214600,8.292214599609375,0.021333832293748856,-0.03397591784596443,-0.0070558940060436726
1733699493405169400,8.30216943359375,0.018550295382738113,-0.03205418214201927,-0.008343266323208809
1733699493415125500,8.31212548828125,0.013196256011724472,-0.03150921314954758,-0.0071958634071052074
1733699493425080600,8.32208056640625,0.006686158943921328,-0.0209998469799757,-0.006086922716349363
1733699493435035400,8.332035400390625,-0.0015633201692253351,-0.008102203719317913,-0.00231173075735569
1733699493444990500,8.341990478515624,-0.005465916357934475,0.003356046974658966,0.002869182964786887
1733699493454945500,8.351945556640626,-0.004818878136575222,0.011269484646618366,0.004053878132253885
1733699493464900600,8.361900634765625,-0.004042034037411213,0.016397401690483093,0.0025023203343153
1733699493474855400,8.37185546875,-0.00343302171677351,0.011555644683539867,0.001707148738205433
1733699493484810500,8.381810546875,0.0009039359865710139,0.007356106769293547,-0.0008396322373300791
1733699493494765600,8.391765625,0.0020813075825572014,-0.0023439545184373856,-0.0012557951267808676
1733699493504721400,8.401721435546875,0.005345810670405626,-0.013657329604029655,-0.000998800154775381
1733699493514676500,8.411676513671875,0.006890653166919947,-0.023672837764024734,0.0008732757996767759
1733699493524631600,8.421631591796874,0.008134881034493446,-0.030676953494548798,0.0012698203790932894
1733699493534586400,8.43158642578125,0.005547124892473221,-0.042328573763370514,0.0011480867397040129
1733699493544541700,8.441541748046875,0.003680515568703413,-0.04908448085188866,-0.0004708489868789911
1733699493554496500,8.45149658203125,0.0020051333121955395,-0.05075998604297638,0.00006735417991876602
1733699493564451600,8.46145166015625,0.0032821190543472767,-0.04855222627520561,0.00005004345439374447
1733699493574406700,8.47140673828125,0.0028308758046478033,-0.04347741976380348,0.0022836667485535145
1733699493584362500,8.481362548828125,0.006392853334546089,-0.03924619033932686,0.0043950206600129604
1733699493594317300,8.4913173828125,0.007749456446617842,-0.03790665045380592,0.0033562108874320984
1733699493604272600,8.501272705078126,0.01016254723072052,-0.03909415379166603,-0.0012824831064790487
1733699493614227500,8.5112275390625,0.010644681751728058,-0.03942945599555969,-0.0056104836985468864
1733699493624182500,8.5211826171875,0.013177081942558289,-0.03490873798727989,-0.008887503296136856
1733699493634137300,8.531137451171874,0.007613779045641422,-0.025643767789006233,-0.008587855845689774
1733699493644092700,8.5410927734375,-0.0009884970495477319,-0.025974798947572708,-0.005620029754936695
1733699493654047500,8.551047607421875,-0.006116935983300209,-0.01911340095102787,-0.003032858483493328
1733699493664002300,8.561002197265625,-0.011784941889345646,-0.0021312215831130743,0.0032522017136216164
1733699493673958700,8.570958740234374,-0.011642052792012691,0.011392135173082352,0.006531562190502882
1733699493683913500,8.58091357421875,-0.0069684721529483795,0.010652309283614159,0.00290140719152987
1733699493693868300,8.590868408203125,-0.004029140807688236,-0.0020328594837337732,-0.0002714828588068485
1733699493703823600,8.60082373046875,0.0001975620398297906,-0.010318486019968987,-0.002513331826776266
1733699493713778400,8.6107783203125,0.009172772988677025,-0.024470029398798943,-0.006657750811427832
1733699493723733500,8.6207333984375,0.01624053716659546,-0.035625211894512177,-0.010641040280461311
1733699493733688600,8.6306884765625,0.02547280490398407,-0.0498889796435833,-0.012878508307039738
1733699493743643600,8.6406435546875,0.030580483376979828,-0.05693703517317772,-0.019750796258449554
1733699493753598500,8.650598388671876,0.03207851201295853,-0.05470424145460129,-0.02556793764233589
1733699493763554600,8.660554443359375,0.03118901327252388,-0.05356121435761452,-0.03200719505548477
1733699493773509400,8.67050927734375,0.027544107288122177,-0.04705563560128212,-0.03433496505022049
1733699493783464400,8.68046435546875,0.023258281871676445,-0.03430308774113655,-0.03765326365828514
1733699493793419500,8.69041943359375,0.019808486104011536,-0.016586927697062492,-0.03746798262000084
1733699493803374600,8.70037451171875,0.017342133447527885,0.0024482824373990297,-0.03489110618829727
1733699493813329400,8.710329345703125,0.015691405162215233,0.015081936493515968,-0.03883202373981476
1733699493823284500,8.720284423828126,0.004008915740996599,0.07123894989490509,-0.06915237754583359
1733699493833239600,8.730239501953125,-0.006172791123390198,0.08715636283159256,-0.09194371104240417
1733699493843195400,8.7401953125,-0.0006302200490608811,0.06718797981739044,-0.07663106918334961
1733699493853150700,8.750150634765625,0.007010739296674728,0.05801811441779137,-0.04592101648449898
1733699493863105500,8.76010546875,0.01592274196445942,0.08075085282325745,-0.02577979490160942
1733699493873060400,8.770060302734375,0.027875477448105812,0.11021365225315094,-0.015347589738667011
1733699493883015400,8.780015380859375,0.030341830104589462,0.12031688541173935,-0.01807626336812973
1733699493892970500,8.789970458984374,0.01768125593662262,0.10369154065847397,-0.02796245738863945
1733699493902925600,8.799925537109376,-0.005287976004183292,0.08174335956573486,-0.04324261099100113
1733699493912880400,8.80988037109375,-0.027854494750499725,0.07694364339113235,-0.05019022524356842
1733699493922835700,8.819835693359375,-0.044291526079177856,0.09965161979198456,-0.04291500151157379
1733699493932791600,8.82979150390625,-0.05263380706310272,0.13661809265613556,-0.028813257813453674
1733699493942746400,8.839746337890626,-0.05710418522357941,0.1709108054637909,-0.009474447928369045
1733699493952701700,8.84970166015625,-0.06178263574838638,0.18852317333221436,-0.0020194987300783396
1733699493962656500,8.859656494140625,-0.06427828222513199,0.18397636711597443,-0.002453594235703349
1733699493972611300,8.869611328125,-0.06037461385130882,0.164162740111351,-0.005726709496229887
1733699493982566700,8.879566650390625,-0.04921304062008858,0.1301720142364502,-0.004221491049975157
1733699493992521500,8.889521484375,-0.03430953994393349,0.08571521937847137,-0.002273577731102705
1733699494002476500,8.8994765625,-0.017273299396038055,0.036460328847169876,0.00033472233917564154
1733699494012431600,8.909431640625,-0.001939858659170568,-0.010343840345740318,0.005054904147982597
1733699494022387500,8.919387451171875,0.014613018371164799,-0.04951680824160576,0.007795562967658043
1733699494032342500,8.929342529296875,0.028908567503094673,-0.0772586390376091,0.006785361096262932
1733699494042297600,8.939297607421874,0.041021957993507385,-0.0975511223077774,0.005432208999991417
1733699494052252400,8.94925244140625,0.04351327195763588,-0.10939584672451019,0.004237676039338112
1733699494062207500,8.95920751953125,0.045166295021772385,-0.1113910898566246,0.0027590892277657986
1733699494072162300,8.969162353515625,0.040180008858442307,-0.1083432286977768,0.0018781641265377402
1733699494082117600,8.97911767578125,0.03268533945083618,-0.09519919753074646,-0.0005389207508414984
1733699494092072400,8.989072509765625,0.02383015677332878,-0.07215916365385056,-0.0038793315179646015
1733699494102027500,8.999027587890625,0.019533412531018257,-0.03368474170565605,-0.009744944050908089
1733699494111983600,9.008983642578125,0.01491541787981987,0.01658317632973194,-0.012544563971459866
1733699494121938400,9.0189384765625,0.012118833139538765,0.07802630215883255,-0.013351768255233765
1733699494131893500,9.0288935546875,0.0031976127065718174,0.1337745040655136,-0.012199780903756618
1733699494141848600,9.0388486328125,-0.0050600506365299225,0.17287395894527435,-0.010901490226387978
1733699494151803400,9.048803466796874,-0.01927945390343666,0.18764081597328186,-0.006196505390107632
1733699494161758500,9.058758544921876,-0.03730852156877518,0.1827602982521057,-0.0013476887252181768
1733699494171713500,9.068713623046875,-0.05614246800541878,0.16016626358032227,0.002416584175080061
1733699494181668600,9.078668701171875,-0.06402968615293503,0.12368869036436081,0.0028562722727656364
1733699494191623400,9.08862353515625,-0.06809856742620468,0.08536941558122635,0.00013135629706084728
1733699494201579500,9.09857958984375,-0.06603355705738068,0.05688877031207085,-0.0005946212913841009
1733699494211534600,9.10853466796875,-0.05829153209924698,0.03198143094778061,-0.004265207797288895
1733699494221489400,9.118489501953125,-0.04617893695831299,0.014613624662160873,-0.004551231861114502
1733699494231444500,9.128444580078124,-0.03289434313774109,0.0016862449701875448,-0.005793547257781029
1733699494241399600,9.138399658203125,-0.015377135947346687,-0.010721156373620033,-0.003119200933724642
1733699494251354400,9.148354248046875,0.0003757899394258857,-0.023348253220319748,-0.005429831333458424
1733699494261309700,9.158309814453125,0.017154237255454063,-0.03599001094698906,-0.00703012477606535
1733699494271264500,9.168264404296876,0.028909869492053986,-0.05137745290994644,-0.010447751730680466
1733699494281219600,9.178219482421875,0.03704396262764931,-0.06439578533172607,-0.01251862570643425
1733699494291175700,9.18817578125,0.03991490229964256,-0.07049775123596191,-0.013860108330845833
1733699494301130500,9.198130615234374,0.03383570536971092,-0.0671917051076889,-0.014134680852293968
1733699494311085600,9.20808544921875,0.021375929936766624,-0.05337047204375267,-0.01662767305970192
1733699494321040400,9.218040283203125,0.01779184862971306,-0.0383201502263546,-0.01896592788398266
1733699494330995500,9.227995361328125,0.01694028452038765,-0.016800597310066223,-0.024311544373631477
1733699494340950500,9.237950439453124,0.02126792073249817,0.028153028339147568,-0.04712151736021042
1733699494350905300,9.2479052734375,0.019199274480342865,0.09860718250274658,-0.08572591096162796
1733699494360860700,9.257860595703125,0.010433745570480824,0.17926155030727386,-0.14077824354171753
1733699494370815700,9.267815673828125,-0.0051955850794911385,0.26572951674461365,-0.1949518620967865
1733699494380771800,9.277771728515624,-0.02064484916627407,0.31451863050460815,-0.19725923240184784
1733699494390727000,9.287726806640626,-0.04006341099739075,0.3518218994140625,-0.15070776641368866
1733699494400681700,9.297681640625,-0.06920957565307617,0.39424124360084534,-0.08930112421512604
1733699494410636800,9.30763671875,-0.10069107264280319,0.4110835790634155,-0.036825843155384064
1733699494420591900,9.317591796875,-0.1217510849237442,0.390760213136673,-0.010156415402889252
1733699494430546700,9.327546630859375,-0.12814614176750183,0.34459537267684937,-0.0033794702030718327
1733699494440501800,9.337501708984375,-0.12299318611621857,0.29107996821403503,-0.007357966620475054
1733699494450456800,9.347456787109374,-0.1046968549489975,0.23349107801914215,-0.013492971658706665
1733699494460412000,9.357411865234376,-0.0798407793045044,0.18462952971458435,-0.01972397044301033
1733699494470368000,9.367367919921875,-0.04888908565044403,0.12238184362649918,-0.02394861914217472
1733699494480322800,9.37732275390625,-0.021007124334573746,0.06614493578672409,-0.030096525326371193
1733699494490278000,9.38727783203125,0.004504338838160038,-0.003902504686266184,-0.02684602700173855
1733699494500232700,9.397232666015626,0.03060917556285858,-0.05731166899204254,-0.02186351828277111
1733699494510187800,9.407187744140625,0.05514541640877724,-0.09924550354480743,-0.014009946957230568
1733699494520142800,9.417142822265625,0.07345518469810486,-0.13303889334201813,-0.014041107147932053
1733699494530097700,9.42709765625,0.08392911404371262,-0.16054339706897736,-0.015186152420938015
1733699494540053000,9.437052978515625,0.08796859532594681,-0.18092404305934906,-0.018456514924764633
1733699494550007800,9.4470078125,0.0833841860294342,-0.18679948151111603,-0.018885521218180656
1733699494559963600,9.456963623046875,0.07331956923007965,-0.17610342800617218,-0.02005704492330551
1733699494569919000,9.4669189453125,0.06177636981010437,-0.1529187262058258,-0.02046433463692665
1733699494579873800,9.476873779296875,0.049352727830410004,-0.11194092035293579,-0.026730485260486603
1733699494589828600,9.48682861328125,0.033371638506650925,-0.0510714165866375,-0.03831479325890541
1733699494599784000,9.496783935546874,0.017978033050894737,0.01811937242746353,-0.05573799088597298
1733699494609738800,9.50673876953125,-0.004011091310530901,0.07800722122192383,-0.07196390628814697
1733699494619693800,9.51669384765625,-0.018360735848546028,0.12689167261123657,-0.07752831280231476
1733699494629648600,9.526648681640625,-0.03492403030395508,0.16887341439723969,-0.07008491456508636
1733699494639604700,9.536604736328124,-0.04467945545911789,0.19992613792419434,-0.05414722487330437
1733699494649559800,9.546559814453126,-0.051188405603170395,0.22531770169734955,-0.041058506816625595
1733699494659515000,9.556514892578125,-0.050661101937294006,0.23867745697498322,-0.03848269581794739
1733699494669470000,9.566469970703125,-0.04020969197154045,0.21384720504283905,-0.03534505516290665
1733699494679424800,9.5764248046875,-0.0306934155523777,0.17145153880119324,-0.033712539821863174
1733699494689379600,9.586379638671875,-0.02446840889751911,0.11509564518928528,-0.030078351497650146
1733699494699335000,9.5963349609375,-0.021766364574432373,0.05501100793480873,-0.022801531478762627
1733699494709289700,9.606289794921874,-0.017154661938548088,0.010820416733622551,-0.022888612002134323
1733699494719244800,9.616244873046876,-0.005873778369277716,-0.028806088492274284,-0.022284604609012604
1733699494729199900,9.626199951171875,0.008045203052461147,-0.060936570167541504,-0.020364969968795776
1733699494739155700,9.63615576171875,0.02693500556051731,-0.08085515350103378,-0.023177001625299454
1733699494749110800,9.64611083984375,0.03874996304512024,-0.09514908492565155,-0.02571287751197815
1733699494759065900,9.65606591796875,0.0475357323884964,-0.11090727895498276,-0.028206661343574524
1733699494769020700,9.666020751953125,0.047628019005060196,-0.1192210391163826,-0.02839713543653488
1733699494778975700,9.675975830078125,0.038651835173368454,-0.11544574052095413,-0.028469307348132133
1733699494788930800,9.685930908203124,0.02435121312737465,-0.09883435815572739,-0.019494298845529556
1733699494798886000,9.695885986328125,0.005998838692903519,-0.06215810775756836,-0.008997716009616852
1733699494808840700,9.7058408203125,-0.006291678640991449,-0.016384704038500786,0.00391029566526413
1733699494818795800,9.715795654296874,-0.01608438789844513,0.026647984981536865,0.013495544902980328
1733699494828752000,9.725751953125,-0.02329811453819275,0.0603485070168972,0.020874477922916412
1733699494838706700,9.735706787109375,-0.027423350140452385,0.07264193147420883,0.025460973381996155
1733699494848662000,9.745662109375,-0.027154168114066124,0.0735069066286087,0.023002147674560547
1733699494858616800,9.755616943359374,-0.027475345879793167,0.06217195838689804,0.023190699517726898
1733699494868571600,9.765571533203126,-0.027392221614718437,0.043396178632974625,0.021626051515340805
1733699494878526700,9.775526611328125,-0.02801380306482315,0.024729017168283463,0.021087560802698135
1733699494888481800,9.785481689453125,-0.02141021005809307,0.01284981332719326,0.02180607244372368
1733699494898436900,9.795436767578124,-0.015092393383383751,0.010381328873336315,0.025811200961470604
1733699494908391700,9.8053916015625,-0.008750034496188164,0.014138615690171719,0.029306907206773758
1733699494918347800,9.81534765625,0.0009111147373914719,0.019370395690202713,0.031595628708601
1733699494928302800,9.825302734375,0.007444251794368029,0.01860133558511734,0.030444378033280373
1733699494938257700,9.835257568359374,0.016055848449468613,0.009216089732944965,0.025037629529833794
1733699494948212700,9.845212646484375,0.014921343885362148,-0.0017220454756170511,0.021503614261746407
1733699494958167800,9.855167724609375,0.017205270007252693,-0.01133312750607729,0.01845802366733551
1733699494968122600,9.86512255859375,0.014349512755870819,-0.016007903963327408,0.013147462159395218
1733699494978078000,9.875077880859376,0.008233031257987022,-0.01565476879477501,0.011340774595737457
1733699494988032800,9.88503271484375,-0.00043798121623694897,-0.007798655889928341,0.010473054833710194
1733699494997987800,9.89498779296875,-0.005754715763032436,0.0016031012637540698,0.009882098995149136
1733699495007944000,9.90494384765625,-0.01019308716058731,0.01053683552891016,0.008693122304975986
1733699495017898800,9.914898681640626,-0.013628831133246422,0.0190576184540987,0.007041163742542267
1733699495027853800,9.924853759765625,-0.012513693422079086,0.030998213216662407,0.00795473251491785
1733699495037809000,9.934808837890625,-0.016585400328040123,0.040680669248104095,0.007600532844662666
1733699495047763700,9.944763671875,-0.01802568882703781,0.05013955384492874,0.009844294749200344
1733699495057718800,9.95471875,-0.02024809643626213,0.05373002961277962,0.010518074035644531
1733699495067673600,9.964673583984375,-0.01922810636460781,0.04911983013153076,0.012956731021404266
1733699495077629000,9.97462890625,-0.017075205221772194,0.04067281633615494,0.012748472392559052
1733699495087583700,9.984583740234376,-0.011694446206092834,0.030137106776237488,0.012123506516218185
1733699495097539800,9.994539794921875,-0.004899124149233103,0.024750331416726112,0.011574894189834595
1733699495107495000,10.004494873046875,0.0013060994679108262,0.01850307174026966,0.007787634618580341
1733699495117449700,10.01444970703125,0.005480071995407343,0.009277882985770702,0.005932742729783058
1733699495127404800,10.02440478515625,0.009420317597687244,-0.004142858553677797,0.0060287839733064175
1733699495137360000,10.03435986328125,0.008955862373113632,-0.015958506613969803,0.008573167957365513
1733699495147314700,10.044314697265625,0.009171600453555584,-0.020989300683140755,0.010454313829541206
1733699495157269800,10.054269775390624,0.012245954014360905,-0.018335727974772453,0.016089828684926033
1733699495167224800,10.064224853515626,0.020286787301301956,-0.009467263706028461,0.017856618389487267
1733699495177180000,10.074179931640625,0.02216884307563305,0.007272568065673113,0.014228329062461853
1733699495187135700,10.0841357421875,0.02708357572555542,0.024958057329058647,0.007346061524003744
1733699495197090800,10.0940908203125,0.029988551512360573,0.043645456433296204,0.0027177538722753525
1733699495207046000,10.1040458984375,0.027270231395959854,0.06083967909216881,0.0028548429254442453
1733699495217000700,10.114000732421875,0.019496731460094452,0.06255635619163513,0.003050318919122219
1733699495226955800,10.123955810546875,0.01209559291601181,0.041034676134586334,0.008114537224173546
1733699495236910800,10.133910888671876,0.009057724848389626,0.02742885611951351,0.008429855108261108
1733699495246865700,10.14386572265625,0.0016551222652196884,0.018658457323908806,0.01204055454581976
1733699495256821000,10.153821044921875,-0.003931923303753138,0.021618293598294258,0.013857097364962101
1733699495266775800,10.16377587890625,-0.008835989981889725,0.03729721158742905,0.014073289930820465
1733699495276731600,10.173731689453126,-0.005699585657566786,0.04356549307703972,0.015633635222911835
1733699495286687000,10.18368701171875,-0.0007173153571784496,0.03877335041761398,0.01209489069879055
1733699495296641800,10.193641845703125,0.003137077670544386,0.02401783876121044,0.0009114780696108937
1733699495306596900,10.203596923828124,0.0002503336872905493,0.009304583072662354,-0.012358464300632477
1733699495316551700,10.2135517578125,-0.006424080580472946,-0.0024127934593707323,-0.015133478678762913
1733699495326506800,10.2235068359375,-0.012361220084130764,0.012406746856868267,-0.010152328759431839
1733699495336461800,10.2334619140625,-0.01891712285578251,0.0341075137257576,0.0046417973935604095
1733699495346416600,10.243416748046876,-0.026285575702786446,0.056030236184597015,0.02028575912117958
1733699495356372000,10.2533720703125,-0.0299247857183218,0.07154901325702667,0.029155150055885315
1733699495366327800,10.263327880859375,-0.03022518940269947,0.07518236339092255,0.02821292355656624
1733699495376281900,10.27328173828125,-0.021156061440706253,0.07068748027086258,0.023198455572128296
1733699495386237000,10.28323681640625,-0.013402950949966908,0.07344798743724823,0.01167830266058445
1733699495396192000,10.29319189453125,-0.006935196928679943,0.07560674846172333,-0.010531395673751831
1733699495406147000,10.30314697265625,-0.000822243862785399,0.06211702525615692,-0.02799207530915737
1733699495416102000,10.313101806640624,0.007042336743324995,0.03080277517437935,-0.038959771394729614
1733699495426057200,10.32305712890625,0.011062695644795895,0.001542487763799727,-0.035232990980148315
1733699495436012000,10.333011962890625,0.011587604880332947,-0.015762731432914734,-0.02191692218184471
1733699495445966800,10.342966796875,0.005632792599499226,-0.024238090962171555,-0.013871531933546066
1733699495455922000,10.352921875,0.0032774927094578743,-0.03381508216261864,-0.010922348126769066
1733699495465878000,10.3628779296875,0.0033605583012104034,-0.04468072950839996,-0.017335303127765656
1733699495475832800,10.372832763671875,0.002711013425141573,-0.06132388859987259,-0.0273599736392498
1733699495485788200,10.3827880859375,0.005418868735432625,-0.06983571499586105,-0.031875669956207275
1733699495495743000,10.392742919921876,0.004346147179603577,-0.07201231271028519,-0.03603765740990639
1733699495505698000,10.402697998046875,0.004371841438114643,-0.06911246478557587,-0.03390050679445267
1733699495515652900,10.41265283203125,-0.0015488980570808053,-0.06405831128358841,-0.02675710991024971
1733699495525608000,10.42260791015625,-0.0058394018560647964,-0.0519849956035614,-0.013690430670976639
1733699495535563000,10.43256298828125,-0.007113191764801741,-0.019435040652751923,-0.00009685801342129707
1733699495545517800,10.442517822265625,-0.008708509616553783,0.010163132101297379,0.011096591129899025
1733699495555474000,10.452473876953125,-0.010231304913759232,0.02408054657280445,0.02225523628294468
1733699495565429000,10.462428955078124,-0.013571953400969505,0.02578914724290371,0.026773707941174507
1733699495575383800,10.4723837890625,-0.016290508210659027,0.012194774113595486,0.028155356645584106
1733699495585339100,10.482339111328125,-0.018417440354824066,-0.005344210658222437,0.02766004391014576
1733699495595294000,10.4922939453125,-0.01106951106339693,-0.02104860544204712,0.02399393729865551
1733699495605249000,10.5022490234375,-0.003202245570719242,-0.048025213181972504,0.02172889932990074
1733699495615204000,10.5122041015625,0.008281305432319641,-0.07172548025846481,0.016232134774327278
1733699495625159000,10.522158935546875,0.021180670708417892,-0.09804139286279678,0.007462798152118921
1733699495635114000,10.532114013671874,0.03143330663442612,-0.1183549240231514,-0.003427133895456791
1733699495645070000,10.542070068359376,0.04018373042345047,-0.1341487616300583,-0.010351779870688915
1733699495655025000,10.55202490234375,0.04324689507484436,-0.1356675624847412,-0.015448004938662052
1733699495664980000,10.56197998046875,0.04439536854624748,-0.12474315613508224,-0.01895594596862793
1733699495674935000,10.57193505859375,0.04598980396986008,-0.10573138296604156,-0.015845905989408493
1733699495684890000,10.58189013671875,0.041664812713861465,-0.07922612875699997,-0.013578563928604126
1733699495694845000,10.591844970703125,0.03651505708694458,-0.05618765205144882,-0.007777933031320572
1733699495704800000,10.601800048828125,0.02633301541209221,-0.03177187591791153,-0.0038155277725309134
1733699495714755000,10.611755126953126,0.019859669730067253,-0.021497134119272232,-0.00017711729742586613
1733699495724710000,10.6217099609375,0.01202896237373352,-0.01670544594526291,0.0047888304106891155
1733699495734666000,10.631666015625,0.00685044564306736,-0.01126167830079794,0.003473229007795453
1733699495744621000,10.64162109375,0.003662319853901863,-0.01220273319631815,0.002653382020071149
1733699495754576000,10.651575927734376,0.0036282311193645,-0.012811797671020031,0.0016048955731093884
1733699495764531000,10.661531005859375,0.004670280963182449,-0.014562658965587616,-0.00024018529802560806
1733699495774486000,10.671486083984375,0.006338751874864101,-0.014910467900335789,-0.0021051967050880194
1733699495784441000,10.681441162109374,0.004592167213559151,-0.01426644716411829,-0.0013510722201317549
1733699495794396000,10.69139599609375,0.00422678142786026,-0.010342013090848923,-0.0009119168389588594
1733699495804351000,10.70135107421875,-0.0002669532550498843,-0.004915890283882618,0.0016362781170755625
1733699495814306000,10.71130615234375,-0.004839600995182991,0.000505772652104497,0.006175369955599308
1733699495824260900,10.7212607421875,-0.005842525511980057,-0.0031391133088618517,0.007056764326989651
1733699495834217000,10.731217041015626,-0.004484845791012049,-0.008704320527613163,0.008271165192127228
1733699495844172000,10.741172119140625,-0.0021748128347098827,-0.015368319116532803,0.008338719606399536
1733699495854126800,10.751126953125,-0.0009007566841319203,-0.02843325398862362,0.007284107152372599
1733699495864082200,10.761082275390624,0.004141110926866531,-0.03460667282342911,0.004821685142815113
1733699495874037000,10.771037109375,0.008964362554252148,-0.03683760389685631,-0.001311042346060276
1733699495883992000,10.780991943359375,0.015533022582530975,-0.038673002272844315,-0.009095525369048119
1733699495893947100,10.790947021484374,0.01873813569545746,-0.0340697281062603,-0.013964582234621048
1733699495903902000,10.80090185546875,0.020573802292346954,-0.027582664042711258,-0.016283346340060234
1733699495913857000,10.81085693359375,0.020999109372496605,-0.016513502225279808,-0.01366892084479332
1733699495923811800,10.820811767578125,0.01612507924437523,0.0012056813575327396,-0.01082740630954504
1733699495933768000,10.830767822265624,0.009909525513648987,0.012285497039556503,-0.004845679737627506
1733699495943723000,10.840722900390626,0.001609844621270895,0.02870440110564232,0.0009057041024789214
1733699495953677800,10.850677734375,-0.004567091353237629,0.04104895517230034,0.009501056745648384
1733699495963633200,10.860633056640625,-0.007738649845123291,0.05139053985476494,0.011147955432534218
1733699495973588000,10.870587890625,-0.00866170134395361,0.05455091595649719,0.012211887165904045
1733699495983543000,10.88054296875,-0.010484946891665459,0.04569154232740402,0.014086710289120674
1733699495993498000,10.890498046875,-0.012703626416623592,0.03269718214869499,0.009282100945711136
1733699496003453000,10.900452880859374,-0.014856497757136822,0.020986409857869148,0.0034932512789964676
1733699496013408000,10.910407958984376,-0.0202933419495821,0.012108762748539448,-0.002137203933671117
1733699496023364000,10.920364013671875,-0.02415531873703003,0.008170243352651596,-0.005692128092050552
1733699496033319000,10.93031884765625,-0.02783074788749218,0.009501025080680847,-0.008823473006486893
1733699496043274000,10.94027392578125,-0.03024359606206417,0.009961836040019989,-0.012249518185853958
1733699496053229000,10.95022900390625,-0.033517152070999146,0.012111539021134377,-0.016204580664634705
1733699496063184100,10.96018408203125,-0.034652989357709885,0.011080393567681313,-0.018065422773361206
1733699496073139000,10.970138916015625,-0.03298851475119591,0.012856989167630672,-0.020810341462492943
1733699496083094000,10.980093994140624,-0.030732065439224243,0.020116370171308517,-0.020415080711245537
1733699496093049000,10.990049072265625,-0.024354860186576843,0.03179193288087845,-0.015493026003241539
1733699496103004000,11.00000390625,-0.02006278932094574,0.043778195977211,-0.012066546827554703
1733699496112960000,11.0099599609375,-0.014838200062513351,0.05274718999862671,-0.00562808895483613
1733699496122915000,11.0199150390625,-0.012476969510316849,0.05292540416121483,-0.0035278149880468845
1733699496132870000,11.029869873046875,-0.011545661836862564,0.04469117522239685,-0.0027469759806990623
1733699496142825000,11.039824951171875,-0.008786965161561966,0.029206447303295135,-0.0025864928029477596
1733699496152780000,11.049780029296874,-0.00428329361602664,0.017728755250573158,-0.0008293390274047852
1733699496162735000,11.059735107421876,0.0034690697211772203,0.00819384679198265,0.0015886437613517046
1733699496172690000,11.06968994140625,0.009866248816251755,-0.0031757205724716187,0.003074954031035304
1733699496182645000,11.07964501953125,0.014659599401056767,-0.011878208257257938,0.0022429709788411856
1733699496192600000,11.08960009765625,0.01474189292639494,-0.02112283930182457,0.0026911809109151363
1733699496202556000,11.099555908203126,0.017774170264601707,-0.024967316538095474,0.0024814042262732983
1733699496212511000,11.109510986328125,0.021053055301308632,-0.02795991115272045,0.0005402262322604656
1733699496222466000,11.119466064453125,0.022699378430843353,-0.029271883890032768,-0.0030902368016541004
1733699496232420900,11.1294208984375,0.02285943366587162,-0.029929684475064278,-0.0028428290970623493
1733699496242376200,11.139376220703125,0.019489051774144173,-0.02512786164879799,-0.0029140545520931482
1733699496252331000,11.1493310546875,0.014806415885686874,-0.01671626605093479,-0.0018083101604133844
1733699496262285800,11.159285888671874,0.005239737220108509,-0.006956625729799271,0.002474746434018016
1733699496272241200,11.1692412109375,-0.0000903136096894741,0.002468834165483713,0.004500613082200289
1733699496282196000,11.179196044921875,-0.0029691685922443867,0.008994231931865215,0.006666637025773525
1733699496292151000,11.189151123046875,-0.0014951089397072792,0.013284051790833473,0.005185387097299099
1733699496302107100,11.199107177734374,-0.002597295679152012,0.01404627226293087,0.005407567135989666
1733699496312062000,11.20906201171875,0.0014246100327000022,0.00587755860760808,0.0024804871063679457
1733699496322017000,11.21901708984375,0.005789821967482567,-0.0037352358922362328,-0.0002628522925078869
1733699496331972000,11.22897216796875,0.010551287792623043,-0.007669790182262659,0.00021571770776063204
1733699496341927200,11.23892724609375,0.011413127183914185,-0.008944074623286724,-0.002482011681422591
1733699496351882000,11.248882080078126,0.011094346642494202,-0.011042112484574318,-0.0016782695893198252
1733699496361836800,11.2588369140625,0.0118277408182621,-0.007951286621391773,-0.0017544887959957123
1733699496371792100,11.268792236328125,0.008773094974458218,-0.0033578663133084774,-0.00016538077034056187
1733699496381747200,11.278747314453126,0.006299428641796112,0.0022061322815716267,0.002906425856053829
1733699496391703000,11.288703125,0.0005054555367678404,0.0018399476539343596,0.0038672941736876965
1733699496401658000,11.298658203125,0.002489292761310935,0.001117028878070414,0.006969028152525425
1733699496411613200,11.30861328125,0.0018855542875826359,0.0006251430022530258,0.007889948785305023
1733699496421568300,11.318568359375,0.004592681769281626,0.0011225375346839428,0.00964086689054966
1733699496431523000,11.328523193359375,0.006517881061881781,0.0011808607960119843,0.009318357333540916
1733699496441478000,11.338477783203125,0.006944088265299797,-0.006264874245971441,0.0054877568036317825
1733699496451433200,11.34843310546875,0.011046421714127064,-0.014165674336254597,0.0028381776064634323
1733699496461388000,11.358387939453126,0.015602264553308487,-0.020630085840821266,-0.000006155809387564659
1733699496471343000,11.368343017578125,0.014308767393231392,-0.02306101843714714,0.00012513808906078339
1733699496481298200,11.378298095703125,0.013455668464303017,-0.023717952892184258,0.00020414975006133318
1733699496491254000,11.38825390625,0.014553423970937729,-0.024525422602891922,0.0031448123045265675
1733699496501209000,11.398208984375,0.012882111594080925,-0.022184306755661964,0.004469020292162895
1733699496511164200,11.4081640625,0.01321207731962204,-0.016971435397863388,0.003860221244394779
1733699496521119200,11.418119140625,0.010452482849359512,-0.014448036439716816,0.0012936710845679045
1733699496531074000,11.428073974609376,0.007171202450990677,-0.011035728268325329,-0.0005495026707649231
1733699496541029000,11.438029052734375,0.003047176403924823,-0.008607633411884308,-0.0032524005509912968
1733699496550984200,11.447984130859375,-0.00009881565347313881,-0.0027638589963316917,-0.002108040265738964
1733699496560939000,11.45793896484375,-0.005549215711653233,0.0027794577181339264,-0.0016453873831778765
1733699496570894300,11.467894287109376,-0.00759638799354434,0.00514620915055275,0.001272105611860752
1733699496580849200,11.47784912109375,-0.011959848925471306,0.008537150919437408,0.003847346641123295
1733699496590805000,11.487804931640625,-0.012015510350465775,0.012074361555278301,0.0029754277784377337
1733699496600760300,11.49776025390625,-0.007639770861715078,0.012346810661256313,0.002845030976459384
1733699496610715100,11.507715087890626,-0.003384039271622896,0.009847700595855713,0.0021089334040880203
1733699496620670200,11.517670166015625,0.0049410248175263405,0.0032387159299105406,-0.00023476057685911655
1733699496630625300,11.527625244140625,0.011687611229717731,-0.0016638971865177155,-0.0013239933177828789
1733699496640580000,11.537580078125,0.01487413328140974,-0.009814105927944183,0.00029755616560578346
1733699496650535200,11.54753515625,0.016059506684541702,-0.01780412159860134,0.0009007621556520462
1733699496660490000,11.557489990234375,0.01735961064696312,-0.027294427156448364,0.004269976168870926
1733699496670445300,11.5674453125,0.017773466184735298,-0.029109369963407516,0.007440735585987568
1733699496680401200,11.577401123046876,0.018487798050045967,-0.0236586332321167,0.007725267205387354
1733699496690356000,11.58735595703125,0.017499765381217003,-0.02179708331823349,0.005654392763972282
1733699496700311300,11.597311279296875,0.01590840518474579,-0.025276677682995796,0.0012380171101540327
1733699496710266000,11.60726611328125,0.012785316444933414,-0.026008781045675278,-0.0052845967002213
1733699496720221000,11.617220947265626,0.00483290059491992,-0.03106306493282318,-0.008933976292610168
1733699496730176300,11.62717626953125,-0.007153987418860197,-0.022723909467458725,-0.010098842903971672
1733699496740131000,11.637131103515625,-0.015302510932087898,-0.007500374689698219,-0.007725556846708059
1733699496750086100,11.647086181640624,-0.020342810079455376,0.013084795325994492,0.0007406319491565228
1733699496760041200,11.657041259765625,-0.020585373044013977,0.032370973378419876,0.008450262248516083
1733699496769996300,11.666996337890625,-0.017790650948882103,0.044890228658914566,0.012436214834451675
1733699496779952000,11.6769521484375,-0.01103687658905983,0.044069234281778336,0.011961185373365879
1733699496789907200,11.6869072265625,0.0005561301950365305,0.03172015771269798,0.005370660685002804
1733699496799862300,11.6968623046875,0.008817278780043125,0.014575975015759468,-0.0016175853088498116
1733699496809817000,11.706817138671875,0.014175293035805225,-0.0009891358204185963,-0.007471213582903147
1733699496819772200,11.716772216796874,0.017167387530207634,-0.012914794497191906,-0.008788974024355412
1733699496829727200,11.726727294921876,0.015391325578093529,-0.016434160992503166,-0.006347388029098511
1733699496839682000,11.73668212890625,0.00749475322663784,-0.0166538804769516,-0.002950936323031783
1733699496849637000,11.74663720703125,0.0014919877285137773,-0.011642876081168652,-0.0010121550876647234
1733699496859592200,11.75659228515625,-0.006166193168610334,-0.00469808978959918,-0.0006325738504528999
1733699496869547000,11.766547119140625,-0.009779836982488632,-0.00020666868658736348,0.0008726448286324739
1733699496879503400,11.77650341796875,-0.011767647229135036,0.011517951264977455,0.0008483470883220434
1733699496889458200,11.786458251953125,-0.011203057132661343,0.01924857497215271,0.000888294423930347
1733699496899413000,11.7964130859375,-0.009734228253364563,0.025218810886144638,0.0003641782095655799
1733699496909368000,11.8063681640625,-0.00631979014724493,0.028146425262093544,0.002786323195323348
1733699496919323100,11.8163232421875,-0.0019122583325952291,0.02480282634496689,0.0022552888840436935
1733699496929278200,11.8262783203125,0.0041496288031339645,0.014005837962031364,0.0023146774619817734
1733699496939233000,11.83623291015625,0.007739621214568615,-0.0008473427151329815,-0.0009507518261671066
1733699496949188400,11.846188232421875,0.009519943967461586,-0.02033102884888649,0.0010034756269305944
1733699496959143200,11.85614306640625,0.00942344032227993,-0.03745665401220322,0.0037695192731916904
