time,seconds_elapsed,z,y,x
1733861966836130000,0.021130126953125,0.0017221299931406975,0.23940683901309967,-0.025612834841012955
1733861966846081000,0.0310810546875,0.005565337371081114,0.19748441874980927,-0.040604304522275925
1733861966856032300,0.0410322265625,0.01564624160528183,0.15447022020816803,-0.03778238594532013
1733861966865983000,0.05098291015625,0.005660718772560358,0.0808950811624527,-0.019038256257772446
1733861966875934200,0.060934326171875,-0.005776010453701019,0.04332179203629494,-0.005167610943317413
1733861966885885000,0.070885009765625,-0.0026100450195372105,0.03251974284648895,-0.009766623377799988
1733861966895836200,0.080836181640625,-0.0019069903064519167,0.04436902329325676,-0.006647787988185883
1733861966905787000,0.090786865234375,-0.0045035723596811295,0.06230408325791359,-0.0020426500122994184
1733861966915738000,0.100738037109375,0.002603075932711363,0.08378752321004868,-0.006353554781526327
1733861966925689000,0.110689208984375,0.01313428021967411,0.12516266107559204,-0.017016053199768066
1733861966935640000,0.12064013671875,0.007032743189483881,0.14419855177402496,-0.009220059029757977
1733861966945591000,0.130591064453125,-0.002311490010470152,0.09677217900753021,0.010371485725045204
1733861966955541200,0.140541259765625,-0.0036291969008743763,0.03827841579914093,0.006885622162371874
1733861966965492000,0.150491943359375,0.0008212113752961159,-0.0007488774135708809,0.000011204625479876995
1733861966975443200,0.160443115234375,0.00171253876760602,-0.015273637138307095,-0.004249976947903633
1733861966985394000,0.170393798828125,0.003963974770158529,-0.01103814598172903,-0.005621504969894886
1733861966995345200,0.18034521484375,0.0027837022207677364,0.0000716156791895628,-0.0033732308074831963
1733861967005295900,0.1902958984375,0.002130428794771433,0.01393496710807085,0.00016025116201490164
1733861967015247000,0.2002470703125,0.001746112946420908,0.01247510313987732,0.004613594617694616
1733861967025198000,0.210197998046875,-0.0001924019306898117,0.008859328925609589,0.0053664701990783215
1733861967035149000,0.220149169921875,-0.00022628949955105782,0.004440860822796822,0.003837884869426489
1733861967045100000,0.23010009765625,0.0023308778181672096,0.0005864675622433424,0.001965682487934828
1733861967055051000,0.240051025390625,0.001069389283657074,-0.0021458647679537535,0.0013133210595697165
1733861967065002000,0.250001953125,0.0008448846638202667,0.0002877316437661648,-0.003017245326191187
1733861967074953000,0.259952880859375,0.0034529399126768112,0.004245375283062458,-0.002520571928471327
1733861967084904000,0.269904052734375,0.003284894395619631,0.005844870116561651,-0.004691847134381533
1733861967094855200,0.279855224609375,0.0015692682936787605,0.002883767941966653,-0.006786461919546127
1733861967104806100,0.28980615234375,0.0031770183704793453,0.006965594831854105,-0.007748928852379322
1733861967114757000,0.299757080078125,0.0036193151026964188,0.009642813354730606,-0.007093326188623905
1733861967124708000,0.3097080078125,0.002484009601175785,0.005891750566661358,-0.007551389746367931
1733861967134659000,0.3196591796875,0.0016513187438249588,0.0025571705773472786,-0.006609414238482714
1733861967144610000,0.329610107421875,0.0027828956954181194,0.006647786125540733,-0.009813462384045124
1733861967154561000,0.33956103515625,0.0022017904557287693,0.0022008533123880625,-0.01106430497020483
1733861967164512300,0.34951220703125,0.0017091054469347,0.0036261770874261856,-0.011613980866968632
1733861967174463000,0.359462890625,0.003330734558403492,0.0034564253874123096,-0.010517653077840805
1733861967184414200,0.369414306640625,-0.00041047390550374985,0.0082626324146986,-0.009550658985972404
1733861967194365000,0.379364990234375,0.0012643616646528244,0.01373312622308731,-0.012666773051023483
1733861967204316200,0.389316162109375,0.0011450517922639847,0.018268223851919174,-0.015331266447901726
1733861967214267100,0.39926708984375,-0.00003054039552807808,0.018163837492465973,-0.01838122494518757
1733861967224218000,0.409218017578125,0.0025404752232134342,0.019923120737075806,-0.018179358914494514
1733861967234169000,0.419169189453125,0.0023168614134192467,0.019504928961396217,-0.018895868211984634
1733861967244120000,0.4291201171875,0.0018683848902583122,0.018898526206612587,-0.019389884546399117
1733861967254071000,0.439071044921875,0.002388974651694298,0.016280053183436394,-0.022154051810503006
1733861967264022000,0.44902197265625,0.003737865947186947,0.014157514087855816,-0.021244315430521965
1733861967273973000,0.458972900390625,0.004263322334736586,0.016200639307498932,-0.020029032602906227
1733861967283924200,0.46892431640625,0.0046944874338805676,0.01672821119427681,-0.018673483282327652
1733861967293875000,0.478875,0.004466513637453318,0.015541533008217812,-0.019598040729761124
1733861967303826200,0.488826171875,0.008367246016860008,0.006032982375472784,-0.0216276366263628
1733861967313777000,0.49877685546875,0.007375225890427828,0.0010650951880961657,-0.020199207589030266
1733861967323728100,0.50872802734375,0.009470334276556969,-0.0012649046257138252,-0.020512394607067108
1733861967333678800,0.518678955078125,0.01248660683631897,-0.0035961433313786983,-0.01943562552332878
1733861967343630000,0.528630126953125,0.011599240824580193,-0.005609759595245123,-0.016979925334453583
1733861967353581000,0.5385810546875,0.013320688158273697,-0.010742392390966415,-0.013754296116530895
1733861967363532000,0.548531982421875,0.011225845664739609,-0.01016661711037159,-0.012210994958877563
1733861967373483300,0.558483154296875,0.011483659967780113,-0.007055323105305433,-0.010265029966831207
1733861967383434000,0.56843408203125,0.017151931300759315,-0.015202198177576065,-0.009643182158470154
1733861967393385200,0.57838525390625,0.01890217699110508,0.004090472590178251,-0.006140288896858692
1733861967403335200,0.588335205078125,0.01637803390622139,0.000980965793132782,-0.006248945835977793
1733861967413286000,0.598285888671875,0.013069892302155495,0.006154022645205259,-0.0025388174690306187
1733861967423237000,0.608237060546875,0.010681569576263428,0.0076773506589233875,0.0007448603282682598
1733861967433187800,0.618187744140625,0.005868900567293167,0.01407692488282919,0.0020208926871418953
1733861967443139000,0.62813916015625,0.005174348130822182,-0.0064776185899972916,-0.001017241389490664
1733861967453090000,0.638090087890625,0.005219666287302971,-0.013892030343413353,-0.00028013926930725574
1733861967463041000,0.648041015625,0.004819126799702644,-0.009736167266964912,-0.00013020331971347332
1733861967472992300,0.6579921875,0.005007945001125336,0.004045691806823015,-0.0019067981047555804
1733861967482943000,0.66794287109375,0.00545828603208065,0.01537051796913147,0.00012119906023144722
1733861967492894200,0.677894287109375,0.005019148346036673,0.019433902576565742,0.003037666203454137
1733861967502845000,0.687844970703125,0.001201507169753313,0.016321465373039246,0.0056456997990608215
1733861967512796200,0.697796142578125,0.00212717242538929,0.005659153219312429,0.005279353354126215
1733861967522747100,0.7077470703125,0.0011636409908533096,0.001686249510385096,0.001652927021495998
1733861967532698000,0.717697998046875,0.0019644955173134804,0.0006924658082425594,0.0004965686239302158
1733861967542649000,0.727649169921875,0.000448357779532671,0.009560791775584221,-0.00032794615253806114
1733861967552600000,0.73760009765625,0.0008081546984612942,0.02012740448117256,0.002891237847507
1733861967562551000,0.747551025390625,-0.0009023938328027725,0.022907476872205734,0.006003940477967262
1733861967572502000,0.757501953125,-0.00002675037831068039,0.020416902378201485,0.00541303027421236
1733861967582453000,0.767452880859375,0.0011604870669543743,0.014214932918548584,0.0043155415914952755
1733861967592404200,0.777404296875,0.0015673697926104069,0.007654685992747545,0.0026839282363653183
1733861967602355000,0.78735498046875,-0.000607633963227272,0.005287934560328722,0.0013145307311788201
1733861967612306200,0.79730615234375,-0.00031893374398350716,0.00636646244674921,0.00031752686481922865
1733861967622257000,0.8072568359375,-0.0008971062488853931,0.007563553750514984,0.0026328791864216328
1733861967632208100,0.8172080078125,0.00029731448739767075,0.007997941225767136,0.0031839783769100904
1733861967642159000,0.8271591796875,0.000506639014929533,0.009339641779661179,0.003096626605838537
1733861967652110000,0.837110107421875,0.00048397574573755264,0.010348817333579063,0.0012040184810757637
1733861967662057200,0.84705712890625,0.0004466911777853966,0.006396153476089239,-0.0001478020567446947
1733861967672008000,0.857008056640625,0.0014593349769711494,0.0010624965652823448,-0.0012237983755767345
1733861967681959200,0.866959228515625,0.0017709247767925262,0.000856900354847312,0.00024413608480244875
1733861967691910100,0.87691015625,0.001742958091199398,-0.000041103921830654144,0.00009957165457308292
1733861967701861000,0.886861083984375,0.0011067287996411324,-0.004875807091593742,-0.0017076495569199324
1733861967711812000,0.89681201171875,-0.00021082023158669472,-0.007985806092619896,-0.002175854053348303
1733861967721763000,0.90676318359375,0.0022054659202694893,-0.003073072526603937,-0.002321528736501932
1733861967731714000,0.916714111328125,0.0009317477233707905,0.0012204761151224375,-0.0009064351906999946
1733861967741665000,0.9266650390625,0.0005466542206704617,0.005300438962876797,0.0005332696018740535
1733861967751616000,0.936615966796875,-0.0006323307752609253,0.0024380870163440704,0.001520548714324832
1733861967761567200,0.946567138671875,-0.00026321643963456154,0.003401618916541338,0.001847584848292172
1733861967771518000,0.95651806640625,-0.0005101279821246862,0.002975114155560732,0.0007100694929249585
1733861967781469200,0.96646923828125,-0.0003841603174805641,0.0054734256118535995,0.0012701322557404637
1733861967791420200,0.976420166015625,-0.0008648284710943699,0.006066124886274338,0.0010643943678587675
1733861967801371100,0.98637109375,-0.0001561613753437996,0.007427533157169819,0.0017751920968294144
1733861967811321000,0.996321044921875,-0.000037960242480039597,0.005415408872067928,0.0011863793479278684
1733861967821272000,1.00627197265625,0.0015037436969578266,0.006081198807805777,0.0022583017125725746
1733861967831223000,1.01622314453125,0.0015521994791924953,0.0028021009638905525,0.002108814660459757
1733861967841174000,1.026174072265625,-0.000009212177246809006,0.0018907672492787242,0.0014171916991472244
1733861967851125000,1.036125,0.0021839113906025887,-0.0018890963401645422,-0.001415217062458396
1733861967861076200,1.046076171875,0.0030598249286413193,-0.003319746581837535,-0.003647478763014078
1733861967871027000,1.05602685546875,0.002595602534711361,-0.005528975278139114,-0.0010586950229480863
1733861967880978200,1.065978271484375,0.0024283560924232006,-0.00835592020303011,-0.0021082470193505287
1733861967890929200,1.07592919921875,0.0004315837286412716,-0.007637648843228817,-0.0016712897922843695
1733861967900880100,1.085880126953125,0.000021723099052906036,-0.005603526718914509,-0.0021810189355164766
1733861967910831000,1.0958310546875,0.000997736118733883,-0.006208198145031929,-0.0029467553831636906
1733861967920782000,1.105781982421875,-0.0005298529285937548,-0.005391673184931278,-0.0009230191353708506
1733861967930733300,1.1157333984375,0.0006488654762506485,-0.007404237054288387,-0.001382460119202733
1733861967940684000,1.12568408203125,0.001238489057868719,-0.005836433731019497,-0.0019004449713975191
1733861967950635300,1.13563525390625,0.002138907555490732,-0.006102230399847031,-0.001174513017758727
1733861967960586000,1.1455859375,-0.00003076950088143349,-0.006442848592996597,-0.0017308471724390984
1733861967970537200,1.155537109375,0.0007873536087572575,0.00012157694436609745,-0.001964672701433301
1733861967980488000,1.165488037109375,-0.000562070170417428,0.007485217414796352,0.002646057866513729
1733861967990439200,1.175439208984375,-0.001925076125189662,0.015441144816577435,0.004187495447695255
1733861968000390100,1.18539013671875,-0.0014478375669568777,0.015253923833370209,0.0031738965772092342
1733861968010341000,1.195341064453125,-0.0017604820895940065,0.013803526759147644,0.0026789444964379072
1733861968020292000,1.2052919921875,0.0008504809811711311,0.00903007760643959,0.0016341863665729761
1733861968030243000,1.2152431640625,0.000047530513256788254,0.002293904311954975,0.0007272048969753087
1733861968040194000,1.225194091796875,0.0013399627059698105,-0.0014808601699769497,-0.002428641077131033
1733861968050145000,1.23514501953125,-0.0006954085547477007,0.0015878737904131413,-0.0006880899891257286
1733861968060096000,1.245095947265625,-0.0005241672042757273,0.004229463171213865,0.00031565537210553885
1733861968070047200,1.255047119140625,-0.00025060679763555527,0.00765961455181241,0.002089587040245533
1733861968079998000,1.264998046875,-0.000591757707297802,0.008743787184357643,0.003219832433387637
1733861968089949200,1.27494921875,0.0010243109427392483,0.007880430668592453,0.0018827959429472685
1733861968099900000,1.28489990234375,0.0008157854899764061,0.0042785052210092545,-0.00038754893466830254
1733861968109851100,1.29485107421875,0.0010196496732532978,0.001239212928339839,0.00013411231338977814
1733861968119802000,1.304802001953125,0.001024710014462471,0.00044212862849235535,-0.00166325515601784
1733861968129753000,1.314753173828125,0.0013185921125113964,0.0010694479569792747,-0.0019488867837935686
1733861968139704300,1.324704345703125,0.0005529331974685192,0.00332834105938673,-0.0003387394826859236
1733861968149655000,1.334655029296875,-0.0008103642612695694,0.005551522132009268,0.0024874247610569
1733861968159606300,1.344606201171875,0.0005257437005639076,0.006835964508354664,0.0015782216796651483
1733861968169557000,1.354556884765625,0.0006096945144236088,0.007021973840892315,0.002894388046115637
1733861968179508200,1.36450830078125,0.0008049043826758862,0.004826197400689125,-0.0012169999536126852
1733861968189459200,1.374459228515625,0.001872565597295761,0.006331948563456535,-0.0000353553332388401
1733861968199410200,1.38441015625,0.0006097243167459965,0.00900283269584179,-0.0014386785915121436
1733861968209361200,1.394361083984375,0.0013745916076004505,0.011608243919909,-0.0014209640212357044
1733861968219312000,1.40431201171875,0.0007799076847732067,0.009881449863314629,0.0013513866579160094
1733861968229262000,1.414261962890625,-0.0006662248633801937,0.00884756725281477,0.0014313645660877228
1733861968239213300,1.42421337890625,0.00014310982078313828,0.008679522201418877,0.0027914410457015038
1733861968249164000,1.4341640625,-0.0006328460294753313,0.012639005668461323,0.0016151097370311618
1733861968259115300,1.444115234375,-0.0019063695799559355,0.016113098710775375,0.0013498588232323527
1733861968269066000,1.45406591796875,-0.001338982256129384,0.018686965107917786,0.0030239145271480083
1733861968279017200,1.464017333984375,-0.0013432432897388935,0.021680358797311783,0.003415665589272976
1733861968288968200,1.47396826171875,-0.001927096163854003,0.021321482956409454,0.0030231494456529617
1733861968298919200,1.483919189453125,-0.0002815290354192257,0.01936832070350647,0.0031155613251030445
1733861968308870100,1.4938701171875,-0.0020151063799858093,0.016842473298311234,0.004132101312279701
1733861968318821000,1.503821044921875,-0.0009319987148046494,0.01603287272155285,0.003964588511735201
1733861968328772000,1.513772216796875,-0.0013291332870721817,0.015519441105425358,0.002886898582801223
1733861968338723000,1.52372314453125,-0.00033683935180306435,0.015719978138804436,0.0029928921721875668
1733861968348674000,1.533674072265625,0.001187767367810011,0.013206765055656433,0.0032241004519164562
1733861968358625300,1.543625244140625,-0.0007973532192409039,0.00897233933210373,0.0013913129223510623
1733861968368576000,1.553575927734375,0.000361055601388216,0.003500206395983696,0.0011110729537904263
1733861968378527200,1.56352734375,0.0008992808870971203,0.0015132217667996883,0.000589626026339829
1733861968388478000,1.57347802734375,-0.0014205724000930786,0.003321857890114188,0.0004502357915043831
1733861968398429200,1.58342919921875,0.0012851990759372711,0.004498708993196487,0.00001401000190526247
1733861968408380000,1.5933798828125,0.00034318724647164345,0.002285714028403163,-0.000007242430001497269
1733861968418331100,1.6033310546875,-0.0008163533639162779,-0.0015297969803214073,0.00013017677702009678
1733861968428282000,1.6132822265625,-0.0010083727538585663,0.0007718810811638832,-0.00031941779889166355
1733861968438233000,1.623233154296875,-0.001246193191036582,0.007909152656793594,0.0032670614309608936
1733861968448184000,1.63318408203125,0.00022493256255984306,0.012894018553197384,0.0011806044494733214
1733861968458135000,1.643135009765625,-0.0009433962404727936,0.01121116615831852,0.00427626259624958
1733861968468086000,1.6530859375,-0.0021064518950879574,0.013071112334728241,0.0021583656780421734
1733861968478037000,1.663037109375,-0.002077955985441804,0.021154604852199554,0.0026920633390545845
1733861968487988000,1.672988037109375,-0.002064007567241788,0.019814014434814453,0.004126463085412979
1733861968497939200,1.682939208984375,-0.0006488037761300802,0.014213919639587402,0.0034827771596610546
1733861968507890200,1.69289013671875,-0.00012467289343476295,0.00814575981348753,0.004518426954746246
1733861968517841200,1.702841064453125,-0.0016605181153863668,0.0055869948118925095,0.0020816344767808914
1733861968527792000,1.712792236328125,-0.0002444400452077389,0.0045027825981378555,0.0006727128056809306
1733861968537743000,1.7227431640625,-0.0004622864071279764,0.002455876674503088,-0.0013174674240872264
1733861968547694000,1.732694091796875,-0.0004707127809524536,0.007713410537689924,0.0004466610262170434
1733861968557645000,1.74264501953125,0.0004214462824165821,0.008867358788847923,0.0008690383983775973
1733861968567596300,1.75259619140625,-0.0010924639645963907,0.007541077211499214,0.0031494805589318275
1733861968577547000,1.762547119140625,0.0011459230445325375,0.00673360750079155,0.002750805113464594
1733861968587498200,1.772498291015625,0.0016049281693995,0.004854986444115639,0.000573418103158474
1733861968597449000,1.782448974609375,-0.0018446643371134996,0.0036549661308526993,0.00048793060705065727
1733861968607400200,1.792400146484375,-0.00007143989205360413,0.0035273318644613028,0.0009532939293421805
1733861968617351200,1.80235107421875,0.000937365461140871,0.0050645084120333195,0.00031093950383365154
1733861968627302100,1.81230224609375,-0.0012493948452174664,0.00512546906247735,-0.0012267421698197722
1733861968637252000,1.822252197265625,-0.000024606939405202866,0.008655489422380924,0.002001008950173855
1733861968647203300,1.832203369140625,-0.0011086540762335062,0.01023865956813097,0.0009276976925320923
1733861968657153800,1.84215380859375,-0.0001123654656112194,0.012044282630085945,0.002036105375736952
1733861968667104800,1.852104736328125,-0.0008348843548446894,0.008441478945314884,0.0024846147280186415
1733861968677055700,1.8620556640625,-0.0015552695840597153,0.006150893867015839,0.001798850717023015
1733861968687006700,1.8720068359375,-0.0005552500952035189,0.009450709447264671,0.002162352204322815
1733861968696958000,1.8819580078125,0.00020614778622984886,0.009853113442659378,0.0005657871952280402
1733861968706908700,1.89190869140625,-0.001784362830221653,0.009292079135775566,0.0015508587239310145
1733861968716860000,1.90185986328125,-0.00045864121057093143,0.009963994845747948,0.0025751106441020966
1733861968726811000,1.911810791015625,-0.0013825802598148584,0.011957023292779922,0.0014810280408710241
1733861968736761900,1.921761962890625,-0.000304266344755888,0.01260204054415226,0.002834446495398879
1733861968746712800,1.931712890625,-0.0016635621432214975,0.008498108945786953,0.0027110183145850897
1733861968756663800,1.941663818359375,-0.001156762707978487,0.007427518256008625,0.0005802231025882065
1733861968766615000,1.951614990234375,0.0016393261030316353,0.008062563836574554,0.00026652729138731956
1733861968776565800,1.961565673828125,0.00018257694318890572,0.005331492517143488,-0.0018552131950855255
1733861968786517000,1.97151708984375,0.000221950002014637,0.002780529437586665,-0.0023434574250131845
1733861968796467700,1.9814677734375,-0.000057948287576436996,0.0015363006386905909,-0.0003386298194527626
1733861968806419000,1.9914189453125,-0.0003072218969464302,0.0020561362616717815,-0.00111586123239249
1733861968816369700,2.00136962890625,-0.0004992359317839146,0.0027232582215219736,0.0004921555519104004
1733861968826321000,2.01132080078125,-0.0016469582915306091,0.004864732269197702,0.001926250522956252
1733861968836271900,2.02127197265625,-0.00048209168016910553,0.006813101004809141,0.0008367514237761497
1733861968846222800,2.031222900390625,-0.0005869818851351738,0.006460646167397499,0.0024851872585713863
1733861968856173800,2.041173828125,0.00077442592009902,0.00805721152573824,0.0019285865128040314
1733861968866124800,2.051124755859375,0.000371596310287714,0.005469496827572584,-0.00025194359477609396
1733861968876075800,2.06107568359375,-0.00006170012056827545,0.0023549299221485853,0.0008077282109297812
1733861968886026800,2.07102685546875,0.00106388283893466,0.002515902044251561,0.00203900970518589
1733861968895977700,2.080977783203125,0.0003767875023186207,0.0029332193080335855,0.00020861916709691286
1733861968905929000,2.090928955078125,0.0018486371263861656,0.0018890509381890297,0.00013451639097183943
1733861968915879700,2.100879638671875,-0.0013934948947280645,0.002775617176666856,-0.0007358046714216471
1733861968925831000,2.110830810546875,-0.0023622517473995686,0.005894283764064312,0.0011442378163337708
1733861968935781600,2.12078173828125,0.000015418510884046555,0.00443753506988287,0.0008539531845599413
1733861968945732900,2.13073291015625,-0.0003985741641372442,0.003456160193309188,-0.0009328164160251617
1733861968955683600,2.14068359375,0.001316501758992672,0.0020199173595756292,-0.0005083086434751749
1733861968965634800,2.150634765625,-0.00003072991967201233,-0.0008637011051177979,-0.0006574072176590562
1733861968975586000,2.1605859375,0.0005780686624348164,-0.0008181608282029629,-0.0003628616686910391
1733861968985536800,2.170536865234375,0.0011661234311759472,-0.004898416344076395,-0.0010340312728658319
1733861968995488000,2.180488037109375,-0.0005220544990152121,-0.004344212356954813,0.00005813117604702711
1733861969005438700,2.190438720703125,-0.0005554514937102795,-0.0035024690441787243,-0.00043872417882084846
1733861969015390000,2.200389892578125,-0.00094933295622468,0.0016193222254514694,0.0009455868857912719
1733861969025340700,2.210340576171875,0.000985665712505579,0.003920985851436853,-0.0006092963740229607
1733861969035290600,2.22029052734375,0.0009670238941907883,0.0030370824970304966,-0.000758699607104063
1733861969045241900,2.230241943359375,-0.0005830535665154457,-0.0014317017048597336,-0.0012043036986142397
1733861969055192800,2.24019287109375,0.0015237731859087944,-0.003119080327451229,-0.003307934384793043
1733861969065143800,2.250143798828125,0.0004839538596570492,-0.005163745954632759,-0.0009732746984809637
1733861969075094800,2.2600947265625,0.0014102011919021606,-0.0033804932609200478,-0.0017684947233647108
1733861969085045800,2.270045654296875,0.00003668805584311485,-0.0029323543421924114,-0.0007298950804397464
1733861969094997000,2.2799970703125,0.00027157925069332123,0.0006229658611118793,-0.0003818197874352336
1733861969104947700,2.28994775390625,-0.00013702735304832458,0.002486568409949541,0.0004482563235796988
1733861969114899000,2.29989892578125,-0.0008936314843595028,0.00523202121257782,0.001282092067413032
1733861969124850000,2.309849853515625,0.0012061242014169693,0.0037100117187947035,0.0018521753372624516
1733861969134801000,2.31980078125,-0.001635202206671238,0.00143300904892385,0.0015456455294042826
1733861969144751900,2.329751953125,-0.00114028574898839,0.004835598636418581,0.0013917686883360147
1733861969154702800,2.339702880859375,0.0006594783626496792,0.008074535056948662,0.0012791170738637447
1733861969164653800,2.34965380859375,0.001528260763734579,0.003182348096743226,0.0010892804712057114
1733861969174604800,2.359604736328125,-0.0006699124351143837,-0.001349286874756217,0.002128978492692113
1733861969184555800,2.3695556640625,0.00038732169196009636,0.0020522759296000004,0.001533867442049086
1733861969194507000,2.379507080078125,-0.0004369267262518406,0.004262966103851795,0.0020297481678426266
1733861969204457700,2.389457763671875,-0.0007667625322937965,0.0017462787218391895,0.001498291501775384
1733861969214409000,2.399408935546875,0.0006143529899418354,0.0010740968864411116,-0.0003153211437165737
1733861969224359700,2.409359619140625,-0.000007770024240016937,0.0022531819995492697,0.0006329589523375034
1733861969234311000,2.419310791015625,0.0003562844358384609,0.0019799417350441217,-0.0009297840297222137
1733861969244261600,2.42926171875,0.0007895915769040585,-0.0035113771446049213,-0.0005312624853104353
1733861969254212900,2.439212890625,0.0005243406631052494,-0.009318932890892029,-0.00009690085425972939
1733861969264163800,2.449163818359375,-0.0014369189739227295,-0.00574871152639389,-0.0033415795769542456
1733861969274114800,2.45911474609375,-0.0000017415732145309448,-0.004356411285698414,-0.0006682984530925751
1733861969284065800,2.469065673828125,0.00034985877573490143,0.00005989614874124527,-0.002445429563522339
1733861969294016800,2.479016845703125,0.0014998116530478,-0.0019028536044061184,-0.002654221374541521
1733861969303967700,2.4889677734375,0.0006619892083108425,-0.005995224229991436,-0.0012366082519292831
1733861969313918700,2.498918701171875,0.002175730187445879,-0.011057893745601177,-0.0016576540656387806
1733861969323869700,2.50886962890625,0.001004755962640047,-0.010750940069556236,-0.0016868652310222387
1733861969333821000,2.518821044921875,0.001230059191584587,-0.008336251601576805,-0.002128151012584567
1733861969343772000,2.52877197265625,0.000969399232417345,-0.0018560865428298712,-0.002132297493517399
1733861969353723000,2.538722900390625,-0.0012037402484565973,0.0035788926761597395,-0.0009879372082650661
1733861969363673900,2.548673828125,-0.0005864060949534178,0.005010608118027449,-0.000360558507964015
1733861969373624800,2.558624755859375,0.0010586283169686794,0.006008761003613472,-0.0016090483404695988
1733861969383575800,2.568575927734375,-0.0006114286370575428,-0.0004593378398567438,-0.0011252369731664658
1733861969393526800,2.57852685546875,0.0005667535588145256,-0.0026886702980846167,-0.001694354461506009
1733861969403478000,2.58847802734375,0.0011678049340844154,-0.005501927807927132,-0.0021081555169075727
1733861969413428700,2.5984287109375,0.0009651384316384792,-0.005936821922659874,-0.0004210430197417736
1733861969423380000,2.6083798828125,0.0022169933654367924,-0.0035005623940378428,-0.0015099385054782033
1733861969433330000,2.618329833984375,0.0022039441391825676,0.0017522566486150026,-0.0016185954445973039
1733861969443281000,2.628281005859375,0.0006334148347377777,0.0055824145674705505,-0.00033054326195269823
1733861969453231900,2.63823193359375,-0.00016553374007344246,0.005000780336558819,-0.0007111090235412121
1733861969463182800,2.648182861328125,0.0004687635228037834,-0.0007335639093071222,-0.0017252392135560513
1733861969473133800,2.6581337890625,-0.0003898395225405693,-0.007653522305190563,-0.0018261729273945093
1733861969483084800,2.668084716796875,-0.00001649698242545128,-0.013626018539071083,-0.003218868048861623
1733861969493035800,2.678035888671875,0.000944904051721096,-0.017071617767214775,-0.0032974316272884607
1733861969502987000,2.687987060546875,0.0016519050113856792,-0.017594648525118828,-0.005415843799710274
1733861969512937700,2.697937744140625,0.0010007619857788086,-0.010017422959208488,-0.0037172799929976463
1733861969522889000,2.707888916015625,0.0016774400137364864,-0.002341154497116804,-0.0036701238714158535
1733861969532839700,2.717839599609375,0.0005607767961919308,-0.0012101097963750362,-0.0012900566216558218
1733861969542791000,2.727791015625,0.0008035963401198387,-0.00631316564977169,-0.0017961523262783885
1733861969552742000,2.737741943359375,0.00013008294627070427,-0.008779519237577915,-0.0005212972173467278
1733861969562692900,2.74769287109375,-0.0012398830149322748,-0.0062103550881147385,0.00021647626999765635
1733861969572643800,2.757643798828125,0.0009577577002346516,0.0015833862125873566,-0.001524964813143015
1733861969582594800,2.7675947265625,0.0012086164206266403,0.004381914157420397,-0.0013063106453046203
1733861969592545800,2.7775458984375,0.0004344354383647442,0.007694620173424482,-0.0005965781165286899
1733861969602496800,2.787496826171875,-0.0007525680121034384,0.006082445848733187,-0.0008199986768886447
1733861969612447700,2.79744775390625,0.0006700926460325718,0.0019164631376042962,0.0013395585119724274
1733861969622399000,2.80739892578125,-0.0018936807755380869,0.004426962696015835,0.0022142194211483
1733861969632349700,2.817349609375,0.0007907855324447155,0.0058514876291155815,0.002006759401410818
1733861969642301000,2.827301025390625,-0.0008662780746817589,0.006305676884949207,0.0029928036965429783
1733861969652251600,2.837251708984375,0.0005981940776109695,0.009047667495906353,0.0023166269529610872
1733861969662203000,2.847202880859375,-0.0005157808773219585,0.010013862513005733,0.0018212790600955486
1733861969672153600,2.857153564453125,-0.000791151775047183,0.009277498349547386,-0.00027276447508484125
1733861969682104800,2.867104736328125,-0.0003293519839644432,0.0070970067754387856,0.0010040536290034652
1733861969692055800,2.877055908203125,0.0006999596953392029,0.001139515545219183,0.00025144440587610006
1733861969702006800,2.8870068359375,-0.0010672600474208593,-0.003397406777366996,-0.0003700000233948231
1733861969711957800,2.896957763671875,-0.001441966975107789,-0.006268560886383057,-0.0006501646712422371
1733861969721908700,2.90690869140625,-0.0002727075479924679,-0.007240599021315575,-0.0012691500596702099
1733861969731859700,2.916859619140625,-0.0006551374681293964,-0.007524492219090462,-0.001747453585267067
1733861969741810700,2.926810791015625,0.0008810530416667461,-0.007495729252696037,-0.0016704883892089128
1733861969751761700,2.93676171875,0.002484808675944805,-0.008114914409816265,-0.0027906137984246016
1733861969761713000,2.946712890625,-0.0015664065722376108,-0.008588870987296104,-0.0029739374294877052
1733861969771663600,2.95666357421875,0.0008751796558499336,-0.010715138167142868,-0.0029347892850637436
1733861969781614800,2.96661474609375,0.00172891141846776,-0.011597864329814911,-0.001504799583926797
1733861969791565600,2.976565673828125,0.001752613577991724,-0.009155744686722755,-0.001968722091987729
1733861969801516800,2.986516845703125,0.00008363788947463036,-0.004130546003580093,-0.0002650929382070899
1733861969811467500,2.996467529296875,-0.00013740453869104385,-0.001576308161020279,-0.00019904656801372766
1733861969821418800,3.006418701171875,-0.00038235122337937355,0.003975010942667723,0.0012772742193192244
1733861969831369700,3.01636962890625,-0.0015863662119954824,0.008440067060291767,0.0019803487230092287
1733861969841319700,3.026319580078125,0.0003023226745426655,0.007200415246188641,0.0001758192665874958
1733861969851270700,3.036270751953125,-0.000307540874928236,0.004023264162242413,0.0008213694673031569
1733861969861222000,3.046221923828125,-0.0005894408095628023,0.0032707119826227427,-0.00024089764337986708
1733861969871172600,3.056172607421875,0.0011192434467375278,-0.0003975259605795145,-0.001025997567921877
1733861969881123800,3.066123779296875,-0.000927584245800972,0.0008749586995691061,-0.0009939484298229218
1733861969891074600,3.076074462890625,-0.0013968332204967737,0.00035644136369228363,0.0015834587393328547
1733861969901025800,3.08602587890625,0.00023212004452943802,0.0021461909636855125,0.001786113833077252
1733861969910976800,3.095976806640625,-0.00039532058872282505,0.004068726673722267,0.0017632106319069862
1733861969920927700,3.105927734375,-0.0002436889335513115,0.007057154551148415,0.001908936072140932
1733861969930878700,3.115878662109375,-0.0007302486337721348,0.006084834225475788,-0.0002953623188659549
1733861969940829700,3.12582958984375,0.0016547329723834991,0.0028031007386744022,-0.0009502270258963108
1733861969950780700,3.13578076171875,-0.0005730011034756899,0.0037386692129075527,-0.0011134787928313017
1733861969960731600,3.145731689453125,-0.0014825745020061731,0.005264141131192446,0.001130546210333705
1733861969970682600,3.1556826171875,-0.0004564584232866764,0.009720408357679844,0.0030458916444331408
1733861969980633900,3.1656337890625,-0.003725418820977211,0.01232235785573721,0.0028732940554618835
1733861969990584800,3.175584716796875,-0.0020992925856262445,0.012374822050333023,0.0035127191804349422
1733861970000535800,3.185535888671875,0.0004215063527226448,0.008307761512696743,0.0016210031462833285
1733861970010486800,3.19548681640625,0.0012873001396656036,0.004256560932844877,-0.00028289074543863535
1733861970020437800,3.205437744140625,0.0003407057374715805,0.003910599276423454,-0.0008998773992061615
1733861970030388700,3.215388671875,0.00074337562546134,0.006732218898832798,-0.0009752449113875628
1733861970040339700,3.225339599609375,0.0013358616270124912,0.011206582188606262,0.0020710991229861975
1733861970050291000,3.235291015625,-0.001562989316880703,0.012041483074426651,0.004010412842035294
1733861970060241700,3.24524169921875,-0.0010884383227676153,0.012464489787817001,0.0036934358067810535
1733861970070193000,3.25519287109375,-0.0014160070568323135,0.005143459886312485,0.0033927648328244686
1733861970080143600,3.2651435546875,0.0000662337988615036,0.0005583483725786209,-0.0006555902073159814
1733861970090094800,3.2750947265625,0.0018090065568685532,-0.0034446490462869406,-0.0021256553009152412
1733861970100045600,3.285045654296875,0.0003825589083135128,-0.004403919912874699,-0.0011940813856199384
1733861970109996800,3.294996826171875,0.0005474085919559002,-0.0019495503511279821,-0.003544587641954422
1733861970119947800,3.30494775390625,0.0017654579132795334,-0.00322704273276031,-0.0003992336569353938
1733861970129898800,3.314898681640625,0.0017406903207302094,-0.0037149337586015463,-0.0008660857565701008
1733861970139849700,3.324849609375,0.0018003284931182861,-0.005833479575812817,-0.002189320046454668
1733861970149800700,3.33480078125,-0.00009024981409311295,-0.006048928946256638,-0.002186922822147608
1733861970159751700,3.344751708984375,0.0013277875259518623,-0.005585033446550369,-0.002780358539894223
1733861970169702700,3.35470263671875,0.0012798509560525417,-0.006606888957321644,-0.002422695979475975
1733861970179653600,3.364653564453125,-0.0005589413922280073,-0.006691161543130875,-0.0015063377795740962
1733861970189604900,3.37460498046875,0.0015545431524515152,-0.0011022519320249557,-0.0024837180972099304
1733861970199555600,3.3845556640625,0.00027618883177638054,0.004123997408896685,-0.0010814416455104947
1733861970209506800,3.3945068359375,0.0001536831259727478,0.006004455499351025,0.00013668823521584272
1733861970219457500,3.40445751953125,-0.0004893983714282513,0.009189985692501068,0.0017121974378824234
1733861970229408800,3.41440869140625,0.0008360566571354866,0.0047113471664488316,0.0015952845569700003
1733861970239358700,3.424358642578125,-0.0012457813136279583,0.0006935708224773407,-0.0028215888887643814
1733861970249309700,3.434309814453125,0.0015758378431200981,-0.003773881820961833,-0.003111873287707567
1733861970259260700,3.4442607421875,0.0008001946844160557,-0.0059565030969679356,-0.002537878230214119
1733861970269211600,3.454211669921875,0.0002667638473212719,-0.002890672069042921,-0.0016928570112213492
1733861970279162600,3.46416259765625,0.0014429627917706966,0.000011413590982556343,-0.0008053821511566639
1733861970289113900,3.47411376953125,-0.0009200600907206535,-0.0016714376397430897,-0.0015318924561142921
1733861970299064600,3.484064697265625,-0.0010437313467264175,-0.002034331439062953,-0.0003880813019350171
1733861970309015800,3.494015869140625,-0.00003412691876292229,-0.0024825416039675474,-0.0003507970832288265
1733861970318966500,3.503966552734375,0.00040169619023799896,-0.0012282731477171183,-0.0013101949589326978
1733861970328917800,3.513917724609375,0.00018597999587655067,0.002833580132573843,-0.0014553371584042907
1733861970338868700,3.52386865234375,0.0017962520942091942,0.0037785854656249285,0.0005868574953638017
1733861970348819700,3.53381982421875,-0.0004338792059570551,0.002694146241992712,-0.000938601209782064
1733861970358771000,3.54377099609375,0.0006330260075628757,-0.0009193737059831619,-0.00031804561149328947
1733861970368721700,3.5537216796875,-0.0004125309642404318,-0.004134341608732939,0.0004787722136825323
1733861970378673000,3.5636728515625,0.00046350108459591866,-0.0008393216412514448,0.0004952989984303713
1733861970388623600,3.57362353515625,-0.00011999765411019325,0.003860624972730875,0.0002777187619358301
1733861970398574800,3.583574951171875,0.0004246109165251255,0.007566320709884167,0.0015966272912919521
1733861970408525800,3.59352587890625,-0.0009993815328925848,0.010434545576572418,0.0021929091308265924
1733861970418476800,3.603476806640625,0.00038912007585167885,0.00789869949221611,-0.000713396817445755
1733861970428427800,3.613427734375,0.0010466543026268482,0.00756553839892149,0.0011308422544971108
1733861970438378800,3.623378662109375,-0.0008166462648659945,0.006134688854217529,-0.001114178099669516
1733861970448329700,3.633329833984375,-0.00004645995795726776,0.008087052032351494,0.0009971759282052517
1733861970458280700,3.64328076171875,-0.000032774172723293304,0.004189874045550823,0.0014067437732592225
1733861970468231700,3.653231689453125,-0.000030111055821180344,0.002297964645549655,0.002047233982011676
1733861970478183000,3.663182861328125,-0.0008270577527582645,0.003562913741916418,0.0024618639145046473
1733861970488133600,3.673133544921875,-0.0006249239668250084,0.005745640490204096,0.0010589106241241097
1733861970498084900,3.6830849609375,-0.0014464047271758318,0.006991986650973558,-0.0007245063316076994
1733861970508035600,3.69303564453125,-0.0005079067777842283,0.0036214899737387896,0.00039268971886485815
1733861970517986800,3.70298681640625,0.0005287243984639645,0.0012246828991919756,0.0009977177251130342
1733861970527937500,3.7129375,0.00013244617730379105,0.001419360050931573,0.00015908828936517239
1733861970537888800,3.722888671875,0.0009279828518629074,0.005355190951377153,0.0006983690545894206
1733861970547839700,3.73283984375,0.0013809865340590477,0.006160530727356672,0.00036973494570702314
1733861970557790700,3.742790771484375,0.0016754590906202793,0.00650354940444231,0.00009858550038188696
1733861970567741700,3.75274169921875,-0.002112088492140174,0.006281175650656223,-0.00006786198355257511
1733861970577692700,3.762692626953125,-0.000850047217682004,0.005161556415259838,0.0010764168109744787
1733861970587643600,3.7726435546875,-0.0000668116845190525,0.003646483877673745,0.0033331792801618576
1733861970597594600,3.7825947265625,-0.00125997350551188,0.002255222061648965,0.0019524251110851765
1733861970607545900,3.7925458984375,-0.0010953901801258326,0.0030517736449837685,0.002053359057754278
1733861970617496800,3.802496826171875,0.00040386710315942764,0.00012967106886208057,-0.00022049073595553637
1733861970627447800,3.81244775390625,0.0008917581290006638,-0.0012852665968239307,0.0004591479664668441
1733861970637398800,3.822398681640625,0.0017737597227096558,-0.00029848795384168625,0.001431624055840075
1733861970647348700,3.8323486328125,-0.0016308252234011889,0.0015920901205390692,0.00371395330876112
1733861970657299700,3.8422998046875,-0.001369233475998044,0.008157879114151001,0.004198048729449511
1733861970667251000,3.8522509765625,-0.0024150568060576916,0.010522233322262764,0.006225246470421553
1733861970677201700,3.86220166015625,-0.0026829224079847336,0.014756019227206707,0.006626488640904427
1733861970687153000,3.87215283203125,-0.002950037596747279,0.015452968887984753,0.005342844873666763
1733861970697103600,3.882103515625,-0.0022738182451575994,0.016729796305298805,0.005757329054176807
1733861970707054800,3.892054931640625,-0.0017233428079634905,0.016539113596081734,0.004267024341970682
1733861970717005800,3.902005859375,-0.0029346412047743797,0.01232410129159689,0.0047364491038024426
1733861970726956800,3.911956787109375,-0.0032803192734718323,0.005368989892303944,0.005358563270419836
1733861970736907800,3.92190771484375,-0.002863801084458828,0.005551682785153389,0.00566802266985178
1733861970746858800,3.931858642578125,-0.0021380751859396696,0.003737510647624731,0.003997331019490957
1733861970756809700,3.941809814453125,-0.0034149980638176203,0.002397701144218445,0.005376939196139574
1733861970766760700,3.9517607421875,-0.004494643770158291,0.0048773703165352345,0.0026533245109021664
1733861970776711700,3.961711669921875,-0.0010533896274864674,0.01033181231468916,0.004671188071370125
1733861970786663000,3.971662841796875,-0.0009742937982082367,0.014276220463216305,0.006039519794285297
1733861970796614000,3.98161376953125,-0.0021392647176980972,0.009106013923883438,0.005210923962295055
1733861970806564900,3.99156494140625,-0.0002715899609029293,0.006915298290550709,0.004439406096935272
1733861970816515800,4.001515869140625,0.0003773346543312073,0.0036791469901800156,0.0018080768641084433
1733861970826466800,4.011466796875,0.0015712296590209007,0.0039681000635027885,0.0020996928215026855
1733861970836417800,4.021417724609375,-0.001011884305626154,0.0034680080134421587,0.001668556360527873
1733861970846368800,4.03136865234375,0.0011761686764657497,0.0030264558736234903,0.0015188866527751088
1733861970856320000,4.041320068359375,-0.0016005872748792171,0.0013943943195044994,-0.001163835171610117
1733861970866270700,4.051270751953125,0.000494787935167551,-0.001018695766106248,-0.0007944547105580568
1733861970876222000,4.061221923828125,-0.0011097642127424479,-0.0019488572143018246,0.0005792091251350939
1733861970886172700,4.071172607421875,-0.0002066860906779766,0.002890639007091522,0.000005830544978380203
1733861970896124000,4.0811240234375,-0.0014412885066121817,0.007039031479507685,0.0033624335192143917
1733861970906075000,4.091074951171875,0.0004415661096572876,0.013969908468425274,0.003160565858706832
1733861970916025900,4.10102587890625,-0.003148629330098629,0.01605798490345478,0.004912140779197216
1733861970925976800,4.110976806640625,-0.0016338233835995197,0.017471591010689735,0.0037496706936508417
1733861970935927800,4.120927734375,-0.0005199855659157038,0.02111058682203293,0.005065188743174076
1733861970945878800,4.130878662109375,-0.003548798616975546,0.024477887898683548,0.0070838648825883865
1733861970955829800,4.140829833984375,-0.0029911722522228956,0.027959786355495453,0.01033547893166542
1733861970965780700,4.15078076171875,-0.004463633988052607,0.03156916797161102,0.00957647804170847
1733861970975732000,4.16073193359375,-0.003206107299774885,0.03130773827433586,0.009668676182627678
1733861970985682700,4.1706826171875,-0.0030654924921691418,0.03292134776711464,0.008802881464362144
1733861970995634000,4.180634033203125,-0.002841633278876543,0.029016833752393723,0.008712684735655785
1733861971005584600,4.190584716796875,-0.0038815976586192846,0.018029963597655296,0.009700451046228409
1733861971015535900,4.200535888671875,-0.0033472105860710144,0.010580303147435188,0.005453241989016533
1733861971025486600,4.210486572265625,-0.0022614398039877415,0.0009005118627101183,0.0026308237574994564
1733861971035437800,4.220437744140625,-0.001970057375729084,-0.0048530213534832,-0.0007448691176250577
1733861971045389000,4.23038916015625,-0.0002927985042333603,-0.013307224959135056,-0.0030399817042052746
1733861971055339800,4.24033984375,0.00031756190583109856,-0.013017660938203335,-0.0013491336721926928
1733861971065289700,4.250289794921875,0.001291479915380478,-0.012668521143496037,-0.0032538266386836767
1733861971075241000,4.260240966796875,-0.00041082315146923065,-0.015494441613554955,-0.004608979448676109
1733861971085191700,4.270191650390625,-0.00011894060298800468,-0.015242772176861763,-0.0027021560817956924
1733861971095143000,4.280142822265625,-0.0003498638980090618,-0.011891676113009453,-0.00336354854516685
1733861971105093600,4.29009375,0.000991037581115961,-0.006845252588391304,-0.0007286171894520521
1733861971115044900,4.300044921875,0.0013191457837820053,0.003805394284427166,-0.0026292367838323116
1733861971124995600,4.30999560546875,0.0002224561758339405,0.008298680186271667,0.00048426457215100527
1733861971134946800,4.31994677734375,0.0004155188798904419,0.009569472633302212,0.0012989657698199153
1733861971144897800,4.329897705078125,-0.0018526955973356962,0.009052286855876446,0.00203905813395977
1733861971154848800,4.339848876953125,-0.001011919230222702,0.006694958079606295,0.0022766052279621363
1733861971164800000,4.349800048828125,-0.0019456236623227596,0.009583422914147377,0.0018595540896058083
1733861971174750700,4.359750732421875,-0.0015310903545469046,0.009708131663501263,0.003019690979272127
1733861971184702000,4.369701904296875,-0.0010011212434619665,0.00767587311565876,0.0018034251406788826
1733861971194652700,4.379652587890625,-0.0026014368049800396,0.0055107232183218,0.000427103484980762
1733861971204604000,4.38960400390625,-0.0014368363190442324,0.004520826041698456,-0.0021673478186130524
1733861971214555000,4.399554931640625,-0.0004405383951961994,0.0017033345066010952,0.00022265175357460976
1733861971224505900,4.409505859375,0.0014854595065116882,0.0017667177598923445,0.0011968360049650073
1733861971234456800,4.419456787109375,0.0023645046167075634,0.0037319979164749384,0.0018814557697623968
1733861971244407800,4.42940771484375,0.001922686118632555,0.010942772962152958,0.0037509948015213013
1733861971254358800,4.43935888671875,0.002827052026987076,0.013066403567790985,0.0024538603611290455
1733861971264309800,4.449309814453125,0.0018054638057947159,0.008857810869812965,0.002353725489228964
1733861971274260700,4.4592607421875,0.001621117815375328,-0.0004881136119365692,0.00100451591424644
1733861971284212000,4.4692119140625,0.00011403532698750496,-0.015502749010920525,-0.0028099296614527702
1733861971294162700,4.47916259765625,0.002994814421981573,-0.02159939333796501,0.0007372149266302586
1733861971304114000,4.489114013671875,0.004667279310524464,-0.025466835126280785,-0.0019073039293289185
1733861971314064600,4.499064697265625,0.002334287855774164,-0.028951352462172508,-0.003444242523983121
1733861971324015900,4.509015869140625,0.0020160400308668613,-0.03347526490688324,-0.0019190502353012562
1733861971333966800,4.518966796875,0.0022483416832983494,-0.03561405465006828,-0.002763912081718445
1733861971343917800,4.528917724609375,0.005288340616971254,-0.03668491169810295,-0.00539644667878747
1733861971353868800,4.538868896484375,0.005182269029319286,-0.036124296486377716,-0.009595033712685108
1733861971363819800,4.54881982421875,0.004934861324727535,-0.035210832953453064,-0.010393182747066021
1733861971373770800,4.558770751953125,0.002318028826266527,-0.030712714418768883,-0.007797262631356716
1733861971383721700,4.5687216796875,0.0016490425914525986,-0.017729273065924644,-0.005611606873571873
1733861971393672700,4.578672607421875,-0.0005229632370173931,-0.005445962306112051,0.00014421914238482714
1733861971403624000,4.5886240234375,-0.0019094047602266073,0.0010987562127411366,0.0022169575095176697
1733861971413575000,4.598574951171875,-0.0026375711895525455,0.002635614015161991,0.0034824186004698277
1733861971423526000,4.60852587890625,-0.000547788804396987,0.0029408123809844255,-0.001138964667916298
1733861971433476900,4.618476806640625,-0.0014055753126740456,-0.0058596692979335785,-0.0046641528606414795
1733861971443427800,4.628427734375,0.0006985883228480816,-0.01850089617073536,-0.006373901851475239
1733861971453378800,4.63837890625,0.0014850166626274586,-0.02864033542573452,-0.0048028575256466866
1733861971463329800,4.648329833984375,0.003424596507102251,-0.02701953612267971,-0.004253980237990618
1733861971473279700,4.65827978515625,0.05478765815496445,0.02186117321252823,0.03943539783358574
1733861971483230700,4.668230712890625,0.09016748517751694,0.035503216087818146,0.05682584270834923
1733861971493181700,4.678181640625,0.026376277208328247,0.025449702516198158,0.015624068677425385
1733861971503133000,4.6881328125,-0.009811555035412312,0.014150177128612995,0.007564278319478035
1733861971513084000,4.698083984375,-0.00043270434252917767,0.014641011133790016,0.006282277870923281
1733861971523035000,4.708034912109375,-0.00020527048036456108,0.015064986422657967,-0.0040451944805681705
1733861971532985900,4.71798583984375,-0.001015940448269248,0.018829111009836197,0.0037696307990700006
1733861971542936800,4.727936767578125,-0.005897248163819313,0.02636372670531273,0.009939908050000668
1733861971552887800,4.7378876953125,-0.005291889421641827,0.024145232513546944,0.009964404627680779
1733861971562838800,4.7478388671875,-0.004138207994401455,0.017956845462322235,0.0056487517431378365
1733861971572790000,4.7577900390625,-0.0028372760862112045,0.004933536518365145,0.002785859163850546
1733861971582740700,4.76774072265625,-0.0009933034889400005,-0.007402758114039898,0.0006958103040233254
1733861971592692000,4.77769189453125,0.0031753540970385075,-0.01338665559887886,-0.002474286127835512
1733861971602642700,4.787642578125,0.002530336380004883,-0.01843787170946598,-0.00357310613617301
1733861971612594000,4.797593994140625,0.003868833649903536,-0.023519424721598625,-0.0056641302071511745
1733861971622544600,4.807544677734375,0.00479454779997468,-0.022754564881324768,-0.008654061704874039
1733861971632495900,4.817495849609375,0.006739207077771425,-0.02088988572359085,-0.007618584204465151
1733861971642446800,4.82744677734375,0.006576754618436098,-0.018987590447068214,-0.007479566615074873
1733861971652397800,4.837397705078125,0.0055418056435883045,-0.015887243673205376,-0.010022341273725033
1733861971662348500,4.8473486328125,0.006815862376242876,-0.012520740740001202,-0.011105448938906193
1733861971672299300,4.85729931640625,0.007787372916936874,-0.01386107038706541,-0.011762846261262894
1733861971682250500,4.86725048828125,0.005538865923881531,-0.017588164657354355,-0.015435879118740559
1733861971692201500,4.877201416015625,0.005024855490773916,-0.023476067930459976,-0.015707779675722122
1733861971702152400,4.88715234375,0.002993929199874401,-0.02585533633828163,-0.013790037482976913
1733861971712103400,4.897103515625,0.002455277368426323,-0.028813166543841362,-0.012714637443423271
1733861971722054400,4.907054443359375,0.0029114768840372562,-0.029073355719447136,-0.016994602978229523
1733861971732005600,4.917005615234375,0.003829989116638899,-0.035096053034067154,-0.015276462770998478
1733861971741956400,4.926956298828125,0.0015359423123300076,-0.036668915301561356,-0.016229873523116112
1733861971751907600,4.936907470703125,0.001768668182194233,-0.036860011518001556,-0.017330419272184372
1733861971761858600,4.946858642578125,0.0018035555258393288,-0.037158817052841187,-0.016910437494516373
1733861971771809500,4.9568095703125,0.0010533318854868412,-0.03730711713433266,-0.014765126630663872
1733861971781760500,4.966760498046875,-0.0008974333759397268,-0.03300744295120239,-0.010198869742453098
1733861971791711500,4.97671142578125,-0.001855908427387476,-0.023009654134511948,-0.010522398166358471
1733861971801662500,4.986662353515625,-0.003631437895819545,-0.01725802570581436,-0.007517820689827204
1733861971811613400,4.996613525390625,-0.0048994338139891624,-0.008690120652318,-0.003046570345759392
1733861971821564400,5.006564453125,-0.006508782505989075,0.0011220292653888464,0.0012981105828657746
1733861971831515600,5.016515625,-0.009754300117492676,0.011917395517230034,0.004661211743950844
1733861971841466400,5.02646630859375,-0.011670445092022419,0.016672203317284584,0.012001948431134224
1733861971851417600,5.03641748046875,-0.01571100763976574,0.02062625251710415,0.013112934306263924
1733861971861368300,5.046368408203125,-0.012074461206793785,0.02652089297771454,0.01592869497835636
1733861971871319600,5.056319580078125,-0.010792170651257038,0.03863702341914177,0.0165388323366642
1733861971881270500,5.0662705078125,-0.009066175669431686,0.05945708602666855,0.013911624439060688
1733861971891221500,5.076221435546875,-0.011979866772890091,0.07910029590129852,0.014442283660173416
1733861971901171500,5.08617138671875,-0.01564091444015503,0.08845730870962143,0.0190383680164814
1733861971911122700,5.096122802734375,-0.01699944958090782,0.080746591091156,0.021102996543049812
1733861971921073400,5.106073486328125,-0.017504382878541946,0.06523794680833817,0.020084336400032043
1733861971931024600,5.116024658203125,-0.014233499765396118,0.04894369840621948,0.018465803936123848
1733861971940975400,5.125975341796875,-0.008745524100959301,0.038601044565439224,0.01230910886079073
1733861971950926600,5.135926513671875,-0.0025590043514966965,0.03832248970866203,0.0088774049654603
1733861971960877300,5.145877197265625,0.0025574606843292713,0.0467870831489563,0.007034230977296829
1733861971970828500,5.15582861328125,0.0009694425389170647,0.05165604501962662,0.008455773815512657
1733861971980779500,5.165779541015625,0.001883172895759344,0.05985511839389801,0.010711205191910267
1733861971990730500,5.17573046875,-0.0002976963296532631,0.07093309611082077,0.012304399162530899
1733861972000681500,5.185681396484375,-0.0010716111864894629,0.06530104577541351,0.007347191218286753
1733861972010632400,5.195632568359375,-0.00061246776022017,0.04800402745604515,0.0038244465831667185
1733861972020583400,5.20558349609375,-0.0011142073199152946,0.025784209370613098,0.0015136216534301639
1733861972030534400,5.215534423828125,0.0005350671708583832,0.004322407301515341,-0.002081639599055052
1733861972040485400,5.2254853515625,0.002363859675824642,-0.0072309174574911594,-0.005163449794054031
1733861972050436600,5.2354365234375,0.005852874368429184,-0.01246432214975357,-0.00974471028894186
1733861972060387300,5.24538720703125,0.008606050163507462,-0.011606784537434578,-0.011643811129033566
1733861972070338600,5.255338623046875,0.008975178003311157,-0.011143980547785759,-0.015607042238116264
1733861972080289500,5.26528955078125,0.010825276374816895,-0.015770690515637398,-0.018064340576529503
1733861972090240500,5.275240478515625,0.009136056527495384,-0.025754163041710854,-0.019158637151122093
1733861972100191500,5.28519140625,0.008211405947804451,-0.03850458189845085,-0.01889738254249096
1733861972110142500,5.295142578125,0.0055021317675709724,-0.045014262199401855,-0.016382327303290367
1733861972120093700,5.30509375,0.005425432696938515,-0.04636208713054657,-0.014693351462483406
1733861972130044400,5.31504443359375,0.00489655090495944,-0.04732649773359299,-0.016309361904859543
1733861972139995600,5.32499560546875,0.004205194767564535,-0.0423479825258255,-0.016205498948693275
1733861972149946400,5.3349462890625,0.00349463801831007,-0.03609771654009819,-0.01487333420664072
1733861972159897600,5.344897705078125,0.0028908993117511272,-0.03231683000922203,-0.01611649990081787
1733861972169848300,5.354848388671875,0.005593482404947281,-0.027786554768681526,-0.014724289067089558
1733861972179799600,5.364799560546875,0.003962828777730465,-0.03057781048119068,-0.016721658408641815
1733861972189750500,5.37475048828125,0.0034743943251669407,-0.02922249212861061,-0.012021576054394245
1733861972199701500,5.384701416015625,0.0032909023575484753,-0.02465144172310829,-0.007064901292324066
1733861972209652500,5.394652587890625,0.0020526438020169735,-0.01389293186366558,-0.004717834293842316
1733861972219603500,5.404603515625,-0.00003926921635866165,-0.0033864942379295826,-0.0020272424444556236
1733861972229554400,5.414554443359375,-0.0047586774453520775,0.00960527453571558,0.001399671076796949
1733861972239505400,5.42450537109375,-0.0023445221595466137,0.011934209614992142,0.001965326489880681
1733861972249456400,5.434456298828125,-0.000718787545338273,0.0025211896281689405,0.0019961618818342686
1733861972259407600,5.44440771484375,-0.00025007128715515137,-0.00926702655851841,0.000013704877346754074
1733861972269358300,5.4543583984375,-0.0013908795081079006,-0.012123866006731987,0.001818458316847682
1733861972279309600,5.4643095703125,0.0005175420083105564,-0.0005316582974046469,0.003416621359065175
1733861972289260300,5.47426025390625,-0.000852958532050252,0.018198221921920776,0.011035311967134476
1733861972299211500,5.48421142578125,-0.002953926334157586,0.039856910705566406,0.018513735383749008
1733861972309162500,5.49416259765625,-0.004348080139607191,0.0629720464348793,0.02606792189180851
1733861972319113500,5.504113525390625,-0.005591776221990585,0.08691465854644775,0.03689739853143692
1733861972329064400,5.514064453125,-0.0056471810676157475,0.11288105696439743,0.044974371790885925
1733861972339015400,5.524015380859375,0.034273602068424225,0.1951245367527008,0.0959525927901268
1733861972348966700,5.533966552734375,0.11119420826435089,0.21547271311283112,0.1436309963464737
1733861972358916600,5.54391650390625,0.08343847841024399,0.22005973756313324,0.11642813682556152
1733861972368867300,5.553867431640625,0.039823949337005615,0.19531875848770142,0.09035378694534302
1733861972378818600,5.563818603515625,0.01613246463239193,0.14818666875362396,0.0533590093255043
1733861972388769300,5.573769287109375,0.011019979603588581,0.10040508955717087,0.00746413879096508
1733861972398720500,5.583720458984375,0.02134265936911106,0.03899099677801132,-0.01943725161254406
1733861972408671500,5.59367138671875,0.024570660665631294,-0.022650741040706635,-0.03312491998076439
1733861972418622500,5.60362255859375,0.02093890868127346,-0.08078914135694504,-0.02982233464717865
1733861972428573400,5.613573486328125,0.020175427198410034,-0.10985424369573593,-0.0273666400462389
1733861972438524400,5.6235244140625,0.016195598989725113,-0.11219729483127594,-0.0233473964035511
1733861972448475600,5.6334755859375,0.014127567410469055,-0.10461869835853577,-0.02117588184773922
1733861972458426400,5.64342626953125,0.013783220201730728,-0.09959305077791214,-0.02171517163515091
1733861972468377600,5.653377685546875,0.015819255262613297,-0.10010294616222382,-0.02878032810986042
1733861972478328600,5.66332861328125,0.015079429373145103,-0.0982254222035408,-0.031456537544727325
1733861972488279600,5.673279541015625,0.01654336415231228,-0.09657690674066544,-0.03154437616467476
1733861972498230500,5.68323046875,0.015038145706057549,-0.09021221846342087,-0.028507575392723083
1733861972508181500,5.693181396484375,0.012316903099417686,-0.0814916118979454,-0.024229688569903374
1733861972518132500,5.703132568359375,0.008784218691289425,-0.061390865594148636,-0.019046911969780922
1733861972528083500,5.71308349609375,0.007285946514457464,-0.03459635004401207,-0.013237496837973595
1733861972538034400,5.723034423828125,0.005339175928384066,-0.009903253987431526,-0.008965786546468735
1733861972547985700,5.732985595703125,0.0017484063282608986,0.01029240246862173,-0.0015581076731905341
1733861972557936400,5.742936279296875,-0.00035069696605205536,0.027734242379665375,0.0031088157556951046
1733861972567887600,5.7528876953125,-0.0027754944749176502,0.03487520292401314,0.005657857283949852
1733861972577838300,5.76283837890625,-0.005081526003777981,0.031550779938697815,0.0055585214868187904
1733861972587789600,5.77278955078125,-0.005889269523322582,0.026721695438027382,0.00788435060530901
1733861972597740300,5.782740234375,-0.003171779913827777,0.03333059698343277,0.010044440627098083
1733861972607691500,5.79269140625,-0.0033653471618890762,0.04713892564177513,0.014038372784852982
1733861972617642500,5.802642578125,-0.0040830690413713455,0.06348514556884766,0.019427545368671417
1733861972627593500,5.812593505859375,-0.004730006214231253,0.08331684023141861,0.021341972053050995
1733861972637544400,5.82254443359375,-0.002732369117438793,0.09792055189609528,0.024356937035918236
1733861972647495400,5.832495361328125,-0.0025168638676404953,0.10681238025426865,0.027419425547122955
1733861972657446400,5.8424462890625,-0.0035613556392490864,0.10708774626255035,0.026771744713187218
1733861972667400200,5.852400146484375,-0.004164407961070538,0.09697934240102768,0.024556387215852737
1733861972677351200,5.86235107421875,-0.005114357452839613,0.08441454917192459,0.02173450216650963
1733861972687302100,5.87230224609375,-0.006014430895447731,0.06563684344291687,0.014150411821901798
1733861972697253000,5.882253173828125,-0.006726826541125774,0.040754396468400955,0.011404426768422127
1733861972707204000,5.8922041015625,-0.004860742017626762,0.018845077604055405,0.005794386845082045
1733861972717155300,5.9021552734375,-0.00400160625576973,0.00449596531689167,0.002430547960102558
1733861972727106000,5.91210595703125,-0.004374693147838116,-0.0026352619752287865,0.0006281155510805547
1733861972737057300,5.922057373046875,-0.0019373679533600807,-0.013945972546935081,0.0008893716149032116
1733861972747008000,5.932008056640625,-0.0022505817469209433,-0.022691167891025543,-0.001375862630084157
1733861972756959200,5.941959228515625,-0.0020766775123775005,-0.025106120854616165,-0.0014813239686191082
1733861972766910000,5.951909912109375,-0.001982663990929723,-0.03150784224271774,-0.002604158129543066
1733861972776861200,5.961861083984375,0.0012839692644774914,-0.04857311025261879,-0.007623151410371065
1733861972786812400,5.9718125,0.0040750280022621155,-0.0727338045835495,-0.012475132010877132
1733861972796762000,5.98176220703125,0.002087777014821768,-0.09302496165037155,-0.007836171425879002
1733861972806713000,5.991713134765625,0.002690377179533243,-0.09834862500429153,-0.0015310797607526183
1733861972816664300,6.001664306640625,0.004408915061503649,-0.09223960340023041,-0.00004370429087430239
1733861972826615000,6.011614990234375,0.008220406249165535,-0.07888029515743256,0.006327427923679352
1733861972836566300,6.021566162109375,0.14852239191532135,0.04103412106633186,0.10790199041366577
1733861972846517000,6.03151708984375,0.14556154608726501,0.04867798089981079,0.09791121631860733
1733861972856468200,6.04146826171875,0.06725102663040161,0.0484476163983345,0.05300978571176529
1733861972866419200,6.051419189453125,0.0008424208499491215,0.030858051031827927,0.023336051031947136
1733861972876370200,6.0613701171875,0.0038459342904388905,0.05962897837162018,0.017902936786413193
1733861972886321400,6.0713212890625,0.002067748922854662,0.07647877186536789,0.016129978001117706
1733861972896272100,6.081272216796875,-0.0033696272876113653,0.09420956671237946,0.027393018826842308
1733861972906223400,6.091223388671875,-0.009692206978797913,0.10111609846353531,0.038575537502765656
1733861972916174000,6.101174072265625,-0.007231446448713541,0.10087268799543381,0.02832130342721939
1733861972926125300,6.111125244140625,-0.003944592550396919,0.08236564695835114,0.0152768325060606
1733861972936076300,6.121076171875,-0.0032937158830463886,0.05548236891627312,0.000920530641451478
1733861972946027300,6.13102734375,0.00020829727873206139,0.028314558789134026,-0.006830322556197643
1733861972955978200,6.140978271484375,0.0006075049750506878,0.003651290899142623,-0.012636013329029083
1733861972965929200,6.15092919921875,0.0013420525938272476,-0.010761379264295101,-0.013714649714529514
1733861972975880200,6.160880126953125,0.0021465937606990337,-0.019010253250598907,-0.01690778136253357
1733861972985831200,6.1708310546875,0.0029482203535735607,-0.026549184694886208,-0.01904168352484703
1733861972995782100,6.1807822265625,0.004193248692899942,-0.0285569429397583,-0.023838039487600327
1733861973005733400,6.1907333984375,0.0048435465432703495,-0.033415716141462326,-0.02550463378429413
1733861973015684000,6.20068408203125,0.00520813325420022,-0.03679127246141434,-0.0246681347489357
1733861973025635300,6.21063525390625,0.005152736324816942,-0.034817591309547424,-0.021568704396486282
1733861973035586000,6.2205859375,0.003580938559025526,-0.02805928699672222,-0.019891977310180664
1733861973045537300,6.230537353515625,0.00351149495691061,-0.021065257489681244,-0.016582967713475227
1733861973055488000,6.240488037109375,0.002211073413491249,-0.014325597323477268,-0.013068661093711853
1733861973065439200,6.250439208984375,0.002182221505790949,-0.006705969572067261,-0.01179591566324234
1733861973075390200,6.26039013671875,0.0028530717827379704,0.0035794253926724195,-0.00932556763291359
1733861973085341200,6.270341064453125,0.0043692453764379025,0.015462849289178848,-0.009228017181158066
1733861973095292200,6.280292236328125,0.00426484877243638,0.023320771753787994,-0.00822959840297699
1733861973105243100,6.2902431640625,0.0013707741163671017,0.025834064930677414,-0.003668708261102438
1733861973115194000,6.300194091796875,0.00277505861595273,0.029747845605015755,-0.0027336725033819675
1733861973125145000,6.31014501953125,0.0017337589524686337,0.03557991608977318,-0.002966121304780245
1733861973135096300,6.320096435546875,0.004275480285286903,0.041994139552116394,-0.00428758142516017
1733861973145047300,6.33004736328125,0.005806552711874247,0.0500706285238266,-0.004165614489465952
1733861973154998300,6.339998291015625,0.004111716989427805,0.05144269019365311,-0.00748071726411581
1733861973164949200,6.34994921875,0.004289612639695406,0.04533261060714722,-0.008034875616431236
1733861973174900200,6.359900146484375,0.0051892283372581005,0.037808116525411606,-0.007893728092312813
1733861973184851200,6.369851318359375,0.005473598372191191,0.02787686698138714,-0.010785724967718124
1733861973194802200,6.37980224609375,0.003979298751801252,0.016315285116434097,-0.013564467430114746
1733861973204753200,6.389753173828125,0.005306703969836235,0.01595463976264,-0.012232646346092224
1733861973214704400,6.399704345703125,0.004632924683392048,0.016602320596575737,-0.014242533594369888
1733861973224655000,6.409655029296875,0.003860275261104107,0.020244702696800232,-0.010552173480391502
1733861973234606300,6.4196064453125,0.0028719762340188026,0.02521895430982113,-0.008761996403336525
1733861973244556300,6.429556396484375,-0.0007823773194104433,0.030634624883532524,-0.004395666532218456
1733861973254507300,6.43950732421875,-0.0035824249498546124,0.040383391082286835,-0.0005023912526667118
1733861973264458200,6.449458251953125,-0.002680686069652438,0.0497625395655632,0.0015664428938180208
1733861973274409200,6.4594091796875,-0.0013323277235031128,0.057912878692150116,0.0050264219753444195
1733861973284360200,6.469360107421875,-0.0036018735263496637,0.058561887592077255,0.004880480468273163
1733861973294311200,6.479311279296875,-0.002519032219424844,0.055065955966711044,0.003227190114557743
1733861973304262100,6.48926220703125,-0.0025626819115132093,0.04427953064441681,0.003101438283920288
1733861973314213400,6.49921337890625,-0.004072161857038736,0.030362382531166077,0.001959474990144372
1733861973324164000,6.5091640625,-0.001557641662657261,0.020154885947704315,0.0017535330262035131
1733861973334115300,6.519115234375,-0.0018015874084085226,0.014982229098677635,0.0021743124816566706
1733861973344066000,6.529066162109375,-0.0013195183128118515,0.015222578309476376,0.0037874686531722546
1733861973354017300,6.539017333984375,0.000705815851688385,0.020499099045991898,0.003443388268351555
1733861973363968300,6.54896826171875,0.0010584034025669098,0.026101911440491676,0.003634784370660782
1733861973373919200,6.558919189453125,-0.0017549600452184677,0.03183276951313019,0.006386628374457359
1733861973383870200,6.5688701171875,-0.0018942547030746937,0.03524245321750641,0.009399598464369774
1733861973393821200,6.5788212890625,-0.002819436602294445,0.04082976281642914,0.010318921878933907
1733861973403772200,6.588772216796875,-0.00001855241134762764,0.03716325759887695,0.009522716514766216
1733861973413723100,6.59872314453125,-0.0004518488422036171,0.031156230717897415,0.005196145735681057
1733861973423674000,6.608674072265625,-0.0005813813768327236,0.022620651870965958,0.003024592064321041
1733861973433625300,6.618625244140625,0.00006363634020090103,0.017680486664175987,-0.00003591272979974747
1733861973443576000,6.628576171875,0.00024766381829977036,0.012003413401544094,-0.0013204010901972651
1733861973453527300,6.63852734375,0.0017667310312390327,0.0076552703976631165,-0.0007851057453081012
1733861973463478000,6.64847802734375,-0.00032027717679739,0.007993346080183983,0.0017829029820859432
1733861973473429200,6.65842919921875,-0.0020345537923276424,0.018765833228826523,0.006059407256543636
1733861973483380000,6.6683798828125,-0.00278882822021842,0.029236292466521263,0.006768356543034315
1733861973493331200,6.678331298828125,-0.0024138549342751503,0.03516901656985283,0.009243232198059559
1733861973503282400,6.688282470703125,-0.0017771038692444563,0.03201906755566597,0.008131499402225018
1733861973513233200,6.698233154296875,-0.0011328852269798517,0.025684740394353867,0.005651829764246941
1733861973523184400,6.708184326171875,0.0009765741415321827,0.01853293925523758,0.004583247937262058
1733861973533135000,6.718135009765625,-0.0007467572577297688,0.010900851339101791,0.002319561317563057
1733861973543086300,6.72808642578125,0.0013050045818090439,0.007533314172178507,0.0013687910977751017
1733861973553037000,6.738037109375,0.000472500454634428,0.010854275897145271,0.0024146144278347492
1733861973562988300,6.74798828125,0.001349983736872673,0.014496787451207638,0.003315392881631851
1733861973572939300,6.757939208984375,0.002426167018711567,0.01641825959086418,0.0019169669831171632
1733861973582890200,6.76789013671875,0.0031185848638415337,0.016301358118653297,0.0026919925585389137
1733861973592841200,6.77784130859375,0.0020828815177083015,0.015864068642258644,0.004473114386200905
1733861973602792200,6.787792236328125,0.0010298783890902996,0.015958303585648537,0.004917459562420845
1733861973612743200,6.7977431640625,0.003897570539265871,0.01699640415608883,0.003548061940819025
1733861973622694100,6.807694091796875,0.002818478737026453,0.020672019571065903,0.004327563103288412
1733861973632645000,6.81764501953125,0.005045947153121233,0.021471232175827026,0.005417594686150551
1733861973642596400,6.827596435546875,0.0015367181040346622,0.022762799635529518,0.006467719562351704
1733861973652547000,6.837547119140625,0.00022857356816530228,0.02470024861395359,0.007337774150073528
1733861973662495700,6.847495849609375,0.0015412610955536366,0.029713328927755356,0.006012137979269028
1733861973672447000,6.857447021484375,-0.0009671705774962902,0.02709411084651947,0.004350059200078249
1733861973682398000,6.86739794921875,-0.0007783444598317146,0.020299028605222702,0.003004806349053979
1733861973692349000,6.877348876953125,-0.0008569078054279089,0.015371913090348244,0.002401866717264056
1733861973702299000,6.887298828125,-0.00013309065252542496,0.011904319748282433,-0.0005695935105904937
1733861973712249900,6.897249755859375,0.0012911679223179817,0.0016476877499371767,-0.002535805106163025
1733861973722200800,6.907200927734375,0.0011364566162228584,-0.004572192206978798,-0.0034984976518899202
1733861973732151800,6.91715185546875,0.0009596226736903191,-0.00677995290607214,-0.005655125714838505
1733861973742102800,6.927102783203125,-0.0017025209963321686,-0.008212026208639145,-0.004281144589185715
1733861973752054000,6.937053955078125,-0.0008300694171339273,-0.006279370281845331,-0.004948799032717943
1733861973762004700,6.947004638671875,-0.0007158375810831785,-0.006655076518654823,-0.0027389463502913713
1733861973771956000,6.9569560546875,0.001958508975803852,-0.004325609654188156,-0.0017828713171184063
1733861973781907000,6.966906982421875,0.000016293954104185104,-0.0038330305833369493,-0.0014820321230217814
1733861973791858000,6.97685791015625,0.0004266868345439434,-0.0024340718518942595,-0.0008231661049649119
1733861973801809000,6.986808837890625,-0.0004077027551829815,-0.003783416235819459,-0.000752319348976016
1733861973811759900,6.996759765625,-0.00044978060759603977,-0.005211936309933662,-0.002268723212182522
1733861973821710800,7.0067109375,-0.001005317084491253,-0.004489539656788111,-0.0023048187140375376
1733861973831661800,7.016661865234375,-0.002930516144260764,-0.0035579660907387733,0.0008531577186658978
1733861973841612800,7.02661279296875,-0.0006428244523704052,-0.0019177929498255253,0.0008028640877455473
1733861973851564000,7.03656396484375,-0.0012992937117815018,0.00040554883889853954,0.0021357762161642313
1733861973861514800,7.0465146484375,-0.0025083664804697037,-0.0015893708914518356,-0.000632132519967854
1733861973871466000,7.056466064453125,-0.002154698595404625,-0.005033637396991253,-0.0018630455015227199
1733861973881416700,7.066416748046875,-0.0007864357903599739,-0.01088455319404602,-0.003187938127666712
1733861973891368000,7.076367919921875,0.0002114507369697094,-0.015497148036956787,-0.00474109360948205
1733861973901319000,7.08631884765625,0.0005521676503121853,-0.017189424484968185,-0.0037218467332422733
1733861973911270000,7.096269775390625,-0.0001258733682334423,-0.017140688374638557,-0.0060822064988315105
1733861973921220900,7.106220947265625,0.0012951204553246498,-0.014222449623048306,-0.006173624657094479
1733861973931171800,7.116171875,0.00011001387611031532,-0.01727735996246338,-0.006767243146896362
1733861973941122800,7.126122802734375,0.001050382386893034,-0.01546914130449295,-0.0072220731526613235
1733861973951073800,7.13607373046875,0.0023446790874004364,-0.011858426034450531,-0.0064031509682536125
1733861973961024800,7.146024658203125,0.0015156008303165436,-0.011015203781425953,-0.006152053363621235
1733861973970976000,7.15597607421875,-0.0006085361819714308,-0.014358269982039928,-0.006951267831027508
1733861973980926700,7.1659267578125,0.002724932972341776,-0.019397316500544548,-0.008314280770719051
1733861973990878000,7.1758779296875,0.00039173755794763565,-0.021802151575684547,-0.00758643914014101
1733861974000828700,7.18582861328125,0.0016921102069318295,-0.0204900112003088,-0.007691367529332638
1733861974010780000,7.19577978515625,0.0009389682672917843,-0.014151955023407936,-0.008980603888630867
1733861974020731000,7.20573095703125,0.00168694369494915,-0.0063013299368321896,-0.004546159412711859
1733861974030681900,7.215681884765625,-0.0008313413709402084,0.00015257415361702442,-0.0015626201638951898
1733861974040633000,7.225633056640625,-0.0004398333840072155,0.004482541233301163,-0.0009919756557792425
1733861974050583800,7.235583740234375,-0.00020520901307463646,0.004935811273753643,-0.0002753189764916897
1733861974060535000,7.24553515625,-0.00019035674631595612,0.003764286870136857,-0.00043430959340184927
1733861974070485800,7.25548583984375,0.000592346303164959,0.0013035261072218418,0.00003973301500082016
1733861974080437000,7.26543701171875,0.0006496836431324482,0.00021113757975399494,-0.0013086461694911122
1733861974090387700,7.2753876953125,0.00023156730458140373,-0.002332713920623064,-0.0010021162452176213
1733861974100339000,7.2853388671875,0.00016649020835757256,-0.0020028664730489254,0.0002464957069605589
1733861974110290000,7.2952900390625,0.0004905969835817814,0.0022557945922017097,0.0019075092859566212
1733861974120241000,7.305240966796875,-0.0015063814353197813,0.007299621123820543,0.0019404940539970994
1733861974130192000,7.31519189453125,0.00007020961493253708,0.012607300654053688,0.0023868398275226355
1733861974140142800,7.325142822265625,-0.00028405943885445595,0.012550190091133118,0.004212293308228254
1733861974150093800,7.33509375,-0.00003452133387327194,0.008333873935043812,0.0029374381992965937
1733861974160044000,7.3450439453125,-0.0017520834226161242,0.001634146086871624,-0.00004321697633713484
1733861974169994800,7.354994873046875,0.0008895061910152435,-0.006088488735258579,-0.0017609558999538422
1733861974179946000,7.364946044921875,0.0014846138656139374,-0.00941333919763565,-0.005143605172634125
1733861974189896700,7.374896728515625,0.0001988396979868412,-0.014530868269503117,-0.004387267865240574
1733861974199848000,7.384847900390625,0.002026817761361599,-0.017068570479750633,-0.00524961668998003
1733861974209799000,7.394798828125,0.002600995358079672,-0.013965720310807228,-0.004466380923986435
1733861974219750000,7.40475,0.0011987248435616493,-0.007728982251137495,-0.004544712603092194
1733861974229700900,7.414700927734375,0.001792343333363533,-0.006603796500712633,-0.00392206571996212
1733861974239651800,7.42465185546875,0.003016563132405281,-0.006311769597232342,-0.0013123087119311094
1733861974249602800,7.434602783203125,0.001968076452612877,-0.010289466939866543,-0.004413293674588203
1733861974259553800,7.4445537109375,0.0008971118368208408,-0.013369051739573479,-0.0040382700972259045
1733861974269504800,7.4545048828125,0.002143737394362688,-0.01517787016928196,-0.005316321272403002
1733861974279456000,7.4644560546875,0.0028190556913614273,-0.015407304279506207,-0.005580425728112459
1733861974289406700,7.47440673828125,0.002343681175261736,-0.011621087789535522,-0.005073360167443752
1733861974299358000,7.48435791015625,0.001038338989019394,-0.007989534176886082,-0.003225965891033411
1733861974309308700,7.49430859375,0.0014442047104239464,-0.003041114192456007,-0.0023258174769580364
1733861974319260000,7.504260009765625,0.00022602081298828125,-0.0041691698133945465,-0.001879081130027771
1733861974329211000,7.5142109375,0.0020819776691496372,-0.005101541988551617,-0.0024780260864645243
1733861974339161900,7.524161865234375,0.0011675357818603516,-0.0050763292238116264,-0.0025746470782905817
1733861974349112800,7.53411279296875,0.0017475723288953304,-0.006987679749727249,-0.0024305700790137053
1733861974359063800,7.544063720703125,0.0002514757215976715,-0.0015737523790448904,-0.0023767107632011175
1733861974369015000,7.55401513671875,-0.002655897056683898,0.0034689432941377163,-0.002799087902531028
1733861974378965800,7.5639658203125,0.000020973850041627884,0.005343607626855373,0.0006549941026605666
1733861974388917000,7.5739169921875,-0.0006466808263212442,0.01371472142636776,0.0023929730523377657
1733861974398868000,7.583867919921875,-0.0008395425975322723,0.01728796772658825,0.0036842338740825653
1733861974408819000,7.59381884765625,-0.0011063911952078342,0.014727338217198849,0.002779025584459305
1733861974418770000,7.60377001953125,-0.0020622878801077604,0.011758445762097836,0.004313006531447172
1733861974428721000,7.613720947265625,-0.0005173881072551012,0.010953372344374657,0.000684981991071254
1733861974438672000,7.623671875,-0.0009211795404553413,0.00760191585868597,-0.0013586475979536772
1733861974448622800,7.633622802734375,0.0008966941386461258,0.002795176347717643,0.0007527064299210906
1733861974458573800,7.64357373046875,-0.0026901825331151485,0.002128695137798786,-0.0008482905104756355
1733861974468525000,7.653525146484375,-0.0013601998798549175,0.0037156727630645037,-0.0005388311110436916
1733861974478475800,7.663475830078125,-0.0008511017076671124,0.004707633052021265,0.0008412588504143059
1733861974488427000,7.673427001953125,-0.002146995859220624,0.007355614099651575,0.0032500880770385265
1733861974498377700,7.683377685546875,-0.0029485030099749565,0.0121386107057333,0.004559005610644817
1733861974508329000,7.693328857421875,-0.002896837890148163,0.01702817529439926,0.004487899132072926
1733861974518279700,7.70327978515625,-0.0034220488741993904,0.02295703813433647,0.004512743558734655
1733861974528231000,7.71323095703125,-0.0010875221341848373,0.02283213660120964,0.007411594036966562
1733861974538182000,7.723181884765625,-0.002885466441512108,0.019233087077736855,0.006410863250494003
1733861974548132900,7.7331328125,-0.001463071908801794,0.015427162870764732,0.005203652195632458
1733861974558083800,7.743083740234375,-0.0012894822284579277,0.01459314115345478,0.0028883060440421104
1733861974568034800,7.753034912109375,-0.001528634224087,0.012945443391799927,0.002268055686727166
1733861974577985800,7.76298583984375,-0.0020264259073883295,0.013064086437225342,0.0016117763007059693
1733861974587936800,7.772936767578125,-0.0022056568413972855,0.006942810025066137,0.00447041355073452
1733861974597887700,7.7828876953125,-0.0005165538750588894,0.002860286273062229,0.0027610789984464645
1733861974607838000,7.792837890625,-0.001431349664926529,-0.0038325036875903606,0.00017381797078996897
1733861974617788700,7.80278857421875,0.0006855637766420841,-0.007535184733569622,-0.0011774171143770218
1733861974627740000,7.812739990234375,0.0005832980386912823,-0.005186542868614197,-0.0026642598677426577
1733861974637691000,7.82269091796875,0.002442986238747835,-0.0043851169757544994,-0.0034317774698138237
1733861974647641900,7.832641845703125,0.0005854316987097263,-0.0014330032281577587,-0.003131373319774866
1733861974657592800,7.8425927734375,0.00013509858399629593,-0.00339920143596828,-0.001219444558955729
1733861974667543300,7.852543212890625,0.000388098880648613,-0.005307355895638466,-0.000418898300267756
1733861974677494500,7.86249462890625,0.0002078046090900898,-0.004321680869907141,-0.0031991018913686275
1733861974687445500,7.872445556640625,0.0029410067945718765,-0.005024488549679518,-0.004109104163944721
1733861974697396500,7.882396484375,0.0013257996179163456,-0.0034540363121777773,-0.0024689091369509697
1733861974707347500,7.892347412109375,0.0008706655353307724,-0.00448334775865078,-0.0025442764163017273
1733861974717298400,7.90229833984375,0.0003750813193619251,-0.0015393844805657864,-0.0028380334842950106
1733861974727249400,7.91224951171875,-0.0005402471870183945,-0.002541798632591963,-0.0014750277623534203
1733861974737200400,7.922200439453125,0.0015412340871989727,-0.00516919232904911,-0.0006387903122231364
1733861974747151400,7.9321513671875,0.0010078027844429016,-0.0045790355652570724,-0.0014545166632160544
1733861974757102600,7.9421025390625,-0.001085482770577073,-0.001070294063538313,-0.0021399236284196377
1733861974767053600,7.952053466796875,0.001118815504014492,-0.0011488571763038635,-0.0024192892014980316
1733861974777004500,7.962004638671875,0.0018873503431677818,-0.0017115967348217964,-0.0020904343109577894
1733861974786955500,7.97195556640625,-0.00017153937369585037,-0.0012037316337227821,-0.0010081254877150059
1733861974796906500,7.981906494140625,0.0008470905013382435,-0.00216344534419477,-0.0006236193003132939
1733861974806857500,7.991857421875,-0.0004834248684346676,-0.003480112412944436,-0.00037621171213686466
1733861974816808400,8.001808349609375,0.0013209981843829155,-0.000751446932554245,-0.00022115535102784634
1733861974826759700,8.011759765625,0.0012379074469208717,-0.0016140448860824108,-0.0015657853800803423
1733861974836710400,8.02171044921875,0.001989726908504963,-0.0018674861639738083,-0.0014521246775984764
1733861974846661600,8.03166162109375,0.002595063764601946,-0.0031607169657945633,-0.00167662906460464
1733861974856612400,8.0416123046875,0.0000250902958214283,-0.005850735120475292,-0.0038272624369710684
1733861974866563600,8.0515634765625,0.0006623845547437668,-0.0039766691625118256,-0.0012423982843756676
1733861974876514600,8.0615146484375,-0.0017967824824154377,-0.0017715445719659328,-0.0020881276577711105
1733861974886465500,8.071465576171875,-0.0013989061117172241,0.00025219121016561985,-0.0005275154253467917
1733861974896416500,8.08141650390625,-0.00035657896660268307,0.0032609112095087767,-0.0013486011885106564
1733861974906367500,8.091367431640625,-0.0006284876726567745,0.00852651335299015,0.0008756709867157042
1733861974916318500,8.101318359375,0.0011177565902471542,0.008483675308525562,-0.0016230361070483923
1733861974926269400,8.11126953125,0.0007331958040595055,0.011795315891504288,0.00014690076932311058
1733861974936220400,8.121220458984375,-0.00048409076407551765,0.019403941929340363,0.0003169854171574116
1733861974946171600,8.131171630859376,-0.0016833122354000807,0.02336832322180271,0.0015827859751880169
1733861974956122400,8.141122314453124,-0.00009254086762666702,0.02646952122449875,0.0026286933571100235
1733861974966073600,8.151073486328125,0.00042863981798291206,0.029228555038571358,0.0030031336937099695
1733861974976024300,8.1610244140625,-0.0028448549564927816,0.029773730784654617,0.0032972379121929407
1733861974985975600,8.1709755859375,-0.003860051976516843,0.028857339173555374,0.0018087971257045865
1733861974995926300,8.18092626953125,-0.0035512482281774282,0.026522690430283546,0.004274209029972553
1733861975005877500,8.19087744140625,-0.0006638490594923496,0.02354607544839382,0.003541307058185339
1733861975015828500,8.200828369140625,0.00048321904614567757,0.013864261098206043,0.0013829120434820652
1733861975025779500,8.210779541015626,-0.00030321208760142326,0.0029831170104444027,-0.0006472155218943954
1733861975035730700,8.220730712890624,-0.0005692034028470516,-0.0035520668607205153,-0.0016522080404683948
1733861975045680600,8.2306806640625,-0.0002432325854897499,-0.0033030614722520113,-0.0009888146305456758
1733861975055631400,8.24063134765625,-0.0007220152765512466,0.004856264218688011,-0.0006098070880398154
1733861975065582600,8.25058251953125,-0.000999782932922244,0.014814622700214386,0.0020075475331395864
1733861975075533300,8.260533203125,-0.0017502496484667063,0.017881080508232117,0.004448918160051107
1733861975085484500,8.270484619140625,-0.0021222932264208794,0.014491940848529339,0.005415911786258221
1733861975095435300,8.280435302734375,-0.0021927785128355026,0.01276068389415741,0.004562755580991507
1733861975105386500,8.290386474609376,-0.0003320276737213135,0.01044959295541048,0.0027262396179139614
1733861975115337500,8.30033740234375,-0.0006965806242078543,0.007262294180691242,0.0007050766726024449
1733861975125288400,8.310288330078125,0.00001395074650645256,0.0067232707515358925,0.0004419563338160515
1733861975135239700,8.32023974609375,0.0007164669223129749,0.005036239977926016,0.0020827341359108686
1733861975145190400,8.3301904296875,-0.002124327002093196,0.005756092257797718,0.002705647610127926
1733861975155141600,8.3401416015625,-0.0024804100394248962,0.009916243143379688,0.002031425479799509
1733861975165092400,8.35009228515625,-0.0029925359413027763,0.013833753764629364,0.003807221306487918
1733861975175043600,8.360043701171875,-0.0014713900163769722,0.01902627944946289,0.0047918036580085754
1733861975184994600,8.36999462890625,-0.0029425201937556267,0.024603471159934998,0.005849078763276339
1733861975194945500,8.379945556640624,-0.0018107076175510883,0.02466801181435585,0.004504768177866936
1733861975204896500,8.389896484375,-0.0012892605736851692,0.01713952049612999,0.004991594236344099
1733861975214847500,8.399847412109375,-0.00016771676018834114,0.011675739660859108,0.0019308436894789338
1733861975224798500,8.409798583984376,-0.0012196656316518784,0.012336202897131443,0.0011220417218282819
1733861975234749400,8.41974951171875,-0.0007343965116888285,0.011960068717598915,0.0036104507744312286
1733861975244700400,8.429700439453125,-0.0028066022787243128,0.012123852968215942,0.0035715685226023197
1733861975254651600,8.439651611328125,-0.003187458496540785,0.013239696621894836,0.0034597297199070454
1733861975264602400,8.449602294921876,-0.0018271158915013075,0.01205991581082344,0.0025587822310626507
1733861975274553600,8.4595537109375,-0.0010446114465594292,0.009722419083118439,0.0015248069539666176
1733861975284504300,8.46950439453125,-0.0007849533576518297,0.009560499340295792,0.002114164410158992
1733861975294455600,8.47945556640625,-0.0008998874109238386,0.007291616406291723,-0.0005142946029081941
1733861975304406500,8.489406494140624,-0.00012171175330877304,0.007394680753350258,0.000741119438316673
1733861975314357500,8.499357421875,-0.0002681422047317028,0.005060821771621704,0.00037831603549420834
1733861975324308500,8.50930859375,0.0007273475639522076,0.004827262833714485,-0.000047257053665816784
1733861975334259500,8.519259521484376,-0.00024408521130681038,0.0026708608493208885,0.00013077270705252886
1733861975344210400,8.52921044921875,0.00011277804151177406,0.001702269189991057,-0.0012101288884878159
1733861975354161400,8.539161376953125,-0.002052029361948371,0.0006229032296687365,-0.0015879861311987042
1733861975364112400,8.5491123046875,-0.0014746561646461487,0.0036005836445838213,-0.00036266574170440435
1733861975374063600,8.559063720703126,-0.0009996911976486444,0.0077675506472587585,-0.002717703813686967
1733861975384014300,8.569014404296874,-0.00007024779915809631,0.009219505824148655,-0.0016098290216177702
1733861975393965600,8.578965576171875,0.0005794004537165165,0.01344598364084959,-0.001596111455000937
1733861975403916500,8.58891650390625,0.00011654291301965714,0.01624789461493492,0.001961605390533805
1733861975413867500,8.598867431640626,0.000891354400664568,0.02159268781542778,0.0018716411432251334
1733861975423818500,8.608818603515624,-0.0013590166345238686,0.031420283019542694,0.002430638764053583
1733861975433769500,8.61876953125,-0.003389260731637478,0.03928374499082565,0.003377743996679783
1733861975443720700,8.628720703125,-0.0016150628216564655,0.04157113656401634,0.0024368492886424065
1733861975453671400,8.63867138671875,-0.001830922206863761,0.04466632753610611,0.0008977685938589275
1733861975463622700,8.64862255859375,-0.001284441677853465,0.047582488507032394,0.002660248428583145
1733861975473573400,8.658573486328125,-0.001715437974780798,0.05524541437625885,0.0031950962729752064
1733861975483524600,8.668524658203125,-0.0021601857151836157,0.06580857932567596,0.003172992030158639
1733861975493475300,8.678475341796876,-0.004307041876018047,0.07119438052177429,0.005379738751798868
1733861975503425500,8.688425537109374,-0.002812475897371769,0.0707688108086586,0.005945660173892975
1733861975513376500,8.69837646484375,-0.004430048167705536,0.06308889389038086,0.006916104815900326
1733861975523327500,8.708327392578125,-0.003993555903434753,0.050602126866579056,0.006580812856554985
1733861975533278500,8.718278564453126,-0.0007675262168049812,0.026993364095687866,0.0030856917146593332
1733861975543229700,8.728229736328124,0.00023701833561062813,0.0027002759743481874,0.0005772602744400501
1733861975553180400,8.738180419921875,0.0022845682688057423,-0.018183473497629166,-0.004476756788790226
1733861975563131600,8.748131591796875,0.0036446447484195232,-0.030644938349723816,-0.005302869249135256
1733861975573082400,8.758082275390626,0.0016830451786518097,-0.024518348276615143,-0.006823313422501087
1733861975583033600,8.76803369140625,0.0016755885444581509,-0.016688920557498932,-0.003418728243559599
1733861975592984300,8.777984375,0.0018120151944458485,-0.007589698303490877,-0.0013345383340492845
1733861975602935600,8.787935546875,0.0009110677056014538,-0.008156152442097664,0.00001914636231958866
1733861975612886500,8.797886474609374,0.0017333016730844975,-0.013153205625712872,-0.00047914101742208004
1733861975622837500,8.80783740234375,0.0025647408328950405,-0.01792425662279129,-0.0016754328971728683
1733861975632788500,8.81778857421875,0.0027139694429934025,-0.01942184939980507,-0.005918162874877453
1733861975642739500,8.827739501953126,0.002067620400339365,-0.01719198375940323,-0.005003367550671101
1733861975652690400,8.8376904296875,0.0012054969556629658,-0.009560000151395798,-0.0018367510056123137
1733861975662642000,8.847641845703125,-0.0008358161430805922,-0.00154015701264143,-0.0004519071662798524
1733861975672593200,8.85759326171875,-0.0009254380129277706,0.003989125601947308,0.0016807324718683958
1733861975682543900,8.8675439453125,-0.002062075072899461,0.008510907180607319,0.004922864958643913
1733861975692495000,8.8774951171875,-0.0021429788321256638,0.00682195695117116,0.0027969535440206528
1733861975702446000,8.887446044921875,-0.002968292683362961,0.004363059997558594,0.0014259583549574018
1733861975712397000,8.89739697265625,0.0014542234130203724,0.004895652178674936,0.0016873450949788094
1733861975722348000,8.90734814453125,0.0006166594102978706,0.005228014662861824,0.000469747930765152
1733861975732299000,8.917299072265624,-0.00008210679516196251,0.00827790703624487,0.000796120788436383
1733861975742250000,8.92725,0.0002715610899031162,0.01225587073713541,0.0028145303949713707
1733861975752201000,8.937200927734375,-0.0015484075993299484,0.01735563762485981,0.003737587947398424
1733861975762152000,8.94715185546875,-0.0022205894347280264,0.02211816795170307,0.005772509146481752
1733861975772103200,8.957103271484375,-0.0020200004801154137,0.02316373959183693,0.005964036099612713
1733861975782054100,8.96705419921875,-0.001957149710506201,0.019483515992760658,0.004732856526970863
1733861975792005000,8.977005126953125,-0.0005698499735444784,0.017807843163609505,0.0031018913723528385
1733861975801956000,8.9869560546875,-0.0009200556669384241,0.016802499070763588,0.0036664814688265324
1733861975811907000,8.996906982421875,-0.0009913358371704817,0.016017012298107147,0.00114219612441957
1733861975821858000,9.006858154296875,-0.00023979181423783302,0.015943242236971855,0.002168844686821103
1733861975831809000,9.01680908203125,-0.001027821097522974,0.017338473349809647,0.0030780478846281767
1733861975841760300,9.02676025390625,0.0005078199319541454,0.01724046841263771,0.003129979595541954
1733861975851711000,9.0367109375,-0.0011400319635868073,0.01883792132139206,0.0040934584103524685
1733861975861662200,9.046662109375,-0.00048649217933416367,0.02540075033903122,0.0035443147644400597
1733861975871613000,9.056613037109376,-0.0030220644548535347,0.030155427753925323,0.005889144726097584
1733861975881564200,9.066564208984374,-0.0014132489450275898,0.02971867099404335,0.0052571771666407585
1733861975891515100,9.07651513671875,-0.001875849673524499,0.030083803460001945,0.005487162619829178
1733861975901466000,9.086466064453125,-0.003168015507981181,0.03250567987561226,0.0026090843603014946
1733861975911417000,9.0964169921875,-0.0011598598212003708,0.035466358065605164,0.001464217435568571
1733861975921368000,9.1063681640625,-0.0034198183566331863,0.03675718978047371,0.002136931987479329
1733861975931318000,9.116318115234375,-0.0032887503039091825,0.03621111065149307,0.002608498791232705
1733861975941269200,9.126269287109375,-0.0010543582029640675,0.026307348161935806,0.002549110446125269
1733861975951220000,9.136219970703126,-0.0007515312172472477,0.012526217848062515,0.0007905121310614049
1733861975961171200,9.146171142578124,0.0006053494289517403,0.003985194023698568,0.0005143423331901431
1733861975971122000,9.156121826171875,-0.000258750282227993,-0.005735461134463549,-0.0021028921473771334
1733861975981073200,9.1660732421875,-0.0009660860523581505,-0.009209821000695229,-0.0034296789672225714
1733861975991024000,9.176024169921876,-0.00039869616739451885,-0.00022617983631789684,-0.0028263155836611986
1733861976000975000,9.18597509765625,-0.0005212016403675079,0.010230455547571182,0.0002823921386152506
1733861976010926000,9.195926025390625,0.00026118848472833633,0.011228497140109539,0.0008460438111796975
1733861976020877000,9.205876953125,0.002170142251998186,0.0018104946939274669,0.00031421054154634476
1733861976030828000,9.215828125,0.00037771183997392654,-0.009844828397035599,-0.000634361756965518
1733861976040779000,9.225779052734374,0.003476832527667284,-0.014597506262362003,-0.003187800757586956
1733861976050730000,9.23572998046875,0.0018109353259205818,-0.014392917044460773,-0.005213380791246891
1733861976060681200,9.24568115234375,0.0031584948301315308,-0.0130453584715724,-0.005384089425206184
1733861976070632000,9.2556318359375,0.002910362556576729,-0.008496148511767387,-0.0019228856544941664
1733861976080583200,9.265583251953124,0.0008046007715165615,-0.005846037529408932,-0.00022964784875512123
1733861976090534000,9.275533935546875,-0.0011081413831561804,-0.008763314224779606,0.000991336302831769
1733861976100485000,9.285485107421875,0.0030008498579263687,-0.010795572772622108,-0.00018072081729769707
1733861976110435800,9.295435791015626,0.0013398476876318455,-0.009276718832552433,-0.0009299521334469318
1733861976120387000,9.305386962890625,0.0014357217587530613,-0.01103387214243412,-0.0030974990222603083
1733861976130338000,9.315338134765625,0.0008570058271288872,-0.012827418744564056,-0.0033943881280720234
1733861976140289000,9.3252890625,0.0010524815879762173,-0.013100126758217812,-0.0038343421183526516
1733861976150240300,9.335240234375,0.0005902270786464214,-0.01304735615849495,-0.003424989525228739
1733861976160191000,9.34519091796875,-0.00014294125139713287,-0.009592968970537186,-0.00195865286514163
1733861976170142200,9.35514208984375,0.00047655263915657997,-0.006183404475450516,-0.0008933935314416885
1733861976180093000,9.365093017578126,0.001319176983088255,-0.00720632541924715,-0.0009948599617928267
1733861976190044200,9.375044189453124,0.0018875119276344776,-0.00966066773980856,-0.00091434211935848
1733861976199995100,9.3849951171875,0.0011104014702141285,-0.011522749438881874,-0.0057746111415326595
1733861976209946000,9.394946044921875,0.0011352230794727802,-0.009253019466996193,-0.0047322544269263744
1733861976219897000,9.40489697265625,0.002244696021080017,-0.0067054396495223045,-0.002935952041298151
1733861976229848000,9.41484814453125,0.0014350363053381443,-0.00582783343270421,-0.0005533278454095125
1733861976239799000,9.424799072265625,0.0011479477398097515,-0.004917298909276724,-0.00031071389093995094
1733861976249750000,9.43475,-0.0004386426880955696,-0.0027023600414395332,-0.0008440347155556083
1733861976259701000,9.444700927734376,-0.00025887927040457726,0.001864961115643382,-0.0018115610582754016
1733861976269652200,9.45465234375,0.0007366146892309189,-0.0017804657109081745,-0.0010035008890554309
1733861976279603000,9.46460302734375,-0.0006290546152740717,-0.0031501296907663345,-0.0018791483016684651
1733861976289554200,9.47455419921875,-0.0014918767847120762,-0.0016635796055197716,-0.0023668643552809954
1733861976299505000,9.4845048828125,-0.00031928718090057373,-0.001313906628638506,-0.0023450262378901243
1733861976309456100,9.4944560546875,-0.0007828581146895885,-0.0039802128449082375,-0.001973174512386322
1733861976319407000,9.504406982421875,-0.0007197412196546793,-0.00025524944067001343,-0.0020762388594448566
1733861976329358000,9.514358154296875,0.0005209632217884064,0.00276561570353806,0.002551514655351639
1733861976339309000,9.52430908203125,0.000020022504031658173,0.005874856375157833,0.0031659058295190334
1733861976349260000,9.534260009765624,-0.001349052181467414,0.004996174015104771,0.0018448794726282358
1733861976359210000,9.5442099609375,0.0016432753764092922,0.0023628403432667255,0.0023045409470796585
1733861976369161200,9.5541611328125,-0.002493344945833087,0.001775465440005064,0.000572455464862287
1733861976379112000,9.56411181640625,0.00039511965587735176,0.0014785230159759521,0.00007444433867931366
1733861976389063200,9.574063232421874,-0.0004397889133542776,0.002650914015248418,-0.0004968439461663365
1733861976399014000,9.584013916015625,-0.0016770935617387295,0.0035446707624942064,0.0016331522492691875
1733861976408965000,9.593965087890625,0.0005980087444186211,0.004230262245982885,0.0023927371948957443
1733861976418916000,9.603916015625,0.000012379605323076248,0.004009219817817211,0.001139453612267971
1733861976428867000,9.6138671875,-0.0005343679804354906,0.004046744201332331,0.00019953318405896425
1733861976438818000,9.623818115234375,0.0009370287880301476,-0.0004204425495117903,0.0012658628402277827
1733861976448769000,9.63376904296875,-0.0011455940548330545,-0.004871849901974201,-0.0017707122024148703
1733861976458720000,9.643719970703126,0.0011551105417311192,-0.0069320714101195335,-0.0025483553763478994
1733861976468671000,9.6536708984375,0.0015077143907546997,-0.0083116814494133,-0.001606979756616056
1733861976478622000,9.6636220703125,-0.0006555714644491673,-0.0036274478770792484,-0.0009073674445971847
1733861976488573200,9.6735732421875,0.0007350817322731018,-0.001536866184324026,0.00005962641444057226
1733861976498524000,9.68352392578125,-0.0007653431966900826,-0.0032370281405746937,-0.001446657464839518
1733861976508475100,9.69347509765625,0.0013328976929187775,-0.0003120920155197382,0.0004412120906636119
1733861976518426000,9.703426025390625,0.0007355506531894207,-0.0005280743353068829,0.0016231229528784752
1733861976528377000,9.713377197265626,0.0004225238226354122,-0.00019532605074346066,-0.0008156569674611092
1733861976538328000,9.723328125,0.0011136140674352646,-0.00462096743285656,0.0008621345041319728
1733861976548279000,9.733279052734375,0.0014111003838479519,-0.005731365643441677,-0.0021256450563669205
1733861976558230300,9.743230224609375,0.002176492940634489,-0.009189214557409286,-0.00249902019277215
1733861976568181000,9.753180908203126,0.0020018480718135834,-0.011701846495270729,-0.002873255405575037
1733861976578132200,9.76313232421875,0.0010068914853036404,-0.010454954579472542,-0.004190721083432436
1733861976588083000,9.7730830078125,0.0026257550343871117,-0.006757289171218872,-0.0026356219314038754
1733861976598034200,9.7830341796875,0.0007724612951278687,-0.004042995162308216,-0.0023117815144360065
1733861976607985000,9.79298486328125,0.00090385926887393,-0.00452594505622983,-0.00254457606934011
1733861976617936100,9.80293603515625,0.0005267555825412273,-0.005483084823936224,-0.002765085780993104
1733861976627887000,9.81288720703125,0.0013543125241994858,-0.0032942199613898993,-0.0008550210623070598
1733861976637838000,9.822838134765625,0.0010440545156598091,-0.0003855156246572733,-0.001304296194575727
1733861976647789000,9.8327890625,-0.0014286614023149014,0.0037147924304008484,-0.0007705000462010503
1733861976657740000,9.842739990234374,-0.0013285265304148197,0.007914064452052116,0.0018937262939289212
1733861976667690800,9.852690673828125,-0.00033149542286992073,0.0041564879938960075,0.003232780611142516
1733861976677641700,9.862641845703125,0.0009257830679416656,-0.0005125657189637423,0.00017200957518070936
1733861976687592700,9.8725927734375,0.0007010572589933872,-0.0005339065100997686,-0.000574239413253963
1733861976697543700,9.882543701171874,-0.0016419917810708284,0.007100044749677181,0.0000827624462544918
1733861976707494700,9.89249462890625,-0.002043149434030056,0.011878926306962967,0.0024852980859577656
1733861976717446000,9.90244580078125,-0.00206658523529768,0.01213618740439415,0.005720239598304033
1733861976727396600,9.912396728515626,-0.0011560095008462667,0.007732825353741646,0.0025435686111450195
1733861976737347800,9.922347900390625,0.00026079220697283745,0.003898938652127981,0.000855657213833183
1733861976747298800,9.932298828125,0.0011351038701832294,0.00030002184212207794,0.00042103626765310764
1733861976757249800,9.942249755859375,-0.0007301743607968092,-0.0034475785214453936,-0.0012700711376965046
1733861976767200800,9.95220068359375,0.0012672296725213528,-0.008231813088059425,0.000612062809523195
1733861976777151700,9.96215185546875,0.000018473248928785324,-0.0072752065025269985,-0.0012055446859449148
1733861976787102700,9.972102783203125,0.00029782718047499657,-0.004943608772009611,-0.00021564762573689222
1733861976797052700,9.982052734375,0.0008048932068049908,-0.005992361810058355,-0.0006689177826046944
1733861976807003600,9.992003662109376,0.0011917920783162117,-0.010679684579372406,-0.003058208618313074
1733861976816955000,10.001954833984374,0.0017864760011434555,-0.01284696627408266,-0.005069161765277386
1733861976826905600,10.011905517578125,0.0005544209852814674,-0.011759012006223202,-0.003259361255913973
1733861976836856800,10.02185693359375,0.0015922547318041325,-0.011951025575399399,-0.0027949060313403606
1733861976846807800,10.031807861328126,0.00009360024705529213,-0.008327450603246689,-0.002537103835493326
1733861976856758800,10.0417587890625,0.0004957374185323715,-0.004867205396294594,0.00024083955213427544
1733861976866709800,10.051709716796875,0.0008318601176142693,-0.0009443804156035185,-0.0005769080016762018
1733861976876660700,10.06166064453125,-0.0010837516747415066,0.0010252937208861113,0.0008180557051673532
1733861976886611700,10.07161181640625,-0.0009724311530590057,0.00001933635212481022,0.0015855740057304502
1733861976896562700,10.081562744140625,-0.00022940943017601967,0.0011858008801937103,-0.00011405535042285919
1733861976906513700,10.091513671875,-0.0006739611271768808,0.0038407337851822376,0.0017253231490030885
1733861976916465000,10.10146484375,-0.0006513241678476334,0.0073273442685604095,0.0017434326000511646
1733861976926415600,10.11141552734375,0.00007521780207753181,0.012387694790959358,0.00475654099136591
1733861976936366800,10.121366943359375,-0.0012939134612679482,0.012698219157755375,0.002590326126664877
1733861976946317600,10.131317626953125,-0.000417881878092885,0.011463088914752007,0.00272563798353076
1733861976956268800,10.141268798828126,-0.0008269434329122305,0.008756251074373722,0.001712305354885757
1733861976966219800,10.1512197265625,-0.0009333712514489889,0.00432838499546051,0.0013513964368030429
1733861976976170800,10.161170654296875,-0.0010422943159937859,0.0005067489109933376,0.00021103082690387964
1733861976986121700,10.171121826171875,-0.0009580133482813835,-0.0024600939359515905,-0.0020430730655789375
1733861976996072700,10.18107275390625,0.0017685308121144772,-0.003979960456490517,-0.0019826192874461412
1733861977006023700,10.191023681640624,-0.000469808466732502,-0.005707642529159784,-0.0030920375138521194
1733861977015974700,10.200974609375,0.0014732340350747108,-0.00577262369915843,-0.0016874860739335418
1733861977025925600,10.210925537109375,0.0009057605639100075,-0.007705720141530037,-0.0019441626500338316
1733861977035876900,10.220876953125,0.0012003062292933464,-0.003985816612839699,-0.0005579874850809574
1733861977045827600,10.23082763671875,0.0023969095200300217,-0.0031945521477609873,-0.0009743690025061369
1733861977055778800,10.24077880859375,0.0003670481964945793,-0.005154105834662914,-0.0013615924399346113
1733861977065729500,10.2507294921875,0.0007780846208333969,-0.0090817641466856,-0.002993510104715824
1733861977075680800,10.2606806640625,0.00045051611959934235,-0.00956326350569725,-0.001987900584936142
1733861977085631700,10.2706318359375,0.0002294299192726612,-0.0072170039638876915,-0.0021589885000139475
1733861977095582700,10.280582763671875,-0.00034022051841020584,-0.0011441975366324186,0.0005345325917005539
1733861977105534000,10.290533935546875,-0.0009407030884176493,0.004653651732951403,0.0013490502024069428
1733861977115484700,10.300484619140626,-0.0009683999232947826,0.009267577901482582,0.0012734164483845234
1733861977125436000,10.310435791015625,-0.0008639672305434942,0.007894917391240597,0.0016252598725259304
1733861977135386600,10.32038671875,0.00010835286229848862,0.003621343057602644,0.001061734976246953
1733861977145337900,10.330337890625,0.0010835854336619377,0.0028928490355610847,-0.0003393874503672123
1733861977155288600,10.34028857421875,-0.0020669340156018734,0.0031306694727391005,0.0012811460765078664
1733861977165239800,10.35023974609375,0.00017411727458238602,0.0011267454829066992,0.001809882465749979
1733861977175190800,10.360190673828125,0.001495577860623598,0.00006813905201852322,-0.0002708452520892024
1733861977185141800,10.370141845703126,0.0005232947878539562,-0.0035578070674091578,-0.0007117812056094408
1733861977195092700,10.3800927734375,0.00296914204955101,-0.0062830206006765366,-0.0015136590227484703
1733861977205043700,10.390043701171875,0.0007342514581978321,-0.008171826601028442,-0.003927867393940687
1733861977214994700,10.39999462890625,0.0017569055780768394,-0.009623781777918339,-0.003324927296489477
1733861977224945000,10.40994482421875,0.0012624431401491165,-0.011260299012064934,-0.0031471329275518656
1733861977234895600,10.4198955078125,0.0031117419712245464,-0.010479992255568504,-0.006908048875629902
1733861977244846800,10.429846923828125,-0.00044795358553528786,-0.0122279804199934,-0.004762137308716774
1733861977254797800,10.4397978515625,0.0013792412355542183,-0.010514503344893456,-0.0021186836529523134
1733861977264748800,10.449748779296876,0.0012889532372355461,-0.006922563537955284,-0.0027271388098597527
1733861977274699800,10.45969970703125,0.002537176478654146,-0.0006612057331949472,-0.0018448334885761142
1733861977284650800,10.469650634765625,-0.0001460658386349678,0.0041970908641815186,-0.0013265680754557252
1733861977294601700,10.479601806640625,0.0010859128087759018,0.006445065140724182,0.0013855951838195324
1733861977304552700,10.489552734375,-0.00048251706175506115,0.008899219334125519,0.0009671293664723635
1733861977314503700,10.499503662109374,0.0008796900510787964,0.010622551664710045,0.002452640561386943
1733861977324455000,10.509454833984375,-0.001187772722914815,0.010093171149492264,0.0025741495192050934
1733861977334405600,10.519405517578125,-0.0009728558361530304,0.010472139343619347,0.0021317985374480486
1733861977344356900,10.52935693359375,-0.0010328891221433878,0.01071532629430294,0.0026613713707774878
1733861977354307600,10.5393076171875,-0.0014701802283525467,0.008758168667554855,0.0019819990266114473
1733861977364258800,10.5492587890625,-0.0017741469200700521,0.005850529298186302,0.0016845238860696554
1733861977374209500,10.55920947265625,-0.0005102106370031834,0.0006166188977658749,0.0016946438699960709
1733861977384160800,10.569160888671876,-0.0009046690538525581,-0.0032109562307596207,0.0005553375231102109
1733861977394111700,10.57911181640625,0.0008913669735193253,-0.007729808334261179,-0.0012327088043093681
1733861977404062700,10.589062744140625,0.0011592288501560688,-0.012798802927136421,-0.0030293166637420654
1733861977414013700,10.599013671875,0.0001296508125960827,-0.01886042393743992,-0.0035499646328389645
1733861977423964700,10.608964599609376,0.002770456951111555,-0.0185372494161129,-0.004308885894715786
1733861977433916000,10.618916015625,0.0017086546868085861,-0.018742313608527184,-0.00490303710103035
1733861977443866600,10.62886669921875,0.0012920652516186237,-0.01778237521648407,-0.0040346598252654076
1733861977453817900,10.63881787109375,0.0014007221907377243,-0.018065735697746277,-0.005226690787822008
1733861977463768800,10.648768798828126,0.0004413914866745472,-0.01609688624739647,-0.005146353971213102
1733861977473719800,10.6587197265625,0.002949290443211794,-0.012398289516568184,-0.0032669613137841225
1733861977483670800,10.6686708984375,0.0024493467062711716,-0.008226500824093819,-0.004306841176003218
1733861977493621800,10.678621826171875,0.0019121868535876274,-0.0037816851399838924,-0.0009581822669133544
1733861977503572700,10.68857275390625,0.0004601399414241314,0.0015041567385196686,0.000637583842035383
1733861977513523700,10.698523681640625,-0.00011936388909816742,0.0022564998362213373,-0.0011054550996050239
1733861977523474700,10.708474609375,0.00107285613194108,0.004489704500883818,0.0007652753847651184
1733861977533426000,10.718426025390626,-0.000407062703743577,0.00507453503087163,0.00041586870793253183
1733861977543376600,10.728376708984374,0.0009907186031341553,0.008828751742839813,0.00018936488777399063
1733861977553327900,10.738327880859375,0.0004506292752921581,0.009482291527092457,0.0020498493686318398
1733861977563278600,10.748278564453125,-0.0000380086712539196,0.010746737942099571,0.002648276276886463
1733861977573229800,10.758229736328126,0.000040022190660238266,0.005922421347349882,0.0004205420846119523
1733861977583180500,10.7681806640625,-0.0008365714456886053,0.0014445290435105562,-0.00011706526856869459
1733861977593131800,10.7781318359375,0.00013974355533719063,0.001107639167457819,-0.00030428555328398943
1733861977603082800,10.788082763671875,-0.0019783752504736185,0.0038525662384927273,-0.00012804183643311262
1733861977613033700,10.79803369140625,0.00014389771968126297,0.006361530162394047,0.0008802309748716652
1733861977622984700,10.807984619140624,0.0012259511277079582,0.002286074450239539,0.004035822581499815
1733861977632935700,10.817935791015625,-0.002276105573400855,0.002169427927583456,0.0017210030928254128
1733861977642886700,10.82788671875,0.001877443864941597,0.004045958165079355,0.001457576989196241
1733861977652837600,10.837837646484376,0.0007621119730174541,0.0030174453277140856,-0.0008929289178922772
1733861977662787600,10.84778759765625,0.0011611725203692913,-0.0003650353755801916,-0.0008942604763433337
1733861977672738800,10.85773876953125,-0.0010284783784300089,-0.0010063250083476305,0.0011481177061796188
1733861977682689800,10.867689697265625,-0.0004901739303022623,0.000014381716027855873,0.0018425104208290577
1733861977692640800,10.877640869140626,-0.0006952374242246151,0.0023811329156160355,-0.00029254588298499584
1733861977702591700,10.887591796875,-0.00020662043243646622,0.004411263391375542,0.00047166889999061823
1733861977712542700,10.897542724609375,-0.00020049512386322021,0.004742827266454697,0.0012493119575083256
1733861977722493700,10.90749365234375,0.00003420701250433922,0.005194951314479113,0.0011455529602244496
1733861977732444700,10.917444580078126,-0.000012930948287248611,0.0021155381109565496,0.001351947896182537
1733861977742395600,10.927395751953124,-0.0008868928998708725,0.0017791454447433352,0.0017099048709496856
1733861977752347000,10.937346923828125,-0.000721244141459465,0.0024073850363492966,0.001624949974939227
1733861977762297600,10.947297607421875,-0.0009920834563672543,0.002542216796427965,0.0001077455235645175
1733861977772248800,10.957248779296876,-0.0023556221276521683,0.0027443505823612213,0.0018726224079728127
1733861977782199600,10.967199462890624,-0.0010940225329250097,0.004681115970015526,0.000721861666534096
1733861977792150800,10.97715087890625,-0.0016458295285701752,0.004681115970015526,0.00011439470108598471
1733861977802101500,10.9871015625,-0.0011864914558827877,0.004884426482021809,0.0013892322313040495
1733861977812052700,10.997052734375,0.0007094130851328373,0.0017464240081608295,0.0004864205839112401
1733861977822003700,11.007003662109375,-0.00021102232858538628,0.00436155591160059,0.0015678773634135723
1733861977831954700,11.01695458984375,-0.0007023753132671118,0.0044228085316717625,0.0018328619189560413
1733861977841905700,11.02690576171875,0.0005681226029992104,0.004745513200759888,-0.00041762262117117643
1733861977851856600,11.036856689453124,-0.000048399437218904495,0.007366863079369068,0.00023298768792301416
1733861977861807600,11.0468076171875,-0.0015464178286492825,0.00913188885897398,0.0002938284305855632
1733861977871758600,11.056758544921875,0.00027092359960079193,0.009472240693867207,-0.0003189649432897568
1733861977881709600,11.06670947265625,-0.00041027646511793137,0.007805063389241695,-0.0012924871407449245
1733861977891660800,11.076660888671874,-0.00025634560734033585,0.007357652299106121,-0.0007196413353085518
1733861977901611800,11.08661181640625,-0.000057324301451444626,0.005940902046859264,-0.0002386010019108653
1733861977911562800,11.096562744140625,0.0001597232185304165,0.004836223088204861,0.001348643098026514
1733861977921513700,11.106513671875,-0.00010421685874462128,0.0013588154688477516,-0.0005856455536559224
1733861977931464700,11.116464599609374,0.0008518579415977001,-0.001263865502551198,-0.0019188240403309464
1733861977941415700,11.126415771484375,0.0014756135642528534,-0.0016462046187371016,-0.004059262108057737
1733861977951366700,11.13636669921875,0.0009965109638869762,-0.004252107813954353,-0.006040121428668499
1733861977961318000,11.14631787109375,0.0019301315769553185,-0.008938230574131012,-0.004205452743917704
1733861977971268600,11.1562685546875,-0.0017932341434061527,-0.008933969773352146,-0.0011880912352353334
1733861977981219800,11.1662197265625,-0.00027129659429192543,-0.0010104412212967873,-0.001150221098214388
1733861977991170600,11.176170654296875,-0.0001977933570742607,0.004505497869104147,0.00014247733633965254
1733861978001121800,11.186121826171876,-0.0020952860359102488,0.01018904522061348,0.0030292838346213102
1733861978011072500,11.196072509765624,-0.003176263067871332,0.011906517669558525,0.003785355482250452
1733861978021023700,11.206023681640625,-0.0025935652665793896,0.01220035646110773,0.003769695060327649
1733861978030974700,11.215974609375,-0.00016076769679784775,0.009007493034005165,0.0035830072592943907
1733861978040925700,11.22592578125,-0.00034227827563881874,0.0053687370382249355,0.002845571143552661
1733861978050876700,11.235876708984375,-0.0008565345779061317,0.004116252530366182,0.002062601735815406
1733861978060827600,11.24582763671875,-0.001014005159959197,0.005617833696305752,0.000526789459399879
1733861978070778600,11.255778564453125,-0.0017852566670626402,0.008743053302168846,0.0016735466197133064
1733861978080728800,11.265728759765626,-0.0011738494504243135,0.007099403999745846,0.0023600345011800528
1733861978090679600,11.275679443359374,-0.0018942344468086958,0.010863516479730606,0.002271617529913783
1733861978100630800,11.285630859375,0.0011101160198450089,0.012904483824968338,0.0017817113548517227
1733861978110581800,11.295581787109375,-0.0016132327727973461,0.011200593784451485,0.0020725284703075886
1733861978120532700,11.30553271484375,-0.000985375139862299,0.007323069963604212,0.0007096864865161479
1733861978130483700,11.315483642578124,-0.0009100076276808977,0.0034756010863929987,0.0015621643979102373
1733861978140434700,11.3254345703125,0.0011264169588685036,0.0036904525477439165,0.0005915934452787042
1733861978150385700,11.3353857421875,0.00032374029979109764,0.0031466351356357336,-0.0025016681756824255
1733861978160336600,11.345336669921876,0.0006583589129149914,0.0038840193301439285,-0.0006419860292226076
1733861978170287600,11.35528759765625,0.0017025843262672424,0.005375389475375414,-0.0019184390548616648
1733861978180238800,11.36523876953125,0.0003979196771979332,0.005183154251426458,0.0016172031173482537
1733861978190189600,11.375189453125,-0.0017286143265664577,0.002969534834846854,0.0005814998294226825
1733861978200140800,11.385140869140624,0.0005832063034176826,0.005065560806542635,0.0004648433532565832
1733861978210091500,11.395091552734375,0.000507839024066925,0.002286019502207637,0.00015698198694735765
1733861978220042800,11.405042724609375,-0.00014171982184052467,0.0032661177683621645,-0.00022165488917380571
1733861978229993500,11.414993408203125,0.0007523032836616039,0.008489908650517464,-0.0006640059873461723
1733861978239944700,11.42494482421875,-0.0021620853804051876,0.011859019286930561,0.0008582781883887947
1733861978249896000,11.43489599609375,-0.0015429004561156034,0.013097123242914677,0.0044516813941299915
1733861978259846700,11.4448466796875,-0.001679050736129284,0.015177890658378601,0.003920015878975391
1733861978269798000,11.4547978515625,-0.0010699857957661152,0.017116673290729523,0.0057139210402965546
1733861978279748600,11.46474853515625,-0.0002795006148517132,0.01790054328739643,0.0033716456964612007
1733861978289699800,11.474699951171875,-0.0012140036560595036,0.014915140345692635,0.004283245652914047
1733861978299650600,11.484650634765625,-0.001712633529677987,0.013260788284242153,0.0043500084429979324
1733861978309601800,11.494601806640626,-0.00029742950573563576,0.01041440200060606,0.00277155265212059
1733861978319552800,11.504552734375,-0.0010445320513099432,0.007686126045882702,0.0019216446671634912
1733861978329503700,11.514503662109375,-0.0005640976596623659,0.005791819654405117,0.0032763946801424026
1733861978339454700,11.524454833984375,-0.00022955331951379776,0.004712146241217852,0.0005419832887127995
1733861978349405700,11.53440576171875,-0.0010348933283239603,0.0037691208999603987,-0.0010947955306619406
1733861978359356700,11.544356689453124,0.00041905976831912994,0.0026276116259396076,-0.0019363061292096972
1733861978369307600,11.5543076171875,-0.0003585829399526119,-0.0007759083528071642,-0.0019123376114293933
1733861978379258600,11.564258544921875,0.0022507822141051292,0.001489110291004181,-0.0010396199068054557
1733861978389209900,11.5742099609375,0.0006179274059832096,0.0036254676524549723,-0.0010584505507722497
1733861978399160600,11.58416064453125,0.0002023107372224331,0.00715067982673645,0.0016623290721327066
1733861978409111800,11.59411181640625,-0.0018075767438858747,0.01145701203495264,0.002443434204906225
1733861978419062500,11.6040625,-0.0026928225997835398,0.01700531132519245,0.004558383487164974
1733861978429013800,11.614013671875,-0.0017130456399172544,0.01807563565671444,0.004549062345176935
1733861978438964500,11.623964599609375,-0.002209772588685155,0.01884044148027897,0.003667343407869339
