time,seconds_elapsed,z,y,x
1733862723153126000,0.0251259765625,0.0010514697059988976,-0.04409228265285492,-0.0006988280219957232
1733862723163076900,0.035076904296875,0.00011827424168586731,-0.041399504989385605,-0.0007621422410011292
1733862723173028900,0.04502880859375,0.003409408964216709,-0.03728172555565834,-0.00042844819836318493
1733862723182980000,0.05497998046875,0.004986881278455257,-0.031886883080005646,-0.00028514512814581394
1733862723192930800,0.064930908203125,0.004022284410893917,-0.014801905490458012,-0.0025283258873969316
1733862723202882000,0.074882080078125,0.0009129494428634644,0.004463966935873032,-0.001375171123072505
1733862723212833800,0.084833740234375,0.0011925813741981983,0.01793689839541912,0.0002986256731674075
1733862723222785000,0.094784912109375,-0.003441850421950221,0.029292002320289612,0.0038022841326892376
1733862723232736000,0.104736083984375,-0.007112751714885235,0.024860501289367676,0.007742963265627623
1733862723242688000,0.11468798828125,-0.0048306891694664955,0.022159257903695107,0.0056577082723379135
1733862723252639000,0.124638916015625,0.0003265226259827614,0.009068755432963371,0.0007279309211298823
1733862723262590000,0.13458984375,0.000010336749255657196,-0.002347877249121666,-0.0038317209109663963
1733862723272542000,0.1445419921875,0.002151784487068653,-0.002612062729895115,-0.004164083395153284
1733862723282493000,0.154492919921875,-0.0005307258106768131,-0.0007434488506987691,-0.0009153084829449654
1733862723292444000,0.16444384765625,0.0025119357742369175,0.0024123969487845898,-0.002311603631824255
1733862723302396200,0.174396240234375,0.0005838535726070404,0.011186872608959675,0.00010880536865442991
1733862723312347000,0.184346923828125,-0.0026295166462659836,0.026611369103193283,0.0003903014585375786
1733862723322298000,0.194298095703125,-0.00157044711522758,0.031838517636060715,0.0013588338624686003
1733862723332249900,0.204249755859375,-0.002311072312295437,0.03482205793261528,0.00021074502728879452
1733862723342201000,0.214201171875,-0.0010945757385343313,0.03263222053647041,0.0019016896840184927
1733862723352152000,0.224152099609375,0.00022608600556850433,0.02768406644463539,-0.002342323772609234
1733862723362104000,0.23410400390625,0.0015958878211677074,0.028880653902888298,-0.001848193584010005
1733862723372051700,0.2440517578125,0.00027815578505396843,0.025727471336722374,0.0003316036891192198
1733862723382003000,0.2540029296875,-0.0006400891579687595,0.013452847488224506,0.002042654901742935
1733862723391955000,0.263954833984375,-0.0000858851708471775,0.0015804754802957177,0.0027382727712392807
1733862723401905700,0.27390576171875,0.0008213724941015244,0.008162134326994419,-0.0000034767435863614082
1733862723411857000,0.28385693359375,0.0015494809485971928,0.024297161027789116,-0.0031513329595327377
1733862723421807900,0.293807861328125,0.00032643089070916176,0.03755564987659454,-0.0025690472684800625
1733862723431760000,0.303759765625,-0.003653397085145116,0.04750894755125046,0.002919195219874382
1733862723441710600,0.313710693359375,-0.007428058888763189,0.04564405232667923,0.007806578651070595
1733862723451661800,0.323661865234375,-0.006362528074532747,0.035929638892412186,0.005985242780297995
1733862723461613800,0.33361376953125,-0.004596260841935873,0.02188985049724579,0.004576790612190962
1733862723471564800,0.343564697265625,-0.005948347970843315,0.017948372289538383,0.0009828547481447458
1733862723481515800,0.353515869140625,-0.0054355282336473465,0.029683567583560944,0.004397071432322264
1733862723491467800,0.3634677734375,-0.00429596146568656,0.037152670323848724,0.0055057452991604805
1733862723501418800,0.373418701171875,-0.004011569079011679,0.05051826685667038,0.004556171130388975
1733862723511369700,0.38336962890625,-0.001426971284672618,0.0723697692155838,0.002233895007520914
1733862723521321700,0.39332177734375,0.00038694078102707863,0.09447028487920761,0.0033222197089344263
1733862723531273000,0.40327294921875,0.0009105182252824306,0.09397920221090317,0.00035812146961688995
1733862723541223700,0.4132236328125,-0.003413805738091469,0.09758058935403824,0.004343196749687195
1733862723551176000,0.423176025390625,-0.005529420915991068,0.06816384941339493,0.008536609821021557
1733862723561126700,0.433126708984375,-0.0032236329279839993,0.04018355533480644,0.004295723978430033
1733862723571078000,0.443077880859375,-0.006758712697774172,0.024910591542720795,-0.0018963919719681144
1733862723581030000,0.45302978515625,-0.004874909296631813,0.010842181742191315,-0.005726205185055733
1733862723590980900,0.46298095703125,0.002063957042992115,0.0028518992476165295,-0.008507611230015755
1733862723600931800,0.472931884765625,0.007541733328253031,-0.03582135960459709,-0.012217412702739239
1733862723610883800,0.4828837890625,0.006097500678151846,-0.043540265411138535,-0.01689418964087963
1733862723620834800,0.492834716796875,-0.0039550079964101315,-0.03721298649907112,-0.023124778643250465
1733862723630785800,0.502785888671875,-0.022711917757987976,0.01048289705067873,-0.020005151629447937
1733862723640736800,0.51273681640625,-0.0269167460501194,0.06555956602096558,-0.009581372141838074
1733862723650688800,0.522688720703125,-0.030518673360347748,0.11638466268777847,0.004751227796077728
1733862723660639700,0.5326396484375,-0.05484578013420105,0.2156871259212494,0.016123250126838684
1733862723670591000,0.542591064453125,-0.056194934993982315,0.3952457010746002,0.030492868274450302
1733862723680542700,0.552542724609375,0.0175921767950058,0.8660649657249451,-0.010563417337834835
1733862723690493700,0.56249365234375,-0.0501844696700573,1.5810874700546265,-0.0031502426136285067
1733862723700444700,0.572444580078125,-0.17113187909126282,2.363356351852417,0.0758511945605278
1733862723710396700,0.582396728515625,-0.4733785390853882,2.797133445739746,0.13734304904937744
1733862723720348000,0.592347900390625,-0.16157950460910797,1.9481362104415894,0.2937604486942291
1733862723730299000,0.602298828125,-0.036933984607458115,1.0446454286575317,0.20119164884090424
1733862723740251000,0.6122509765625,-0.049839869141578674,0.4768945872783661,0.049964673817157745
1733862723750201600,0.62220166015625,-0.024400025606155396,0.06705058366060257,-0.022074097767472267
1733862723760152800,0.63215283203125,-0.008453513495624065,-0.12929609417915344,-0.07528042793273926
1733862723770104800,0.642104736328125,-0.0028251889161765575,-0.1456598937511444,-0.10273256152868271
1733862723780055800,0.652055908203125,-0.013949573040008545,-0.029200443997979164,-0.08008822053670883
1733862723790006800,0.6620068359375,-0.015211379155516624,0.16442334651947021,-0.024331754073500633
1733862723799958800,0.671958740234375,-0.007267376407980919,0.34669584035873413,0.01530523132532835
1733862723809909800,0.68190966796875,-0.004327779170125723,0.4530118703842163,0.014240765944123268
1733862723819860700,0.69186083984375,-0.0031592310406267643,0.49640604853630066,0.011045909486711025
1733862723829812700,0.701812744140625,-0.007055168971419334,0.4538729786872864,0.007908172905445099
1733862723839764000,0.711763916015625,-0.012311728671193123,0.3705440163612366,0.008109276182949543
1733862723849714700,0.721714599609375,-0.012618791311979294,0.21047578752040863,0.040649108588695526
1733862723859667000,0.7316669921875,-0.0061302767135202885,0.03359825164079666,0.026608692482113838
1733862723869617700,0.74161767578125,0.0031489753164350986,-0.09445106238126755,-0.02085629478096962
1733862723879569000,0.75156884765625,0.007226159796118736,-0.1343543529510498,-0.04082006588578224
1733862723889519600,0.76151953125,0.003311579581350088,-0.08980206400156021,-0.034943267703056335
1733862723899472000,0.771471923828125,0.00034861499443650246,-0.011654871515929699,-0.01182111632078886
1733862723909422800,0.7814228515625,-0.002314812270924449,0.05209241434931755,0.012332157231867313
1733862723919373800,0.791373779296875,-0.004815393127501011,0.07538652420043945,0.02439642883837223
1733862723929325800,0.801325927734375,-0.005034837406128645,0.07010520994663239,0.01880032941699028
1733862723939276800,0.81127685546875,-0.0034856062848120928,0.043812189251184464,0.005971143022179604
1733862723949227800,0.821227783203125,0.0006111343391239643,0.016310522332787514,-0.007056241389364004
1733862723959179800,0.8311796875,0.0012253155000507832,-0.0006991325644776225,-0.009955271147191525
1733862723969130800,0.841130859375,0.001022116281092167,-0.005663265008479357,-0.0071674734354019165
1733862723979082000,0.85108203125,-0.00191062455996871,0.003580374177545309,-0.0009383937576785684
1733862723989033700,0.86103369140625,-0.0015897136181592941,0.015905484557151794,0.003934125881642103
1733862723998984700,0.870984619140625,-0.0025100102648139,0.02941211126744747,0.007195150945335627
1733862724008935700,0.880935791015625,-0.0016348958015441895,0.0346396304666996,0.006166371982544661
1733862724018887700,0.8908876953125,-0.0023799084592610598,0.034577786922454834,0.0057963114231824875
1733862724028839000,0.9008388671875,-0.0018456783145666122,0.03174125403165817,0.002739002462476492
1733862724038789600,0.91078955078125,-0.001513708382844925,0.02590753696858883,0.0023910466115921736
1733862724048742000,0.920741943359375,-0.0012061132583767176,0.02117297053337097,0.0013950243592262268
1733862724058692600,0.930692626953125,-0.0008824013639241457,0.018285604193806648,0.001992484088987112
1733862724068643800,0.940643798828125,-0.0032313093543052673,0.014529747888445854,0.004438863601535559
1733862724078595800,0.950595947265625,-0.0027363558765500784,0.011230389587581158,0.0035939558874815702
1733862724088546800,0.960546875,-0.0007973082829266787,0.010698823258280754,0.002447464969009161
1733862724098497800,0.970497802734375,-0.001950317295268178,0.013602674938738346,0.0042947521433234215
1733862724108449800,0.98044970703125,-0.000882656080648303,0.013649546541273594,0.004043882712721825
1733862724118400800,0.99040087890625,0.00014777947217226028,0.012852060608565807,0.003837048774585128
1733862724128351700,1.000351806640625,-0.0015523822512477636,0.011896518059074879,0.0011701593175530434
1733862724138302700,1.010302734375,-0.0011236856225878,0.01027064211666584,0.0018273629248142242
1733862724148255000,1.0202548828125,-0.0022043962962925434,0.009017625823616982,0.0018910124199464917
1733862724158205700,1.030205810546875,-0.0005912494380027056,0.008267251774668694,0.0041297245770692825
1733862724168157000,1.040156982421875,-0.001279676565900445,0.0045241788029670715,0.0025070607662200928
1733862724178108700,1.050108642578125,-0.0016565474215894938,0.004888757597655058,0.004497349727898836
1733862724188060000,1.060059814453125,-0.0017241917084902525,0.007073348853737116,0.003058710368350148
1733862724198010600,1.0700107421875,-0.0019398494623601437,0.008530760183930397,0.0037166052497923374
1733862724207962600,1.079962646484375,-0.0006793753709644079,0.007328343112021685,0.0006869931239634752
1733862724217913900,1.089913818359375,-0.000915018143132329,0.01081005111336708,0.0015957923606038094
1733862724227864800,1.09986474609375,-0.0008295306470245123,0.014482016675174236,0.0031939554028213024
1733862724237816800,1.10981689453125,-0.0019533399026840925,0.015340072102844715,0.0016792714595794678
1733862724247767800,1.119767822265625,-0.0007029857952147722,0.016829311847686768,0.002545864088460803
1733862724257718800,1.12971875,-0.0017170715145766735,0.018095003440976143,0.0030394759960472584
1733862724267670800,1.1396708984375,0.00041159335523843765,0.020150166004896164,0.0006309133023023605
1733862724277621800,1.149621826171875,-0.0007563519757241011,0.015913868322968483,-0.0011201935121789575
1733862724287572700,1.15957275390625,-0.0017246771603822708,0.012912220321595669,-0.00022004509810358286
1733862724297524700,1.169524658203125,0.00011703651398420334,0.012596935033798218,0.0006884720642119646
1733862724307475700,1.179475830078125,-0.0014715390279889107,0.01206803135573864,-0.001452176715247333
1733862724317426700,1.1894267578125,0.00013093138113617897,0.009887059219181538,-0.000572139979340136
1733862724327378700,1.199378662109375,-0.000507960794493556,0.010696927085518837,0.0006987203378230333
1733862724337330000,1.209329833984375,0.0010270155034959316,0.009114107117056847,-0.001162355998530984
1733862724347280600,1.21928076171875,-0.0004470443818718195,0.008718361146748066,-0.000079781049862504
1733862724357233000,1.22923291015625,-0.0005815902259200811,0.007635563146322966,-0.0000945159699767828
1733862724367183600,1.23918359375,-0.0000044833868741989136,0.0038972836919128895,-0.0005720207700505853
1733862724377134600,1.249134521484375,-0.0007706887554377317,0.00514349527657032,0.0007830237736925483
1733862724387085600,1.25908544921875,0.0006551677361130714,0.005535246338695288,0.00071085209492594
1733862724397037600,1.26903759765625,0.0018101711757481098,0.004030496813356876,-0.00026781915221363306
1733862724406988500,1.278988525390625,0.00041866954416036606,0.0024344641715288162,0.00018838047981262207
1733862724416939800,1.288939697265625,-0.0002301931381225586,0.002271217992529273,-0.0007183476118370891
1733862724426891500,1.2988916015625,0.000661166850477457,0.003735424019396305,0.00029711565002799034
1733862724436842800,1.3088427734375,-0.00005702953785657883,0.0005501476116478443,0.0003243738319724798
1733862724446793500,1.31879345703125,-0.0008810115978121758,-0.001979322638362646,0.0011723242932930589
1733862724456745700,1.328745849609375,0.0006302897818386555,-0.006385229527950287,-0.00013259006664156914
1733862724466696400,1.338696533203125,0.00031630275771021843,-0.01094029936939478,-0.0035315826535224915
1733862724476647700,1.348647705078125,0.0016940166242420673,-0.013057530857622623,-0.0016376860439777374
1733862724486599700,1.358599609375,0.0005445964634418488,-0.012665247544646263,-0.0030952340457588434
1733862724496550700,1.368550537109375,0.002471680287271738,-0.014394501224160194,-0.005624398123472929
1733862724506501600,1.378501708984375,0.0010455572046339512,-0.01545577123761177,-0.003987352829426527
1733862724516453600,1.38845361328125,0.00014212075620889664,-0.013913165777921677,-0.004289029166102409
1733862724526404600,1.398404541015625,0.0014364169910550117,-0.011063050478696823,-0.002422685967758298
1733862724536355800,1.40835595703125,-0.002466687001287937,-0.008753660134971142,-0.0024768076837062836
1733862724546307600,1.4183076171875,-0.0006317689549177885,-0.0056372289545834064,0.0004236409440636635
1733862724556258600,1.428258544921875,-0.00012776535004377365,-0.0050531430169939995,-0.0000260982196778059
1733862724566209500,1.43820947265625,-0.000791691243648529,-0.003599323332309723,0.00007323769386857748
1733862724576161500,1.44816162109375,0.001070091500878334,-0.003359748050570488,-0.0010574118932709098
1733862724586112800,1.45811279296875,0.00021468428894877434,-0.003872406668961048,-0.00032850459683686495
1733862724596063500,1.4680634765625,0.0010835770517587662,-0.0027773906476795673,-0.0007130902959033847
1733862724606015700,1.478015625,0.0004606638103723526,-0.0011387475533410907,-0.0005996396066620946
1733862724615966500,1.487966552734375,0.0010517407208681107,-0.0010639670072123408,-0.0005802673986181617
1733862724625917700,1.497917724609375,-0.000025774352252483368,-0.0032706623896956444,-0.0004215430235490203
1733862724635868700,1.50786865234375,-0.0009672283194959164,-0.005863646510988474,-0.0002978000557050109
1733862724645820700,1.517820556640625,-0.0015600479673594236,-0.005871103145182133,-0.0004400127800181508
1733862724655771600,1.527771728515625,0.00024976208806037903,-0.007933412678539753,-0.00030214828439056873
1733862724665722600,1.53772265625,0.0013453862629830837,-0.007543260231614113,0.0005548568442463875
1733862724675674600,1.547674560546875,0.001706309150904417,-0.008564593270421028,-0.001841787714511156
1733862724685625600,1.55762548828125,0.00039709918200969696,-0.009063136763870716,-0.0012790618930011988
1733862724695576600,1.56757666015625,0.000963110476732254,-0.010433902032673359,-0.003365573473274708
1733862724705528800,1.57752880859375,0.00001928582787513733,-0.010737769305706024,-0.0013080151984468102
1733862724715479600,1.5874794921875,0.0010615712963044643,-0.010112850926816463,-0.0005357142072170973
1733862724725430800,1.5974306640625,0.00121630122885108,-0.009593001566827297,-0.0017881989479064941
1733862724735382500,1.607382568359375,-0.0002807225100696087,-0.010425777174532413,-0.0015704307006672025
1733862724745333800,1.617333740234375,-0.00015741819515824318,-0.008281399495899677,-0.0014732253039255738
1733862724755284500,1.627284423828125,0.0003706342540681362,-0.00828672107309103,-0.000015598838217556477
1733862724765236700,1.63723681640625,0.0002989955246448517,-0.007607616018503904,-0.0007807251531630754
1733862724775187700,1.647187744140625,0.00024147098883986473,-0.006356196012347937,0.0008174378890544176
1733862724785138700,1.657138671875,-0.001420831074938178,-0.003940230701118708,-0.0005807905690744519
1733862724795090700,1.667090576171875,-0.0018330554012209177,-0.005092128645628691,-0.00028142333030700684
1733862724805041700,1.677041748046875,0.0012311777099967003,-0.004360558465123177,0.0000916854478418827
1733862724814992600,1.68699267578125,-0.0008133384399116039,-0.0013320929137989879,-0.00004369381349533796
1733862724824944600,1.696944580078125,0.0015518148429691792,-0.004940676502883434,0.0010527295526117086
1733862724834895600,1.7068955078125,0.00018637022003531456,-0.0033124121837317944,-0.0007735190447419882
1733862724844846800,1.716846923828125,-0.00036357250064611435,-0.0034868489019572735,-0.0005745808593928814
1733862724854798600,1.726798583984375,-0.00007164804264903069,-0.005700846202671528,-0.00017929996829479933
1733862724864749600,1.73674951171875,-0.00041839154437184334,-0.005688595585525036,0.0021264648530632257
1733862724874700500,1.746700439453125,-0.0005558899138122797,-0.003391167614609003,0.0012433137744665146
1733862724884652500,1.756652587890625,-0.000038703903555870056,-0.0009453207021579146,0.002697133459150791
1733862724894603800,1.766603759765625,0.0015063141472637653,0.0005859697121195495,0.001322873285971582
1733862724904554500,1.776554443359375,0.000037048012018203735,0.0014834549510851502,0.0028866813518106937
1733862724914506800,1.7865068359375,-0.0001605115830898285,-0.0010727507760748267,0.0023832865990698338
1733862724924457500,1.79645751953125,-0.0007871531415730715,0.002847156021744013,0.0020013891626149416
1733862724934408700,1.80640869140625,-0.0002651214599609375,0.0016669138567522168,0.0021779711823910475
1733862724944359400,1.816359375,-0.0007879000622779131,-0.0005243350751698017,0.0005715525476261973
1733862724954311700,1.826311767578125,0.0007318942807614803,-0.003126086201518774,-0.0010572674218565226
1733862724964262700,1.8362626953125,-0.001279591117054224,-0.001273591653443873,0.00013982353266328573
1733862724974213600,1.846213623046875,0.0002540033310651779,0.0007528730784542859,0.00001972564496099949
1733862724984165600,1.85616552734375,0.0004936875775456429,0.0018024249002337456,-0.000788011122494936
1733862724994116600,1.86611669921875,0.0007796809077262878,-0.002900108229368925,-0.0009695717599242926
1733862725004067600,1.876067626953125,0.0012076511047780514,-0.0073348041623830795,-0.001673445338383317
1733862725014019800,1.886019775390625,-0.00043509388342499733,-0.010736329481005669,-0.0005362845258787274
1733862725023970600,1.895970458984375,0.0011944943107664585,-0.012837563641369343,-0.0038686981424689293
1733862725033921800,1.905921875,0.0003605615347623825,-0.011882706545293331,-0.002236161148175597
1733862725043873500,1.91587353515625,-0.0015726268757134676,-0.008975333534181118,-0.00031815236434340477
1733862725053824800,1.92582470703125,-0.00007461989298462868,-0.007187721319496632,-0.0011366680264472961
1733862725063775500,1.935775390625,0.00013923225924372673,-0.004851330071687698,-0.00007433316204696894
1733862725073727500,1.9457275390625,0.0010314704850316048,-0.004292947240173817,0.00021555856801569462
1733862725083678700,1.9556787109375,0.00025356095284223557,-0.0026590977795422077,-0.0008270689286291599
1733862725093629700,1.965629638671875,-0.0001483452506363392,-0.005767109803855419,-0.003913241904228926
1733862725103581700,1.975581787109375,-0.001270068809390068,-0.004699182230979204,-0.0008407530840486288
1733862725113532400,1.985532470703125,-0.0007170573808252811,-0.002749084960669279,-0.0003250747686251998
1733862725123483600,1.995483642578125,-0.0007191880140453577,-0.0014422718668356538,-0.0010726238833740354
1733862725133435600,2.005435546875,-0.0005200216546654701,-0.0018180344486609101,-0.0005699478788301349
1733862725143386600,2.01538671875,0.00031567830592393875,-0.0004712737863883376,-0.0013843424385413527
1733862725153337600,2.025337646484375,-0.0004973385948687792,-0.0003308213781565428,-0.0009232774609699845
1733862725163289600,2.03528955078125,0.00041399523615837097,-0.0023476332426071167,0.00006528804078698158
1733862725173240600,2.045240478515625,-0.0004839743487536907,-0.00013319228310137987,0.00005577225238084793
1733862725183191600,2.055191650390625,-0.0014528324827551842,0.0002497702371329069,0.0003873357782140374
1733862725193143600,2.0651435546875,-0.003004554659128189,-0.000567027716897428,-0.0002821204252541065
1733862725203094800,2.0750947265625,0.0010788701474666595,-0.002341225743293762,0.0013184393756091595
1733862725213045500,2.08504541015625,0.0002064080908894539,-0.001169830677099526,0.0016904190415516496
1733862725222997800,2.094997802734375,-0.001366188284009695,-0.0015924741746857762,-0.0007013658760115504
1733862725232948500,2.104948486328125,0.000412557739764452,-0.0021814294159412384,-0.0018258440541103482
1733862725242899700,2.114899658203125,-0.0008412583265453577,-0.0011494545033201575,-0.0007882764330133796
1733862725252851700,2.124851806640625,-0.0007192043121904135,-0.0031267283484339714,-0.0014183949679136276
1733862725262802700,2.134802734375,-0.00011839531362056732,-0.0031757308170199394,-0.00021278182975947857
1733862725272753700,2.144753662109375,0.0003653690218925476,-0.004669860005378723,-0.0003228237619623542
1733862725282704600,2.15470458984375,-0.0009931095410138369,-0.0066320765763521194,-8.476199582219124e-7
1733862725292656600,2.16465673828125,-0.0003041964955627918,-0.006130152847617865,-0.0020823245868086815
1733862725302607600,2.174607666015625,-0.001088231336325407,-0.0040203966200351715,-0.0011938940733671188
1733862725312558600,2.18455859375,0.0007707839831709862,-0.003357215318828821,-0.0023939721286296844
1733862725322510600,2.194510498046875,-0.0008359013590961695,-0.0026922239921987057,-0.0009928831132128835
1733862725332461600,2.204461669921875,0.00002109212800860405,-0.002026428934186697,0.00159822020214051
1733862725342412800,2.214412841796875,0.001142815686762333,-0.001934283529408276,0.0018456277903169394
1733862725352364500,2.224364501953125,0.0016309120692312717,-0.0028332481160759926,0.0006870912620797753
1733862725362315800,2.234315673828125,-0.0006905656773597002,-0.0019040711922571063,0.0009065357153303921
1733862725372266500,2.2442666015625,0.0007675313390791416,-0.003948621917515993,-0.0015960577875375748
1733862725382218800,2.25421875,0.0018562315963208675,-0.0027962718158960342,-0.0005536966491490602
1733862725392170000,2.264169921875,0.0007164031267166138,-0.0009862572187557817,0.0004163056146353483
1733862725402120700,2.27412060546875,-0.0010692463256418705,0.00035278010182082653,0.0005585184553638101
1733862725412073000,2.284072998046875,0.0012148204259574413,0.002824546070769429,0.001095134997740388
1733862725422023700,2.294023681640625,0.0010630199685692787,0.0008617963758297265,0.00001788628287613392
1733862725431975000,2.303974853515625,-0.001696885796263814,0.0008936953381635249,0.00023411738220602274
1733862725441927000,2.313927001953125,0.0014682812616229057,0.000495552783831954,0.0005302609642967582
1733862725451878000,2.3238779296875,0.001867544837296009,-0.0004248002078384161,-0.0006434847600758076
1733862725461828900,2.333828857421875,-0.0009330352768301964,-0.0003624822711572051,0.0019190087914466858
1733862725471780900,2.34378076171875,0.00021251849830150604,-0.00005452055484056473,0.0017151825595647097
1733862725481731800,2.35373193359375,0.0007091979496181011,0.002993733622133732,-0.0003679420333355665
1733862725491682800,2.363682861328125,-0.0010768307838588953,0.004317660350352526,0.0011266780784353614
1733862725501634800,2.373634765625,-0.0009138453751802444,0.001859296578913927,0.002231357153505087
1733862725511586000,2.3835859375,0.0005650706589221954,0.002226286567747593,0.0009833340300247073
1733862725521536800,2.393536865234375,-0.00010071927681565285,-0.0017364969244226813,-0.0004997804062440991
1733862725531488800,2.40348876953125,0.0003119814209640026,-0.004291587974876165,-0.00035424449015408754
1733862725541439700,2.413439697265625,0.0006576594896614552,-0.0043078335002064705,-0.001919916714541614
1733862725551391000,2.423390869140625,-0.000008827541023492813,-0.004480672534555197,-0.0010806812206283212
1733862725561343000,2.433343017578125,-0.00022401101887226105,-0.0022010067477822304,-0.0006303406553342938
1733862725571294000,2.4432939453125,0.0018735332414507866,-0.0006652645533904433,0.001285430509597063
1733862725581245000,2.453244873046875,-0.0006325012072920799,-0.0021691517904400826,-0.0015236716717481613
1733862725591196700,2.46319677734375,0.0016765203326940536,-0.000860433210618794,-0.00021175050642341375
1733862725601148000,2.47314794921875,-0.0003277743235230446,-0.001657250919379294,-0.0026293681003153324
1733862725611099000,2.483098876953125,-0.0006921517197042704,-0.0002446484286338091,-0.000530243618413806
1733862725621051000,2.49305078125,0.00004261452704668045,0.0015322125982493162,-0.000025840825401246548
1733862725631001900,2.503001953125,-0.00005725491791963577,0.003289632499217987,-0.00039899488911032677
1733862725640952800,2.512952880859375,0.00041545601561665535,0.003792437259107828,0.0003352387575432658
1733862725650904800,2.52290478515625,-0.0007617615628987551,0.0025199572555720806,0.0019699230324476957
1733862725660855800,2.532855712890625,-0.00157349300570786,0.002345786429941654,0.00020504614803940058
1733862725670806800,2.542806884765625,-0.0003074021078646183,0.0030597196891903877,0.00010612630285322666
1733862725680757800,2.5527578125,-0.000043482519686222076,0.0003952269908040762,0.001522927894257009
1733862725690709800,2.562709716796875,-0.0017490398604422808,-0.002856041770428419,0.0013688034377992153
1733862725700661000,2.572660888671875,0.0004739006981253624,-0.003912251442670822,-0.002915956312790513
1733862725710612700,2.58261279296875,-0.0008637201972305775,-0.0024308105930685997,-0.0015596647281199694
1733862725720564000,2.59256396484375,-0.0006717063952237368,-0.0018273383611813188,-0.0028656786307692528
1733862725730514700,2.6025146484375,-0.0010351946111768484,-0.00400947779417038,0.0007605457212775946
1733862725740466000,2.6124658203125,-0.0004477014299482107,-0.0034872321411967278,0.0009890449000522494
1733862725750418000,2.62241796875,-0.0007568830624222755,-0.0027491608634591103,0.0003517025616019964
1733862725760369000,2.632368896484375,-0.00185943185351789,-0.00012408301699906588,0.00016261811833828688
1733862725770320000,2.64231982421875,0.001322589349001646,0.0012353244237601757,0.0008078318787738681
1733862725780271900,2.65227197265625,0.0007404224015772343,0.002107776002958417,0.00019583746325224638
1733862725790222800,2.662222900390625,-0.0006556729786098003,-0.000003523542545735836,0.0006525100907310843
1733862725800173800,2.672173828125,-0.001109741861000657,-0.0031716199591755867,0.003305817488580942
1733862725810125800,2.682125732421875,-0.0003601880744099617,-0.0033795922063291073,0.00251347990706563
1733862725820077000,2.6920771484375,0.0006161266937851906,0.00216857111081481,0.001843428472056985
1733862725830027800,2.70202783203125,-0.0008456162177026272,0.004138387273997068,0.001642664079554379
1733862725839979800,2.711979736328125,-0.0007747763302177191,0.00455330777913332,0.002511919941753149
1733862725849930800,2.7219306640625,-0.0005498651880770922,0.004917697980999947,0.0037289075553417206
1733862725859882000,2.731882080078125,-0.0005738337058573961,0.0052119772881269455,0.0019491170533001423
1733862725869834000,2.741833984375,-0.0009459226857870817,0.008134878240525723,0.0018085128394886851
1733862725879784700,2.75178466796875,-0.000982674304395914,0.009533303789794445,0.0017885392298921943
1733862725889736000,2.76173583984375,-0.0007955024484544992,0.01054040901362896,0.0019241138361394405
1733862725899687700,2.771687744140625,-0.0002191946841776371,0.009323078207671642,0.0031025626230984926
1733862725909639000,2.781638916015625,-0.0005839767400175333,0.007281628903001547,0.0011828497517853975
1733862725919589600,2.791589599609375,-0.0021919934079051018,0.0033116545528173447,0.0011181349400430918
1733862725929542000,2.8015419921875,-0.0007363923359662294,0.0034523089416325092,-0.001698933425359428
1733862725939492900,2.811492919921875,0.0001339288428425789,0.0015164570650085807,-0.002427574247121811
1733862725949443800,2.82144384765625,0.0004093651659786701,-0.0007656385423615575,-0.003023485653102398
1733862725959395800,2.831395751953125,0.0002706144005060196,-0.0006388720357790589,-0.0031784814782440662
1733862725969346800,2.841346923828125,0.000964051578193903,0.0014200935838744044,0.0002832653699442744
1733862725979297800,2.8512978515625,-0.0007374419365078211,-0.00022387574426829815,-0.0013702912256121635
1733862725989250000,2.86125,0.00011083157733082771,0.0005185588379390538,-0.00025498890317976475
1733862725999200800,2.87120068359375,-0.0008196767885237932,0.00359264574944973,0.0018774040509015322
1733862726009152000,2.881152099609375,-0.0007113569881767035,0.0043247961439192295,-0.00032956909853965044
1733862726019103700,2.891103759765625,-0.00036993948742747307,0.005283268168568611,0.00014607154298573732
1733862726029055000,2.901054931640625,-0.00042896857485175133,0.006367256864905357,0.0004956168122589588
1733862726039005700,2.911005615234375,-0.00008488819003105164,0.008991535753011703,0.002403771737590432
1733862726048958000,2.9209580078125,-0.0015468974597752094,0.012059688568115234,0.0032480431254953146
1733862726058909000,2.930908935546875,-0.0003450131043791771,0.01317874900996685,0.0022453628480434418
1733862726068860000,2.94085986328125,-0.0010809411760419607,0.013159443624317646,0.004593885503709316
1733862726078812000,2.95081201171875,-0.0004036992322653532,0.01230723224580288,0.00428416021168232
1733862726088763000,2.960762939453125,-0.0018762429244816303,0.00958420429378748,0.0033611771650612354
1733862726098713900,2.9707138671875,-0.001131090335547924,0.008507488295435905,0.0017006961861625314
1733862726108665900,2.980665771484375,-0.0016037325840443373,0.008020531386137009,0.0020209806971251965
1733862726118616800,2.990616943359375,-0.000210633035749197,0.00806314218789339,0.0016691770870238543
1733862726128567800,3.00056787109375,0.002151923254132271,0.00908525101840496,0.00173267035279423
1733862726138519800,3.010519775390625,-0.0006332104094326496,0.00793449953198433,0.0004439667100086808
1733862726148470800,3.020470703125,-0.000777446199208498,0.00811130553483963,0.0033526369370520115
1733862726158421800,3.030421875,-0.0010528170969337225,0.007279600948095322,0.001959271030500531
1733862726168373800,3.040373779296875,-0.000399536220356822,0.006049862131476402,0.0015958870062604547
1733862726178325000,3.050324951171875,0.00032457755878567696,0.005908714607357979,-0.0007082798983901739
1733862726188275700,3.060275634765625,-0.0012925586197525263,0.004123099148273468,0.0008580376161262393
1733862726198228000,3.07022802734375,-0.0018534203991293907,0.006118605844676495,0.0018846861785277724
1733862726208178700,3.0801787109375,0.000013967975974082947,0.006227479316294193,0.0029709991067647934
1733862726218130000,3.0901298828125,-0.0000781770795583725,0.00736411614343524,0.0035843253135681152
1733862726228082000,3.10008203125,-0.0023917146027088165,0.008642653934657574,0.004497786983847618
1733862726238033000,3.110032958984375,-0.0013754521496593952,0.010642155073583126,0.0026972240302711725
1733862726247983900,3.11998388671875,-0.0016499597113579512,0.013075384311378002,0.0042793480679392815
1733862726257936000,3.129935791015625,-0.0008174555841833353,0.0171742532402277,0.00529161561280489
1733862726267886800,3.139886962890625,-0.0025179970543831587,0.021279701963067055,0.008271856233477592
1733862726277837800,3.149837890625,-0.0009877446573227644,0.024522632360458374,0.006012164056301117
1733862726287789800,3.159789794921875,-0.002808657940477133,0.021873503923416138,0.008970033377408981
1733862726297741000,3.169740966796875,0.000018553808331489563,0.015791909769177437,0.006477314978837967
1733862726307691800,3.17969189453125,-0.00007204152643680573,0.009196421131491661,0.004840794950723648
1733862726317643800,3.189643798828125,-0.00319646205753088,0.0026445118710398674,0.002623713342472911
1733862726327594800,3.1995947265625,0.0007758093997836113,0.0014052470214664936,0.0006833415245637298
1733862726337546000,3.2095458984375,0.0014349417760968208,0.0041091544553637505,0.00022607680875808
1733862726347498000,3.219498046875,0.00015158718451857567,0.008309820666909218,0.0008123849984258413
1733862726357448700,3.22944873046875,-0.0010513626039028168,0.011677388101816177,0.0025703376159071922
1733862726367400000,3.23939990234375,-0.00041818851605057716,0.014976565726101398,0.0031051693949848413
1733862726377351700,3.2493515625,0.0002553248777985573,0.010594334453344345,0.0005115168169140816
1733862726387303000,3.259302978515625,-0.0002578478306531906,0.009713033214211464,-0.0005368501879274845
1733862726397253600,3.269253662109375,-0.0004748955834656954,0.009831277653574944,0.00015850120689719915
1733862726407206000,3.279205810546875,0.0011280151084065437,0.009223127737641335,-0.0006314432248473167
1733862726417156600,3.289156494140625,-0.0020328909158706665,0.005854761693626642,0.000055119628086686134
1733862726427107800,3.29910791015625,-0.0007524443790316582,0.005683431401848793,-0.003007430350407958
1733862726437059800,3.309059814453125,0.001532281283289194,0.004133471753448248,-0.0036404638085514307
1733862726447010800,3.3190107421875,0.0006667035631835461,0.0021343259140849113,-0.004362531937658787
1733862726456961800,3.3289619140625,-0.0008489016909152269,-0.0024297996424138546,-0.002989406231790781
1733862726466913800,3.338913818359375,-0.0007004207000136375,-0.003473775926977396,-0.0008512979838997126
1733862726476864800,3.34886474609375,0.0014135967940092087,-0.001120074070058763,-0.0018356023356318474
1733862726486815700,3.358815673828125,-0.0002869497984647751,-0.0020497459918260574,-0.0005673044361174107
1733862726496767700,3.368767822265625,0.0003697858192026615,0.00025601882953196764,-0.0014554685913026333
1733862726506719000,3.378718994140625,-0.0008176108822226524,0.0016527918633073568,0.0014302637428045273
1733862726516669700,3.388669677734375,-0.00011400366201996803,0.007788714952766895,0.0008654072880744934
1733862726526621700,3.39862158203125,0.00030343281105160713,0.010968782007694244,0.0028831397648900747
1733862726536572700,3.40857275390625,-0.0011900679673999548,0.011840700171887875,0.005136174149811268
1733862726546524000,3.41852392578125,-0.0011439896188676357,0.00970813725143671,0.006177984178066254
1733862726556476000,3.428475830078125,0.00040943222120404243,0.010290304198861122,0.006345763336867094
1733862726566427000,3.438427001953125,-0.0008893248159438372,0.011205154471099377,0.008981828577816486
1733862726576377900,3.4483779296875,-0.0001897122710943222,0.014749822206795216,0.008890748955309391
1733862726586328800,3.458328857421875,-0.0009057251736521721,0.020041044801473618,0.00890866108238697
1733862726596280800,3.46828076171875,-0.00019865576177835464,0.021347325295209885,0.009583505801856518
1733862726606231800,3.478231689453125,0.000034489668905735016,0.023568162694573402,0.0072615304961800575
1733862726616182800,3.488182861328125,0.0009436928667128086,0.018840786069631577,0.007702549919486046
1733862726626134800,3.498134765625,0.0009079393930733204,0.011062245815992355,0.002105873543769121
1733862726636085800,3.508085693359375,0.002126868348568678,0.005155886523425579,0.0010384784545749426
1733862726646037800,3.518037841796875,0.0013094805181026459,0.0005568808992393315,-0.0035822943318635225
1733862726655988700,3.52798876953125,0.0011747246608138084,-0.0035952534526586533,-0.0027639048639684916
1733862726665939700,3.537939697265625,0.0016856505535542965,-0.005359816364943981,-0.0021852091886103153
1733862726675890700,3.547890625,0.0003322320990264416,-0.010842998512089252,-0.005146378185600042
1733862726685842700,3.5578427734375,0.0024188407696783543,-0.01353758480399847,-0.007005796767771244
1733862726695794000,3.5677939453125,0.002234816551208496,-0.018289463594555855,-0.01305916253477335
1733862726705744600,3.57774462890625,0.0020702886395156384,-0.01757604442536831,-0.011419367045164108
1733862726715697000,3.58769677734375,0.0027757599018514156,-0.009686695411801338,-0.010554904118180275
1733862726725647600,3.597647705078125,0.000791408121585846,0.007700071670114994,-0.006427469197660685
1733862726735598800,3.607598876953125,-0.00005867285653948784,0.02858537994325161,0.0009391010971739888
1733862726745550800,3.61755078125,-0.0024724826216697693,0.04027476906776428,0.007791980169713497
1733862726755501800,3.627501708984375,-0.003352923784404993,0.03952509164810181,0.011762486770749092
1733862726765452800,3.637452880859375,-0.0007511330768465996,0.03250953555107117,0.007520947605371475
1733862726775404800,3.64740478515625,-0.00009519653394818306,0.02229178510606289,0.002015927340835333
1733862726785355800,3.657355712890625,-0.0003043222241103649,0.012638689950108528,0.0008850971353240311
1733862726795306800,3.667306640625,-0.0002023233100771904,0.01093533169478178,-0.00011305557563900948
1733862726805258800,3.6772587890625,-0.000028030946850776672,0.013557810336351395,0.0009387731552124023
1733862726815210000,3.6872099609375,-0.0006589337717741728,0.01863699220120907,0.00212760828435421
1733862726825160700,3.69716064453125,-0.00220537930727005,0.023028504103422165,0.007481980137526989
1733862726835112700,3.70711279296875,-0.0009353177156299353,0.02896255999803543,0.008459093980491161
1733862726845063700,3.717063720703125,-0.0015877606347203255,0.028101477771997452,0.006645910441875458
1733862726855015000,3.727014892578125,0.00031746504828333855,0.023489682003855705,0.006401166319847107
1733862726864967000,3.736966796875,-0.000332382507622242,0.017484068870544434,0.004320275504142046
1733862726874917600,3.746917724609375,-0.0005153415258973837,0.015173244290053844,0.0038696685805916786
1733862726884868900,3.756868896484375,-0.0011024288833141327,0.011494558304548264,0.003379500238224864
1733862726894820600,3.766820556640625,-0.0014606239274144173,0.011317458003759384,0.0033613909035921097
1733862726904771800,3.776771728515625,-0.0007493970915675163,0.012574716471135616,0.005108467768877745
1733862726914722600,3.78672265625,-0.0015347632579505444,0.01145379152148962,0.006928738206624985
1733862726924674800,3.7966748046875,0.00007656821981072426,0.00601907167583704,0.005917458329349756
1733862726934625800,3.806625732421875,-0.00007017189636826515,-0.004330771043896675,0.005453535355627537
1733862726944576800,3.81657666015625,0.0020865043625235558,-0.014460480771958828,0.0005949933547526598
1733862726954528800,3.82652880859375,0.0027405768632888794,-0.02196899801492691,-0.0025669776368886232
1733862726964479700,3.836479736328125,0.0004579685628414154,-0.02586517296731472,-0.002726466627791524
1733862726974430700,3.8464306640625,0.002386895939707756,-0.026385555043816566,-0.0038750881794840097
1733862726984383000,3.856383056640625,0.0017899712547659874,-0.024734949693083763,-0.0027453319635242224
1733862726994333700,3.866333740234375,0.0021172738634049892,-0.019996119663119316,-0.0017905884888023138
1733862727004285000,3.876284912109375,0.000027589499950408936,-0.013902787119150162,-0.0000023192260414361954
1733862727014236700,3.886236572265625,0.000052623450756073,-0.004208880010992289,-0.000569838797673583
1733862727024188000,3.89618798828125,0.000325577799230814,0.0005376988556236029,-0.0000070785172283649445
1733862727034138600,3.906138671875,0.0015394464135169983,0.00628906162455678,0.0030877809040248394
1733862727044090600,3.916090576171875,0.0012535634450614452,0.002519098110496998,0.0012811704073101282
1733862727054041900,3.926041748046875,0.0007273228839039803,0.0009704697877168655,-0.00029568723402917385
1733862727063992800,3.935992919921875,0.0005600680597126484,0.0011780977947637439,-0.0003204471431672573
1733862727073944800,3.94594482421875,0.002239990048110485,0.00236293813213706,0.001575190806761384
1733862727083895800,3.955895751953125,0.000812046229839325,0.006983218714594841,-0.00019971933215856552
1733862727093846800,3.9658466796875,-0.0008143461309373379,0.011751874350011349,0.001256763469427824
1733862727103798800,3.975798828125,-0.0010060362983494997,0.016822902485728264,0.0017721449257805943
1733862727113749800,3.985749755859375,-0.00012133410200476646,0.017071640118956566,0.002220088616013527
1733862727123700700,3.99570068359375,0.0010258103720843792,0.016197891905903816,0.0036378013901412487
1733862727133652700,4.00565283203125,-0.0005041756667196751,0.017889533191919327,0.003785074222832918
1733862727143603700,4.015603759765625,-0.00020234053954482079,0.01644689030945301,0.0004624368157237768
1733862727153554700,4.0255546875,0.001703417394310236,0.014110233634710312,0.0002424597041681409
1733862727163506700,4.035506591796875,-0.000664788531139493,0.012167170643806458,0.000511748599819839
1733862727173458000,4.0454580078125,0.0007581384852528572,0.009547152556478977,0.0019474587170407176
1733862727183408600,4.05540869140625,-0.0001697423867881298,0.008127182722091675,0.001526980078779161
1733862727193361000,4.06536083984375,-0.0009583043865859509,0.0083064129576087,0.0024385801516473293
1733862727203311600,4.0753115234375,-0.0009993752464652061,0.008593485690653324,0.0034853131510317326
1733862727213262800,4.085262939453125,-0.0002872459590435028,0.013822868466377258,0.0032488242723047733
1733862727223214800,4.09521484375,0.00039653386920690536,0.01912553794682026,0.005194531753659248
1733862727233165800,4.105165771484375,-0.0006410339847207069,0.023357832804322243,0.006599348969757557
1733862727243116800,4.11511669921875,-0.0010012222919613123,0.022482896223664284,0.008334217593073845
1733862727253068800,4.12506884765625,-0.0014206701889634132,0.018887363374233246,0.006826069205999374
1733862727263019800,4.135019775390625,0.00007331604138016701,0.0179127287119627,0.005703384056687355
1733862727272970800,4.144970703125,-0.00026250816881656647,0.02272772416472435,0.007138827815651894
1733862727282922800,4.1549228515625,-0.0008805680554360151,0.02682856097817421,0.007623582612723112
1733862727292874000,4.1648740234375,-0.0006347582675516605,0.030767375603318214,0.010422298684716225
1733862727302824700,4.17482470703125,-0.0005948918405920267,0.03578150272369385,0.008728235960006714
1733862727312776700,4.184776611328125,0.0005510663613677025,0.03428720310330391,0.0070576355792582035
1733862727322727700,4.194727783203125,0.0008296328596770763,0.03061230666935444,0.004484489094465971
1733862727332679000,4.204678955078125,0.0014566895551979542,0.029971221461892128,0.0038331998512148857
1733862727342631000,4.214630859375,-0.00013213511556386948,0.027491819113492966,0.0018360952381044626
1733862727352581600,4.22458154296875,0.001586402766406536,0.025511492043733597,-0.001420151675119996
1733862727362532900,4.234532958984375,-0.0012484323233366013,0.02047390304505825,0.00174154422711581
1733862727372484600,4.244484619140625,0.00008527841418981552,0.016571039333939552,-0.000602570129558444
1733862727382436400,4.254436279296875,-0.000994775677099824,0.012843210250139236,-0.0018322714604437351
1733862727392387000,4.264386962890625,-0.0004909057170152664,0.009555005468428135,-0.00270339148119092
1733862727402339300,4.27433935546875,0.0007312675006687641,0.006919964216649532,-0.0036875673104077578
1733862727412290300,4.284290283203125,0.0008963835425674915,0.0034730350598692894,-0.005446318536996841
1733862727422241300,4.2942412109375,-0.0011044284328818321,-0.0037545724771916866,-0.0063334871083498
1733862727432193300,4.304193359375,-0.000890044029802084,-0.008636413142085075,-0.004725736565887928
1733862727442144300,4.314144287109375,-0.0004123465623706579,-0.01192978024482727,-0.004213936626911163
1733862727452096300,4.32409619140625,0.0019397572614252567,-0.016629459336400032,-0.006495732814073563
1733862727462047200,4.334047119140625,-0.0002329195849597454,-0.01567172259092331,-0.007644406519830227
1733862727471998200,4.343998291015625,-0.00039297575131058693,-0.012173926457762718,-0.007584218867123127
1733862727481949400,4.353949462890625,0.0007701283320784569,-0.00943245179951191,-0.006404215469956398
1733862727491901200,4.363901123046875,-0.0016802463214844465,-0.003890146967023611,-0.002896033227443695
1733862727501852200,4.37385205078125,0.0002619079314172268,-0.0024661277420818806,-0.0006811157800257206
1733862727511803100,4.38380322265625,0.0006475336849689484,-0.0018187136156484485,-0.0005612734239548445
1733862727521755100,4.393755126953125,-0.001545855775475502,-0.0017538036918267608,-0.0010515190660953522
1733862727531706400,4.403706298828125,-0.00029576802626252174,0.0008584909955970943,-0.0029676633421331644
1733862727541658000,4.413658203125,-0.0010982619132846594,-0.0010428131790831685,-0.0009665901307016611
1733862727551609300,4.423609375,-0.0013645780272781849,0.0012871864018961787,-0.0015703286044299603
1733862727561560000,4.43356005859375,-0.000711037777364254,0.0011220978340134025,-0.001685342751443386
1733862727571512300,4.44351220703125,0.00020801927894353867,-0.0011975154047831893,-0.0017372744623571634
1733862727581463300,4.45346337890625,0.0001761685125529766,-0.0038768481463193893,0.0014809150015935302
1733862727591414300,4.463414306640625,0.0015546204522252083,-0.007038286421447992,0.0005717118037864566
1733862727601366300,4.4733662109375,-0.0006851775106042624,-0.01000290922820568,-0.00038321991451084614
1733862727611317200,4.483317138671875,-0.00015201279893517494,-0.009298502467572689,-0.0007520678918808699
1733862727621268200,4.493268310546875,0.0008211187086999416,-0.01087820716202259,-0.0007951078005135059
1733862727631220200,4.50322021484375,-0.000459595350548625,-0.012498474679887295,-0.00033091893419623375
1733862727641171200,4.513171142578125,0.00022047804668545723,-0.010326310992240906,0.0016850086394697428
1733862727651122400,4.523122314453125,-0.0019606505520641804,-0.0062761758454144,0.003107669297605753
1733862727661074200,4.53307421875,-0.0017670574598014355,-0.0003484172048047185,0.005657894536852837
1733862727671025200,4.543025146484375,-0.0013856927398592234,0.0019427002407610416,0.007535423152148724
1733862727680976100,4.55297607421875,-0.0003819845151156187,0.003730194643139839,0.008537347428500652
1733862727690928000,4.56292822265625,-0.0011835959739983082,0.00007473980076611042,0.003008625004440546
1733862727700879400,4.57287939453125,0.002229384146630764,-0.006961762439459562,0.0010541912633925676
1733862727710830300,4.582830322265625,0.001955078449100256,-0.01267530769109726,-0.0006672760937362909
1733862727720782300,4.5927822265625,0.0009269933216273785,-0.018259910866618156,-0.0018843496218323708
1733862727730733000,4.602733154296875,0.0012042280286550522,-0.020169928669929504,-0.0007112270686775446
1733862727740684300,4.612684326171875,0.0011481144465506077,-0.019274631515145302,0.001457315986044705
1733862727750636300,4.62263623046875,0.00009004073217511177,-0.013325395062565804,0.002471181331202388
1733862727760587300,4.632587158203125,0.00013211462646722794,-0.008287888020277023,0.0025983862578868866
1733862727770538200,4.642538330078125,0.0009875218383967876,-0.00814780592918396,-0.0008450809400528669
1733862727780490200,4.652490234375,0.0007876218296587467,-0.009509352035820484,-0.0013635042123496532
1733862727790441200,4.662441162109375,0.0021578180603682995,-0.01787567138671875,-0.0016974646132439375
1733862727800392200,4.67239208984375,-0.00010825367644429207,-0.02242453396320343,-0.0031370664946734905
1733862727810344200,4.68234423828125,0.0015277261845767498,-0.017467059195041656,-0.003227613866329193
1733862727820295400,4.69229541015625,0.0022162199020385742,-0.015917688608169556,-0.0030359348747879267
1733862727830246100,4.70224609375,-0.0007028707768768072,-0.01527959480881691,-0.0041113197803497314
1733862727840198400,4.712198486328125,0.0003823013976216316,-0.016037311404943466,-0.004171764478087425
1733862727850149000,4.722149169921875,0.0004757782444357872,-0.014544608071446419,-0.00375551194883883
1733862727860100400,4.732100341796875,-0.0008813110180199146,-0.013510879129171371,-0.002006751950830221
1733862727870052400,4.74205224609375,0.0015381709672510624,-0.013682919554412365,-0.0026411167345941067
1733862727880003300,4.75200341796875,-0.000396880554035306,-0.009679656475782394,-0.001506343949586153
1733862727889954300,4.761954345703125,0.0004686466418206692,-0.005402353126555681,-0.0012866330798715353
1733862727899906000,4.771906005859375,0.0008131996728479862,-0.004653730429708958,-0.0014550653286278248
1733862727909857300,4.781857177734375,0.0004616626538336277,-0.0038811475969851017,0.00012472178786993027
1733862727919808300,4.791808349609375,-0.0010076677426695824,-0.00207594595849514,-0.0003041760064661503
1733862727929760300,4.80176025390625,0.000059194862842559814,0.000028217444196343422,-0.00028127292171120644
1733862727939711200,4.811711181640625,0.0005873194895684719,0.0002905575092881918,-0.0013232126366347075
1733862727949662200,4.821662109375,-0.0016569262370467186,0.0011068163439631462,-0.002761053154245019
1733862727959614200,4.8316142578125,0.00015836115926504135,0.0011802896624431014,-0.0019447605591267347
1733862727969565200,4.841565185546875,-0.0006861272267997265,0.0002351338043808937,-0.0022089460399001837
1733862727979516200,4.85151611328125,-0.0012850773055106401,0.0008420959347859025,-0.0015889278147369623
1733862727989468400,4.861468505859375,-0.000784402946010232,0.001908691949211061,-0.001165218884125352
1733862727999419100,4.871419189453125,-0.00133900111541152,0.00009168358519673347,-0.002771491650491953
1733862728009370400,4.881370361328125,-0.0018758943770080805,-0.001087830518372357,-0.0033392775803804398
1733862728019322000,4.891322021484375,-0.0016999023500829935,-0.001956359948962927,-0.003237038152292371
1733862728029273300,4.9012734375,0.0013504824601113796,-0.00021838117390871048,-0.004109489731490612
1733862728039224000,4.91122412109375,-0.00012141047045588493,-0.0009123735362663865,-0.006455699913203716
1733862728049176300,4.92117626953125,0.00045569660142064095,0.00014996144454926252,-0.004145674407482147
1733862728059127300,4.931127197265625,-0.0015188110992312431,0.0021265135146677494,-0.0056833745911717415
1733862728069078300,4.941078369140625,-0.0014895163476467133,0.006346292328089476,-0.0034905278589576483
1733862728079030300,4.9510302734375,-0.0009998760651797056,0.0054914639331400394,-0.0035973291378468275
1733862728088981200,4.960981201171875,-0.0001601814292371273,0.0002303889486938715,-0.00458163395524025
1733862728098932200,4.97093212890625,-0.0011910360772162676,-0.0008164445171132684,-0.005489969160407782
1733862728108884200,4.98088427734375,-0.0007875671144574881,-0.005357400514185429,-0.004811662249267101
1733862728118835200,4.990835205078125,-0.0009606454987078905,-0.011501469649374485,-0.0022415737621486187
1733862728128786400,5.000786376953125,-0.0007388042286038399,-0.012441565282642841,-0.002955833449959755
1733862728138738200,5.01073828125,0.0001812400296330452,-0.011628749780356884,-0.0025185858830809593
1733862728148689200,5.020689208984375,0.0003096046857535839,-0.0115493880584836,-0.00294362660497427
1733862728158640000,5.03064013671875,0.0010063466615974903,-0.014594712294638157,-0.003664544317871332
1733862728168592100,5.040592041015625,0.001894244458526373,-0.017389167100191116,-0.004209693055599928
1733862728178543400,5.05054345703125,0.0003113248385488987,-0.016631819307804108,-0.002544487128034234
1733862728188494000,5.060494140625,-0.00030599581077694893,-0.017108259722590446,-0.0021444803569465876
1733862728198446300,5.0704462890625,0.0017024995759129524,-0.015837684273719788,-0.0006480070296674967
1733862728208397000,5.08039697265625,-0.0018008886836469173,-0.013740709982812405,-0.0006892860401421785
1733862728218348300,5.090348388671875,0.0005983696319162846,-0.013347380794584751,-0.002822366775944829
1733862728228300300,5.10030029296875,0.00046787457540631294,-0.012611016631126404,-0.0015789368189871311
1733862728238251300,5.110251220703125,0.000294326338917017,-0.012164999730885029,-0.0006925850175321102
1733862728248202200,5.1202021484375,0.0009055216796696186,-0.012823333032429218,-0.0027075328398495913
1733862728258154200,5.130154296875,0.0019466867670416832,-0.012726092711091042,-0.0016943542286753654
1733862728268105200,5.140105224609375,-0.0008850523736327887,-0.013115180656313896,-0.004288805648684502
1733862728278057200,5.15005712890625,0.001555267721414566,-0.014742803759872913,-0.005404944997280836
1733862728288008200,5.16000830078125,-0.0018514478579163551,-0.014768634922802448,-0.002164410427212715
1733862728297959400,5.16995947265625,-0.000243340153247118,-0.014312922023236752,-0.0021774806082248688
1733862728307910100,5.17991015625,0.00023096846416592598,-0.01201754342764616,-0.003429698757827282
1733862728317862400,5.1898623046875,-0.0008999570272862911,-0.010292807593941689,-0.0011737968306988478
1733862728327813000,5.199813232421875,0.0011293715797364712,-0.011517062783241272,-0.0004358349833637476
1733862728337765000,5.20976513671875,-0.00008956249803304672,-0.012711480259895325,-0.003225431777536869
1733862728347716400,5.21971630859375,0.00023001711815595627,-0.013197241351008415,-0.004375917371362448
1733862728357667300,5.229667236328125,0.0015860009007155895,-0.014906596392393112,-0.0036899892147630453
1733862728367619300,5.239619384765625,-0.000033999793231487274,-0.012908692471683025,-0.002933651441708207
1733862728377572900,5.24957275390625,0.0013668183237314224,-0.011061002500355244,-0.0013789734803140163
1733862728387523800,5.25952392578125,0.00027865031734108925,-0.009034602902829647,-0.002962489379569888
1733862728397475800,5.269475830078125,0.0005206838250160217,-0.009609846398234367,-0.0025352819357067347
1733862728407426800,5.2794267578125,0.0013201646506786346,-0.009974166750907898,-0.0037009476218372583
1733862728417378000,5.2893779296875,-0.0002398919314146042,-0.012238954193890095,-0.005701076705008745
1733862728427329800,5.299329833984375,0.001005934551358223,-0.013518336229026318,-0.00559481605887413
1733862728437280800,5.30928076171875,0.00022507691755890846,-0.01346645224839449,-0.0050680264830589294
1733862728447231700,5.319231689453125,0.0014858171343803406,-0.012290400452911854,-0.0008112294599413872
1733862728457183700,5.329183837890625,-0.0004853305872529745,-0.005693289916962385,-0.00023743044584989548
1733862728467135000,5.339135009765625,-0.001561247743666172,-0.00023141305427998304,0.00006403960287570953
1733862728477086000,5.3490859375,0.00008764397352933884,0.00006758712697774172,0.0013765820767730474
1733862728487038000,5.359037841796875,-0.001153122866526246,-0.002663484774529934,-0.0004881632048636675
1733862728496988700,5.36898876953125,-0.00035993754863739014,-0.002504293341189623,-0.0010156575590372086
1733862728506940000,5.37893994140625,0.0001852116547524929,-0.002950638998299837,-0.002092640148475766
1733862728516892000,5.388891845703125,0.0020447662100195885,-0.005348196253180504,-0.004272500053048134
1733862728526843000,5.3988427734375,-0.0012282589450478554,-0.008859041146934032,-0.0005334217566996813
1733862728536793900,5.4087939453125,0.000007869210094213486,-0.010555175133049488,0.0002797129563987255
1733862728546745900,5.418745849609375,-0.0005687051452696323,-0.014418356120586395,-0.0005368122365325689
1733862728556696800,5.42869677734375,0.0012402194552123547,-0.014739276841282845,0.0005082322750240564
1733862728566647800,5.438647705078125,0.0016423570923507214,-0.015188019722700119,-0.00018259184435009956
1733862728576599800,5.448599853515625,0.002504609525203705,-0.010151926428079605,-0.0013293216470628977
1733862728586551000,5.458551025390625,0.0017434777691960335,-0.012199897319078445,-0.0024931232910603285
1733862728596501800,5.468501708984375,0.0009409012272953987,-0.012274672277271748,-0.002006715163588524
1733862728606454000,5.4784541015625,-0.000176294706761837,-0.01421212125569582,-0.0006421112921088934
1733862728616404700,5.48840478515625,-0.0015968626830726862,-0.012560572475194931,0.0008300557965412736
1733862728626356000,5.49835595703125,0.0004337979480624199,-0.012242857366800308,0.00042019528336822987
1733862728636308000,5.508307861328125,0.001131380908191204,-0.013650521636009216,-0.0019110571593046188
1733862728646259000,5.518259033203125,0.001426459290087223,-0.011286700144410133,-0.0017997371032834053
1733862728656210000,5.5282099609375,0.0009355423972010612,-0.010298702865839005,-0.0028024758212268353
1733862728666161700,5.53816162109375,0.001024492084980011,-0.006672277580946684,-0.0022879531607031822
1733862728676113000,5.54811279296875,0.000514947809278965,-0.004567240830510855,-0.0017470924649387598
1733862728686063900,5.55806396484375,0.00129631906747818,-0.0048181102611124516,0.0012164730578660965
1733862728696016000,5.568015869140625,-0.002184115117415786,-0.0036409934982657433,0.0014076987281441689
1733862728705966800,5.577966796875,0.00021858885884284973,-0.004396532196551561,0.0028929435648024082
1733862728715917800,5.587917724609375,0.0033066426403820515,-0.004777290392667055,0.001125001348555088
1733862728725869800,5.597869873046875,0.0005561299622058868,-0.0032110856845974922,-0.0007671746425330639
1733862728735820800,5.60782080078125,0.00044491374865174294,-0.004980949684977531,-0.002341676503419876
1733862728745772800,5.617772705078125,-0.0007740152068436146,-0.0068891048431396484,0.00010603503324091434
1733862728755724000,5.62772412109375,-0.001589844236150384,-0.00956777948886156,0.0008872136240825057
1733862728765674800,5.6376748046875,-0.0018923792522400618,-0.00854139681905508,0.0011636497220024467
1733862728775627000,5.647626953125,0.001191585324704647,-0.010921093635261059,0.0003732433542609215
1733862728785577700,5.65757763671875,0.0004741298034787178,-0.010733074508607388,-0.0005492756608873606
1733862728795529000,5.667529052734375,-0.0004279755521565676,-0.011962749063968658,-0.001416053855791688
1733862728805481000,5.67748095703125,0.0007211784832179546,-0.01648692600429058,-0.0006469329819083214
1733862728815432000,5.687431884765625,0.003209339454770088,-0.023478439077734947,-0.004143578466027975
1733862728825383000,5.6973828125,0.002753672655671835,-0.0271163173019886,-0.004526807460933924
1733862728835334700,5.707334716796875,0.0023938026279211044,-0.02777867577970028,-0.005662986077368259
1733862728845286000,5.717285888671875,0.0014726156368851662,-0.022685913369059563,-0.005119700916111469
1733862728855236900,5.72723681640625,0.0016148476861417294,-0.01975315436720848,-0.004822054877877235
1733862728865188900,5.73718896484375,0.0010393387638032436,-0.015296622179448605,-0.0038308261428028345
1733862728875139800,5.747139892578125,0.00021204492077231407,-0.010148881003260612,-0.002416403964161873
1733862728885090800,5.7570908203125,0.0009233751334249973,-0.010780583135783672,-0.0020132013596594334
1733862728895042800,5.767042724609375,-0.0010609321761876345,-0.007760619278997183,-0.001676526851952076
1733862728904993800,5.776993896484375,0.0013271244242787361,-0.007675397675484419,-0.0005209809169173241
1733862728914944800,5.78694482421875,0.00003432761877775192,-0.007780803367495537,-0.0008117295801639557
1733862728924897000,5.79689697265625,0.0007786811329424381,-0.00625081779435277,-0.0034160346258431673
1733862728934847700,5.80684765625,-0.0007573857437819242,-0.004371709655970335,-0.0018479223363101482
1733862728944799000,5.816799072265625,-0.0007541899103671312,0.001896572532132268,0.00033826660364866257
1733862728954750700,5.826750732421875,-0.0003071189858019352,0.0043230862356722355,-0.00046633463352918625
1733862728964702000,5.836701904296875,-0.0006762328557670116,0.007254693657159805,0.0009901481680572033
1733862728974652700,5.846652587890625,-0.00006685219705104828,0.007004049606621265,0.001952769118361175
1733862728984605000,5.85660498046875,0.000605329405516386,0.005825601052492857,0.001886988990008831
1733862728994556000,5.866555908203125,-0.0007870269473642111,0.0037933667190372944,0.0017206961056217551
1733862729004507000,5.8765068359375,-0.002143108518794179,0.0037488918751478195,0.0011457196669653058
1733862729014459000,5.886458984375,-0.0005468274466693401,0.0034273099154233932,0.00007229391485452652
1733862729024409900,5.896409912109375,-0.0014107569586485624,0.005089122336357832,0.0005742997163906693
1733862729034360800,5.90636083984375,0.0008484087884426117,0.0039939130656421185,0.0016856198199093342
1733862729044312800,5.916312744140625,-0.00042404932901263237,0.005220565013587475,0.0029098750092089176
1733862729054263800,5.926263916015625,-0.002492448315024376,0.004049507435411215,0.0020423370879143476
1733862729064215000,5.936215087890625,-0.0010964192915707827,0.004105700179934502,0.0006564280483871698
1733862729074166800,5.946166748046875,-0.0008741077035665512,0.001986356684938073,0.0018447304610162973
1733862729084118000,5.956117919921875,-0.0011356300674378872,0.0025211195461452007,-0.0010700991842895746
1733862729094070000,5.966070068359375,-0.0005309020634740591,0.0013411835534498096,-0.0006318716332316399
1733862729104020700,5.976020751953125,-0.0005386252887547016,0.0029228348284959793,0.00015163025818765163
1733862729113972000,5.985971923828125,-0.000938087934628129,0.005106599070131779,-0.001183979446068406
1733862729123923700,5.995923828125,0.0005431622266769409,0.004396600648760796,0.0015556144062429667
1733862729133875000,6.005875,0.00005728285759687424,0.003874098416417837,0.002162892371416092
1733862729143825700,6.01582568359375,0.00013478100299835205,0.004200335592031479,0.0016329233767464757
1733862729153778000,6.02577783203125,-0.0010392558760941029,0.005222657695412636,0.0031800740398466587
1733862729163729000,6.03572900390625,-0.002679496770724654,0.00499016372486949,0.001493227668106556
1733862729173679900,6.045679931640625,-0.0006775995716452599,0.004336202051490545,0.0012683281674981117
1733862729183632000,6.0556318359375,-0.0006685447879135609,0.0029313848353922367,0.0017676709685474634
1733862729193582800,6.065582763671875,-0.002446585102006793,0.0011682056356221437,0.0010718469275161624
1733862729203533800,6.075533935546875,-0.0008952938951551914,0.006189063191413879,0.002532324520871043
1733862729213486000,6.085486083984375,0.00048153800889849663,0.005578971467912197,0.002007793402299285
1733862729223436800,6.095436767578125,0.00026901764795184135,0.0037834681570529938,0.0019907490350306034
1733862729233388000,6.105387939453125,0.00009582284837961197,0.003281801473349333,0.002374536357820034
1733862729243339800,6.11533984375,0.0001927618868649006,0.0044325534254312515,0.00044560886453837156
1733862729253291000,6.125291015625,-0.0011723439674824476,0.0010006481315940619,-0.00015053525567054749
1733862729263241700,6.13524169921875,0.00040291575714945793,-0.0038098194636404514,-0.002253101207315922
1733862729273193700,6.14519384765625,0.0007739188149571419,-0.008037771098315716,-0.0012615032028406858
1733862729283145000,6.15514501953125,0.0009036147966980934,-0.007036689203232527,0.00004397844895720482
1733862729293096000,6.165095947265625,-0.0005893760826438665,-0.0072016604244709015,-0.0005557138938456774
1733862729303048000,6.1750478515625,0.0006857453845441341,-0.0050378418527543545,0.0005574873648583889
1733862729312998700,6.18499853515625,0.0016515529714524746,-0.001446707989089191,0.0006057852879166603
1733862729322950000,6.194949951171875,0.0008089286275207996,0.0019078096374869347,0.00008353940211236477
1733862729332902000,6.20490185546875,-0.00019956845790147781,-0.0008364388486370444,0.00045841780956834555
1733862729342852900,6.214852783203125,-0.0014347427058964968,-0.0036878855898976326,0.0010999733349308372
1733862729352803800,6.224803955078125,-0.0002904394641518593,-0.007986371405422688,-0.00039091589860618114
1733862729362755800,6.234755859375,-0.0017344055231660604,-0.007134426850825548,-0.0005211443640291691
1733862729372706800,6.244706787109375,0.0005109691992402077,-0.004749428480863571,0.0003493486437946558
1733862729382656000,6.254656005859375,0.001490746159106493,-0.001630600425414741,0.0005940931150689721
1733862729392607000,6.26460693359375,0.0014649764634668827,0.003308027982711792,0.0022966002579778433
1733862729402558200,6.27455810546875,0.0008641676977276802,0.005161588080227375,0.0017908660229295492
1733862729412510000,6.284510009765625,0.0006877663545310497,0.005991165526211262,0.0034016920253634453
1733862729422461000,6.2944609375,0.00006724987179040909,0.006692109629511833,0.0011294831056147814
1733862729432412200,6.304412109375,-0.0009630594868212938,0.0013278123224154115,0.0031414926052093506
1733862729442364000,6.314364013671875,-0.00015425728633999825,0.0006921158055774868,0.0016514540184289217
1733862729452315100,6.324315185546875,0.0005951891653239727,-0.0005033771740272641,-0.00007125665433704853
1733862729462265900,6.334265869140625,0.00037867436185479164,-0.002900221850723028,-0.0014558341354131699
1733862729472218000,6.344218017578125,-0.0001546698622405529,-0.004310476593673229,-0.002527918666601181
1733862729482169000,6.354169189453125,0.00038914754986763,-0.005851115565747023,-0.0009635777678340673
1733862729492120000,6.3641201171875,-0.0011961061973124743,-0.0038138250820338726,0.000357756856828928
1733862729502072000,6.374072021484375,-0.00037372205406427383,-0.0008883426198735833,0.00013138819485902786
1733862729512023000,6.38402294921875,-0.0009481222368776798,0.0027781459502875805,0.0013916641473770142
1733862729521974000,6.39397412109375,-0.00077608204446733,0.0018103530164808035,0.0005871232133358717
1733862729531926300,6.40392626953125,-0.00025526899844408035,0.002234462881460786,-0.0009460551664233208
1733862729541877000,6.413876953125,-0.0009548815432935953,-0.0011392295127734542,-0.002756205853074789
1733862729551828200,6.423828125,0.00013743806630373,-0.0028855307027697563,-0.0018026898615062237
1733862729561780000,6.433780029296875,0.0003156033344566822,-0.004166777245700359,-0.0020674080587923527
1733862729571731200,6.443731201171875,-0.0004395376890897751,-0.005800826940685511,-0.001627212855964899
1733862729581682000,6.453681884765625,-0.00014259526506066322,-0.0034583103843033314,-0.0010849933605641127
1733862729591634000,6.463634033203125,0.0012466623447835445,-0.006331688724458218,0.00044911913573741913
1733862729601585200,6.473585205078125,-0.0001517636701464653,-0.004458421375602484,-0.000303756445646286
1733862729611536100,6.4835361328125,0.0019642477855086327,-0.0041699898429214954,-0.0007248155307024717
1733862729621488000,6.493488037109375,0.0015341471880674362,-0.002153177745640278,-0.0017754328437149525
1733862729631438800,6.50343896484375,0.0004505719989538193,-0.0029121339321136475,0.000006962800398468971
1733862729641390000,6.51339013671875,0.0003624213859438896,-0.0009496508864685893,0.0009246881818398833
1733862729651342000,6.523342041015625,0.0007503805682063103,0.0041212462820112705,0.0005392745370045304
1733862729661293000,6.53329296875,-0.0009809404145926237,0.0022618272341787815,0.0022919008042663336
1733862729671245000,6.5432451171875,-0.0004970543086528778,0.002759488532319665,0.00019193440675735474
1733862729681196000,6.553196044921875,0.00002039782702922821,0.0038260845467448235,0.0016100676730275154
1733862729691147000,6.56314697265625,-0.00018877023831009865,0.002582038287073374,0.0005129706114530563
1733862729701099000,6.57309912109375,-0.0006923743057996035,0.0024233139120042324,-0.0003219305071979761
1733862729711050000,6.583050048828125,-0.0013483669608831406,0.0014860040973871946,-0.00022476050071418285
1733862729721001200,6.593001220703125,-0.001397901913151145,0.00033365434501320124,0.0012562234187498689
1733862729730953000,6.602952880859375,0.00009756628423929214,0.0011206461349502206,0.0027629961259663105
1733862729740904200,6.612904296875,0.00010129483416676521,0.0018258511554449797,0.00015442981384694576
1733862729750855000,6.62285498046875,0.0011283783242106438,0.003881351090967655,0.00072747643571347
1733862729760807000,6.632806884765625,-0.0007097353227436543,0.0032043755054473877,-0.000801444286480546
1733862729770758100,6.642758056640625,-0.00008059339597821236,0.0011813826858997345,0.0012133510317653418
1733862729780709000,6.652709228515625,-0.00021801237016916275,0.0006761809927411377,0.00035368266981095076
1733862729790661000,6.6626611328125,-0.0012253772001713514,-0.0004919370403513312,-0.0003294034395366907
1733862729800612000,6.672612060546875,-0.001069315942004323,0.0010521637741476297,0.0013899334007874131
1733862729810563000,6.68256298828125,-0.0004242591094225645,-0.000300105893984437,0.0016916620079427958
1733862729820514800,6.692514892578125,-0.001369947800412774,0.00021361792460083961,0.0012154888827353716
1733862729830466000,6.702466064453125,-0.00028922129422426224,-0.0008855407359078526,0.0008273596176877618
1733862729840417000,6.7124169921875,-0.0000074589625000953674,-0.00173455651383847,-0.000025118235498666763
1733862729850369000,6.722369140625,0.0013054697774350643,-0.00313810957595706,0.00079611677210778
1733862729860320000,6.732320068359375,-0.00015447521582245827,-0.0037136184982955456,0.0006685513071715832
1733862729870271000,6.74227099609375,0.00017549050971865654,-0.0014464695705100894,0.0011545781744644046
1733862729880223000,6.752222900390625,-0.0018295778427273035,0.0003094195853918791,0.0018835770897567272
1733862729890174200,6.76217431640625,-0.0018082396127283573,-0.0001249868655577302,0.0019264129223302007
1733862729900126000,6.7721259765625,-0.0026830879505723715,0.00023746932856738567,0.0014683492481708527
1733862729910077200,6.7820771484375,0.0008891047909855843,-0.0006513212574645877,0.0018940867157652974
1733862729920028000,6.79202783203125,-0.000555393984541297,-0.001089943922124803,0.0010466688545420766
1733862729929980200,6.801980224609375,-0.000027889851480722427,0.000526622636243701,0.0011406077537685633
1733862729939931100,6.81193115234375,-0.000754666281864047,0.0003495224518701434,0.0005443260306492448
1733862729949882000,6.821882080078125,-0.0017687820363789797,-0.00045728799887001514,0.0014449619920924306
1733862729959834000,6.831834228515625,-0.0010923391673713923,0.0016623218543827534,0.002404498867690563
1733862729969785000,6.84178515625,-0.0018865971360355616,0.0017094432841986418,0.003099100198596716
1733862729979736000,6.851736083984375,-0.000578985083848238,0.0035233222879469395,0.0016711133066564798
1733862729989687800,6.861687744140625,-0.00044792937114834785,0.0026185237802565098,0.0011568524641916156
1733862729999639000,6.87163916015625,-0.0008213047403842211,-0.00007286679465323687,0.00056296749971807
1733862730009590300,6.88159033203125,-0.0017908981535583735,-0.0014954881044104695,0.0011870006565004587
1733862730019542000,6.8915419921875,-0.0015610672999173403,-0.0010126569541171193,0.0007377254078164697
1733862730029493000,6.901492919921875,-0.00008495291694998741,0.002168966457247734,0.0014744927175343037
1733862730039444000,6.91144384765625,-0.000211985781788826,0.005812703166157007,0.0014920695684850216
1733862730049396000,6.92139599609375,-0.0005820884834975004,0.006813367363065481,0.0007663327269256115
1733862730059347200,6.93134716796875,0.00023949658498167992,0.008374512195587158,0.00008589494973421097
1733862730069298000,6.9412978515625,-0.000617598183453083,0.00944033358246088,0.0031835350673645735
1733862730079250200,6.951250244140625,-0.0004828423261642456,0.011536241509020329,0.004489815793931484
1733862730089201000,6.961200927734375,0.000059500802308321,0.01010754331946373,-0.00017580133862793446
1733862730099152100,6.971152099609375,-0.0008707412052899599,0.008795403875410557,0.0017699041636660695
1733862730109103900,6.981103759765625,0.0016319416463375092,0.008746158331632614,0.0005649382947012782
1733862730119055000,6.99105517578125,-0.0022637301590293646,0.011669510044157505,-0.0004459975752979517
1733862730129007000,7.001007080078125,-0.0004757919814437628,0.007806206587702036,0.0008977215038612485
1733862730138958000,7.0109580078125,-0.001226803520694375,0.005713494494557381,0.0015467338962480426
1733862730148909000,7.020908935546875,0.0007613189518451691,0.003845104482024908,0.0023056529462337494
1733862730158860800,7.03086083984375,-0.0018501768354326487,0.0019350852817296982,0.003009260166436434
1733862730168812000,7.04081201171875,-0.002708079759031534,0.0020991794299334288,0.0034707062877714634
1733862730178763300,7.05076318359375,0.0010400530882179737,0.00271490216255188,0.001243770937435329
1733862730188715000,7.060715087890625,0.0012010415084660053,0.005129646044224501,0.00012670434080064297
1733862730198666000,7.070666015625,-0.0007867419626563787,0.0021881847642362118,0.0014026248827576637
1733862730208617000,7.080616943359375,-0.00042243744246661663,0.0022837365977466106,0.003012397326529026
1733862730218569000,7.09056884765625,0.0012636100873351097,0.0031455354765057564,0.0007082305382937193
1733862730228520200,7.100520263671875,-0.0008132196962833405,0.003430954646319151,0.0017856670310720801
1733862730238471000,7.110470947265625,0.00010397285223007202,0.0035345517098903656,0.002028813585639
1733862730248423200,7.120423095703125,0.0016020983457565308,0.005457648541778326,0.000876741367392242
1733862730258374000,7.130373779296875,0.0016436437144875526,0.008028397336602211,0.0002160109579563141
1733862730268325000,7.1403251953125,0.0017148852348327637,0.007929792627692223,-0.0015035192482173443
1733862730278276900,7.15027685546875,-0.0020702658221125603,0.009517302736639977,0.0015418054535984993
1733862730288228000,7.16022802734375,0.00054960697889328,0.010819378308951855,-0.0004806951619684696
1733862730298179000,7.170178955078125,-0.0006781101692467928,0.010716846212744713,-0.000019169412553310394
1733862730308131000,7.180131103515625,-0.00011871661990880966,0.01162317581474781,0.00011704908683896065
1733862730318082000,7.19008203125,-0.00022178096696734428,0.011874844320118427,0.001058210269547999
1733862730328033000,7.200032958984375,-0.0017946152947843075,0.015555500984191895,0.00174067507032305
1733862730337985000,7.209985107421875,-0.0005929970648139715,0.021268248558044434,0.0010631668847054243
1733862730347936300,7.219936279296875,-0.0003057303838431835,0.024129940196871758,0.0033872942440211773
1733862730357888000,7.229887939453125,-0.000009320676326751709,0.031997453421354294,0.0028261663392186165
1733862730367839000,7.2398388671875,0.0008122087456285954,0.03907140716910362,0.0057806107215583324
1733862730377790000,7.2497900390625,0.00010407436639070511,0.04650988057255745,0.00890449807047844
1733862730387742000,7.259741943359375,-0.001336908433586359,0.05197824165225029,0.011907195672392845
1733862730397693200,7.269693115234375,-0.0013680674601346254,0.0550837516784668,0.011108513921499252
1733862730407644200,7.27964404296875,-0.002771755214780569,0.054996635764837265,0.009826167486608028
1733862730417596200,7.28959619140625,-0.0019392510876059532,0.05515802279114723,0.008588863536715508
1733862730427547100,7.299547119140625,-0.0025881221517920494,0.05386904999613762,0.00931975431740284
1733862730437498000,7.309498046875,-0.0025495062582194805,0.05046126991510391,0.009029470384120941
1733862730447450000,7.3194501953125,-0.002247024094685912,0.04849082976579666,0.008620855398476124
1733862730457401000,7.329401123046875,-0.0021151977125555277,0.04104170203208923,0.006136392243206501
1733862730467352000,7.33935205078125,-0.0024443576112389565,0.03233390301465988,0.0053995465859770775
1733862730477304300,7.34930419921875,-0.0020004084799438715,0.02186714857816696,0.0032823337242007256
1733862730487255000,7.359255126953125,-0.001519839745014906,0.013421143405139446,0.0012380226980894804
1733862730497206300,7.369206298828125,-0.0015145132783800364,0.005994386039674282,-0.0012277981732040644
1733862730507158000,7.379157958984375,-0.00035661831498146057,0.0031703307759016752,-0.002687588334083557
1733862730517109200,7.389109130859375,-0.001446650130674243,0.0022009401582181454,-0.004860727582126856
1733862730527061200,7.399061279296875,0.0007062149234116077,0.0018126631621271372,-0.004922968335449696
1733862730537012200,7.40901220703125,-0.0003193686716258526,0.002264335285872221,-0.0031956422608345747
1733862730546963200,7.418963134765625,-0.0005008350126445293,0.003381070215255022,-0.004417474381625652
1733862730556915000,7.4289150390625,-0.0015594414435327053,0.004526762291789055,-0.004789251834154129
1733862730566866200,7.4388662109375,-0.0010055701714009047,0.0065076882019639015,-0.003703068709000945
1733862730576817200,7.448817138671875,-0.00019064266234636307,0.007586002349853516,-0.0018625583034008741
1733862730586769200,7.45876904296875,-0.00027510710060596466,0.008080722764134407,0.0011881787795573473
1733862730596720000,7.46872021484375,-0.000834903446957469,0.006584292743355036,0.0020004429388791323
1733862730606671000,7.478671142578125,-0.002403669524937868,0.006553343962877989,0.0021076996345072985
1733862730616623000,7.488623046875,-0.001100318506360054,0.0029381029307842255,0.001704497030004859
1733862730626574000,7.498573974609375,-0.00009951414540410042,0.0006292552570812404,0.001806247397325933
1733862730636525000,7.508525146484375,-0.001294208224862814,-0.0025329822674393654,0.0008813315071165562
1733862730646477300,7.518477294921875,-0.0017748880200088024,-0.0043884520418941975,0.0016287427861243486
1733862730656428000,7.528427978515625,0.0010126428678631783,-0.007287302520126104,0.0005451025208458304
1733862730666379300,7.538379150390625,-0.00030584633350372314,-0.007614630274474621,-0.0007461521308869123
1733862730676331000,7.5483310546875,0.00037006381899118423,-0.009012789465487003,-0.0013030192349106073
1733862730686282200,7.5582822265625,0.002857373096048832,-0.01317228376865387,-0.0037292453926056623
1733862730696233000,7.56823291015625,0.002024602610617876,-0.016801640391349792,-0.0036165935453027487
1733862730706185200,7.578185302734375,0.0011431225575506687,-0.016862276941537857,-0.004112637136131525
1733862730716136200,7.58813623046875,0.0010046381503343582,-0.018365630879998207,-0.004961919505149126
1733862730726087200,7.598087158203125,0.001396676991134882,-0.015618577599525452,-0.004989203996956348
1733862730736039200,7.6080390625,0.0006166370585560799,-0.013074993155896664,-0.004310896620154381
1733862730745990100,7.617990234375,-0.0003673187457025051,-0.0064308857545256615,-0.003898184048011899
1733862730755942100,7.627942138671875,-0.00015879329293966293,0.0040097711607813835,-0.002563407877460122
1733862730765893000,7.63789306640625,-0.0008977856487035751,0.008374638855457306,-0.00037314649671316147
1733862730775844000,7.647843994140625,0.0004897215403616428,0.013083906844258308,0.002079624915495515
1733862730785796000,7.657796142578125,0.00020867353305220604,0.014748717658221722,0.0018009376944974065
1733862730795747000,7.6677470703125,0.0001849713735282421,0.01233562733978033,0.0020624601747840643
1733862730805698000,7.677697998046875,-0.0009753841441124678,0.015087638050317764,0.0024618739262223244
1733862730815650300,7.687650390625,-0.0013285193126648664,0.013346197083592415,0.0035543027333915234
1733862730825601000,7.69760107421875,-0.0008723491337150335,0.01638726145029068,0.004473652690649033
1733862730835552300,7.70755224609375,-0.0011312083806842566,0.0176493339240551,0.004530910402536392
1733862730845504000,7.71750390625,-0.0016283176373690367,0.01612718217074871,0.0010004687355831265
1733862730855455200,7.727455322265625,-0.0023007658310234547,0.011291679926216602,0.003670554142445326
1733862730865406000,7.737406005859375,-0.00015053479000926018,0.007271005772054195,-0.0005745845846831799
1733862730875358200,7.747358154296875,-0.0007042058277875185,0.007133586332201958,0.00011011399328708649
1733862730885309200,7.75730908203125,-0.0016604529228061438,0.002626555971801281,0.0006815684027969837
1733862730895260200,7.76726025390625,-0.0019512700382620096,-0.000913317664526403,0.000054926611483097076
1733862730905212200,7.777212158203125,-0.00026225391775369644,-0.004490686114877462,-0.0004414182621985674
1733862730915163100,7.7871630859375,-0.00029607582837343216,-0.0076222969219088554,-0.0021418463438749313
1733862730925115100,7.797115234375,0.0008400417864322662,-0.010556190274655819,-0.0028101622592657804
1733862730935066000,7.807066162109375,0.0004938305355608463,-0.011849687434732914,-0.0023526314180344343
1733862730945017000,7.81701708984375,0.0002025035209953785,-0.011491142213344574,0.0002861316315829754
1733862730954969000,7.826968994140625,0.0013905400410294533,-0.011818977072834969,0.000782012240961194
1733862730964920000,7.836920166015625,0.00018455833196640015,-0.012352284975349903,-0.0008446981664747
1733862730974871000,7.84687109375,-0.0004577960353344679,-0.012113133445382118,-0.0013997009955346584
1733862730984823300,7.8568232421875,0.0010863053612411022,-0.010923705995082855,0.0010223927674815059
1733862730994774000,7.86677392578125,-0.000865791691467166,-0.006258913315832615,0.0020514382049441338
1733862731004725200,7.876725341796875,-0.0004857315216213465,-0.0030912659130990505,0.0015061257872730494
1733862731014677000,7.886677001953125,0.0012378664687275887,-0.0035748956725001335,0.003584190271794796
1733862731024628200,7.896628173828125,0.0010886499658226967,0.00030004302971065044,0.00448924396187067
1733862731034579000,7.906578857421875,0.0017019761726260185,0.001968247117474675,0.003916930872946978
1733862731044531200,7.91653125,-0.00046070851385593414,0.006992777809500694,0.0038263145834207535
1733862731054482200,7.926482177734375,-0.0010769639629870653,0.011447180993855,0.005269215442240238
1733862731064433200,7.93643310546875,-0.0017413436435163021,0.016476770862936974,0.006043061148375273
1733862731074385200,7.94638525390625,-0.0028249837923794985,0.016889560967683792,0.008614609017968178
1733862731084336000,7.956336181640625,-0.0007784483022987843,0.016832107678055763,0.00899520143866539
1733862731094287000,7.966287109375,-0.0003771099727600813,0.013799034059047699,0.011734262108802795
1733862731104239000,7.976239013671875,-0.0017355659510940313,0.007794490084052086,0.011349685490131378
1733862731114190000,7.986190185546875,-0.0024591470137238503,0.0030327581334859133,0.008137913420796394
1733862731124142000,7.99614208984375,0.0005515115335583687,-0.0017620871076360345,0.005898597650229931
1733862731134093000,8.006093017578126,-0.00009803334251046181,-0.006219686008989811,0.005674093030393124
1733862731144044300,8.016044189453124,-0.0007817661389708519,-0.009959757328033447,0.0033278740011155605
1733862731153996300,8.025996337890625,0.0009895022958517075,-0.014535866677761078,0.0031608936842530966
1733862731163947000,8.035947021484375,0.00015866011381149292,-0.01534418947994709,0.0010043435031548142
1733862731173898200,8.045898193359376,0.002018079161643982,-0.017216656357049942,-0.0007562723476439714
1733862731183850000,8.05585009765625,0.002138690557330847,-0.023275630548596382,0.0004445897648110986
1733862731193801200,8.06580126953125,0.0012928703799843788,-0.027423236519098282,-0.004084115847945213
1733862731203752000,8.075751953125,0.0007124384865164757,-0.03222644329071045,-0.005177584011107683
1733862731213704200,8.0857041015625,0.002071183640509844,-0.03162776306271553,-0.00511340145021677
1733862731223655200,8.0956552734375,0.0023206225596368313,-0.030587198212742805,-0.00553350243717432
1733862731233606100,8.105606201171875,0.0016588270664215088,-0.02826305851340294,-0.005520186387002468
1733862731243558100,8.11555810546875,0.00143821956589818,-0.02498466707766056,-0.005354425869882107
1733862731253509000,8.125509033203125,0.0000706859864294529,-0.01939256303012371,-0.004829782992601395
1733862731263460000,8.135460205078125,-0.0006536270957440138,-0.013482852838933468,-0.003513786941766739
1733862731273412400,8.145412353515624,0.001685427501797676,-0.006242516916245222,-0.0005542158614844084
1733862731283363000,8.155363037109375,0.0003374908119440079,-0.0011252149706706405,0.0003745401045307517
1733862731293315000,8.165315185546875,0.001067995559424162,0.0009975905995815992,0.003436642698943615
1733862731303266000,8.17526611328125,0.0012484872713685036,0.005197540856897831,0.0026595836970955133
1733862731313217300,8.18521728515625,-0.0005587337072938681,0.005824182648211718,0.0011700777104124427
1733862731323169300,8.195169189453125,0.0008721807971596718,0.0054884133860468864,0.0019003851339221
1733862731333120000,8.2051201171875,-0.0003563354257494211,0.0029126042500138283,0.0016063721850514412
1733862731343071200,8.2150712890625,0.0017216582782566547,0.003464259672909975,0.002315855585038662
1733862731353023000,8.22502294921875,0.00035545695573091507,0.0015180215705186129,-0.0005284002982079983
1733862731362974200,8.23497412109375,-0.0001481710933148861,-0.0019913804717361927,0.0004339370643720031
1733862731372925000,8.244925048828126,0.0002888534218072891,-0.0029868697747588158,0.0010443335631862283
1733862731382876400,8.25487646484375,0.00019045406952500343,-0.0034156516194343567,-0.0003003734163939953
1733862731392827400,8.264827392578125,0.0009811464697122574,-0.0035173846408724785,-0.0029707252979278564
1733862731402778400,8.2747783203125,0.0014848541468381882,-0.005106046330183744,-0.0020093070343136787
1733862731412730400,8.28473046875,-0.00002968544140458107,-0.002516388427466154,-0.0006194033194333315
1733862731422681300,8.294681396484375,0.0007024286314845085,-0.002750718966126442,0.001191314309835434
1733862731432632300,8.30463232421875,0.0007911119610071182,-0.0019112905720248818,0.0000645308755338192
1733862731442584300,8.314584228515624,-0.0003729874733835459,-0.00016361323650926352,0.0013901235070079565
1733862731452535300,8.324535400390625,0.0014166566543281078,0.0005298738833516836,0.0005608150968328118
1733862731462486300,8.334486328125,0.0005052387714385986,0.0003118759486824274,0.0005613651592284441
1733862731472438300,8.344438232421876,0.00011268863454461098,0.0014264087658375502,0.0003618943737819791
1733862731482389500,8.354389404296874,-0.0002835076302289963,0.004159121308475733,0.0032586061861366034
1733862731492341200,8.36434130859375,0.00014526117593050003,0.010047636926174164,0.0026250402443110943
1733862731502292500,8.37429248046875,-0.00040641636587679386,0.010969103313982487,0.0039164843037724495
1733862731512243200,8.3842431640625,-0.0009385158773511648,0.010580281727015972,0.004833144135773182
1733862731522195500,8.394195556640625,0.00006050150841474533,0.008114266209304333,0.0039932094514369965
1733862731532146400,8.404146484375,0.00028260936960577965,0.00493924506008625,0.0030555101111531258
1733862731542097400,8.414097412109374,0.0009006774052977562,0.0017398628406226635,0.0023741789627820253
1733862731552049400,8.42404931640625,-0.0007725865580141544,0.001702578621916473,0.0014114461373537779
1733862731562000400,8.43400048828125,0.0008132434450089931,0.003425600938498974,0.0034517021849751472
1733862731571951400,8.443951416015626,0.0004246882162988186,0.003132919315248728,0.006229379214346409
1733862731581903400,8.4539033203125,-0.001689348602667451,0.0044646114110946655,0.005158393178135157
1733862731591854300,8.463854248046875,-0.0025077378377318382,0.00548193883150816,0.005361858755350113
1733862731601805600,8.4738056640625,-0.003011136781424284,0.011498960666358471,0.007601895369589329
1733862731611757300,8.48375732421875,-0.004367751069366932,0.01531633548438549,0.008575014770030975
1733862731621708300,8.493708251953125,-0.001949249766767025,0.015766115859150887,0.008691626600921154
1733862731631660500,8.50366064453125,-0.004083773121237755,0.012369520030915737,0.010240254923701286
1733862731641611300,8.513611328125,-0.0035759550519287586,0.009910202585160732,0.0077913496643304825
1733862731651562500,8.5235625,0.0004696529358625412,0.008230547420680523,0.006440860219299793
1733862731661514200,8.53351416015625,0.0013173609040677547,0.007195249665528536,0.0034244696144014597
1733862731671465500,8.543465576171876,-0.00017613964155316353,0.0035046408884227276,0.004061764106154442
1733862731681416200,8.553416259765624,-0.00004388764500617981,-0.002577443141490221,0.0026854337193071842
1733862731691368400,8.563368408203125,-0.00026093563064932823,-0.009825502522289753,0.0012065803166478872
1733862731701319400,8.5733193359375,0.0015146825462579727,-0.014045659452676773,-0.0009147648233920336
1733862731711270400,8.5832705078125,0.0011410410515964031,-0.017003366723656654,-0.0021464768797159195
1733862731721222400,8.593222412109375,0.000706937164068222,-0.01748744398355484,-0.0032398677431046963
1733862731731173400,8.60317333984375,0.0009064082987606525,-0.015904994681477547,-0.0027088336646556854
1733862731741124400,8.613124267578126,0.001990659162402153,-0.018695220351219177,-0.004255778156220913
1733862731751076400,8.623076416015625,0.0016732104122638702,-0.023495567962527275,-0.004230477847158909
1733862731761027300,8.63302734375,0.002684915903955698,-0.024192247539758682,-0.006129964254796505
1733862731770978600,8.642978515625,0.002934187650680542,-0.02050456777215004,-0.006039150059223175
1733862731780930300,8.652930419921875,0.00173225998878479,-0.019947027787566185,-0.007840873673558235
1733862731790881300,8.66288134765625,-0.00036657718010246754,-0.01372535154223442,-0.006452567875385284
1733862731800833500,8.67283349609375,-0.0011622984893620014,-0.009044874459505081,-0.0044075604528188705
1733862731810784300,8.6827841796875,0.0004182877019047737,-0.0030021616257727146,-0.0037753263022750616
1733862731820735500,8.692735595703125,-0.0007349622901529074,0.0037924014031887054,-0.0015618617180734873
1733862731830687200,8.702687255859376,-0.0003304281271994114,0.0037934668362140656,0.0006621441571041942
1733862731840638500,8.712638427734374,-0.0007401274051517248,0.0027441689744591713,0.0016722041182219982
1733862731850589200,8.722589111328125,-0.0010285477619618177,0.002312204334884882,0.0048243217170238495
1733862731860541400,8.73254150390625,-0.00007363967597484589,0.003077345434576273,0.0016340779839083552
1733862731870492400,8.742492431640626,0.0006784368306398392,0.002766021993011236,0.0010724173625931144
1733862731880443400,8.752443359375,0.0009323656558990479,-0.0008485609432682395,-0.0003022116143256426
1733862731890395400,8.7623955078125,0.0007597929798066616,-0.001938592758961022,0.0002053867792710662
1733862731900346400,8.772346435546876,-0.0007234269287437201,-0.003285760525614023,0.0012721973471343517
1733862731910297300,8.78229736328125,-0.0009154407307505608,-0.001721951994113624,-0.0008332978468388319
1733862731920249300,8.792249267578125,-0.002055382588878274,-0.003900826908648014,0.0005562877049669623
1733862731930200300,8.802200439453125,-0.0008204749319702387,-0.00989400502294302,-0.00010177935473620892
1733862731940151600,8.812151611328124,0.000243485439568758,-0.013475154526531696,-0.0017013938631862402
1733862731950103300,8.822103271484375,0.0010267212055623531,-0.019677123054862022,-0.0009117666631937027
1733862731960054300,8.83205419921875,0.0013563670217990875,-0.02733982354402542,-0.0019042494241148233
1733862731970006500,8.842006591796874,0.0009358539246022701,-0.033022210001945496,-0.005329340696334839
1733862731979957200,8.851957275390625,0.0009282571263611317,-0.038430724292993546,-0.008497909642755985
1733862731989908500,8.861908447265625,0.0032220380380749702,-0.04241827875375748,-0.008308559656143188
1733862731999860200,8.871860107421876,0.0034443624317646027,-0.04395659267902374,-0.009000208228826523
1733862732009811500,8.8818115234375,-0.0001658187247812748,-0.04340212047100067,-0.00904201902449131
1733862732019762200,8.89176220703125,0.0016023442149162292,-0.04103556275367737,-0.00675087608397007
1733862732029714400,8.90171435546875,0.000918444711714983,-0.038008879870176315,-0.006474972702562809
1733862732039665400,8.91166552734375,-0.00006203912198543549,-0.03225960582494736,-0.005270699970424175
1733862732049616400,8.921616455078125,0.0026085786521434784,-0.026424886658787727,-0.005268569104373455
1733862732059568400,8.931568359375,0.0005060154944658279,-0.020055590197443962,-0.0035458134952932596
1733862732069519400,8.941519287109376,0.0021835407242178917,-0.013877056539058685,-0.003439553314819932
1733862732079470300,8.95147021484375,-0.00001686159521341324,-0.008072848431766033,-0.0023409822024405003
1733862732089422600,8.961422607421875,-0.000763345742598176,-0.0006804453441873193,-0.000114046735689044
1733862732099373300,8.971373291015626,-0.0014048602897673845,0.003716854378581047,0.003083207178860903
1733862732109324500,8.981324462890624,-0.0015380184631794691,0.008590439334511757,0.005347959231585264
1733862732119276300,8.9912763671875,-0.0011267038062214851,0.009186256676912308,0.003616517875343561
1733862732129227500,9.0012275390625,-0.002206615637987852,0.009911435656249523,0.0023770825937390327
1733862732139179500,9.011179443359374,-0.0006653987802565098,0.006533370353281498,0.003099726978689432
1733862732149130200,9.021130126953125,-0.0017405168619006872,0.0036680754274129868,0.0023489820305258036
1733862732159081500,9.03108154296875,-0.002741785254329443,0.0015023048035800457,0.001913838554173708
1733862732169033200,9.041033203125,-0.0008661211468279362,-0.002342767082154751,0.0021053198724985123
1733862732178984400,9.050984375,-0.0007232038769870996,-0.005878529977053404,0.0022536751348525286
1733862732188935200,9.06093505859375,0.00010317517444491386,-0.012426177971065044,-0.0003604837693274021
1733862732198887400,9.070887451171876,-0.00022348109632730484,-0.017362546175718307,0.0010514038149267435
1733862732208838400,9.08083837890625,0.00018584681674838066,-0.023061977699398994,-0.002419227734208107
1733862732218789400,9.090789306640625,0.001205923967063427,-0.028522534295916557,-0.0031367603223770857
1733862732228741400,9.100741455078126,0.0021686567924916744,-0.0312914215028286,-0.005266756750643253
1733862732238692400,9.1106923828125,0.002973780035972595,-0.03495565056800842,-0.006383995991200209
1733862732248643300,9.120643310546875,0.00003817770630121231,-0.03614421933889389,-0.008110523223876953
1733862732258595600,9.130595703125,0.0009564897045493126,-0.037985727190971375,-0.008392672054469585
1733862732268546300,9.14054638671875,0.003548810724169016,-0.03753778338432312,-0.010019863955676556
1733862732278497500,9.15049755859375,0.0018992708064615726,-0.032093703746795654,-0.006862161681056023
1733862732288449300,9.16044921875,-0.0007646891754120588,-0.02436840906739235,-0.005660809576511383
1733862732298400500,9.170400390625,0.0015013692900538445,-0.019005712121725082,-0.0059144808910787106
1733862732308352500,9.1803525390625,0.000821464229375124,-0.011526757851243019,-0.004557333420962095
1733862732318303200,9.19030322265625,-0.0009110292885452509,-0.008258680813014507,-0.002120669698342681
1733862732328254500,9.20025439453125,0.0009249537251889706,-0.006012304686009884,-0.0033137660939246416
1733862732338206200,9.210206298828124,-0.000617078272625804,-0.002342973370105028,-0.0025075930170714855
1733862732348157400,9.220157470703125,0.0010420712642371655,0.0015913145616650581,-0.0008124909363687038
1733862732358108200,9.230108154296875,-0.0006887875497341156,0.0009836368262767792,-0.0016912654973566532
1733862732368060400,9.240060302734374,0.00035543786361813545,0.003155178390443325,-0.0009125571232289076
1733862732378011400,9.250011474609375,-0.0010896832682192326,0.004824026487767696,-0.0007992354221642017
1733862732387962400,9.25996240234375,-0.0014047352597117424,0.0097506083548069,0.00017548142932355404
1733862732397914400,9.269914306640626,-0.0009056145790964365,0.011272143572568893,0.0021869931370019913
1733862732407865300,9.279865234375,-0.0034145787358283997,0.010449493303894997,0.002022676169872284
1733862732417816300,9.28981640625,-0.0012931046076118946,0.008781022392213345,0.003980631940066814
1733862732427768600,9.2997685546875,0.00028534140437841415,0.007104773540049791,0.0036956053227186203
1733862732437719300,9.30971923828125,-0.001509243855252862,0.0033822190016508102,0.002710845321416855
1733862732447671300,9.31967138671875,0.00024817604571580887,0.00017790356650948524,-0.0007395462598651648
1733862732457622300,9.329622314453125,0.0017890045419335365,-0.00076181476470083,-0.002869138726964593
1733862732467573500,9.339573486328124,0.0002257288433611393,-0.007228502072393894,-0.0047064535319805145
1733862732477525500,9.349525390625,0.002580324187874794,-0.015443328768014908,-0.0059334831312298775
1733862732487476200,9.359476318359375,0.00039147213101387024,-0.0226258747279644,-0.009603852406144142
1733862732497427500,9.369427490234376,0.002174560446292162,-0.026629474014043808,-0.00793605949729681
1733862732507379200,9.379379150390625,0.0012174202129244804,-0.02784254401922226,-0.008374948054552078
1733862732517330400,9.389330322265625,0.0012690415605902672,-0.02688194066286087,-0.006089423783123493
1733862732527281400,9.399281494140626,0.0013039293698966503,-0.0228579044342041,-0.004027604125440121
1733862732537233400,9.4092333984375,0.0002494421787559986,-0.02060944028198719,-0.004451305139809847
1733862732547184400,9.419184326171875,-0.00020729005336761475,-0.01566581428050995,-0.0008304715156555176
1733862732557135400,9.42913525390625,-0.0017537616658955812,-0.011669376865029335,-0.0005835362244397402
1733862732567087400,9.43908740234375,-0.0008011488243937492,-0.007415509782731533,0.001213564770296216
1733862732577038300,9.449038330078125,-0.002357622142881155,-0.0022687544114887714,0.004416522569954395
1733862732586989300,9.4589892578125,-0.0000068498775362968445,0.003934280015528202,0.005045295227319002
1733862732596941600,9.468941650390626,-0.0016298580449074507,0.00813899002969265,0.007172232959419489
1733862732606892300,9.478892333984374,-0.0013560850638896227,0.011503893882036209,0.007895547896623611
1733862732616843500,9.488843505859375,-0.001652643084526062,0.013859499245882034,0.010128719732165337
1733862732626795300,9.498795166015626,-0.0001974916085600853,0.018118958920240402,0.010318869724869728
1733862732636746500,9.50874658203125,-0.0004904086235910654,0.02015288919210434,0.008385321125388145
1733862732646698500,9.518698486328125,-0.0019663325510919094,0.022597406059503555,0.007544028107076883
1733862732656649500,9.5286494140625,-0.0030157959554344416,0.025315076112747192,0.011441580951213837
1733862732666600400,9.538600341796876,-0.003019524272531271,0.032550618052482605,0.011894318275153637
1733862732676552200,9.54855224609375,-0.003115111030638218,0.03232691064476967,0.015171870589256287
1733862732686503400,9.55850341796875,-0.0019470483530312777,0.030746059492230415,0.01603846251964569
1733862732696454400,9.568454345703126,-0.00189687660895288,0.025934359058737755,0.014993764460086823
1733862732706406400,9.578406494140625,-0.00070191640406847,0.025154052302241325,0.009336678311228752
1733862732716357400,9.588357421875,0.0001869495026767254,0.02059689350426197,0.004967075306922197
1733862732726308400,9.598308349609376,-0.0006863009184598923,0.013194635510444641,0.0025728936307132244
1733862732736260400,9.60826025390625,0.0007487926632165909,0.008119886741042137,-0.0009826067835092545
1733862732746211300,9.61821142578125,-0.003182831918820739,0.004147248808294535,-0.0012601080816239119
1733862732756162300,9.628162353515625,-0.00040187803097069263,0.006750376895070076,0.001431145123206079
1733862732766114600,9.638114501953124,-0.00046712555922567844,0.011519033461809158,0.0022716387175023556
1733862732776065300,9.648065185546875,-0.0014586227480322123,0.013987362384796143,0.003917875699698925
1733862732786017500,9.658017578125,-0.002948927693068981,0.0170982014387846,0.007826331071555614
1733862732795968300,9.66796826171875,-0.0017342022620141506,0.016910981386899948,0.0056934054009616375
1733862732805919500,9.67791943359375,-0.0008785284589976072,0.014661142602562904,0.0022805645130574703
1733862732815871500,9.68787158203125,-0.00032840133644640446,0.013677706010639668,0.00044925452675670385
1733862732825822500,9.697822509765626,-0.0004596952348947525,0.008862444199621677,-0.0008162795566022396
1733862732835773400,9.7077734375,-0.0000662035308778286,0.005652606952935457,-0.00064900703728199
1733862732845725200,9.71772509765625,-0.001111227786168456,0.0037689534947276115,-0.0012511478271335363
1733862732855676400,9.727676513671875,-0.0016626548022031784,0.004551544785499573,0.0019692752975970507
1733862732865627400,9.73762744140625,-0.0017766382079571486,0.005069795995950699,0.002395647345110774
1733862732875579400,9.747579345703125,-0.0015049527864903212,0.003752918913960457,0.0001227082684636116
1733862732885530400,9.7575302734375,0.0009078709408640862,-0.0034296265803277493,-0.0015175326261669397
1733862732895481300,9.7674814453125,0.0020625279285013676,-0.00887010246515274,-0.004876930266618729
1733862732905433300,9.777433349609375,0.0005314764566719532,-0.01410694234073162,-0.006472962908446789
1733862732915384300,9.78738427734375,0.0006093354895710945,-0.015768837183713913,-0.004633886739611626
1733862732925335300,9.797335205078125,0.0021393215283751488,-0.014539523981511593,-0.0023638082202523947
1733862732935287600,9.80728759765625,0.0012917458079755306,-0.008547522127628326,0.0009668701095506549
1733862732945238300,9.81723828125,0.0023873699828982353,-0.0010121081722900271,0.001925341784954071
1733862732955190500,9.8271904296875,-0.0005588140338659286,0.005422594025731087,0.0036582262255251408
1733862732965141200,9.837141357421874,-0.0009668103884905577,0.011166233569383621,0.005139476619660854
1733862732975092500,9.847092529296875,-0.0012524595949798822,0.015519857406616211,0.004327340982854366
1733862732985044500,9.85704443359375,-0.0014652460813522339,0.01757235638797283,0.004483402706682682
1733862732994995500,9.866995361328126,-0.0020651041995733976,0.01613360084593296,0.005496451631188393
1733862733004946400,9.876946533203125,0.000557843130081892,0.014396687038242817,0.004945443477481604
1733862733014898200,9.886898193359375,0.00000916188582777977,0.01412417832762003,0.0019644214771687984
1733862733024849400,9.896849365234376,-0.0015743537805974483,0.015079987235367298,0.0022949199192225933
1733862733034800400,9.90680029296875,0.0007123947143554688,0.015446452423930168,0.0024570634122937918
1733862733044752400,9.91675244140625,-0.0013869751710444689,0.015348182059824467,0.0024320296943187714
1733862733054703400,9.926703369140625,0.00024372385814785957,0.015540756285190582,0.001126050017774105
1733862733064654300,9.936654296875,-0.0015491161029785872,0.020562678575515747,0.0024778705555945635
1733862733074606300,9.9466064453125,-0.0007883594371378422,0.018420850858092308,0.0022128685377538204
1733862733084557300,9.956557373046875,-0.0008141922298818827,0.011792242527008057,0.0034722774289548397
1733862733094508300,9.96650830078125,-0.0006133674178272486,0.005305079743266106,0.004499639384448528
1733862733104460500,9.97646044921875,0.00024363771080970764,0.004166578408330679,0.0008617612766101956
1733862733114411300,9.986411376953125,0.00008811429142951965,0.0011023532133549452,0.0006568952230736613
1733862733124363500,9.996363525390626,0.0009163576178252697,0.0013132755411788821,0.0016092415899038315
1733862733134314200,10.006314208984374,-0.0009960837196558714,0.0030957909766584635,0.003301509190350771
1733862733144265500,10.016265380859375,-0.001723659224808216,0.005005011335015297,0.0042432029731571674
1733862733154217500,10.026217529296876,-0.00044181267730891705,0.006823473144322634,0.005583107937127352
1733862733164168400,10.03616845703125,0.00019494909793138504,0.007275944575667381,0.004415311850607395
1733862733174119400,10.046119384765625,-0.0020376367028802633,0.0071983058005571365,0.00467811431735754
1733862733184071400,10.056071533203125,-0.000366769265383482,0.006979660131037235,0.004942033439874649
1733862733194022400,10.0660224609375,-0.00018998980522155762,0.006274736486375332,0.004282858222723007
1733862733203973400,10.075973388671875,-0.0004246144089847803,0.005904557183384895,0.0015613737050443888
1733862733213925400,10.08592529296875,-0.001215113326907158,0.004537204280495644,0.002095088129863143
1733862733223876400,10.09587646484375,-0.0011373490560799837,0.006805152166634798,0.004396059084683657
1733862733233827300,10.105827392578124,-0.0004799210000783205,0.008888193406164646,0.0033344202674925327
1733862733243779300,10.115779296875,-0.001683936221525073,0.008825342170894146,0.004602883942425251
1733862733253730300,10.125730224609375,-0.0015832667704671621,0.010922751389443874,0.0018663055961951613
1733862733263682300,10.135682373046874,0.0024074800312519073,0.01167855691164732,0.0032205230090767145
1733862733273633500,10.145633544921875,0.0009539537131786346,0.008914951235055923,0.0010953289456665516
1733862733283584300,10.155584228515625,0.0014530299231410027,0.005970560479909182,0.0001581625547260046
1733862733293536500,10.16553662109375,0.000177095178514719,0.0031538759358227253,-0.001235950505360961
1733862733303487200,10.1754873046875,-0.0003334328066557646,0.0001469008857384324,0.00040535570587962866
1733862733313438500,10.1854384765625,-0.0004633041098713875,-0.0006897820858284831,-0.0018836746457964182
1733862733323390500,10.195390380859376,0.00003603845834732056,0.0011653760448098183,-0.0017486524302512407
1733862733333341400,10.205341552734374,0.0010430715046823025,0.003975671250373125,-0.0015891543589532375
1733862733343292400,10.21529248046875,0.0006111068651080132,0.0023191848304122686,-0.001589953200891614
1733862733353244400,10.225244384765626,0.0002986826002597809,0.005016953218728304,-0.0021403857972472906
1733862733363195400,10.2351953125,-0.0008997397962957621,0.006896346341818571,-0.0011036170180886984
1733862733373146400,10.245146484375,0.00016773538663983345,0.0070725916884839535,0.0010020756162703037
1733862733383099100,10.25509912109375,0.0005171424709260464,0.006324243266135454,0.0015818458050489426
1733862733393049900,10.2650498046875,-0.0004312638193368912,0.007402248680591583,0.0021813318599015474
1733862733403001000,10.2750009765625,0.00012160837650299072,0.009231839329004288,-0.00044933869503438473
1733862733412952800,10.284952880859375,0.0010427399538457394,0.009676278568804264,0.00010247668251395226
1733862733422904000,10.294904052734376,-0.0012595627922564745,0.010869108140468597,0.0006553488783538342
1733862733432856000,10.30485595703125,-0.0002628415822982788,0.010003595612943172,0.0026585357263684273
1733862733442807000,10.31480712890625,-0.0003792217466980219,0.005705520045012236,0.0016683725407347083
1733862733452758000,10.324758056640626,-0.0004004740621894598,0.004266880918294191,0.0003959141904488206
1733862733462710000,10.3347099609375,-0.0003898213617503643,0.0011275465367361903,0.0020018003415316343
1733862733472661000,10.344660888671875,-0.0016983728855848312,-0.0007853034185245633,0.0002620173618197441
1733862733482612000,10.354612060546875,-0.00060061807744205,-0.0011767881223931909,0.001520361052826047
1733862733492564000,10.36456396484375,0.00024781282991170883,-0.0015730253653600812,0.0021670879796147346
1733862733502515200,10.37451513671875,-0.0005772344302386045,-0.0010659595718607306,0.00042697868775576353
1733862733512466000,10.3844658203125,0.0005018496885895729,-0.002783925272524357,0.00121298898011446
1733862733522418000,10.39441796875,-0.00010295398533344269,-0.0017958927201107144,0.0027701393701136112
1733862733532369000,10.404368896484375,0.00037990184500813484,-0.0009451360674574971,0.002824785653501749
1733862733542320000,10.414320068359375,-0.0014315806329250336,-0.0007571169408038259,0.0032516904175281525
1733862733552272100,10.424272216796876,-0.0018364847637712955,-0.0003426172770559788,0.004520824179053307
1733862733562222800,10.434222900390624,-0.001074021914973855,0.0019615497440099716,0.004567429423332214
1733862733572175000,10.444175048828125,-0.0008431107271462679,0.0021996363066136837,0.003058216068893671
1733862733582125800,10.454125732421875,0.0006117741577327251,0.00234291423112154,0.003614816814661026
1733862733592077000,10.4640771484375,-0.0009691149462014437,-0.0009556476725265384,0.0036697268951684237
1733862733602029000,10.474029052734375,-0.0005283618811517954,0.00011467665899544954,0.002911524847149849
1733862733611980000,10.48397998046875,-0.001739720581099391,0.0004301484441384673,0.00449201837182045
1733862733621931000,10.493930908203126,-0.0015559624880552292,0.0037697525694966316,0.004705337341874838
1733862733631883000,10.503883056640625,-0.0019220954272896051,0.00446451548486948,0.003985416144132614
1733862733641834000,10.513833984375,-0.0008440478704869747,0.005315129179507494,0.004838692955672741
1733862733651785000,10.523784912109376,-0.00022839894518256187,0.00017784943338483572,0.0028518633916974068
1733862733661737000,10.533737060546875,0.0010296781547367573,-0.0030477712862193584,0.003557068295776844
1733862733671688200,10.543688232421875,-0.0016893690917640924,-0.0033542467281222343,0.002375079784542322
1733862733681639000,10.553638916015625,-0.0016313123051077127,-0.0025518364273011684,0.000840033870190382
1733862733691591000,10.5635908203125,0.0002016131766140461,-0.0031054215505719185,0.001404873444698751
1733862733701542000,10.5735419921875,-0.0003033219836652279,-0.002428712323307991,0.0036911973729729652
1733862733711494000,10.583493896484375,-0.0004031166899949312,-0.000982225057668984,0.002305236179381609
1733862733721445000,10.593445068359374,-0.0017988793551921844,-0.0017923585837706923,0.0015278593637049198
1733862733731395800,10.603395751953125,-0.001417631981894374,-0.0037208502180874348,-0.000031335046514868736
1733862733741348000,10.61334814453125,0.00019224872812628746,-0.0024526529014110565,0.0005620172014459968
1733862733751298800,10.623298828125,-0.000048508867621421814,-0.000435967231169343,0.0019598156213760376
1733862733761250000,10.63325,0.0019632428884506226,-0.0009893720271065831,0.0020801906939595938
1733862733771202000,10.6432021484375,0.00047508347779512405,-0.00012230291031301022,0.0014934275532141328
1733862733781153000,10.653153076171876,0.0011280905455350876,-0.00456685246899724,0.0006020675646141171
1733862733791104000,10.66310400390625,0.0009712120518088341,-0.004464671015739441,-0.0010752941016107798
1733862733801056000,10.673055908203125,0.00019117211923003197,-0.005982140079140663,-0.0014886169228702784
1733862733811007000,10.683007080078125,0.0013718227855861187,-0.009853115305304527,-0.0008058082312345505
1733862733820958000,10.6929580078125,-0.00009984010830521584,-0.007290355861186981,0.0019327204208821058
1733862733830910000,10.702909912109375,-0.0006300252862274647,-0.00747770257294178,0.0015022590523585677
1733862733840861200,10.712861083984375,-0.0010145858395844698,-0.004627055022865534,-0.00034703989513218403
1733862733850812000,10.72281201171875,-0.0004445556551218033,-0.00744449719786644,-0.0023916522040963173
1733862733860764000,10.732763916015625,0.0018612090498209,-0.010956940241158009,-0.005017262417823076
1733862733870715000,10.74271484375,0.0025729378685355186,-0.016288544982671738,-0.006303311325609684
1733862733880667000,10.7526669921875,0.0009587961249053478,-0.022754168137907982,-0.006027407944202423
1733862733890618000,10.7626181640625,0.002138738054782152,-0.025624509900808334,-0.0068838028237223625
1733862733900569000,10.772569091796875,0.0015597669407725334,-0.025880705565214157,-0.007612444460391998
1733862733910521000,10.78252099609375,0.002081556711345911,-0.023059016093611717,-0.007882995530962944
1733862733920471800,10.792471923828124,0.002152396831661463,-0.02193143405020237,-0.00936371274292469
1733862733930423000,10.802423095703125,0.0016066553071141243,-0.02028471790254116,-0.008658671751618385
1733862733940375000,10.812375,0.0020348913967609406,-0.017370153218507767,-0.007086074445396662
1733862733950326000,10.822325927734376,0.001740297768265009,-0.015564054250717163,-0.006321549881249666
1733862733960277000,10.832277099609374,0.0004633120261132717,-0.016461273655295372,-0.004587299656122923
1733862733970229000,10.84222900390625,0.0018620174378156662,-0.015183658339083195,-0.004353826399892569
1733862733980180000,10.852179931640626,0.000008723698556423187,-0.015418815426528454,-0.0032933554612100124
1733862733990131000,10.862130859375,0.00029915571212768555,-0.014624799601733685,-0.0032563628628849983
1733862734000083000,10.8720830078125,0.0004118075594305992,-0.013494287617504597,-0.001607333542779088
1733862734010034200,10.8820341796875,0.0010296013206243515,-0.011201628483831882,0.0009687935234978795
1733862734019985000,10.89198486328125,-0.0013078551273792982,-0.011861027218401432,-0.0009031423833221197
1733862734029937200,10.901937255859375,0.0015211720019578934,-0.010253261774778366,0.0009849958587437868
1733862734039888000,10.911887939453125,0.00034192437306046486,-0.004990322981029749,0.0007098913192749023
1733862734049839900,10.92183984375,0.0007441453635692596,-0.0014942289562895894,0.0012479096185415983
1733862734059791000,10.931791015625,-0.00021512527018785477,-0.0026031690649688244,0.0004486949183046818
1733862734069742000,10.9417421875,0.0010181078687310219,-0.006149470340460539,0.0017960231052711606
1733862734079694000,10.951694091796876,0.00013207411393523216,-0.010567654855549335,-0.00010946858674287796
1733862734089644800,10.961644775390624,0.0003112093545496464,-0.014298029243946075,-0.0016064147930592299
1733862734099596000,10.971595947265625,0.0013943170197308064,-0.016388079151511192,-0.0021638143807649612
1733862734109548000,10.981548095703126,0.0016146302223205566,-0.017055705189704895,-0.0028633922338485718
1733862734119499000,10.9914990234375,0.0016668280586600304,-0.012790120206773281,-0.0032266476191580296
1733862734129450000,11.001449951171875,-0.0008546719327569008,-0.009185895323753357,-0.002301645465195179
1733862734139402000,11.011402099609375,-0.0008954182267189026,-0.008473499678075314,-0.0018513051327317953
1733862734149353000,11.02135302734375,0.00044587859883904457,-0.0063696857541799545,-0.002002409193664789
1733862734159304000,11.031303955078124,-0.0007117975037544966,-0.0040362244471907616,-0.00013313652016222477
1733862734169256000,11.041255859375,-0.00013523269444704056,-0.00026381551288068295,0.0006038715364411473
1733862734179207200,11.051207275390626,0.0008826274424791336,0.002012388315051794,0.0008606002666056156
1733862734189159000,11.061158935546874,0.00009850412607192993,-0.0009638339979574084,-0.0004948540590703487
1733862734199110100,11.071110107421875,0.00009557465091347694,-0.0018852875800803304,-0.0010743578895926476
1733862734209060900,11.081060791015625,-0.0005584186874330044,-0.004560054745525122,-0.0017815560568124056
1733862734219012900,11.091012939453124,-0.00012538861483335495,-0.007313497364521027,-0.003042296739295125
1733862734228964000,11.100964111328125,-0.0011604188475757837,-0.009841369464993477,-0.0012145692016929388
1733862734238915000,11.1109150390625,-0.0006056823767721653,-0.006866618990898132,-0.001842808909714222
1733862734248867000,11.1208671875,0.001800233032554388,-0.004898768849670887,0.0006199277704581618
1733862734258817800,11.13081787109375,0.0014521582052111626,-0.0014587639598175883,-0.00009007100015878677
1733862734268769000,11.14076904296875,0.00009965803474187851,0.00009921274613589048,-0.00028870836831629276
1733862734278721000,11.150720947265626,0.002350828144699335,-0.0028995065949857235,-0.00009296601638197899
1733862734288672000,11.160672119140624,0.0005002375692129135,-0.0037153838202357292,-0.0009667319245636463
1733862734298623000,11.170623046875,-0.00001588324084877968,-0.0020751426927745342,-0.002420018892735243
1733862734308575000,11.180574951171875,-0.0019661339465528727,0.0014929184690117836,-0.001616121968254447
1733862734318526000,11.19052587890625,0.0014096889644861221,0.004370996728539467,-0.0002555130049586296
1733862734328477000,11.200476806640625,0.00012806570157408714,0.005253006238490343,0.000041248975321650505
1733862734338429000,11.210428955078125,0.0005216812714934349,0.0027397810481488705,0.0009688279824331403
1733862734348380200,11.220380126953126,-0.0008112525101751089,-0.00035461457446217537,0.0006645489484071732
1733862734358332000,11.230331787109375,0.00008996110409498215,-0.0032558622770011425,-0.002597557147964835
1733862734368283100,11.240283203125,0.0008849338628351688,-0.005914650391787291,-0.0019128408748656511
1733862734378233900,11.25023388671875,-0.00007779896259307861,-0.006614795885980129,-0.0038537525106221437
1733862734388186000,11.26018603515625,0.0017757951281964779,-0.005434736143797636,-0.0027033365331590176
1733862734398137000,11.27013720703125,0.001202682964503765,-0.004027521703392267,-0.001252446323633194
1733862734408088300,11.28008837890625,-0.00205402122810483,-0.006024010479450226,-0.0037000547163188457
1733862734418040000,11.2900400390625,0.00017957203090190887,-0.006287929601967335,-0.003110430669039488
1733862734427991000,11.299990966796875,0.0006021051667630672,-0.005715461447834969,-0.0028594322502613068
1733862734437942000,11.30994189453125,0.0012247520498931408,-0.006369533482939005,-0.0008149233181029558
1733862734447894000,11.31989404296875,0.0015436219982802868,-0.005724303890019655,0.0003718590596690774
1733862734457845200,11.32984521484375,0.0006501316092908382,-0.004962906241416931,-0.0014963482972234488
1733862734467796000,11.3397958984375,0.0019259736873209476,-0.002781286835670471,-0.000897927675396204
1733862734477748200,11.349748291015626,0.0020354297012090683,-0.0005996254039928317,-0.0028151373844593763
1733862734487699000,11.359698974609374,0.00015502097085118294,-0.0010318710701540112,-0.00037217698991298676
1733862734497650200,11.369650146484375,0.001166223082691431,-0.0018028562190011144,-0.00010506203398108482
1733862734507602200,11.379602294921876,-0.00015496602281928062,-0.002508551348000765,0.0025783306919038296
1733862734517553200,11.38955322265625,0.0007308013737201691,-0.0020520854741334915,0.0028635552152991295
1733862734527505200,11.399505126953125,-0.00028035882860422134,-0.002570450771600008,0.0012634980957955122
1733862734537456000,11.4094560546875,-0.0003458724822849035,0.0023404182866215706,0.0026888218708336353
1733862734547407000,11.419406982421876,-0.00048190634697675705,0.006798355374485254,0.000634295865893364
1733862734557359000,11.429359130859375,0.0003822892904281616,0.008355772122740746,0.0030010470654815435
1733862734567310000,11.43931005859375,0.000022026244550943375,0.005891926120966673,0.004736262373626232
1733862734577261300,11.44926123046875,-0.0015287327114492655,0.005659432150423527,0.004296308383345604
1733862734587213000,11.459213134765625,-0.0017510266043245792,0.0027366429567337036,0.004490680526942015
1733862734597164000,11.4691640625,0.00032197823747992516,-0.0005494316574186087,0.0018666679970920086
1733862734607115000,11.479114990234375,0.00026250211521983147,-0.0016069448320195079,0.0006435749819502234
1733862734617067000,11.48906689453125,0.002146688289940357,-0.0018740597879514098,-0.0005481895059347153
1733862734627018200,11.499018310546875,-0.000469468766823411,-0.0028851223178207874,-0.0027127566281706095
1733862734636970000,11.508969970703125,-0.0011589610949158669,-0.0013663213467225432,0.0001956814667209983
1733862734646921200,11.518921142578124,-0.00022318633273243904,-0.0020889206789433956,0.0005397492786869407
1733862734656872000,11.528871826171875,-0.00003783032298088074,-0.004019179847091436,0.00022123521193861961
1733862734666824200,11.53882421875,0.00019864551723003387,-0.005171460099518299,-0.0005530975759029388
1733862734676775200,11.548775146484376,0.002012258395552635,-0.0066351331770420074,-0.0001464327797293663
1733862734686726100,11.55872607421875,0.001064129639416933,-0.006111668422818184,-0.0018108454532921314
