time,seconds_elapsed,z,y,x
1733359974539622400,0.017622314453125,0.034347053617239,0.00971467886120081,0.0018785938154906034
1733359974549588500,0.02758837890625,0.035303130745887756,0.02251116745173931,-0.002123870886862278
1733359974559553300,0.03755322265625,0.03531032055616379,0.0520956926047802,-0.0022021678742021322
1733359974569519600,0.04751953125,0.03696494176983833,0.07144834846258163,-0.006909038871526718
1733359974579485400,0.0574853515625,0.03660621494054794,0.08846275508403778,-0.013789049349725246
1733359974589450200,0.0674501953125,0.05176359415054321,0.10390296578407288,-0.016561932861804962
1733359974599417000,0.0774169921875,0.0728912502527237,0.08702757954597473,-0.01968235895037651
1733359974609382000,0.0873818359375,0.059113387018442154,0.1882988065481186,-0.02034628391265869
1733359974619347700,0.09734765625,0.00017710021347738802,0.3913097083568573,-0.028231371194124222
1733359974629313000,0.10731298828125,-0.12850764393806458,0.5793917179107666,-0.06713616102933884
1733359974639278800,0.11727880859375,-0.2152462601661682,0.8599293828010559,-0.04062652215361595
1733359974649244000,0.127243896484375,-0.14903421700000763,0.9718300700187683,-0.05161126330494881
1733359974659210000,0.1372099609375,-0.009485114365816116,0.7636723518371582,-0.06464530527591705
1733359974669174800,0.1471748046875,0.02640683948993683,0.4992508292198181,-0.14434891939163208
1733359974679140900,0.157140869140625,0.05885346233844757,0.3387911021709442,-0.18610462546348572
1733359974689107000,0.16710693359375,0.08621238172054291,0.29888495802879333,-0.1440407931804657
1733359974699072000,0.177072021484375,0.05506538227200508,0.3097282946109772,-0.08977622538805008
1733359974709038000,0.1870380859375,-0.005516471806913614,0.26958033442497253,-0.057308297604322433
1733359974719003000,0.1970029296875,-0.03771994635462761,0.1950555145740509,-0.03921531140804291
1733359974728969000,0.206968994140625,-0.025675002485513687,0.31731510162353516,0.1478472501039505
1733359974738933800,0.216933837890625,0.026855848729610443,0.07916060090065002,-0.03472735360264778
1733359974748899800,0.22689990234375,0.39010462164878845,0.09104602038860321,-0.07849720865488052
1733359974758865000,0.236864990234375,0.37942561507225037,0.37473630905151367,-0.07334398478269577
1733359974768831000,0.2468310546875,0.23761282861232758,0.4087321162223816,-0.00917405728250742
1733359974778796000,0.256796142578125,0.03922836109995842,0.11658386886119843,-0.050641074776649475
1733359974788761900,0.266761962890625,-0.09021458029747009,-0.15031014382839203,-0.10015136748552322
1733359974798728000,0.27672802734375,-0.11028149724006653,-0.28851595520973206,-0.12487749010324478
1733359974808693000,0.28669287109375,-0.10011062026023865,-0.4421728849411011,-0.11041199415922165
1733359974818658800,0.296658935546875,-0.0872906967997551,-0.5885029435157776,-0.06840409338474274
1733359974828624100,0.3066240234375,-0.08374043554067612,-0.6943095326423645,-0.021527929231524467
1733359974838590000,0.31658984375,-0.08718257397413254,-0.7762786746025085,0.017782991752028465
1733359974848554800,0.3265546875,-0.08411327749490738,-0.8120060563087463,0.057134926319122314
1733359974858521000,0.33652099609375,-0.08276411890983582,-0.7667384743690491,0.08881722390651703
1733359974868486000,0.34648583984375,-0.06651191413402557,-0.719970703125,0.10516796261072159
1733359974878451700,0.35645166015625,-0.06590498238801956,-0.7117188572883606,0.10255380719900131
1733359974888417000,0.3664169921875,-0.07042835652828217,-0.7161261439323425,0.09829088300466537
1733359974898382800,0.3763828125,-0.09615369886159897,-0.7213219404220581,0.08129565417766571
1733359974908348700,0.3863486328125,-0.12041456252336502,-0.665878415107727,0.09047290682792664
1733359974918314000,0.39631396484375,-0.13892513513565063,-0.6350528597831726,0.08343630284070969
1733359974928279800,0.40627978515625,-0.14271880686283112,-0.5841467976570129,0.07806390523910522
1733359974938244900,0.416244873046875,-0.12587963044643402,-0.527210533618927,0.0692853331565857
1733359974948211000,0.4262109375,-0.10666359215974808,-0.47210896015167236,0.06382771581411362
1733359974958176000,0.436176025390625,-0.08584433048963547,-0.4185996651649475,0.0629374235868454
1733359974968141800,0.446141845703125,-0.07074154913425446,-0.4038521349430084,0.0712137222290039
1733359974978107000,0.45610693359375,-0.08423978090286255,-0.44471222162246704,0.07734139263629913
1733359974988073000,0.466072998046875,-0.10567156970500946,-0.4756445586681366,0.08691386133432388
1733359974998037800,0.476037841796875,-0.11782649904489517,-0.4753683805465698,0.09816251695156097
1733359975008003800,0.48600390625,-0.11701024323701859,-0.4924973249435425,0.1101376861333847
1733359975017970000,0.495969970703125,-0.11398143321275711,-0.5259665846824646,0.11907898634672165
1733359975027934700,0.505934814453125,-0.12200979143381119,-0.5658966898918152,0.13285018503665924
1733359975037900800,0.51590087890625,-0.12291846424341202,-0.5806447267532349,0.15197567641735077
1733359975047865900,0.525865966796875,-0.1183474138379097,-0.5640577673912048,0.15897101163864136
1733359975057832000,0.53583203125,-0.12261752784252167,-0.5688698291778564,0.1693810373544693
1733359975067797000,0.545796875,-0.13851073384284973,-0.5568885803222656,0.16950301826000214
1733359975077762800,0.5557626953125,-0.15161722898483276,-0.5255889296531677,0.17602403461933136
1733359975087728000,0.56572802734375,-0.15383243560791016,-0.4830305874347687,0.17735880613327026
1733359975097694000,0.57569384765625,-0.1380699872970581,-0.4416208267211914,0.1633726805448532
1733359975107658800,0.58565869140625,-0.12926077842712402,-0.39885950088500977,0.1504875123500824
1733359975117625000,0.595625,-0.13308268785476685,-0.37986981868743896,0.14165912568569183
1733359975127591000,0.6055908203125,-0.13853630423545837,-0.3480442464351654,0.13004454970359802
1733359975137555700,0.6155556640625,-0.13752058148384094,-0.34037941694259644,0.12042175233364105
1733359975147522000,0.62552197265625,-0.1381072700023651,-0.3293786942958832,0.1069733202457428
1733359975157486800,0.63548681640625,-0.15039242804050446,-0.2967011630535126,0.09814228117465973
1733359975167453000,0.645452880859375,-0.15412326157093048,-0.2793453633785248,0.09369053691625595
1733359975177418000,0.65541796875,-0.15268221497535706,-0.2582288980484009,0.08950138837099075
1733359975187383800,0.6653837890625,-0.14256620407104492,-0.22971469163894653,0.08105117827653885
1733359975197348900,0.675348876953125,-0.12634915113449097,-0.18481139838695526,0.0673404261469841
1733359975207315000,0.68531494140625,-0.1099771037697792,-0.13915495574474335,0.05524567887187004
1733359975217280000,0.695280029296875,-0.10999414324760437,-0.12683917582035065,0.053771886974573135
1733359975227245800,0.705245849609375,-0.0959547609090805,-0.11168258637189865,0.0442364364862442
1733359975237212000,0.7152119140625,-0.0717916339635849,-0.07492750138044357,0.021433386951684952
1733359975247177000,0.725177001953125,-0.06131209433078766,-0.06262876093387604,0.002810700098052621
1733359975257143000,0.73514306640625,-0.07830093055963516,-0.04332297295331955,-0.0076121133752167225
1733359975267107800,0.74510791015625,-0.06402532011270523,-0.02629338949918747,-0.01264122687280178
1733359975277074000,0.755073974609375,-0.06520110368728638,-0.022172946482896805,-0.0034850125666707754
1733359975287038700,0.765038818359375,-0.07581327110528946,-0.0008724515791982412,0.000022903184799361043
1733359975297005000,0.775005126953125,-0.06990984082221985,0.00746244378387928,-0.005502090789377689
1733359975306969900,0.784969970703125,-0.05488375574350357,0.0005784385721199214,-0.01221884973347187
1733359975316936000,0.79493603515625,-0.028713669627904892,0.022070415318012238,-0.015663914382457733
1733359975326901000,0.80490087890625,-0.011501393280923367,0.05607152357697487,-0.012577577494084835
1733359975336866800,0.81486669921875,-0.001160339335910976,0.06601310521364212,-0.014462562277913094
1733359975346832000,0.824831787109375,0.005542570725083351,0.05913522467017174,-0.018666362389922142
1733359975356798000,0.8347978515625,0.003349457634612918,0.051053065806627274,-0.026707777753472328
1733359975366763800,0.844763671875,-0.0038341530598700047,0.04090721905231476,-0.03548875078558922
1733359975376729000,0.85472900390625,-0.007287207525223494,0.045691054314374924,-0.038119424134492874
1733359975386695000,0.86469482421875,-0.0032948628067970276,0.061533134430646896,-0.03490205854177475
1733359975396660000,0.874659912109375,0.00010572749306447804,0.06706985086202621,-0.03226739168167114
1733359975406626000,0.8846259765625,0.004327103961259127,0.07647933065891266,-0.03290309011936188
1733359975416590800,0.8945908203125,0.009496299549937248,0.09650842845439911,-0.031976841390132904
1733359975426557000,0.904556884765625,0.01516031101346016,0.12770655751228333,-0.036556147038936615
1733359975436522000,0.91452197265625,0.024587102234363556,0.165742889046669,-0.04694513976573944
1733359975446487800,0.92448779296875,0.029391977936029434,0.21255408227443695,-0.0558030791580677
1733359975456452900,0.934452880859375,0.036244023591279984,0.25587067008018494,-0.06256271153688431
1733359975466419000,0.9444189453125,0.04382258281111717,0.2781434655189514,-0.07239563763141632
1733359975476384800,0.954384765625,0.05741455778479576,0.31253233551979065,-0.08663742244243622
1733359975486349800,0.964349853515625,0.07479327917098999,0.374296098947525,-0.09887038916349411
1733359975496316000,0.97431591796875,0.09533797204494476,0.4489530324935913,-0.10660713911056519
1733359975506281000,0.984281005859375,0.11669492721557617,0.5283328294754028,-0.11726990342140198
1733359975516246800,0.994246826171875,0.1365157663822174,0.6138325333595276,-0.13387684524059296
1733359975526212000,1.004212158203125,0.15258795022964478,0.719451904296875,-0.15319594740867615
1733359975536178000,1.014177978515625,0.1667591631412506,0.8489148020744324,-0.16971074044704437
1733359975546142700,1.024142822265625,0.1736373007297516,0.9932219386100769,-0.18314239382743835
1733359975556109000,1.034109130859375,0.17127001285552979,1.1050978899002075,-0.198900043964386
1733359975566073900,1.044073974609375,0.15747298300266266,1.1612706184387207,-0.21626785397529602
1733359975576039700,1.054039794921875,0.15339460968971252,1.160203456878662,-0.2365579456090927
1733359975586005000,1.0640048828125,0.15717683732509613,1.1240191459655762,-0.2509310245513916
1733359975595971000,1.07397119140625,0.16501212120056152,1.0624263286590576,-0.25738492608070374
1733359975605937200,1.083937255859375,0.15958087146282196,0.9885931015014648,-0.26113733649253845
1733359975615902200,1.093902099609375,0.1438184231519699,0.9188153147697449,-0.25240907073020935
1733359975625868000,1.103867919921875,0.1274958997964859,0.8441908955574036,-0.23699843883514404
1733359975635833300,1.113833251953125,0.11330977827310562,0.7538775205612183,-0.21767400205135345
1733359975645799200,1.123799072265625,0.10903114825487137,0.6456407904624939,-0.19694875180721283
1733359975655764200,1.13376416015625,0.10600046813488007,0.548050045967102,-0.1700148731470108
1733359975665730300,1.143730224609375,0.10275433957576752,0.4752538800239563,-0.14443068206310272
1733359975675695000,1.153695068359375,0.0983492061495781,0.414494127035141,-0.11040107905864716
1733359975685661400,1.163661376953125,0.08566457033157349,0.3514682948589325,-0.07523589581251144
1733359975695627300,1.173627197265625,0.0719575434923172,0.2789898216724396,-0.051423244178295135
1733359975705592000,1.183592041015625,0.05470851808786392,0.20411771535873413,-0.03858201205730438
1733359975715558400,1.193558349609375,0.0419921912252903,0.1367594450712204,-0.034165158867836
1733359975725523200,1.203523193359375,0.04204332455992699,0.08315960317850113,-0.026668628677725792
1733359975735489000,1.213489013671875,0.048773396760225296,0.05066956952214241,-0.010631871409714222
1733359975745454300,1.223454345703125,0.036380376666784286,0.03272465616464615,0.002879942301660776
1733359975755420200,1.233420166015625,0.020713267847895622,0.020869329571723938,0.022190522402524948
1733359975765385200,1.24338525390625,-0.007447796408087015,-0.008223574608564377,0.047630902379751205
1733359975775351300,1.253351318359375,-0.03600247576832771,-0.05593916401267052,0.06580058485269547
1733359975785316400,1.26331640625,-0.06470762193202972,-0.10245313495397568,0.08586910367012024
1733359975795282200,1.2732822265625,-0.09211554378271103,-0.14492709934711456,0.09436219185590744
1733359975805247200,1.283247314453125,-0.1249491274356842,-0.163052037358284,0.09875880181789398
1733359975815213300,1.29321337890625,-0.1502651423215866,-0.1837352067232132,0.10391068458557129
1733359975825179100,1.30317919921875,-0.15959951281547546,-0.24548380076885223,0.046416766941547394
1733359975835144200,1.313144287109375,-0.16880393028259277,-0.28568795323371887,0.03844406083226204
1733359975845110300,1.3231103515625,-0.15890629589557648,-0.32216206192970276,0.03412521257996559
1733359975855075000,1.333074951171875,-0.12411689013242722,-0.3668765425682068,0.0427304208278656
1733359975865041200,1.343041259765625,0.011115501634776592,-0.4502289593219757,0.03744377940893173
1733359975875006200,1.353006103515625,0.03176805004477501,-0.36870160698890686,-0.005284510552883148
1733359975884972000,1.362971923828125,-0.0120702451094985,-0.15883225202560425,-0.008616391569375992
1733359975894937300,1.372937255859375,-0.03375263884663582,-0.019062373787164688,0.006130596622824669
1733359975904903200,1.382903076171875,-0.04024382680654526,0.011441206559538841,0.01884559355676174
1733359975914868200,1.3928681640625,-0.04741811379790306,-0.022288793697953224,0.01423246506601572
1733359975924834300,1.402834228515625,-0.062317702919244766,-0.06338589638471603,-0.005321794655174017
1733359975934800100,1.412800048828125,-0.06356299668550491,-0.07979150116443634,-0.0014751249691471457
1733359975944765200,1.42276513671875,-0.05841004475951195,-0.10758984088897705,0.025743979960680008
1733359975954731300,1.432731201171875,-0.0430353507399559,-0.17533160746097565,0.058520302176475525
1733359975964696000,1.442696044921875,-0.02888384647667408,-0.2630172371864319,0.08230952173471451
1733359975974662400,1.452662353515625,-0.015914784744381905,-0.3250361382961273,0.110124371945858
1733359975984627200,1.462627197265625,-0.002609631512314081,-0.3468935191631317,0.14911384880542755
1733359975994593000,1.472593017578125,0.010855576954782009,-0.34140846133232117,0.18528702855110168
1733359976004558000,1.48255810546875,0.01925572007894516,-0.3303726017475128,0.2092629373073578
1733359976014524200,1.492524169921875,0.020776918157935143,-0.31469056010246277,0.23500452935695648
1733359976024489200,1.5024892578125,0.022948192432522774,-0.31260237097740173,0.24098172783851624
1733359976034455300,1.512455322265625,0.022044315934181213,-0.3147571384906769,0.2191118448972702
1733359976044421000,1.522421142578125,0.02021072991192341,-0.29793795943260193,0.18133650720119476
1733359976054386200,1.53238623046875,0.015350726433098316,-0.248063862323761,0.13423477113246918
1733359976064352300,1.542352294921875,0.012193815782666206,-0.15476427972316742,0.07926925271749496
1733359976074317300,1.5523173828125,0.002371544949710369,-0.013936854898929596,0.013919011689722538
1733359976084283100,1.562283203125,-0.010303503833711147,0.14052169024944305,-0.05608617141842842
1733359976094248200,1.572248291015625,-0.020618459209799767,0.29303106665611267,-0.12397387623786926
1733359976104214300,1.58221435546875,-0.03677159547805786,0.4504883289337158,-0.16406936943531036
1733359976114179000,1.592178955078125,-0.0676693245768547,0.5408925414085388,-0.17941635847091675
1733359976124145200,1.602145263671875,-0.11346211284399033,0.5216501355171204,-0.1808752417564392
1733359976134110200,1.612110107421875,-0.16321182250976562,0.37994199991226196,-0.1808864325284958
1733359976144076000,1.622075927734375,-0.1968076080083847,0.1884647160768509,-0.18844448029994965
1733359976154042400,1.63204248046875,-0.19347865879535675,0.08633089065551758,-0.16210289299488068
1733359976164007200,1.642007080078125,-0.1602032482624054,0.07495733350515366,-0.1365450620651245
1733359976173973000,1.651972900390625,-0.12451077252626419,0.1176035925745964,-0.1225123330950737
1733359976183938300,1.661938232421875,-0.08544672280550003,0.1826166808605194,-0.09307029098272324
1733359976193904000,1.671904052734375,-0.04881441220641136,0.2332761287689209,-0.06259413808584213
1733359976203869200,1.681869140625,-0.07443109154701233,0.25948482751846313,-0.054364971816539764
1733359976213835300,1.691835205078125,-0.08291485905647278,0.23836703598499298,-0.04803197458386421
1733359976223800000,1.701800048828125,-0.023134879767894745,0.17611217498779297,-0.016220249235630035
1733359976233766400,1.711766357421875,-0.02659192867577076,0.128437340259552,-0.03377900272607803
1733359976243731200,1.721731201171875,-0.060922738164663315,0.1025165244936943,-0.09441838413476944
1733359976253697300,1.731697265625,-0.0426180325448513,0.1040065586566925,-0.11352336406707764
1733359976263662000,1.741662109375,-0.013521667569875717,0.11625497043132782,-0.11201761662960052
1733359976273628200,1.751628173828125,-0.014155499637126923,0.15117806196212769,-0.14029985666275024
1733359976283594200,1.76159423828125,0.008982841856777668,0.1734844446182251,-0.14938975870609283
1733359976293559300,1.771559326171875,0.04595470800995827,0.1869800090789795,-0.14039386808872223
1733359976303525000,1.781525146484375,0.057306431233882904,0.19523580372333527,-0.13893231749534607
1733359976313490200,1.791490234375,0.05434020236134529,0.18720796704292297,-0.1445406675338745
1733359976323456300,1.801456298828125,0.07103130221366882,0.16997785866260529,-0.13691018521785736
1733359976333421300,1.81142138671875,0.08664115518331528,0.1615649312734604,-0.1252487301826477
1733359976343387100,1.82138720703125,0.08994586765766144,0.16821537911891937,-0.11961987614631653
1733359976353352200,1.831352294921875,0.09327029436826706,0.19215746223926544,-0.10413678735494614
1733359976363318300,1.841318359375,0.10014630854129791,0.1981266736984253,-0.0792817696928978
1733359976373283000,1.851282958984375,0.09355658292770386,0.17465703189373016,-0.055268846452236176
1733359976383249400,1.86124951171875,0.07472137361764908,0.11038349568843842,-0.041783399879932404
1733359976393215200,1.87121533203125,0.05899061635136604,0.03850291669368744,-0.03175606578588486
1733359976403180000,1.881179931640625,0.04602980986237526,-0.014621819369494915,-0.019267704337835312
1733359976413146400,1.891146484375,0.04026726260781288,-0.04731052368879318,-0.00020240024605300277
1733359976423111200,1.901111083984375,0.04111760854721069,-0.07114262133836746,0.020980115979909897
1733359976433077000,1.911076904296875,0.040348220616579056,-0.08675939589738846,0.035836294293403625
1733359976443042300,1.921042236328125,0.03922836109995842,-0.09889674931764603,0.03738785162568092
1733359976453008100,1.931008056640625,0.03660568222403526,-0.09591827541589737,0.034032803028821945
1733359976462973200,1.94097314453125,0.03723312169313431,-0.07752009481191635,0.030294522643089294
1733359976472939300,1.950939208984375,0.03644935414195061,-0.05149008706212044,0.033358488231897354
1733359976482904300,1.960904296875,0.03172330930829048,-0.03626719489693642,0.03272998332977295
1733359976492870100,1.9708701171875,0.02208106778562069,-0.031075362116098404,0.033066075295209885
1733359976502836200,1.980836181640625,0.009281116537749767,-0.029640981927514076,0.03810690715909004
1733359976512801300,1.99080126953125,-0.003733219113200903,-0.04628920182585716,0.03765629976987839
1733359976522767400,2.000767333984375,-0.010332265868782997,-0.06727943569421768,0.04108911380171776
1733359976532732200,2.010732177734375,-0.007938616909086704,-0.08298595994710922,0.05150766670703888
1733359976542698200,2.0206982421875,-0.0027105652261525393,-0.09855000674724579,0.06360587477684021
1733359976552663000,2.0306630859375,0.002971288748085499,-0.11094009876251221,0.07132025063037872
1733359976562629000,2.040629150390625,0.001853560097515583,-0.11287302523851395,0.07371976226568222
1733359976572594200,2.05059423828125,-0.003599794814363122,-0.10354530066251755,0.07593683898448944
1733359976582560300,2.060560302734375,-0.007570568006485701,-0.09216747432947159,0.07174769043922424
1733359976592526000,2.070526123046875,-0.008469118736684322,-0.07459007948637009,0.06677822768688202
1733359976602490400,2.080490478515625,-0.008677111007273197,-0.06025641784071922,0.06305193901062012
1733359976612456400,2.09045654296875,-0.006982542108744383,-0.04674486815929413,0.06443491578102112
1733359976622421500,2.10042138671875,-0.0007981493836268783,-0.0412270650267601,0.06537874042987823
1733359976632387600,2.1103876953125,0.004046939779073,-0.04369528219103813,0.0604577511548996
1733359976642352600,2.1203525390625,0.006689594127237797,-0.038591332733631134,0.05494553968310356
1733359976652318500,2.130318359375,0.006703975144773722,-0.03218110650777817,0.04953266680240631
1733359976662283500,2.140283447265625,0.004610198084264994,-0.024234766140580177,0.04867352917790413
1733359976672249600,2.15024951171875,0.002445314545184374,-0.023690149188041687,0.04918139427900314
1733359976682214400,2.16021435546875,-0.0000929443194763735,-0.026078738272190094,0.04755047336220741
1733359976692180700,2.1701806640625,0.002475142013281584,-0.030533675104379654,0.04128112643957138
1733359976702145500,2.1801455078125,0.0036546560004353523,-0.03786322474479675,0.03550633043050766
1733359976712111400,2.190111328125,0.004283161833882332,-0.048160869628190994,0.030115557834506035
1733359976722077700,2.20007763671875,0.006425142288208008,-0.04993613436818123,0.019718842580914497
1733359976732042500,2.21004248046875,0.006416620220988989,-0.048704423010349274,0.01660907082259655
1733359976742008300,2.22000830078125,0.006868558935821056,-0.043227631598711014,0.014561631716787815
1733359976751973600,2.2299736328125,0.004887699615210295,-0.04884130880236626,0.007844607345759869
1733359976761939500,2.239939453125,0.004656536970287561,-0.04258714243769646,0.0007701861904934049
1733359976771904500,2.249904541015625,0.006669620517641306,-0.03286633640527725,-0.0070131681859493256
1733359976781870600,2.25987060546875,0.00030652983696199954,-0.031035147607326508,-0.019395003095269203
1733359976791835600,2.269835693359375,-0.0009033442474901676,-0.024036893621087074,-0.029860960319638252
1733359976801801500,2.279801513671875,-0.004093545023351908,-0.009526127018034458,-0.03830957040190697
1733359976811766500,2.2897666015625,-0.0027441212441772223,0.01347373053431511,-0.05041763558983803
1733359976821732600,2.299732666015625,0.0008633967954665422,0.048593636602163315,-0.05693092569708824
1733359976831698400,2.309698486328125,0.009373794309794903,0.07417649030685425,-0.05616180598735809
1733359976841663500,2.31966357421875,0.013463877141475677,0.07029759883880615,-0.05390877276659012
1733359976851629600,2.329629638671875,0.013380520045757294,0.048480451107025146,-0.04520449414849281
1733359976861594400,2.339594482421875,0.013044695369899273,0.019830429926514626,-0.034506313502788544
1733359976871560400,2.349560546875,0.01085824053734541,-0.006499977316707373,-0.019027486443519592
1733359976881525500,2.359525390625,0.009869142435491085,-0.02153964713215828,-0.00890933908522129
1733359976891491600,2.36949169921875,0.013171995058655739,-0.02219611592590809,-0.005724198184907436
1733359976901456600,2.37945654296875,0.01263989508152008,-0.011616175994277,-0.011097658425569534
1733359976911422500,2.38942236328125,0.01098340842872858,0.004630704410374165,-0.015429290011525154
1733359976921387500,2.399387451171875,0.009643572382628918,0.021564148366451263,-0.018318021669983864
1733359976931353600,2.409353515625,0.005795571021735668,0.03205007687211037,-0.019244002178311348
1733359976941319400,2.4193193359375,0.004884503781795502,0.038418762385845184,-0.022832877933979034
1733359976951284700,2.42928466796875,0.004254932515323162,0.04146381840109825,-0.017177388072013855
1733359976961250600,2.43925048828125,0.0018165421206504107,0.026975424960255623,0.00020586235041264445
1733359976971215400,2.44921533203125,-0.004585164599120617,-0.0031582426745444536,0.012548549100756645
1733359976981181700,2.459181640625,-0.010321080684661865,-0.024409735575318336,0.02556687965989113
1733359976991146500,2.469146484375,-0.012341887690126896,-0.036370791494846344,0.032707612961530685
1733359977001112600,2.479112548828125,-0.015728896483778954,-0.03548102825880051,0.02798982337117195
1733359977011077600,2.48907763671875,-0.017408285290002823,-0.021814217790961266,0.015014635398983955
1733359977021043500,2.49904345703125,-0.020317522808909416,0.0029547770973294973,0.00213612150400877
1733359977031008500,2.509008544921875,-0.027226561680436134,0.022416092455387115,-0.01227211207151413
1733359977040974600,2.518974609375,-0.03454918786883354,0.038791071623563766,-0.028835110366344452
1733359977050940400,2.5289404296875,-0.035722844302654266,0.05230768024921417,-0.03562910109758377
1733359977060905500,2.538905517578125,-0.031384289264678955,0.05940979719161987,-0.03581791743636131
1733359977070871600,2.54887158203125,-0.02611815370619297,0.0532485730946064,-0.031381092965602875
1733359977080836600,2.558836669921875,-0.017489245161414146,0.031739819794893265,-0.018735071644186974
1733359977090802400,2.568802490234375,-0.00971734244376421,0.004987301770597696,-0.006776946131139994
1733359977100767500,2.578767578125,-0.0054211304523050785,-0.016037022694945335,0.0051934304647147655
1733359977110733600,2.588733642578125,-0.002710299100726843,-0.025489913299679756,0.011052917689085007
1733359977120698400,2.598698486328125,-0.0002442118711769581,-0.023450197651982307,0.006305033806711435
1733359977130664700,2.608664794921875,0.0054943677969276905,-0.009580455720424652,-0.007337008602917194
1733359977140629500,2.61862939453125,0.005596366710960865,0.016931045800447464,-0.01714915968477726
1733359977150595300,2.62859521484375,0.008356466889381409,0.02990303747355938,-0.018275942653417587
1733359977160561700,2.638561767578125,0.0072925337590277195,0.029141107574105263,-0.020669858902692795
1733359977170526500,2.6485263671875,0.0065252771601080894,0.016574716195464134,-0.01883494108915329
1733359977180492500,2.658492431640625,0.006170810665935278,0.007249390706419945,-0.014733139425516129
1733359977190457600,2.66845751953125,0.010204168036580086,-0.004899683874100447,-0.012007393874228
1733359977200423400,2.67842333984375,0.008549013175070286,-0.011019094847142696,-0.007959122769534588
1733359977210388500,2.688388427734375,0.005768406670540571,-0.01877022534608841,-0.007670969236642122
1733359977220354600,2.6983544921875,0.0023299995809793472,-0.01870551146566868,-0.002177666872739792
1733359977230319600,2.708319580078125,0.0023728765081614256,-0.02026958577334881,0.001458080718293786
1733359977240285700,2.71828564453125,0.00267727579921484,-0.019931362941861153,0.00044821001938544214
1733359977250250500,2.72825048828125,0.005538576282560825,-0.011078483425080776,-0.006629939656704664
1733359977260216600,2.738216552734375,0.006358030717819929,-0.0034258903469890356,-0.011938418261706829
1733359977270182700,2.7481826171875,0.003736148588359356,0.0009302421822212636,-0.017479658126831055
1733359977280147500,2.7581474609375,0.003370763035491109,0.008050736039876938,-0.019450929015874863
1733359977290113500,2.768113525390625,0.009399094618856907,0.013313408941030502,-0.018210962414741516
1733359977300078600,2.77807861328125,0.009470733813941479,0.0165555402636528,-0.019773438572883606
1733359977310044400,2.78804443359375,0.013586915098130703,0.019705794751644135,-0.020955881103873253
1733359977320009500,2.798009521484375,0.010191384702920914,0.026519225910305977,-0.024759940803050995
1733359977329975600,2.8079755859375,0.007252852898091078,0.032038893550634384,-0.027713386341929436
1733359977339940600,2.817940673828125,0.006727410946041346,0.026248915120959282,-0.02473330870270729
1733359977349906400,2.827906494140625,0.004568652715533972,0.00726377172395587,-0.01744556985795498
1733359977359871700,2.837871826171875,0.002116147894412279,-0.01008299458771944,-0.010416155681014061
1733359977369837600,2.847837646484375,0.0005033374181948602,-0.012739230878651142,-0.007733287289738655
1733359977379803400,2.857803466796875,-0.001597363967448473,0.00014460964302998036,-0.008921856060624123
1733359977389768700,2.867768798828125,-0.004003263544291258,0.008791361004114151,-0.01278423797339201
1733359977399734500,2.877734619140625,-0.012093414552509785,0.01212750282138586,-0.015547001734375954
1733359977409699300,2.88769921875,-0.018014686182141304,0.016293752938508987,-0.016527311876416206
1733359977419665700,2.897665771484375,-0.017482588067650795,0.016565926373004913,-0.011954929679632187
1733359977429630500,2.90763037109375,-0.022775886580348015,0.005834453273564577,-0.007763647008687258
1733359977439596500,2.917596435546875,-0.023979900404810905,-0.0041276332922279835,-0.0049462891183793545
1733359977449561600,2.9275615234375,-0.02574744075536728,-0.007647799793630838,-0.00384427304379642
1733359977459527400,2.93752734375,-0.02720632031559944,-0.0012125372886657715,-0.004661597311496735
1733359977469492500,2.947492431640625,-0.027269970625638962,0.00848749466240406,-0.012080098502337933
1733359977479458600,2.95745849609375,-0.02895335480570793,0.021466143429279327,-0.01595499739050865
1733359977489424400,2.96742431640625,-0.036485571414232254,0.027812456712126732,-0.01528840884566307
1733359977499389700,2.9773896484375,-0.04231470078229904,0.028799956664443016,-0.017174992710351944
1733359977509355500,2.98735546875,-0.043347738683223724,0.027815653011202812,-0.017287377268075943
1733359977519320600,2.997320556640625,-0.0395285002887249,0.026518693193793297,-0.01925225742161274
1733359977529286700,3.00728662109375,-0.0414678156375885,0.025351162999868393,-0.022818496450781822
1733359977539251500,3.01725146484375,-0.03958762437105179,0.025782860815525055,-0.02532319910824299
1733359977549217500,3.027217529296875,-0.038422223180532455,0.028072115033864975,-0.025317074730992317
1733359977559182600,3.0371826171875,-0.035287950187921524,0.03158668801188469,-0.0250835157930851
1733359977569148400,3.0471484375,-0.026863571256399155,0.034141723066568375,-0.0210709311068058
1733359977579113500,3.057113525390625,-0.019099924713373184,0.03335822373628616,-0.018132397904992104
1733359977589079600,3.06707958984375,-0.01318371295928955,0.022650716826319695,-0.015215704217553139
1733359977599045400,3.07704541015625,-0.007477091159671545,0.014311561360955238,-0.00848456472158432
1733359977609011200,3.08701123046875,-0.004043477587401867,0.0024985778145492077,-0.0002798982313834131
1733359977618977000,3.09697705078125,0.0007680556736886501,-0.00959536898881197,0.0019414444686844945
1733359977628942300,3.1069423828125,0.0036509274505078793,-0.01507269311696291,-0.000955009541939944
1733359977638908200,3.116908203125,0.005096757784485817,-0.011225223541259766,-0.002210423583164811
1733359977648873200,3.126873291015625,0.008169779554009438,-0.007680822629481554,-0.004061054438352585
1733359977658839300,3.13683935546875,0.007135141175240278,-0.00564137427136302,-0.004267981741577387
1733359977668804000,3.14680419921875,0.008440623059868813,-0.010042780078947544,-0.005450425669550896
1733359977678770200,3.156770263671875,0.01122389268130064,-0.012238556519150734,-0.00358807691372931
1733359977688735200,3.1667353515625,0.01031628716737032,-0.014367487281560898,-0.00523577444255352
1733359977698701000,3.176701171875,0.011432684026658535,-0.011809254996478558,-0.00995995569974184
1733359977708667100,3.186667236328125,0.010683536529541016,-0.006837932392954826,-0.014963769353926182
1733359977718632200,3.196632080078125,0.014242585748434067,-0.0011848403373733163,-0.01804504729807377
1733359977728598000,3.206597900390625,0.017001353204250336,0.0031521173659712076,-0.01636911928653717
1733359977738563000,3.21656298828125,0.02219691500067711,0.001091896090656519,-0.01540771871805191
1733359977748529200,3.226529052734375,0.02472878247499466,-0.005102350376546383,-0.017238108441233635
1733359977758494200,3.236494140625,0.026882214471697807,-0.005682386923581362,-0.02340039797127247
1733359977768460300,3.246460205078125,0.02913258597254753,-0.0018034926615655422,-0.027638286352157593
1733359977778425300,3.25642529296875,0.029833262786269188,0.004982774145901203,-0.03196698799729347
1733359977788391200,3.26639111328125,0.02485794574022293,0.017714548856019974,-0.03997298330068588
1733359977798356000,3.27635595703125,0.022901320829987526,0.02786092646420002,-0.052681054919958115
1733359977808322300,3.286322265625,0.0191342793405056,0.04165476933121681,-0.07107604295015335
1733359977818288000,3.2962880859375,0.01477841380983591,0.06359628587961197,-0.09564689546823502
1733359977828253200,3.306253173828125,0.014870292507112026,0.10125311464071274,-0.12244788557291031
1733359977838219300,3.31621923828125,0.01890311762690544,0.15376585721969604,-0.14479926228523254
1733359977848184000,3.32618408203125,0.023357786238193512,0.20242899656295776,-0.1403786838054657
1733359977858150100,3.336150146484375,0.027773573994636536,0.18966367840766907,-0.10602044314146042
1733359977868115200,3.346115234375,0.025839852169156075,0.09910474717617035,-0.04854649677872658
1733359977878081000,3.3560810546875,0.016199743375182152,-0.03391695395112038,0.019757725298404694
1733359977888046300,3.36604638671875,0.022710638120770454,-0.14536412060260773,0.08096462488174438
1733359977898012200,3.37601220703125,0.032271917909383774,-0.20255151391029358,0.12137968838214874
1733359977907977200,3.385977294921875,0.04270805045962334,-0.20667408406734467,0.1407802850008011
1733359977917943300,3.395943359375,0.045519016683101654,-0.19017046689987183,0.1436849981546402
1733359977927909000,3.4059091796875,0.0385655015707016,-0.17649248242378235,0.141550213098526
1733359977937874200,3.415874267578125,0.02628646418452263,-0.1793535053730011,0.13299453258514404
1733359977947840300,3.42584033203125,0.009493104182183743,-0.18503430485725403,0.12649349868297577
1733359977957805000,3.43580517578125,-0.002007757080718875,-0.1799098402261734,0.1157766655087471
1733359977967771100,3.445771240234375,-0.0075671058148145676,-0.15081028640270233,0.10327765345573425
1733359977977736200,3.455736083984375,-0.015847938135266304,-0.11319340020418167,0.08640466630458832
1733359977987702000,3.465701904296875,-0.020119648426771164,-0.0828874260187149,0.06982062757015228
1733359977997667000,3.4756669921875,-0.03262611851096153,-0.06794070452451706,0.054368432611227036
1733359978007633200,3.485633056640625,-0.04446040838956833,-0.061651378870010376,0.04206676036119461
1733359978017598200,3.49559814453125,-0.05331461876630783,-0.05000164732336998,0.02955363132059574
1733359978027564000,3.50556396484375,-0.05627472326159477,-0.03795989975333214,0.017884191125631332
1733359978037529300,3.515529296875,-0.05313272774219513,-0.018870627507567406,0.009515474550426006
1733359978047495200,3.5254951171875,-0.049735598266124725,-0.008403604850172997,0.009811618365347385
1733359978057461200,3.535461181640625,-0.044792238622903824,-0.008437959477305412,0.0154354153200984
1733359978067426300,3.54542626953125,-0.044145356863737106,-0.01936624012887478,0.021440843120217323
1733359978077392100,3.55539208984375,-0.03550339862704277,-0.024923458695411682,0.02460521087050438
1733359978087357000,3.56535693359375,-0.027127757668495178,-0.02919011004269123,0.029923809692263603
1733359978097323300,3.5753232421875,-0.01991325430572033,-0.023877369239926338,0.03133209049701691
1733359978107288000,3.5852880859375,-0.010328537784516811,-0.017897773534059525,0.029956301674246788
1733359978117254100,3.595254150390625,-0.004833104554563761,-0.01793559081852436,0.03068600781261921
1733359978127219200,3.60521923828125,0.004933505784720182,-0.030460970476269722,0.036967337131500244
1733359978137185000,3.61518505859375,0.009579923003911972,-0.059427905827760696,0.04640398547053337
1733359978147150000,3.625150146484375,0.0167334396392107,-0.0880020260810852,0.053650446236133575
1733359978157116200,3.6351162109375,0.024050207808613777,-0.09813961386680603,0.05402674898505211
1733359978167082000,3.64508203125,0.026912307366728783,-0.08636072278022766,0.04524550959467888
1733359978177047300,3.65504736328125,0.032340098172426224,-0.05711787939071655,0.039567649364471436
1733359978187013000,3.66501318359375,0.03445864096283913,-0.04141348600387573,0.046534743160009384
1733359978196978200,3.674978271484375,0.03430204838514328,-0.06989067047834396,0.05649922788143158
1733359978206944300,3.6849443359375,0.035523105412721634,-0.12116797268390656,0.070010244846344
1733359978216909000,3.694908935546875,0.03810690715909004,-0.1675218790769577,0.08647257089614868
1733359978226875100,3.704875244140625,0.04620025306940079,-0.1898607462644577,0.09792815893888474
1733359978236840200,3.714840087890625,0.051969725638628006,-0.18623937666416168,0.10563481599092484
1733359978246806300,3.72480615234375,0.05643478035926819,-0.15686790645122528,0.09862004965543747
1733359978256771000,3.73477099609375,0.05615860968828201,-0.10914912074804306,0.07772355526685715
1733359978266737200,3.744737060546875,0.05079606920480728,-0.04707377031445503,0.057018544524908066
1733359978276703200,3.754703125,0.04382205009460449,0.008073905482888222,0.037705834954977036
1733359978286668000,3.76466796875,0.03494866192340851,0.03959401324391365,0.01991405338048935
1733359978296634000,3.774634033203125,0.028874525800347328,0.05419798940420151,0.007159642409533262
1733359978306599200,3.78459912109375,0.021563349291682243,0.06180557608604431,0.0013438310706987977
1733359978316565200,3.794565185546875,0.013492639176547527,0.055564992129802704,0.0026583673898130655
1733359978326530300,3.8045302734375,0.0052203284576535225,0.042094990611076355,0.003725496120750904
1733359978336496000,3.81449609375,-0.00011771172285079956,0.028135497123003006,-0.00004447478931979276
1733359978346461200,3.824461181640625,-0.005248824134469032,0.023242471739649773,-0.011413775384426117
1733359978356427300,3.83442724609375,-0.003299922915175557,0.03513375297188759,-0.01792573742568493
1733359978366392000,3.84439208984375,-0.0038549257442355156,0.04400687292218208,-0.020313527435064316
1733359978376358100,3.854358154296875,-0.008802546188235283,0.023689350113272667,-0.02407231368124485
1733359978386324200,3.86432421875,-0.011573831550776958,0.0014511564513668418,-0.02317136526107788
1733359978396289000,3.8742890625,-0.013064669445157051,-0.009194031357765198,-0.019339343532919884
1733359978406255400,3.88425537109375,-0.010969560593366623,-0.0138377845287323,-0.019651997834444046
1733359978416220200,3.89422021484375,-0.010265421122312546,-0.006471747532486916,-0.027896612882614136
1733359978426186000,3.90418603515625,-0.011443070136010647,0.016446352005004883,-0.037759095430374146
1733359978436151300,3.9141513671875,-0.014013553969562054,0.05083867907524109,-0.04946129396557808
1733359978446117000,3.9241171875,-0.017174726352095604,0.07950974255800247,-0.05712027847766876
1733359978456082200,3.934082275390625,-0.018150242045521736,0.09704878181219101,-0.05601000413298607
1733359978466048300,3.94404833984375,-0.014683072455227375,0.08857247978448868,-0.05085252970457077
1733359978476013000,3.954012939453125,-0.011035074479877949,0.059468384832143784,-0.041359689086675644
1733359978485979100,3.963979248046875,-0.0025803367607295513,0.028691831976175308,-0.035840023308992386
1733359978495945200,3.9739453125,0.00808881875127554,0.013949104584753513,-0.02743695117533207
1733359978505910300,3.98391015625,0.01696566678583622,0.016538230702280998,-0.023723704740405083
1733359978515876000,3.9938759765625,0.018495120108127594,0.023264842107892036,-0.021526597440242767
1733359978525841200,4.003841064453125,0.026545589789748192,0.035296738147735596,-0.0156093193218112
1733359978535807200,4.01380712890625,0.028207669034600258,0.032153673470020294,-0.012869992293417454
1733359978545772000,4.02377197265625,0.03081277385354042,0.01158927846699953,-0.0019451729021966457
1733359978555738000,4.033738037109375,0.03333212435245514,-0.01768605224788189,0.00711809704080224
1733359978565703200,4.043703125,0.03677798807621002,-0.0345529168844223,0.013562946580350399
1733359978575669000,4.0536689453125,0.041677139699459076,-0.032877255231142044,0.017164073884487152
1733359978585634300,4.06363427734375,0.047253530472517014,-0.018819494172930717,0.013078250922262669
1733359978595599000,4.07359912109375,0.04767537862062454,0.00034221619716845453,0.009790845215320587
1733359978605565200,4.083565185546875,0.04917873069643974,0.01426175981760025,0.008823851123452187
1733359978615530000,4.093530029296875,0.04922986403107643,0.02925029769539833,0.005103415343910456
1733359978625496000,4.10349609375,0.04589531943202019,0.03786296024918556,0.005672266706824303
1733359978635461000,4.113461181640625,0.037646446377038956,0.03458700701594353,0.005018194206058979
1733359978645427000,4.123427001953125,0.02984577976167202,0.02058197371661663,0.003912449814379215
1733359978655392300,4.133392333984375,0.01985679566860199,0.006598514039069414,0.005330316722393036
1733359978665358000,4.143358154296875,0.014940599910914898,-0.0020354539155960083,0.00959536898881197
1733359978675323100,4.1533232421875,0.006907440721988678,-0.011974903754889965,0.010931476950645447
1733359978685289200,4.163289306640625,0.00019520970818120986,-0.022124210372567177,0.009089901112020016
1733359978695254000,4.17325390625,-0.006624879315495491,-0.030665500089526176,0.010398312471807003
1733359978705220000,4.18322021484375,-0.01600746251642704,-0.04051333665847778,0.013470002450048923
1733359978715186200,4.193186279296875,-0.022643793374300003,-0.040595896542072296,0.013071593828499317
1733359978725151000,4.20315087890625,-0.03127669543027878,-0.04056979715824127,0.012239355593919754
1733359978735117000,4.213116943359375,-0.03756149113178253,-0.04316052049398422,0.008056062273681164
1733359978745082000,4.22308203125,-0.04153759032487869,-0.040527187287807465,0.0019491675775498152
1733359978755048000,4.2330478515625,-0.04165423661470413,-0.03178642690181732,-0.0026282735634595156
1733359978765013000,4.243012939453125,-0.042146120220422745,-0.018687134608626366,-0.006517820525914431
1733359978774979000,4.25297900390625,-0.04065714776515961,-0.01236239355057478,-0.009483516216278076
1733359978784944000,4.262944091796875,-0.03839665651321411,-0.008559399284422398,-0.01326813455671072
1733359978794910200,4.27291015625,-0.03611885383725166,0.0008341020438820124,-0.01684529334306717
1733359978804875000,4.282875,-0.02767051011323929,0.018579009920358658,-0.0231721643358469
1733359978814841000,4.292841064453125,-0.021860823035240173,0.04051839932799339,-0.027939222753047943
1733359978824807200,4.30280712890625,-0.016758207231760025,0.05409892275929451,-0.03157736733555794
1733359978834772200,4.312772216796875,-0.012827381491661072,0.05278119072318077,-0.035045869648456573
1733359978844738000,4.322738037109375,-0.011413242667913437,0.04484283924102783,-0.03388392925262451
1733359978854703000,4.332703125,-0.0112824821844697,0.04319167882204056,-0.024157267063856125
1733359978864669200,4.342669189453125,0.001175519311800599,0.03780996426939964,-0.02008662559092045
1733359978874634000,4.352634033203125,0.01137143187224865,0.028121117502450943,-0.01507269311696291
1733359978884600000,4.36260009765625,0.017650365829467773,0.01635713502764702,-0.01378132589161396
1733359978894565000,4.372565185546875,0.020914869382977486,0.009402289986610413,-0.008056062273681164
1733359978904531000,4.382531005859375,0.018794193863868713,-0.0007925567333586514,-0.0032535837963223457
1733359978914496300,4.392496337890625,0.015667110681533813,-0.007761516608297825,-0.002868490759283304
1733359978924462000,4.402462158203125,0.017071394249796867,-0.005629123654216528,-0.00202293717302382
1733359978934428000,4.412427978515625,0.01575499400496483,-0.0010016148444265127,-0.005285309627652168
1733359978944393200,4.422393310546875,0.010644921101629734,-0.0005496764206327498,-0.003376089269295335
1733359978954359000,4.432359130859375,0.007095992565155029,-0.012348279356956482,0.001178448786959052
1733359978964324000,4.442323974609375,0.0031079088803380728,-0.029993318021297455,0.008244347758591175
1733359978974290200,4.452290283203125,0.0015928366919979453,-0.044006071984767914,0.015134744346141815
1733359978984255000,4.4622548828125,0.0017068199813365936,-0.05497616529464722,0.015977367758750916
1733359978994221000,4.472220947265625,0.0031079088803380728,-0.04898431897163391,0.016871124505996704
1733359979004186000,4.48218603515625,0.005431517027318478,-0.036371055990457535,0.01942749321460724
1733359979014152000,4.49215185546875,0.0041121868416666985,-0.030191725119948387,0.02365313097834587
1733359979024117000,4.502116943359375,0.005871471017599106,-0.031927838921546936,0.0297861248254776
1733359979034083000,4.5120830078125,0.007507184520363808,-0.04604632034897804,0.038060300052165985
1733359979044048100,4.522048095703125,0.00899695698171854,-0.05951738730072975,0.044011399149894714
1733359979054014000,4.532013916015625,0.010867827571928501,-0.06738968938589096,0.053649380803108215
1733359979063980000,4.54197998046875,0.015181349590420723,-0.07588783651590347,0.06458325684070587
1733359979073945000,4.551945068359375,0.01980646140873432,-0.08094651252031326,0.0828501433134079
1733359979083911200,4.5619111328125,0.02527020312845707,-0.09901552647352219,0.11303067952394485
1733359979093876200,4.571876220703125,0.036970801651477814,-0.1500110626220703,0.14626532793045044
1733359979103842000,4.581842041015625,0.051474109292030334,-0.21385343372821808,0.19520358741283417
1733359979113806800,4.591806884765625,0.07743087410926819,-0.2860141694545746,0.25526106357574463
1733359979123773200,4.601773193359375,0.11512339115142822,-0.3838270306587219,0.3190682530403137
1733359979133738000,4.611738037109375,0.15712623298168182,-0.49517378211021423,0.3811627924442291
1733359979143704000,4.6217041015625,0.20805945992469788,-0.6062231063842773,0.46112874150276184
1733359979153669000,4.631669189453125,0.26232802867889404,-0.6903275847434998,0.5067675709724426
1733359979163635000,4.641635009765625,0.32386940717697144,-0.7961261868476868,0.5446435809135437
1733359979173601000,4.65160107421875,0.378820538520813,-0.8836736083030701,0.5988461375236511
1733359979183566000,4.661566162109375,0.4400798976421356,-0.9600344300270081,0.6446908116340637
1733359979193532000,4.671531982421875,0.4942243695259094,-1.0731761455535889,0.6836614012718201
1733359979203497200,4.681497314453125,0.5374951362609863,-1.179116129875183,0.6994097232818604
1733359979213463000,4.691463134765625,0.5255396962165833,-1.2715712785720825,0.7086916565895081
1733359979223428000,4.701427978515625,0.43902555108070374,-1.335641860961914,0.6687543392181396
1733359979233394200,4.711394287109375,0.3300756514072418,-1.3703622817993164,0.5492343306541443
1733359979243359000,4.72135888671875,0.24186961352825165,-1.412530541419983,0.4299817383289337
1733359979253325000,4.731324951171875,0.22779880464076996,-1.2369943857192993,0.36824753880500793
1733359979263290000,4.7412900390625,0.288261353969574,-0.815843939781189,0.25902941823005676
1733359979273256000,4.751255859375,0.191875159740448,-0.5407657623291016,0.33488479256629944
1733359979283222000,4.761221923828125,0.051233358681201935,-0.26486629247665405,0.37370380759239197
1733359979293187000,4.77118701171875,0.02605157345533371,-0.2382485270500183,0.4528939723968506
1733359979303153200,4.781153076171875,0.09055706113576889,-0.09283353388309479,0.4846194088459015
1733359979313118000,4.791117919921875,0.1524321436882019,-0.030309436842799187,0.4650731384754181
1733359979323084000,4.801083984375,0.24226243793964386,0.06208733841776848,0.5228222012519836
1733359979333049000,4.811049072265625,0.32228803634643555,0.289684534072876,0.5264750123023987
1733359979343015200,4.82101513671875,0.37303563952445984,0.33959484100341797,0.5710283517837524
1733359979352980200,4.830980224609375,0.4593111276626587,0.46285340189933777,0.5767698287963867
1733359979362946000,4.840946044921875,0.5726462006568909,0.5862299203872681,0.5011965036392212
1733359979372911000,4.8509111328125,0.709448516368866,0.6735520362854004,0.42692336440086365
1733359979382877200,4.860877197265625,0.8693609833717346,0.9450322985649109,0.3266103267669678
1733359979392843000,4.870843017578125,0.9242668151855469,1.3093199729919434,0.12474486231803894
1733359979402808000,4.88080810546875,0.7671395540237427,1.5762667655944824,-0.08913999795913696
1733359979412774100,4.890774169921875,0.7588299512863159,1.7709813117980957,-0.21705427765846252
1733359979422739000,4.900739013671875,0.71937096118927,1.9280258417129517,-0.2818114459514618
1733359979432705300,4.910705322265625,0.661469042301178,2.0121657848358154,-0.36234650015830994
1733359979442670000,4.920670166015625,0.6194560527801514,2.049513339996338,-0.4956451654434204
1733359979452636000,4.930635986328125,0.5616180300712585,2.1227636337280273,-0.5929757356643677
1733359979462601200,4.940601318359375,0.49790671467781067,2.241365909576416,-0.6594173312187195
1733359979472567000,4.950567138671875,0.4922725260257721,2.337641477584839,-0.7228538393974304
1733359979482532000,4.960531982421875,0.4549584686756134,2.480539321899414,-0.7970367074012756
1733359979492498200,4.970498291015625,0.43523961305618286,2.6455018520355225,-0.8137688040733337
1733359979502463000,4.980462890625,0.4976537227630615,2.7184972763061523,-0.6705679893493652
1733359979512429000,4.990428955078125,0.6580327749252319,2.513941526412964,-0.4640139937400818
1733359979522395100,5.00039501953125,0.8013952374458313,2.0702717304229736,-0.25908374786376953
1733359979532360200,5.010360107421875,0.8844453692436218,1.4402681589126587,-0.11044954508543015
1733359979542326000,5.020325927734375,0.8635028004646301,0.802983820438385,-0.15332989394664764
1733359979552291000,5.030291015625,0.8140037059783936,0.3388555645942688,-0.37456268072128296
1733359979562257200,5.040257080078125,0.878594160079956,0.28129640221595764,-0.6488432288169861
1733359979572222000,5.050221923828125,0.8762351274490356,0.72430819272995,-0.849382758140564
1733359979582188000,5.06018798828125,0.8301853537559509,1.435115933418274,-0.9470094442367554
1733359979592153000,5.070153076171875,0.7976457476615906,1.9339747428894043,-1.0226850509643555
1733359979602120000,5.080119873046875,0.8204661011695862,2.110712766647339,-0.9722652435302734
1733359979612085800,5.090085693359375,0.9186917543411255,2.017169713973999,-1.060520052909851
1733359979622051000,5.100051025390625,0.9827703237533569,1.8649413585662842,-1.1711690425872803
1733359979632017000,5.110016845703125,1.0817046165466309,1.7772014141082764,-1.2628225088119507
1733359979641982000,5.11998193359375,1.2161308526992798,1.6353275775909424,-1.3957855701446533
1733359979651948000,5.129947998046875,1.194569706916809,1.6239956617355347,-1.484259843826294
1733359979661912800,5.139912841796875,0.9590482711791992,1.6568502187728882,-1.5002102851867676
1733359979671879000,5.14987890625,0.6224113702774048,1.5954006910324097,-1.3895682096481323
1733359979681844000,5.159843994140625,0.25921639800071716,1.3285878896713257,-1.1683212518692017
1733359979691809800,5.169809814453125,-0.06544078886508942,0.8572260141372681,-0.8773158192634583
1733359979701774800,5.17977490234375,-0.29444921016693115,0.2149709016084671,-0.5405151844024658
1733359979711741000,5.189740966796875,-0.5461344122886658,-0.4720434248447418,-0.18799307942390442
1733359979721706000,5.1997060546875,-0.9335756301879883,-0.9337322115898132,0.10948601365089417
1733359979731671800,5.209671875,-1.3509843349456787,-1.134366512298584,0.48409929871559143
1733359979741638000,5.219637939453125,-1.7076470851898193,-1.3084880113601685,0.8246123790740967
1733359979751603000,5.22960302734375,-1.9818317890167236,-1.5394357442855835,1.1618762016296387
1733359979761569000,5.239569091796875,-2.035003423690796,-1.716775894165039,1.359473466873169
1733359979771534000,5.2495341796875,-1.9017512798309326,-2.0415139198303223,1.342735767364502
1733359979781500000,5.2595,-1.666428565979004,-2.188708782196045,1.0432685613632202
1733359979791464700,5.269464599609375,-1.421655297279358,-2.0401971340179443,0.6694060564041138
1733359979801431000,5.27943115234375,-1.2831456661224365,-1.699823021888733,0.49629443883895874
1733359979811395800,5.289395751953125,-1.2343589067459106,-1.3546943664550781,0.522122859954834
1733359979821362000,5.29936181640625,-1.2054170370101929,-1.2458131313323975,0.642643928527832
1733359979831327000,5.309326904296875,-1.1345281600952148,-1.3868669271469116,0.7587891817092896
1733359979841292800,5.319292724609375,-1.0017118453979492,-1.7916080951690674,0.7467213273048401
1733359979851259000,5.3292587890625,-0.9607462882995605,-2.3047828674316406,0.7040050029754639
1733359979861224000,5.339223876953125,-1.083011507987976,-2.664121627807617,0.6563631892204285
1733359979871189800,5.349189697265625,-1.2509565353393555,-2.7530558109283447,0.6496762633323669
1733359979881155000,5.359155029296875,-1.3843246698379517,-2.6937544345855713,0.6553357839584351
1733359979891121000,5.369120849609375,-1.4022659063339233,-2.4444191455841064,0.613506555557251
1733359979901086000,5.3790859375,-1.2153666019439697,-2.0546202659606934,0.536096453666687
1733359979911052000,5.389052001953125,-0.8536930680274963,-1.5637285709381104,0.510164737701416
1733359979921016800,5.399016845703125,-0.510775089263916,-1.1305683851242065,0.5593485236167908
1733359979930983000,5.40898291015625,-0.31027477979660034,-0.8824360370635986,0.6051386594772339
1733359979940948000,5.418947998046875,-0.2358812391757965,-0.8385343551635742,0.5779123306274414
1733359979950913800,5.428913818359375,-0.25702035427093506,-0.8023393154144287,0.4882069528102875
1733359979960879900,5.4388798828125,-0.29047471284866333,-0.7370607256889343,0.4622323513031006
1733359979970845000,5.448844970703125,-0.3049391210079193,-0.6085461378097534,0.5338061451911926
1733359979980811000,5.45881103515625,-0.33229485154151917,-0.4769822657108307,0.6244910359382629
1733359979990775800,5.46877587890625,-0.3790799379348755,-0.33045995235443115,0.6583051681518555
1733359980000742000,5.478741943359375,-0.4116069972515106,-0.1899784654378891,0.6330110430717468
1733359980010707000,5.48870703125,-0.40227022767066956,-0.04030667617917061,0.5650772452354431
1733359980020672800,5.4986728515625,-0.35351279377937317,0.06228015199303627,0.4898506700992584
1733359980030638000,5.50863818359375,-0.2774377465248108,0.17466315627098083,0.39570313692092896
1733359980040604000,5.51860400390625,-0.21929267048835754,0.2798750698566437,0.3031313717365265
1733359980050568700,5.528568603515625,-0.16425205767154694,0.36035099625587463,0.24164192378520966
1733359980060535000,5.53853515625,-0.09973644465208054,0.4477817714214325,0.21821115911006927
1733359980070499800,5.548499755859375,-0.013048956170678139,0.5948540568351746,0.19434258341789246
1733359980080466000,5.5584658203125,0.10451202839612961,0.8559442162513733,0.11940815299749374
1733359980090432000,5.568431884765625,0.27656662464141846,1.2224103212356567,-0.009236374869942665
1733359980100396800,5.578396728515625,0.4264530539512634,1.560702919960022,-0.17071901261806488
1733359980110363000,5.58836279296875,0.5330141186714172,1.7035911083221436,-0.26127979159355164
1733359980120328000,5.598327880859375,0.6083586812019348,1.6582462787628174,-0.2231113761663437
1733359980130293800,5.608293701171875,0.5301602482795715,1.6341124773025513,-0.2293543666601181
1733359980140259000,5.618259033203125,0.3531673848628998,1.58514404296875,-0.28408417105674744
1733359980150225000,5.628224853515625,0.1588359922170639,1.558463215827942,-0.3336767852306366
1733359980160190000,5.63818994140625,-0.07227393239736557,1.3966822624206543,-0.4066929221153259
1733359980170156000,5.648156005859375,-0.2842375934123993,1.147302269935608,-0.5235157012939453
1733359980180120800,5.658120849609375,-0.449617475271225,0.7898208498954773,-0.5820444822311401
1733359980190087000,5.6680869140625,-0.5023347735404968,0.40173572301864624,-0.5617451071739197
1733359980200053000,5.678052978515625,-0.4578818082809448,0.16530214250087738,-0.48259249329566956
1733359980210017800,5.688017822265625,-0.3886271119117737,0.10727985203266144,-0.3822203278541565
1733359980219984000,5.69798388671875,-0.3265392482280731,0.1625005006790161,-0.28345435857772827
1733359980229949000,5.707948974609375,-0.26399117708206177,0.23289743065834045,-0.19554339349269867
1733359980239915000,5.7179150390625,-0.18196527659893036,0.28048279881477356,-0.12072908133268356
1733359980249879800,5.7278798828125,-0.10541324317455292,0.2956859767436981,-0.07826950401067734
1733359980259846000,5.737845947265625,-0.04909670725464821,0.2826617956161499,-0.07586733251810074
1733359980269811000,5.74781103515625,-0.013351225294172764,0.27955788373947144,-0.09691163152456284
1733359980279776800,5.75777685546875,-0.001484445994719863,0.2801957130432129,-0.12403859198093414
1733359980289742000,5.7677421875,-0.01227477565407753,0.26920005679130554,-0.14871864020824432
1733359980299708000,5.7777080078125,-0.036315396428108215,0.25557583570480347,-0.16502916812896729
1733359980309674000,5.787674072265625,-0.057616423815488815,0.22857671976089478,-0.16739006340503693
1733359980319639000,5.79763916015625,-0.05471384525299072,0.18707774579524994,-0.15725725889205933
1733359980329604900,5.80760498046875,-0.03207910805940628,0.16398388147354126,-0.13110022246837616
1733359980339570000,5.81756982421875,0.010660899803042412,0.14556971192359924,-0.09804613888263702
1733359980349536000,5.827535888671875,0.06296618282794952,0.10400496423244476,-0.07667240500450134
1733359980359500800,5.837500732421875,0.09417576342821121,0.05826490372419357,-0.06584160029888153
1733359980369467100,5.847467041015625,0.11167699843645096,0.016567524522542953,-0.056835584342479706
1733359980379432000,5.857431884765625,0.12993696331977844,-0.006487726699560881,-0.038296520709991455
1733359980389397800,5.867397705078125,0.14593137800693512,-0.017135577276349068,-0.021229121834039688
1733359980399362800,5.87736279296875,0.15530197322368622,-0.02353089302778244,-0.0010367685463279486
1733359980409329000,5.887328857421875,0.1552170217037201,-0.01840990036725998,0.01714995875954628
1733359980419294700,5.897294677734375,0.14441603422164917,-0.02028157003223896,0.023564182221889496
1733359980429260000,5.907260009765625,0.12729963660240173,-0.01335841603577137,0.02696477249264717
1733359980439225900,5.917225830078125,0.10922528803348541,-0.007977765053510666,0.023366309702396393
1733359980449191000,5.92719091796875,0.08804596960544586,-0.007919175550341606,0.012496350333094597
1733359980459157000,5.937156982421875,0.05278332158923149,-0.013230318203568459,0.0036304211243987083
1733359980469122000,5.9471220703125,0.01937556266784668,-0.019298063591122627,-0.0019017633749172091
1733359980479087900,5.957087890625,-0.01503860391676426,-0.0102553004398942,0.00042557314736768603
1733359980489053000,5.967052978515625,-0.035056788474321365,0.016276441514492035,-0.005240568425506353
1733359980499019000,5.97701904296875,-0.048716139048337936,0.05525926128029823,-0.021621938794851303
1733359980508983800,5.98698388671875,-0.046602923423051834,0.0973646342754364,-0.04850255325436592
1733359980518950000,5.996949951171875,-0.042086999863386154,0.15152454376220703,-0.07220042496919632
1733359980528915000,6.0069150390625,-0.03491697087883949,0.20390811562538147,-0.09688926488161087
1733359980538880800,6.016880859375,-0.024412931874394417,0.2520993649959564,-0.11294972151517868
1733359980548846800,6.026846923828125,-0.01512915175408125,0.28725335001945496,-0.11905129253864288
1733359980558812000,6.03681201171875,-0.006163619924336672,0.3091370761394501,-0.12699151039123535
1733359980568777700,6.04677783203125,0.05583130940794945,0.250973105430603,-0.08162295818328857
1733359980578743000,6.056742919921875,0.05023733898997307,0.28562214970588684,-0.10216657817363739
1733359980588708900,6.066708984375,0.042635612189769745,0.25162556767463684,-0.14073847234249115
1733359980598673700,6.076673583984375,0.049077264964580536,0.20416244864463806,-0.12500052154064178
1733359980608639700,6.0866396484375,0.04555150493979454,0.17643122375011444,-0.10141317546367645
1733359980618604500,6.0966044921875,0.04695659130811691,0.16390851140022278,-0.07716669142246246
1733359980628571000,6.10657080078125,0.03399445116519928,0.1824941784143448,-0.06795774400234222
1733359980638535700,6.11653564453125,0.022733541205525398,0.20228944718837738,-0.07553204149007797
1733359980648501800,6.126501708984375,0.03455611318349838,0.20453663170337677,-0.06708582490682602
1733359980658467800,6.1364677734375,0.0461384654045105,0.18034766614437103,-0.054127950221300125
1733359980668432600,6.1464326171875,0.049259159713983536,0.13600631058216095,-0.05213324353098869
1733359980678398700,6.156398681640625,0.05174015834927559,0.09233685582876205,-0.04833877086639404
1733359980688363800,6.16636376953125,0.09928717464208603,0.06515423208475113,-0.02420014515519142
1733359980698329600,6.17632958984375,0.04488598182797432,0.044247355312108994,0.005813414230942726
1733359980708294700,6.186294677734375,-0.00743314903229475,0.007992945611476898,0.013338175602257252
1733359980718260700,6.1962607421875,-0.01890072040259838,-0.019880231469869614,0.03310761973261833
1733359980728225800,6.206225830078125,-0.0073535204865038395,-0.04464523121714592,0.0415240079164505
1733359980738191600,6.216191650390625,-0.011570902541279793,-0.060563478618860245,0.0403309129178524
1733359980748156700,6.22615673828125,-0.11021997779607773,-0.05481104925274849,-0.0065527078695595264
1733359980758122800,6.236122802734375,-0.02382863312959671,-0.15766313672065735,0.04872998967766762
1733359980768087600,6.246087646484375,-0.0032431974541395903,-0.09954763203859329,0.06342131644487381
1733359980778054000,6.256053955078125,-0.014067615382373333,-0.10221664607524872,0.01085877325385809
1733359980788019700,6.266019775390625,-0.010778611525893211,-0.06478378921747208,0.005147091578692198
1733359980797984500,6.275984619140625,0.03193476423621178,-0.046666305512189865,0.019692212343215942
1733359980807950800,6.285950927734375,0.05212685093283653,-0.0483907014131546,0.028860410675406456
1733359980817915600,6.29591552734375,0.029566681012511253,-0.053528472781181335,0.00920521654188633
1733359980827881700,6.3058818359375,0.0652351975440979,-0.08392871916294098,0.041673678904771805
1733359980837846800,6.3158466796875,0.011387410573661327,-0.05522863566875458,0.011858257465064526
1733359980847812600,6.3258125,0.02112525887787342,-0.06863205879926682,0.019298329949378967
1733359980857777700,6.335777587890625,0.024297615513205528,-0.05421184003353119,0.03464373201131821
1733359980867743700,6.34574365234375,0.024093618616461754,-0.018267953768372536,0.02106666937470436
1733359980877708800,6.355708740234375,0.013570403680205345,0.024823857471346855,0.001386441639624536
1733359980887675000,6.3656748046875,0.016869528219103813,0.049320146441459656,-0.006475476082414389
1733359980897640700,6.375640625,0.011097125709056854,0.06997908651828766,-0.01744050905108452
1733359980907605800,6.385605712890625,0.0017148094484582543,0.07581353932619095,-0.032933447510004044
1733359980917571800,6.39557177734375,-0.005437375977635384,0.08170738071203232,-0.03322106972336769
1733359980927536600,6.40553662109375,-0.01449878141283989,0.08218355476856232,-0.034035198390483856
1733359980937502700,6.415502685546875,-0.02305631712079048,0.07100226730108261,-0.028084365651011467
1733359980947467800,6.4254677734375,-0.030846862122416496,0.04650278761982918,-0.014064952731132507
1733359980957433600,6.43543359375,-0.043650541454553604,0.015562181361019611,-0.0010410296963527799
1733359980967398700,6.445398681640625,-0.05492636561393738,-0.003998203668743372,0.0034855452831834555
1733359980977364700,6.45536474609375,-0.062059640884399414,-0.006602775305509567,0.00720571493729949
1733359980987329800,6.465329833984375,-0.06454703211784363,0.005290902219712734,0.004506601020693779
1733359980997295600,6.475295654296875,-0.06501814723014832,0.03002501092851162,-0.005519667640328407
1733359981007261700,6.48526171875,-0.06746292859315872,0.058395933359861374,-0.008146610110998154
1733359981017226800,6.495226806640625,-0.02977786958217621,0.039433691650629044,0.02564171329140663
1733359981027192600,6.505192626953125,-0.046731818467378616,0.0769917219877243,0.0005049353349022567
1733359981037158000,6.515157958984375,-0.030107835307717323,0.03955353423953056,-0.018012555316090584
1733359981047123700,6.525123779296875,-0.026516295969486237,0.01606525294482708,-0.004856540355831385
1733359981057088500,6.535088623046875,-0.023423034697771072,-0.005605421494692564,-0.0015659386990591884
1733359981067054800,6.545054931640625,-0.021462680771946907,-0.01782027631998062,0.006870422977954149
1733359981077019600,6.55501953125,-0.016572585329413414,-0.02387923374772072,0.01649135909974575
1733359981086985500,6.5649853515625,-0.006905043963342905,-0.023541279137134552,0.01715634949505329
1733359981096950800,6.57495068359375,0.0003062635369133204,-0.013734720647335052,0.010713630355894566
1733359981106916600,6.58491650390625,0.003918308764696121,0.0010934938909485936,0.003995806910097599
1733359981116881700,6.594881591796875,0.007135407533496618,0.0062123560346663,0.0024772724136710167
1733359981126847700,6.60484765625,0.00854421965777874,0.004339887294918299,0.002429601736366749
1733359981136813600,6.6148134765625,0.01071256585419178,-0.00413482403382659,0.006389722228050232
1733359981146778600,6.624778564453125,0.009349559433758259,-0.01834225468337536,0.007782822009176016
1733359981156744700,6.63474462890625,0.004991030320525169,-0.02864735759794712,0.00628932099789381
1733359981166709800,6.644709716796875,0.0005062668933533132,-0.02562892995774746,0.008137554861605167
1733359981176675800,6.65467578125,-0.0022098910994827747,-0.02177853137254715,0.0138377845287323
1733359981186640600,6.664640625,-0.002103897277265787,-0.02852085791528225,0.013169597834348679
1733359981196606700,6.674606689453125,-0.006464823614805937,-0.02532186731696129,0.010450243949890137
1733359981206571800,6.68457177734375,-0.006262423470616341,-0.02323608100414276,0.010037187486886978
1733359981216537600,6.69453759765625,-0.007407050114125013,-0.02743428759276867,0.008506668731570244
1733359981226502700,6.704502685546875,-0.0095684714615345,-0.028654547408223152,0.008474711328744888
1733359981236468700,6.71446875,-0.012381834909319878,-0.021576665341854095,0.004326038993895054
1733359981246434800,6.724434814453125,-0.012192217633128166,-0.009335178881883621,0.005453088786453009
1733359981256399600,6.734399658203125,-0.009387643076479435,-0.010496050119400024,0.008916796185076237
1733359981266365700,6.74436572265625,-0.00929310079663992,-0.01672784797847271,0.009821471758186817
1733359981276330800,6.754330810546875,-0.00740278884768486,-0.01531663816422224,0.006112221162766218
1733359981286296600,6.764296630859375,-0.005665608681738377,0.00013422331539914012,-0.0029284118209034204
1733359981296262000,6.774261962890625,-0.00446984963491559,0.01780509576201439,-0.009050486609339714
1733359981306227700,6.784227783203125,-0.006104231346398592,0.026943467557430267,-0.014239389449357986
1733359981316192500,6.794192626953125,-0.007266967557370663,0.03145645931363106,-0.02136148139834404
1733359981326158800,6.804158935546875,-0.009829195216298103,0.0438566692173481,-0.027125626802444458
1733359981336123600,6.81412353515625,-0.008518652990460396,0.053150568157434464,-0.02545635774731636
1733359981346089700,6.82408984375,-0.006227003410458565,0.04259193316102028,-0.01552596315741539
1733359981356054800,6.8340546875,-0.007441138383001089,0.018456505611538887,-0.007321029901504517
1733359981366020600,6.8440205078125,-0.010724815540015697,-0.0013206616276875138,-0.0029979203827679157
1733359981375986700,6.853986572265625,-0.008926649577915668,-0.01287691667675972,0.00395719101652503
1733359981385951700,6.86395166015625,-0.006720753386616707,-0.020772390067577362,0.007567904889583588
1733359981395917600,6.87391748046875,-0.009191101416945457,-0.02550536021590233,0.005423794034868479
1733359981405882600,6.883882568359375,-0.007407848723232746,-0.018981680274009705,0.0010660634143278003
1733359981415848700,6.8938486328125,-0.00809148233383894,-0.013601296581327915,-0.004157460760325193
1733359981425813800,6.903813720703125,-0.0051984903402626514,-0.006246710661798716,-0.010979680344462395
1733359981435779800,6.91377978515625,-0.006650978233665228,0.003100185887888074,-0.01649455353617668
1733359981445744600,6.92374462890625,-0.0031318773981183767,0.015203453600406647,-0.01685807667672634
1733359981455710700,6.933710693359375,0.0002759034978225827,0.010669955052435398,-0.013743242248892784
1733359981465675500,6.943675537109375,0.00010492854926269501,0.00404480891302228,-0.010520018637180328
1733359981475641600,6.9536416015625,0.00023675501870457083,0.0019531622529029846,-0.009095493704080582
1733359981485607700,6.963607666015625,0.0003195793251506984,0.004559065215289593,-0.007545001804828644
1733359981495572700,6.97357275390625,0.00010599380766507238,0.002993126632645726,-0.0025595640763640404
1733359981505538800,6.983538818359375,0.00105301383882761,-0.0017648768844082952,-0.00036511936923488975
1733359981515503600,6.993503662109375,0.0030599720776081085,0.002968092914670706,0.0012828446924686432
1733359981525469700,7.0034697265625,0.0014141384745016694,0.007187339011579752,-0.0004191815387457609
1733359981535434800,7.013434814453125,0.00008468852320220321,0.005408613942563534,-0.006970291491597891
1733359981545400600,7.023400634765625,-0.0011515507940202951,0.011949869804084301,-0.006768424063920975
1733359981555366000,7.033365966796875,-0.00040266994619742036,0.016525980085134506,-0.004653341136872768
1733359981565331700,7.043331787109375,0.00293373828753829,0.01841602474451065,-0.0012237224727869034
1733359981575296800,7.053296875,0.0035547874867916107,0.016406670212745667,-0.002038117265328765
1733359981585262800,7.063262939453125,0.004628307651728392,0.02034628391265869,-0.0027076357509940863
1733359981595228700,7.073228759765625,0.0033007217571139336,0.027877703309059143,-0.005380650516599417
1733359981605194000,7.083194091796875,0.0038128476589918137,0.038058970123529434,-0.0068062408827245235
1733359981615160000,7.09316015625,0.003668237943202257,0.046068958938121796,-0.007671768311411142
1733359981625124900,7.103124755859375,0.003778493031859398,0.05113349109888077,-0.008963401429355145
1733359981635091000,7.113091064453125,0.004631503485143185,0.05261554196476936,-0.006786266807466745
1733359981645056000,7.123055908203125,-0.015532353892922401,0.06220931187272072,-0.005239769350737333
1733359981655022000,7.13302197265625,-0.012253204360604286,0.05837968736886978,-0.008097341284155846
1733359981664987100,7.142987060546875,-0.009242233820259571,0.05165307596325874,-0.005057076457887888
1733359981674953000,7.152952880859375,0.00270683690905571,0.035540949553251266,-0.0068267472088336945
1733359981684918000,7.16291796875,0.013856959529221058,0.020177971571683884,-0.006476807873696089
1733359981694884000,7.172884033203125,0.013977334834635258,0.009399360977113247,-0.00410526292398572
1733359981704849000,7.182848876953125,0.010359164327383041,0.004567587748169899,0.006179865449666977
1733359981714815200,7.192815185546875,0.006313555873930454,0.004028563853353262,0.0052381716668605804
1733359981724781000,7.202781005859375,0.00507092522457242,0.0030445256270468235,0.008227303624153137
1733359981734745900,7.212745849609375,0.0011917646043002605,-0.009238239377737045,0.014801849611103535
1733359981744712200,7.222712158203125,-0.001330249011516571,-0.021321266889572144,0.02087758481502533
1733359981754677000,7.232677001953125,-0.0054914383217692375,-0.02912246435880661,0.02491626888513565
1733359981764643000,7.24264306640625,-0.006452572997659445,-0.03833167627453804,0.031860992312431335
1733359981774608100,7.252608154296875,0.021692246198654175,-0.049788061529397964,0.0795707255601883
1733359981784574000,7.262573974609375,-0.014551245607435703,0.009503223933279514,0.028509672731161118
1733359981794539000,7.2725390625,-0.013531787320971489,-0.006098638754338026,0.007439540233463049
1733359981804505000,7.282505126953125,-0.01973748579621315,-0.005251220893114805,0.012645754031836987
1733359981814470100,7.29247021484375,-0.02183765359222889,-0.0034882084000855684,0.0007757788407616317
1733359981824436000,7.30243603515625,-0.03514600172638893,0.01443965919315815,-0.0005291700945235789
1733359981834402000,7.312402099609375,-0.035949211567640305,0.022727416828274727,0.00005273058923194185
1733359981844367000,7.3223671875,-0.033551834523677826,0.025553297251462936,-0.0037180392537266016
1733359981854333000,7.3323330078125,-0.026160497218370438,0.023971911519765854,-0.009787916205823421
1733359981864298000,7.342298095703125,-0.017550764605402946,0.0232858806848526,-0.009456085972487926
1733359981874264000,7.35226416015625,-0.009398828260600567,0.014580007642507553,-0.005675196181982756
1733359981884228900,7.362228759765625,-0.0076304893009364605,0.002799514913931489,0.00011371697473805398
1733359981894195200,7.3721953125,-0.006956176832318306,-0.009491239674389362,0.0049460227601230145
1733359981904160000,7.382159912109375,-0.006682670209556818,-0.021817414090037346,0.00899695698171854
1733359981914125800,7.392125732421875,-0.003169428091496229,-0.024036893621087074,0.008891762234270573
1733359981924091100,7.402091064453125,0.0025039040483534336,-0.021768145263195038,0.00003062635369133204
1733359981934057000,7.412056884765625,0.00589703768491745,-0.008433965034782887,-0.006888266187161207
1733359981944023000,7.42202294921875,0.008309595286846161,-0.00004713794987765141,-0.010909905657172203
1733359981953988000,7.431988037109375,0.007249923422932625,-0.003025617217645049,-0.007871238514780998
1733359981963954000,7.441953857421875,0.008302138186991215,-0.020713534206151962,-0.0025481125339865685
1733359981973919000,7.4519189453125,0.006012884899973869,-0.03183436393737793,0.0007171892793849111
1733359981983885000,7.461885009765625,0.005934854503720999,-0.03239629045128822,0.003750795964151621
1733359981993850000,7.47185009765625,0.006192648317664862,-0.027708593755960464,0.00800386443734169
1733359982003816200,7.481816162109375,0.004232029430568218,-0.02636529505252838,0.01399011816829443
1733359982013781000,7.491781005859375,0.0024405207950621843,-0.031916387379169464,0.01569613814353943
1733359982023747000,7.5017470703125,-0.003065032185986638,-0.039558593183755875,0.014282266609370708
1733359982033712000,7.511712158203125,-0.0041675809770822525,-0.04819203168153763,0.015118499286472797
1733359982043678000,7.521677978515625,-0.007152718026190996,-0.048887915909290314,0.0137253999710083
1733359982053643000,7.53164306640625,-0.010377805680036545,-0.05103575438261032,0.01324283517897129
1733359982063609000,7.541609130859375,-0.007797469384968281,-0.052618205547332764,0.012019378133118153
1733359982073575000,7.551574951171875,-0.004985171370208263,-0.056836117058992386,0.010234794579446316
1733359982083540000,7.5615400390625,-0.00395719101652503,-0.056110940873622894,0.0059995693154633045
1733359982093506000,7.571506103515625,-0.0006945523782633245,-0.05351169407367706,0.006624347064644098
1733359982103471000,7.58147119140625,-0.002121207769960165,-0.04671104624867439,0.014536065980792046
1733359982113437000,7.59143701171875,-0.004720719531178474,-0.04279246926307678,0.02364407666027546
1733359982123402200,7.60140234375,-0.007454986684024334,-0.046600792557001114,0.028793830424547195
1733359982133368000,7.6113681640625,-0.008756207302212715,-0.05096517875790596,0.02804042212665081
1733359982143332900,7.621332763671875,-0.009281649254262447,-0.047082822769880295,0.02437564730644226
1733359982153299200,7.63129931640625,-0.011320564895868301,-0.037342045456171036,0.016228504478931427
1733359982163264000,7.641263916015625,-0.01239062286913395,-0.027935227379202843,0.011531753465533257
1733359982173229800,7.651229736328125,-0.011452391743659973,-0.013370666652917862,0.0035510589368641376
1733359982183196200,7.661196044921875,-0.00583605095744133,0.00037763622822239995,-0.008226504549384117
1733359982193161000,7.671160888671875,-0.001002413802780211,0.010479005984961987,-0.01986025646328926
1733359982203127000,7.681126953125,0.0065473816357553005,0.017843445762991905,-0.02682974934577942
1733359982213092000,7.691092041015625,0.01690441556274891,0.017425861209630966,-0.02261476404964924
1733359982223058000,7.701057861328125,0.021943913772702217,0.0011699266033247113,-0.0190178994089365
1733359982233023000,7.71102294921875,0.029155222699046135,-0.0148623026907444,-0.01642238348722458
1733359982242989000,7.720989013671875,0.03256859630346298,-0.027591681107878685,-0.01441036444157362
1733359982252954000,7.7309541015625,0.036430180072784424,-0.03328179195523262,-0.012811402790248394
1733359982262920200,7.740920166015625,0.04266863316297531,-0.030652184039354324,-0.013015666976571083
1733359982272885000,7.750885009765625,0.046302516013383865,-0.01966691203415394,-0.017799770459532738
1733359982282851000,7.76085107421875,0.04544924199581146,-0.00019574233738239855,-0.028479045256972313
1733359982292816000,7.77081591796875,0.040202546864748,0.012626845389604568,-0.035423506051301956
1733359982302782000,7.780781982421875,0.0340581014752388,0.013348029926419258,-0.03634895384311676
1733359982312748000,7.790748046875,0.02628859505057335,0.0018359832465648651,-0.032946765422821045
1733359982322713000,7.800713134765625,0.01720668375492096,-0.008467254228889942,-0.021252823993563652
1733359982332679000,7.810678955078125,0.005455485545098782,-0.014436730183660984,-0.007845140062272549
1733359982342644000,7.82064404296875,-0.005025917664170265,-0.02298334613442421,0.0029254823457449675
1733359982352610000,7.830610107421875,-0.01745568960905075,-0.02966148965060711,0.008385761640965939
1733359982362575000,7.8405751953125,-0.0291147418320179,-0.02899276837706566,0.013668674044311047
1733359982372541000,7.850541015625,-0.03718838095664978,-0.024939704686403275,0.01395842619240284
1733359982382506200,7.86050634765625,-0.03658917173743248,-0.022363362833857536,0.013198093511164188
1733359982392472000,7.87047216796875,-0.03792474418878555,-0.020421652123332024,0.013319267891347408
1733359982402436900,7.880436767578125,-0.043950412422418594,-0.02118145115673542,0.015185077674686909
1733359982412403200,7.8904033203125,-0.04790813848376274,-0.017014402896165848,0.009815612807869911
1733359982422369000,7.900369140625,-0.05408480763435364,-0.012871324084699154,0.000767523015383631
1733359982432333800,7.910333740234375,-0.05656128004193306,0.00037470675306394696,-0.008199873380362988
1733359982442300200,7.920300048828125,-0.05681055039167404,0.018692195415496826,-0.013737916015088558
1733359982452265000,7.930264892578125,-0.05332979932427406,0.04061746597290039,-0.015971509739756584
1733359982462231000,7.94023095703125,-0.04824183136224747,0.0499529130756855,-0.018098309636116028
1733359982472196000,7.950196044921875,-0.04303162172436714,0.05288398638367653,-0.01968049444258213
1733359982482162000,7.960161865234375,-0.03832634910941124,0.052562542259693146,-0.02215483784675598
1733359982492127000,7.970126953125,-0.03784937784075737,0.054723698645830154,-0.015516641549766064
1733359982502093000,7.980093017578125,-0.028324048966169357,0.05152417719364166,-0.01296586636453867
1733359982512058000,7.99005810546875,-0.0149211585521698,0.053164683282375336,-0.00654551712796092
1733359982522024000,8.00002392578125,-0.003570766421034932,0.05278172343969345,-0.004207528196275234
1733359982531990000,8.009989990234375,0.00373082235455513,0.05068448185920715,-0.0005067995516583323
1733359982541955000,8.019955078125,0.0067993164993822575,0.05752188339829445,-0.00108284130692482
1733359982551921200,8.029921142578125,0.013909423723816872,0.07166273146867752,-0.00809361319988966
1733359982561886000,8.039885986328125,0.018457571044564247,0.08215931802988052,-0.01248170342296362
1733359982571852000,8.04985205078125,0.021615546196699142,0.08385814726352692,-0.019172895699739456
1733359982581817000,8.059817138671875,0.02261556312441826,0.0766332596540451,-0.02213965728878975
1733359982591783200,8.069783203125,0.02021392434835434,0.07166247069835663,-0.018823223188519478
1733359982601747700,8.079747802734374,0.020475447177886963,0.06971889734268188,-0.016805078834295273
1733359982611713800,8.0897138671875,0.02111460641026497,0.06425834447145462,-0.012052401900291443
1733359982621678800,8.099678955078126,0.021814484149217606,0.05516764894127846,-0.006709301844239235
1733359982631644700,8.109644775390626,0.02298494428396225,0.04722317308187485,-0.005606220569461584
1733359982641610000,8.11960986328125,0.02022138237953186,0.04486707225441933,-0.007106379140168428
1733359982651575800,8.129575927734376,0.018788069486618042,0.04132107272744179,-0.00986461527645588
1733359982661542000,8.1395419921875,0.021229654550552368,0.02688620798289776,-0.011539743281900883
1733359982671507000,8.1495068359375,0.018141187727451324,0.006941263098269701,-0.00974290817975998
1733359982681472800,8.15947265625,0.015035408549010754,-0.016163524240255356,-0.007396130822598934
1733359982691437800,8.169437744140625,0.010600713081657887,-0.031323835253715515,-0.0005222458858042955
1733359982701404000,8.17940380859375,0.008190818130970001,-0.03527463227510452,0.004602475091814995
1733359982711368700,8.18936865234375,0.008191883563995361,-0.029931800439953804,0.006388923618942499
1733359982721335000,8.1993349609375,0.010369816794991493,-0.02708141878247261,0.00509915454313159
1733359982731299800,8.2092998046875,0.009915214963257313,-0.023016901686787605,0.003748132847249508
1733359982741265700,8.219265625,0.00908670574426651,-0.018218684941530228,0.0014807175612077117
1733359982751230700,8.229230712890624,0.006588927004486322,-0.014934740960597992,-0.002210423583164811
1733359982761196800,8.23919677734375,0.003955593332648277,-0.009818275459110737,-0.002344646956771612
1733359982771162600,8.24916259765625,-0.0011491540353745222,-0.00439075380563736,-0.004054130055010319
1733359982781128000,8.2591279296875,-0.006402771919965744,0.0029888655990362167,-0.003694869577884674
1733359982791093800,8.26909375,-0.01079831924289465,0.007525027729570866,-0.007808654569089413
1733359982801058800,8.279058837890625,-0.01727166399359703,0.011031611822545528,-0.010514692403376102
1733359982811025000,8.28902490234375,-0.020749220624566078,0.013656157068908215,-0.015396000817418098
1733359982820990000,8.298989990234375,-0.021809158846735954,0.017179518938064575,-0.012665728107094765
1733359982830955800,8.308955810546875,-0.022579077631235123,0.015358982607722282,-0.006312756799161434
1733359982840920800,8.3189208984375,-0.01948847994208336,0.006717557553201914,0.0041121868416666985
1733359982850887000,8.328886962890625,-0.014986672438681126,0.004628840368241072,0.0051630702801048756
1733359982860851700,8.338851806640625,-0.010362626053392887,0.011256915517151356,0.0027920580469071865
1733359982870817800,8.34881787109375,-0.006457100156694651,0.025187378749251366,-0.005804625805467367
1733359982880782800,8.358782958984374,-0.0021499700378626585,0.038114894181489944,-0.014488128945231438
1733359982890748700,8.368748779296874,0.0024916534312069416,0.0470639131963253,-0.01968102715909481
1733359982900714800,8.37871484375,0.002222141483798623,0.0503060482442379,-0.023379357531666756
1733359982910679800,8.3886796875,0.002588326344266534,0.039329297840595245,-0.024225711822509766
1733359982920645600,8.398645751953126,0.0017033577896654606,0.021830463781952858,-0.020122578367590904
1733359982930611000,8.40861083984375,0.002398176584392786,0.0026405241806060076,-0.012240154668688774
1733359982940576800,8.41857666015625,0.00242107966914773,-0.014879346825182438,0.0019267969764769077
1733359982950541800,8.428541748046875,0.0005342300864867866,-0.028169851750135422,0.006490656174719334
1733359982960508000,8.4385078125,0.00115421402733773,-0.032947298139333725,0.008801747113466263
1733359982970472700,8.44847265625,0.001957956003025174,-0.02996242605149746,0.005019259639084339
1733359982980438800,8.458438720703125,0.002906573936343193,-0.023680828511714935,-0.0015097459545359015
1733359982990403800,8.46840380859375,0.0023816649336367846,-0.012465458363294601,-0.007355118170380592
1733359983000369700,8.47836962890625,0.0038392129354178905,-0.002996056107804179,-0.011481686495244503
1733359983010336000,8.4883359375,0.00675217853859067,0.002688727341592312,-0.014796788804233074
1733359983020300800,8.49830078125,0.006684534251689911,0.004325506277382374,-0.014761368744075298
1733359983030267000,8.508266845703124,0.00692075677216053,-0.0011720572365447879,-0.013965350575745106
1733359983040232000,8.51823193359375,0.007759386207908392,-0.006660033017396927,-0.01113281212747097
1733359983050197800,8.52819775390625,0.007425425574183464,-0.017227189615368843,-0.005619802512228489
1733359983060162800,8.538162841796876,0.0067689563147723675,-0.026085397228598595,-0.002130795270204544
1733359983070129000,8.54812890625,0.007595867849886417,-0.028902754187583923,0.0007257114048115909
1733359983080094000,8.558093994140625,0.005872270092368126,-0.02815600484609604,0.00007110639853635803
1733359983090059800,8.568059814453125,0.0065292720682919025,-0.02429788187146187,-0.0004916195175610483
1733359983100024800,8.57802490234375,0.0041401502676308155,-0.023320501670241356,0.002439721953123808
1733359983109991000,8.587990966796875,0.004342550411820412,-0.02197454124689102,0.001401089015416801
1733359983119956700,8.597956787109375,-0.000499875342939049,-0.012593023478984833,-0.0011664645280689
1733359983129921800,8.607921875,-0.004856540355831385,-0.005364671815186739,-0.0033334787003695965
1733359983139887900,8.617887939453125,-0.0035606464371085167,0.0033862092532217503,-0.006136189214885235
1733359983149852700,8.627852783203124,-0.0021859225817024708,0.012649215757846832,-0.0133275231346488
1733359983159819000,8.637819091796874,0.00030173614504747093,0.018508702516555786,-0.02184670977294445
1733359983169783800,8.64778369140625,0.0020602215081453323,0.0211297869682312,-0.023392407223582268
1733359983179749600,8.65774951171875,0.004324174486100674,0.01847168430685997,-0.02082165889441967
1733359983189715000,8.66771484375,0.0009182579233311117,0.013467871583998203,-0.01738271862268448
1733359983199680800,8.6776806640625,-0.00010599380766507238,0.008889631368219852,-0.014093182049691677
1733359983209645800,8.687645751953125,0.000811997801065445,0.007799067068845034,-0.011965050362050533
1733359983219612000,8.69761181640625,-0.0037550569977611303,0.00814927276223898,-0.011179950088262558
1733359983229576700,8.70757666015625,-0.0031941954512149096,0.004488225560635328,-0.010819890536367893
1733359983239542800,8.717542724609375,-0.003477822057902813,-0.0005544701125472784,-0.006640858482569456
1733359983249508900,8.7275087890625,0.0010048106778413057,-0.006232862360775471,-0.004479703027755022
1733359983259474000,8.737473876953125,-0.00041332258842885494,-0.01569480635225773,-0.003552124137058854
1733359983269440000,8.74743994140625,-0.0011355718597769737,-0.018449580296874046,-0.001966478070244193
1733359983279404800,8.75740478515625,0.0011001517996191978,-0.015782691538333893,-0.002953445538878441
1733359983289371000,8.767370849609375,0.0038924762047827244,-0.015575497411191463,-0.0033217607997357845
1733359983299335700,8.777335693359374,0.0027683558873832226,-0.02069436013698578,-0.0015345134306699038
1733359983309301800,8.7873017578125,0.006324474699795246,-0.02660524472594261,0.004914863966405392
1733359983319266800,8.797266845703126,0.004224572330713272,-0.03863820433616638,0.011334147304296494
1733359983329233000,8.80723291015625,0.006616090890020132,-0.051713526248931885,0.014681474305689335
1733359983339198000,8.817197998046876,0.0060445768758654594,-0.0507928729057312,0.017185378819704056
1733359983349163800,8.827163818359375,0.008489890955388546,-0.039254993200302124,0.0169166661798954
1733359983359129900,8.8371298828125,0.008677643723785877,-0.032650887966156006,0.013459083624184132
1733359983369095000,8.847094970703125,0.007888282649219036,-0.027724571526050568,0.0075671058148145676
1733359983379060700,8.857060791015625,0.0037587855476886034,-0.02448616735637188,0.0021228056866675615
1733359983389026000,8.867026123046875,0.0006942860782146454,-0.01702212728559971,-0.005907423794269562
1733359983398992000,8.876991943359375,0.000041811628761934116,-0.005540706682950258,-0.012189288623631
1733359983408956700,8.886956787109375,0.0010399643797427416,0.002287655370309949,-0.014029266312718391
1733359983418923000,8.896923095703125,0.0038131140172481537,0.00027031084755435586,-0.009475527331233025
1733359983428887800,8.9068876953125,0.003704190719872713,-0.013772537931799889,-0.0015100123127922416
1733359983438853600,8.916853515625,0.0028061727061867714,-0.03278537839651108,0.011443070136010647
1733359983448819000,8.92681884765625,0.002935868687927723,-0.05134201794862747,0.02051486261188984
1733359983458784800,8.93678466796875,0.005392634775489569,-0.07298579066991806,0.032714005559682846
1733359983468749800,8.946749755859376,0.006570817437022924,-0.08719881623983383,0.03796256333589554
1733359983478716000,8.9567158203125,0.0037199032958596945,-0.09483303874731064,0.039444345980882645
1733359983488681700,8.966681640625,0.0013249226612970233,-0.09394434094429016,0.039328232407569885
1733359983498646800,8.976646728515625,0.0000881506348378025,-0.09187159687280655,0.03730928897857666
1733359983508612900,8.98661279296875,-0.0009145294898189604,-0.08337505161762238,0.033303629606962204
1733359983518578000,8.996577880859375,-0.005294364411383867,-0.07076951116323471,0.027109649032354355
1733359983528543700,9.006543701171875,-0.00759853096678853,-0.06124338507652283,0.021943116560578346
1733359983538508800,9.0165087890625,-0.008358864113688469,-0.0595107302069664,0.01888527348637581
1733359983548475000,9.026474853515625,-0.01137063279747963,-0.055036354809999466,0.018398448824882507
1733359983558439700,9.036439697265624,-0.01167689636349678,-0.055118378251791,0.01972869783639908
1733359983568405800,9.04640576171875,-0.010706174187362194,-0.053458429872989655,0.01569427363574505
1733359983578370800,9.056370849609374,-0.010002566501498222,-0.04711185023188591,0.014607438817620277
1733359983588337000,9.0663369140625,-0.003820837242528796,-0.03915352746844292,0.010235060937702656
1733359983598302700,9.076302734375,-0.0010716560063883662,-0.0315408818423748,0.004321777727454901
1733359983608268000,9.08626806640625,0.0037862160243093967,-0.02388136461377144,0.002892725635319948
1733359983618233900,9.09623388671875,0.005709018558263779,-0.0162452831864357,-0.0027180220931768417
1733359983628199000,9.106198974609375,0.006047239992767572,-0.004920722916722298,-0.008688562549650669
1733359983638165000,9.1161650390625,0.007098922040313482,0.0032743564806878567,-0.013002350926399231
1733359983648130000,9.126130126953125,0.007512777578085661,0.011032144539058208,-0.014247112907469273
1733359983658095900,9.136095947265625,0.007513043470680714,0.01326973270624876,-0.014887602999806404
1733359983668061000,9.14606103515625,0.008687498047947884,0.010186058469116688,-0.012153602205216885
1733359983678027000,9.156027099609375,0.008444617502391338,0.004930309951305389,-0.008736499585211277
1733359983687991800,9.16599169921875,0.008641424588859081,0.005632319487631321,-0.011143464595079422
1733359983697958000,9.1759580078125,0.009601227939128876,0.013650830835103989,-0.012737632729113102
1733359983707924000,9.185924072265625,0.009954895824193954,0.023306654766201973,-0.012913402169942856
1733359983717888800,9.195888671875,0.008680307306349277,0.023517310619354248,-0.013295033015310764
1733359983727854800,9.205854736328124,0.008863532915711403,0.025377528741955757,-0.014690529555082321
1733359983737820000,9.21581982421875,0.006854177452623844,0.029621008783578873,-0.02213859185576439
1733359983747785700,9.22578564453125,0.008557002991437912,0.039091210812330246,-0.028324581682682037
1733359983757751000,9.2357509765625,0.009853163734078407,0.04517972841858864,-0.03273477777838707
1733359983767716900,9.245716796875,0.01293204352259636,0.04879976436495781,-0.036200616508722305
1733359983777682000,9.255681884765625,0.01461889035999775,0.047506533563137054,-0.03439818695187569
1733359983787648000,9.26564794921875,0.017118265852332115,0.04586469382047653,-0.03235314413905144
1733359983797612800,9.27561279296875,0.017643708735704422,0.04147473722696304,-0.02971714921295643
1733359983807579000,9.285578857421875,0.013341904617846012,0.0321962870657444,-0.015850335359573364
1733359983817544000,9.2955439453125,0.007477889768779278,0.01007820013910532,-0.010782873257994652
1733359983827509800,9.305509765625,0.002228266792371869,-0.008561263792216778,-0.0013574132462963462
1733359983837476000,9.31547607421875,-0.004878112114965916,-0.01967649906873703,0.007211041171103716
1733359983847441000,9.32544091796875,-0.006840062793344259,-0.024025708436965942,0.010691259987652302
1733359983857407000,9.335406982421874,-0.01125185564160347,-0.01715129055082798,0.003634415799751878
1733359983867371800,9.345371826171874,-0.016108395531773567,0.0005257080192677677,-0.00768748065456748
1733359983877337900,9.355337890625,-0.018737202510237694,0.018854115158319473,-0.01613236404955387
1733359983887303000,9.365302978515626,-0.01769590564072132,0.02203286439180374,-0.015548067167401314
1733359983897269000,9.37526904296875,-0.017052486538887024,0.010434531606733799,-0.015389875508844852
1733359983907234000,9.385234130859375,-0.020901819691061974,-0.002630670554935932,-0.01411448698490858
1733359983917200000,9.395199951171875,-0.017837053164839745,-0.0031675638165324926,-0.005167065188288689
1733359983927164700,9.40516455078125,-0.010688863694667816,0.002287921728566289,-0.002418150193989277
1733359983937131000,9.415131103515625,-0.003941744565963745,0.011999138630926609,-0.005619003437459469
1733359983947096800,9.425096923828125,0.002261023735627532,0.02058836631476879,-0.006807039491832256
1733359983957062000,9.435061767578125,0.008625179529190063,0.021745242178440094,-0.008502141572535038
1733359983967028000,9.445028076171875,0.009977532550692558,0.015218367800116539,-0.006623015273362398
1733359983976992800,9.45499267578125,0.012598083354532719,0.009831857867538929,-0.006176935974508524
1733359983986959000,9.464958984375,0.011571701616048813,0.007383081596344709,-0.008233961649239063
1733359983996924000,9.474923828125,0.00960016343742609,0.0032527849543839693,-0.01013945322483778
1733359984006889700,9.4848896484375,0.011640943586826324,-0.0023350596893578768,-0.007849933579564095
1733359984016855000,9.49485498046875,0.009412942454218864,-0.013590111397206783,-0.0016567525453865528
1733359984026820900,9.50482080078125,0.011261176317930222,-0.027062511071562767,0.007792409509420395
1733359984036786000,9.514785888671875,0.0046173888258636,-0.0329052209854126,0.013745106756687164
1733359984046752000,9.524751953125,0.0013555489713326097,-0.03281706944108009,0.017304155975580215
1733359984056716800,9.534716796875,0.001961684552952647,-0.02039528638124466,0.0189041830599308
1733359984066683000,9.544682861328125,-0.0044046021066606045,-0.009951700456440449,0.01722079887986183
1733359984076649000,9.55464892578125,-0.009091765619814396,-0.0026011094450950623,0.01555152889341116
1733359984086614000,9.564614013671875,-0.012148275971412659,-0.0031523837242275476,0.014116085134446621
1733359984096579800,9.574579833984375,-0.016402941197156906,-0.015122760087251663,0.016285229474306107
1733359984106545000,9.584544921875,-0.021770542487502098,-0.025969548150897026,0.018399514257907867
1733359984116511000,9.594510986328125,-0.02291863225400448,-0.03206632286310196,0.01908314786851406
1733359984126475800,9.604475830078124,-0.024474183097481728,-0.029628200456500053,0.018730543553829193
1733359984136441900,9.61444189453125,-0.028272118419408798,-0.020024308934807777,0.014391189441084862
1733359984146407000,9.624406982421876,-0.02737836167216301,-0.005558816250413656,0.009445966221392155
1733359984156373000,9.634373046875,-0.027647607028484344,0.0010247844038531184,0.0021291973534971476
1733359984166338000,9.644338134765626,-0.02936374768614769,0.006457899231463671,-0.0062485747039318085
1733359984176303900,9.654303955078126,-0.029352828860282898,0.015559518709778786,-0.015666045248508453
1733359984186270000,9.66427001953125,-0.02749394252896309,0.027601534500718117,-0.017703363671898842
1733359984196235000,9.674235107421875,-0.041251830756664276,0.04441513493657112,-0.018214955925941467
1733359984206200800,9.684200927734375,-0.03753938525915146,0.05036037415266037,-0.0238235741853714
1733359984216166100,9.694166259765625,-0.030313163995742798,0.05193803086876869,-0.02911394275724888
1733359984226132000,9.704132080078125,-0.021028585731983185,0.048892442137002945,-0.0360562726855278
1733359984236096800,9.7140966796875,-0.015268967486917973,0.04350965842604637,-0.036791037768125534
1733359984246063000,9.72406298828125,-0.0153163718059659,0.039794016629457474,-0.02990703284740448
1733359984256028000,9.73402783203125,-0.01727432757616043,0.04313761740922928,-0.027940820902585983
1733359984265993700,9.74399365234375,-0.02069196291267872,0.04628707095980644,-0.02737649716436863
1733359984275959000,9.753958984375,-0.026696059852838516,0.05270102992653847,-0.02509550005197525
1733359984285924900,9.7639248046875,-0.026623887941241264,0.04887566342949867,-0.020311929285526276
1733359984295890000,9.773889892578126,-0.015900403261184692,0.036859482526779175,-0.01515977829694748
1733359984305856000,9.78385595703125,-0.0060355220921337605,0.022289592772722244,-0.01242417935281992
1733359984315821800,9.79382177734375,0.0023398532066494226,0.005577191710472107,-0.01270008273422718
1733359984325787000,9.803786865234375,0.005961219780147076,-0.011536813341081142,-0.006587328854948282
1733359984335753000,9.8137529296875,0.006340187508612871,-0.026792731136083603,0.004749481566250324
1733359984345718000,9.823718017578125,0.005406483076512814,-0.0350370779633522,0.013316870667040348
1733359984355683800,9.833683837890625,0.007663512136787176,-0.03207165002822876,0.014811703003942966
1733359984365649000,9.84364892578125,0.010743457823991776,-0.024350080639123917,0.011656389571726322
1733359984375615000,9.853614990234375,0.010413758456707,-0.01739789918065071,0.008994294330477715
1733359984385579800,9.863579833984375,0.008133294060826302,-0.011443336494266987,0.0065100970678031445
1733359984395545900,9.8735458984375,0.005711948033422232,-0.013974404893815517,0.0046418895944952965
1733359984405511000,9.883510986328124,0.004276504274457693,-0.02088663913309574,0.003230947069823742
1733359984415476700,9.893476806640624,0.0012873720843344927,-0.03128255531191826,0.005109540652483702
1733359984425442800,9.90344287109375,0.0016951019642874599,-0.0355667807161808,0.0070680296048521996
1733359984435408000,9.913407958984376,0.0005022721597924829,-0.03381255641579628,0.010615093633532524
1733359984445374000,9.9233740234375,-0.0018018947448581457,-0.029168272390961647,0.007493069861084223
1733359984455339000,9.933339111328126,-0.0005017395596951246,-0.02593812346458435,0.0065050371922552586
1733359984465304800,9.943304931640625,-0.00037523938226513565,-0.02599911019206047,0.0020061591640114784
1733359984475270000,9.953269775390625,0.0017680726014077663,-0.02093937061727047,0.0015728629659861326
1733359984485236000,9.963236083984375,0.0018548916559666395,-0.017740381881594658,0.0018458369886502624
1733359984495200800,9.97320068359375,0.0034788872580975294,-0.007517837453633547,-0.0027121631428599358
1733359984505167000,9.9831669921875,0.003822701284661889,0.0017062872648239136,-0.007069094572216272
1733359984515132000,9.9931318359375,0.0037268276792019606,0.009516007266938686,-0.012136823497712612
1733359984525097700,10.00309765625,0.0036783581599593163,0.010349842719733715,-0.014038586989045143
1733359984535062800,10.013062744140624,-0.0013116068439558148,0.006687463726848364,-0.012982644140720367
1733359984545028900,10.02302880859375,0.0005739112384617329,-0.0004996090428903699,-0.011777829378843307
1733359984554995000,10.032994873046874,-0.0002868224401026964,0.0006095975404605269,-0.012026568874716759
1733359984564960000,10.0429599609375,0.0017667410429567099,0.005212604999542236,-0.011975170113146305
1733359984574925800,10.05292578125,0.0012727247085422277,0.010791128501296043,-0.011315238662064075
1733359984584891000,10.062890869140626,0.0021816615480929613,0.012062521651387215,-0.013157879933714867
1733359984594857000,10.07285693359375,0.0025542378425598145,0.007288805674761534,-0.010031594894826412
1733359984604821500,10.082821533203125,0.0017395768081769347,-0.0033723609521985054,-0.0070456587709486485
1733359984614787300,10.092787353515625,0.0015480954898521304,-0.014850584790110588,0.0014415690675377846
1733359984624752400,10.10275244140625,0.0009504822082817554,-0.02143019065260887,0.006451507564634085
1733359984634718500,10.112718505859375,-0.0000876179983606562,-0.023994015529751778,0.01053333468735218
1733359984644683300,10.122683349609375,0.0003110571997240186,-0.024162061512470245,0.011487545445561409
1733359984654649300,10.1326494140625,-0.0019180085510015488,-0.026630012318491936,0.011350925080478191
1733359984664614400,10.142614501953124,-0.003409645054489374,-0.02594025433063507,0.009338906966149807
1733359984674580200,10.152580322265624,-0.002017078222706914,-0.027160780504345894,0.004850149154663086
1733359984684546300,10.16254638671875,-0.0010221211705356836,-0.024528512731194496,0.005791842471808195
1733359984694511400,10.172511474609376,0.0016671388875693083,-0.022221682593226433,0.007164968643337488
1733359984704477200,10.182477294921876,0.0030956584960222244,-0.025070199742913246,0.007232612930238247
1733359984714442200,10.192442138671876,0.0035001926589757204,-0.029619943350553513,0.006136721931397915
1733359984724408300,10.202408203125,0.0021643510553985834,-0.03158562257885933,0.006473878398537636
1733359984734373400,10.212373291015625,0.00236302288249135,-0.038905054330825806,0.00765765318647027
1733359984744339200,10.222339111328125,0.00088949577184394,-0.04169604927301407,0.00857511255890131
1733359984754304500,10.232304443359375,0.0013611416798084974,-0.03695375844836235,0.008489091880619526
1733359984764270300,10.242270263671875,0.004977447912096977,-0.026998328045010567,0.008474711328744888
1733359984774235100,10.252235107421875,0.005829659756273031,-0.022649651393294334,0.006336725316941738
1733359984784201500,10.262201416015625,0.0073226275853812695,-0.022334866225719452,0.00487198680639267
1733359984794167300,10.272167236328125,0.007108509540557861,-0.025714151561260223,0.0036306874826550484
1733359984804132000,10.282132080078124,0.005966546013951302,-0.025167405605316162,-0.0002532666258048266
1733359984814098400,10.292098388671874,0.007672034204006195,-0.01804877445101738,0.0015033544041216373
1733359984824063200,10.302063232421874,0.0070216902531683445,-0.014390391297638416,0.0019406455103307962
1733359984834029300,10.312029296875,0.006956709548830986,-0.011858257465064526,0.001853293739259243
1733359984843994400,10.321994384765626,0.005036303773522377,-0.011302455328404903,-0.0018080200534313917
1733359984853960200,10.331960205078126,0.005322593729943037,-0.008407332934439182,-0.005125253461301327
1733359984863925200,10.34192529296875,0.003811249742284417,-0.005920739844441414,-0.004758536349982023
1733359984873891300,10.351891357421875,0.0037673076149076223,-0.0030802120454609394,-0.006001166999340057
1733359984883856400,10.3618564453125,0.004559864290058613,-0.00555215822532773,-0.007561779581010342
1733359984893822500,10.371822509765625,0.007191067561507225,-0.002168878447264433,-0.010640926659107208
1733359984903787300,10.381787353515625,0.00717642018571496,-0.0004628573951777071,-0.009356483817100525
1733359984913753300,10.39175341796875,0.007163636852055788,-0.0032234902027994394,-0.006579872220754623
1733359984923719400,10.401719482421875,0.0031318773981183767,-0.012024438939988613,-0.006362291984260082
1733359984933684200,10.411684326171875,0.003168362658470869,-0.014012222178280354,-0.004866127856075764
1733359984943650300,10.421650390625,0.0009470200748182833,-0.006669886875897646,-0.0055803875438869
1733359984953615400,10.431615478515624,-0.0012636699248105288,0.004219246096909046,-0.006208361126482487
1733359984963581400,10.44158154296875,-0.0037228327710181475,0.015080415643751621,-0.009623599238693714
1733359984973546200,10.451546142578126,-0.003910852130502462,0.015311045572161674,-0.009797503240406513
1733359984983512300,10.46151220703125,-0.0032980586402118206,0.007485080510377884,-0.012898487970232964
1733359984993477400,10.471477294921876,-0.004791825544089079,-0.0013915016315877438,-0.009328254498541355
1733359985003443200,10.481443115234375,-0.0034149715211242437,-0.010407633148133755,-0.0016056197928264737
1733359985013408500,10.491408447265625,-0.00515721132978797,-0.017677264288067818,0.0017209346406161785
1733359985023374300,10.501374267578125,-0.006019010208547115,-0.025376729667186737,0.005878395400941372
1733359985033339100,10.511339111328125,-0.0035276231355965137,-0.03003299981355667,0.005938849411904812
1733359985043305500,10.521305419921875,-0.0010831075487658381,-0.029940588399767876,0.006850715726613998
1733359985053271300,10.531271240234375,-0.0027273432351648808,-0.028741899877786636,0.0049012815579771996
1733359985063236400,10.541236328125,0.0019893813878297806,-0.02857678383588791,0.004846686962991953
1733359985073202400,10.551202392578125,0.004295945167541504,-0.025961825624108315,0.006473079323768616
1733359985083167200,10.561167236328124,0.006997722201049328,-0.02768755331635475,0.006336192600429058
1733359985093133300,10.57113330078125,0.008440356701612473,-0.02978905476629734,0.004368915688246489
1733359985103098400,10.581098388671874,0.005561745725572109,-0.02358069270849228,0.0037470676470547915
1733359985113064200,10.591064208984376,0.007281082216650248,-0.017655692994594574,-0.0003861583536490798
1733359985123029200,10.601029296875,0.006786799523979425,-0.009790845215320587,-0.002189118415117264
1733359985132995300,10.610995361328126,0.007213970646262169,-0.004178499802947044,-0.007124754600226879
1733359985142960400,10.62096044921875,0.00523577444255352,-0.001680720946751535,-0.011937619186937809
1733359985152926200,10.63092626953125,0.006387591827660799,0.0017417073249816895,-0.010701912455260754
1733359985162892300,10.640892333984375,0.006930344272404909,0.0033004553988575935,-0.01194001641124487
1733359985172857300,10.650857421875,0.003319630166515708,0.007096258923411369,-0.013774667866528034
1733359985182823400,10.660823486328125,0.004858671221882105,0.010280600748956203,-0.011721903458237648
1733359985192788500,10.67078857421875,0.0061508365906775,0.007889348082244396,-0.007976699620485306
1733359985202754300,10.68075439453125,0.00035206988104619086,-0.0005153216770850122,-0.0019406455103307962
1733359985212719400,10.69071923828125,0.00023622238950338215,-0.007241401355713606,0.006865895353257656
1733359985222685400,10.700685546875,-0.00014514227223116904,-0.009199890308082104,0.010176737792789936
1733359985232650200,10.710650146484374,0.0004814995336346328,-0.01067741122096777,0.00826991442590952
1733359985242616300,10.7206162109375,-0.0025031049735844135,-0.004201136529445648,0.007484547793865204
1733359985252581400,10.730581298828126,-0.01450117863714695,0.003087402554228902,0.0011587414192035794
1733359985262547200,10.740547119140626,-0.018733739852905273,0.005030977539718151,-0.0033518546260893345
1733359985272512500,10.750512451171875,-0.020372649654746056,0.007394266780465841,-0.0057588196359574795
1733359985282478300,10.760478271484375,-0.021433386951684952,0.0043920851312577724,-0.012114453129470348
1733359985292444200,10.770444091796875,-0.022823290899395943,0.005595567636191845,-0.010700581595301628
1733359985302409500,10.780409423828125,-0.019300993531942368,0.007556186988949776,-0.0076027922332286835
1733359985312375300,10.790375244140625,-0.013229785487055779,0.014196246862411499,-0.012013785541057587
1733359985322340400,10.80034033203125,-0.007529821712523699,0.027406323701143265,-0.013710752129554749
1733359985332306400,10.810306396484375,-0.001341434195637703,0.03852662071585655,-0.016447681933641434
1733359985342271200,10.820271240234375,0.004862399306148291,0.0379556380212307,-0.017851168289780617
1733359985352237300,10.8302373046875,0.011361843906342983,0.03020690381526947,-0.01936783827841282
1733359985362202400,10.840202392578124,0.014546984806656837,0.014713166281580925,-0.017007213085889816
1733359985372168200,10.850168212890624,0.0156093193218112,-0.0025212145410478115,-0.0070190271362662315
1733359985382133200,10.86013330078125,0.01429345179349184,-0.026137860491871834,0.0023635553661733866
1733359985392099300,10.870099365234376,0.01332832220941782,-0.044973067939281464,0.01170326117426157
1733359985402064400,10.880064453125,0.011736550368368626,-0.05307413637638092,0.01649295724928379
1733359985412030200,10.8900302734375,0.01227717287838459,-0.05252126604318619,0.017472200095653534
1733359985421996300,10.899996337890625,0.010869425721466541,-0.0468045249581337,0.015246863476932049
1733359985431961300,10.90996142578125,0.009101352654397488,-0.04272110015153885,0.013451626524329185
1733359985441927400,10.919927490234375,0.008980978280305862,-0.035059452056884766,0.012212724424898624
1733359985451892500,10.929892578125,0.007701595313847065,-0.034321222454309464,0.01191285252571106
1733359985461858300,10.9398583984375,0.0016128103015944362,-0.040411073714494705,0.014064952731132507
1733359985471823000,10.949822998046875,-0.0030075078830122948,-0.041978608816862106,0.016826650127768517
1733359985481789400,10.95978955078125,-0.006148706190288067,-0.04085022583603859,0.011826299130916595
1733359985491754200,10.969754150390624,-0.008610266260802746,-0.025790052488446236,0.00267754215747118
1733359985501720300,10.97972021484375,-0.0070216902531683445,-0.007809720002114773,-0.0032061797101050615
1733359985511685400,10.989685302734374,-0.009763947688043118,0.0038285604678094387,-0.006897587329149246
1733359985521651200,10.999651123046876,-0.015685485675930977,0.005886651109904051,-0.005524727515876293
1733359985531617300,11.0096171875,-0.022110361605882645,0.002879942301660776,-0.006642456166446209
1733359985541582300,11.019582275390626,-0.028552016243338585,0.007355650886893272,-0.008845156989991665
1733359985551548200,11.029548095703126,-0.031028224155306816,0.02551334910094738,-0.012180233374238014
1733359985561513500,11.039513427734375,-0.027828434482216835,0.04550356790423393,-0.020489562302827835
1733359985571479300,11.049479248046875,-0.02425660379230976,0.06691645085811615,-0.029747774824500084
1733359985581444400,11.0594443359375,-0.02051672711968422,0.0783294290304184,-0.036923397332429886
1733359985591410400,11.069410400390625,-0.01005076989531517,0.0791611298918724,-0.03650953993201256
1733359985601375200,11.079375244140625,-0.008463526144623756,0.07119348645210266,-0.03199228644371033
1733359985611341800,11.089341796875,-0.0023513049818575382,0.05477429926395416,-0.026768231764435768
1733359985621306600,11.099306640625,-0.005008340813219547,0.03662938252091408,-0.016525181010365486
1733359985631272400,11.1092724609375,-0.0033539850264787674,0.014040185138583183,-0.010420150123536587
1733359985641237800,11.11923779296875,0.0002998719282913953,-0.0047055394388735294,-0.008873119950294495
1733359985651203600,11.12920361328125,0.0062885223887860775,-0.013739247806370258,-0.006856841035187244
1733359985661168600,11.139168701171876,0.00986434891819954,-0.014060159213840961,-0.0027859327383339405
1733359985671134700,11.149134765625,0.015801599249243736,-0.015852732583880424,-0.0033427998423576355
1733359985681100500,11.1591005859375,0.02056919038295746,-0.019346000626683235,0.0035891421139240265
1733359985691065600,11.169065673828126,0.024994032457470894,-0.02552107162773609,0.006930876523256302
1733359985701031700,11.17903173828125,0.024400414898991585,-0.03858041390776634,0.012267851270735264
1733359985710996700,11.188996826171875,0.023357786238193512,-0.04812704771757126,0.01512968447059393
1733359985720962800,11.198962890625,0.018391523510217667,-0.04911108687520027,0.015751000493764877
1733359985730927600,11.208927734375,0.01786714792251587,-0.038058701902627945,0.010571950115263462
1733359985740893700,11.218893798828125,0.018740398809313774,-0.02298414520919323,0.0021670141723006964
1733359985750858500,11.2288583984375,0.017558753490447998,-0.0095082838088274,-0.00019893812714144588
1733359985760824600,11.238824462890625,0.014869759790599346,-0.004378503188490868,-0.00561021501198411
1733359985770789600,11.24878955078125,0.010421481914818287,-0.002662362065166235,-0.00923371221870184
1733359985780755700,11.258755615234374,0.004808870144188404,0.005330050364136696,-0.013977867551147938
1733359985790720800,11.268720703125,0.008733836933970451,0.007823302410542965,-0.011128284968435764
1733359985800686600,11.2786865234375,0.009070727042853832,0.004287689458578825,-0.004777444526553154
1733359985810652700,11.288652587890626,0.002910302486270666,-0.0018349179299548268,-0.0004183826094958931
1733359985820617700,11.29861767578125,-0.0012708604335784912,-0.007506385911256075,0.00740332156419754
1733359985830583600,11.30858349609375,0.0024000408593565226,-0.0057066213339567184,0.010309629142284393
1733359985840548900,11.318548828125,0.003725496120750904,0.0096286591142416,0.0059689427725970745
1733359985850514700,11.3285146484375,-0.00932985171675682,0.023970846086740494,-0.00007590009045088664
1733359985860479500,11.3384794921875,-0.019105251878499985,0.02124510146677494,-0.005765477195382118
1733359985870445800,11.34844580078125,-0.0208877045661211,0.020302342250943184,-0.005397162400186062
1733359985880410600,11.35841064453125,-0.02516314387321472,0.01847834326326847,-0.008898153901100159
1733359985890376400,11.36837646484375,-0.03051796182990074,0.01534726470708847,-0.010325607843697071
1733359985900341800,11.378341796875,-0.029135247692465782,0.010215086862444878,-0.008217450231313705
1733359985910307600,11.3883076171875,-0.02538977935910225,0.015140869654715061,-0.009429188445210457
1733359985920272600,11.398272705078124,-0.02285578101873398,0.026766633614897728,-0.012806609272956848
1733359985930238700,11.40823876953125,-0.01782240718603134,0.03863101452589035,-0.014779211953282356
1733359985940204500,11.41820458984375,-0.012439092621207237,0.048120658844709396,-0.017963021993637085
1733359985950169600,11.428169677734376,-0.006265885196626186,0.05596126988530159,-0.018864501267671585
1733359985960135700,11.4381357421875,-0.005253617651760578,0.056172993034124374,-0.021699436008930206
1733359985970100700,11.448100830078126,-0.0023214775137603283,0.047988831996917725,-0.02244831807911396
1733359985980066800,11.45806689453125,-0.0002950782363768667,0.040105875581502914,-0.019413644447922707
1733359985990031600,11.468031494140625,0.004537227563560009,0.026130670681595802,-0.015804795548319817
1733359985999997700,11.477997802734375,0.005480519030243158,0.010320015251636505,-0.013303021900355816
1733359986009962500,11.48796240234375,0.005228051450103521,-0.0033830134198069572,-0.011561580933630466
1733359986019928600,11.497928466796875,0.004730040207505226,-0.009911486878991127,-0.010902714915573597
1733359986029893600,11.5078935546875,0.007439806591719389,-0.009542904794216156,-0.008284827694296837
1733359986039859700,11.517859619140625,0.01079512294381857,-0.011715778149664402,-0.0021523667965084314
1733359986049825800,11.52782568359375,0.010061156004667282,-0.018002701923251152,0.003947869874536991
1733359986059790600,11.53779052734375,0.009676862508058548,-0.026152241975069046,0.01116370502859354
1733359986069756700,11.547756591796874,0.008123706094920635,-0.032098013907670975,0.014668957330286503
1733359986079721700,11.5577216796875,0.010143714025616646,-0.038304779678583145,0.01065024733543396
1733359986089687600,11.5676875,0.0049098036251962185,-0.039328496903181076,0.009223858825862408
1733359986099652900,11.57765283203125,0.003689809702336788,-0.03188975527882576,0.007582818623632193
1733359986109618700,11.58761865234375,0.004010987002402544,-0.02545103058218956,0.00333134806714952
1733359986119583500,11.59758349609375,0.0016583503456786275,-0.021705828607082367,-0.001582716591656208
1733359986129549800,11.6075498046875,-0.0007779093575663865,-0.02123924158513546,-0.002457564929500222
1733359986139514600,11.6175146484375,-0.0024016385432332754,-0.018868762999773026,-0.0018935075495392084
1733359986149480700,11.627480712890625,-0.0019920445047318935,-0.01636832021176815,-0.0034258903469890356
1733359986159445800,11.63744580078125,0.0009384979493916035,-0.015362177975475788,-0.011089668609201908
1733359986169411600,11.64741162109375,0.005943376570940018,-0.013577061705291271,-0.01631212793290615
1733359986179377700,11.657377685546875,0.007863249629735947,-0.014332599937915802,-0.015794143080711365
1733359986189342700,11.6673427734375,0.011345865204930305,-0.01901896484196186,-0.012590093538165092
1733359986199308500,11.67730859375,0.009849168360233307,-0.022850187495350838,-0.0067963870242238045
1733359986209273600,11.687273681640624,0.011294732801616192,-0.014519554562866688,-0.001988049829378724
1733359986219239700,11.69723974609375,0.01233336515724659,-0.005754558369517326,-0.003002181416377425
1733359986229204700,11.707204833984376,0.012852948158979416,-0.003858121344819665,-0.0006780407857149839
1733359986239170600,11.717170654296876,0.007386543322354555,-0.0064776064828038216,-0.0007006776868365705
1733359986249135600,11.727135498046875,0.005106611177325249,-0.010627077892422676,0.0020471718162298203
1733359986259101700,11.737101806640625,-0.0004548678989522159,-0.018200576305389404,0.004352137912064791
1733359986269066500,11.74706640625,-0.002828543307259679,-0.02191195636987686,0.0032740901224315166
1733359986279032800,11.75703271484375,-0.0062400526367127895,-0.01835370622575283,0.0009209210984408855
1733359986288997600,11.76699755859375,-0.010932276025414467,-0.009499229490756989,-0.003236539661884308
1733359986298963500,11.77696337890625,-0.010746121406555176,-0.006386260036379099,-0.005310609471052885
1733359986308928800,11.7869287109375,-0.011934956535696983,-0.012680907733738422,-0.006687463726848364
1733359986318894600,11.79689453125,-0.011066499166190624,-0.018732408061623573,-0.0057036918587982655
1733359986328860700,11.806860595703125,-0.010072341188788414,-0.01781761273741722,-0.0017867147689685225
1733359986338825700,11.81682568359375,-0.0044352286495268345,-0.02009567990899086,0.00016831177345011383
1733359986348791600,11.82679150390625,-0.006779076531529427,-0.021865617483854294,-0.0005169195355847478
1733359986358756600,11.836756591796876,-0.003136138431727886,-0.020748155191540718,0.0005283711361698806
1733359986368722700,11.84672265625,0.00037816885742358863,-0.0243759136646986,0.005137504078447819
1733359986378687700,11.856687744140626,0.0013427657540887594,-0.03610846772789955,0.007624896243214607
1733359986388653800,11.86665380859375,-0.0022572954185307026,-0.03960360214114189,0.010749583132565022
1733359986398618600,11.87661865234375,-0.0015590144321322441,-0.03684030473232269,0.00951201282441616
1733359986408584700,11.886584716796875,0.0005254416610114276,-0.0262390598654747,0.005163869354873896
1733359986418549800,11.8965498046875,0.002974750939756632,-0.019823772832751274,0.00395772373303771
1733359986428515600,11.906515625,0.004882107023149729,-0.016952352598309517,0.0006114617572166026
1733359986438480600,11.916480712890625,0.0024429175537079573,-0.01324176974594593,0.000360059377271682
1733359986448446700,11.92644677734375,0.005108209326863289,-0.00788508728146553,0.000050866376113845035
1733359986458412500,11.93641259765625,0.006548712961375713,-0.0035896748304367065,-0.004023769870400429
