time,seconds_elapsed,z,y,x
1733359645784986000,0.018986083984375,0.0004395360010676086,-0.012293054722249508,-0.003494116012006998
1733359645794951000,0.028950927734375,0.000500256079249084,-0.029229693114757538,0.008398495614528656
1733359645804916700,0.038916748046875,-0.002211658051237464,-0.05680465325713158,0.02454712614417076
1733359645814883000,0.048883056640625,-0.0072679356671869755,-0.08074353635311127,0.043877679854631424
1733359645824848000,0.058847900390625,-0.008658040314912796,-0.09873152524232864,0.06394771486520767
1733359645834814000,0.06881396484375,-0.004340523388236761,-0.10690289735794067,0.07224319875240326
1733359645844779000,0.078779052734375,-0.0023445519618690014,-0.10033875703811646,0.061677053570747375
1733359645854744800,0.088744873046875,-0.006735838484019041,-0.08003933727741241,0.04245542362332344
1733359645864710000,0.0987099609375,-0.012945220805704594,-0.05885588750243187,0.02830519713461399
1733359645874676000,0.108676025390625,-0.01945878006517887,-0.06183010712265968,0.02307448349893093
1733359645884641800,0.118641845703125,-0.028035277500748634,-0.08865490555763245,0.03873752802610397
1733359645894607000,0.128607177734375,-0.02849360927939415,-0.1296902298927307,0.06336644291877747
1733359645904573000,0.138572998046875,-0.03170827031135559,-0.158567413687706,0.08628582209348679
1733359645914538000,0.1485380859375,-0.03519115224480629,-0.16938358545303345,0.09646203368902206
1733359645924504000,0.158504150390625,-0.03585665300488472,-0.16547711193561554,0.09310761839151382
1733359645934470000,0.168469970703125,-0.03574586287140846,-0.14903661608695984,0.0846499502658844
1733359645944435000,0.17843505859375,-0.03390807285904884,-0.13815239071846008,0.08078750222921371
1733359645954401000,0.188401123046875,-0.03239646181464195,-0.13710497319698334,0.08622753620147705
1733359645964366000,0.198365966796875,-0.026430416852235794,-0.15023204684257507,0.09696629643440247
1733359645974332000,0.208331787109375,-0.025717755779623985,-0.16741450130939484,0.10459279268980026
1733359645984297000,0.218296875,-0.03091735951602459,-0.18168985843658447,0.11566387116909027
1733359645994263000,0.228262939453125,-0.037376321852207184,-0.1905435472726822,0.12693436443805695
1733359646004229000,0.23822900390625,-0.040609415620565414,-0.20234039425849915,0.1277361363172531
1733359646014194000,0.24819384765625,-0.04552481323480606,-0.21497362852096558,0.12738220393657684
1733359646024160000,0.258159912109375,-0.04927261546254158,-0.22956016659736633,0.13149099051952362
1733359646034124800,0.268124755859375,-0.045747920870780945,-0.23341694474220276,0.14233751595020294
1733359646044091000,0.2780908203125,-0.04588668793439865,-0.2414661943912506,0.15494027733802795
1733359646054057000,0.288056884765625,-0.04804810881614685,-0.27729690074920654,0.17254669964313507
1733359646064022000,0.29802197265625,-0.052669502794742584,-0.3213205337524414,0.1953919678926468
1733359646073987800,0.30798779296875,-0.056341469287872314,-0.36301976442337036,0.21486340463161469
1733359646083953000,0.317952880859375,-0.058058883994817734,-0.39470794796943665,0.22907276451587677
1733359646093919000,0.3279189453125,-0.05822586268186569,-0.41826438903808594,0.2501620650291443
1733359646103885000,0.337885009765625,-0.06255752593278885,-0.44329360127449036,0.28005433082580566
1733359646113849900,0.347849853515625,-0.06368937343358994,-0.4604281187057495,0.3007572293281555
1733359646123816000,0.35781591796875,-0.06766466051340103,-0.453185498714447,0.3136836886405945
1733359646133781000,0.367781005859375,-0.06670725345611572,-0.41328760981559753,0.29682186245918274
1733359646143746800,0.377746826171875,-0.061617687344551086,-0.33878734707832336,0.24841558933258057
1733359646153712000,0.387712158203125,-0.052413005381822586,-0.24551305174827576,0.18451596796512604
1733359646163678000,0.397677978515625,-0.0441034659743309,-0.18199560046195984,0.13070380687713623
1733359646173644000,0.40764404296875,-0.04563504830002785,-0.16589544713497162,0.10269374400377274
1733359646183609000,0.417609130859375,-0.0640840232372284,-0.18944941461086273,0.12037119269371033
1733359646193575000,0.427574951171875,-0.07849998027086258,-0.2442876398563385,0.1530657559633255
1733359646203540000,0.4375400390625,-0.08069176971912384,-0.3080730140209198,0.18786075711250305
1733359646213506000,0.447506103515625,-0.08402711153030396,-0.34498709440231323,0.20847949385643005
1733359646223471900,0.457471923828125,-0.09747452288866043,-0.36569544672966003,0.21979130804538727
1733359646233437200,0.467437255859375,-0.1222618967294693,-0.4235616624355316,0.24151284992694855
1733359646243403000,0.477403076171875,-0.16079409420490265,-0.5551347136497498,0.30113330483436584
1733359646253367800,0.487367919921875,-0.16548338532447815,-0.6914435625076294,0.4534357488155365
1733359646263334100,0.497334228515625,-0.013841425068676472,-0.6763249039649963,0.6574963927268982
1733359646273299000,0.507298828125,0.03630829602479935,-0.889132559299469,0.552680492401123
1733359646283264800,0.5172646484375,0.007212208118289709,-0.8630275130271912,0.4966675341129303
1733359646293231400,0.5272314453125,-0.006516120862215757,-0.6857131719589233,0.44766324758529663
1733359646303196200,0.537196044921875,-0.06771235913038254,-0.5540874600410461,0.32260531187057495
1733359646313162000,0.547161865234375,-0.1331171989440918,-0.47879642248153687,0.23505015671253204
1733359646323127300,0.557127197265625,-0.16564211249351501,-0.45547017455101013,0.22272717952728271
1733359646333093000,0.567093017578125,-0.17815044522285461,-0.4848429560661316,0.2446601688861847
1733359646343059200,0.57705908203125,-0.18505260348320007,-0.5005293488502502,0.27152684330940247
1733359646353024300,0.587024169921875,-0.1799696981906891,-0.4789840877056122,0.27416497468948364
1733359646362990000,0.596989990234375,-0.1764415055513382,-0.4207305312156677,0.24002321064472198
1733359646372955100,0.606955078125,-0.18260353803634644,-0.33100995421409607,0.18541669845581055
1733359646382921200,0.616921142578125,-0.18997810781002045,-0.25022441148757935,0.1405220776796341
1733359646392887000,0.626886962890625,-0.19272196292877197,-0.2021317332983017,0.10868319123983383
1733359646402852400,0.636852294921875,-0.18963295221328735,-0.18340472877025604,0.09124239534139633
1733359646412818200,0.646818115234375,-0.18084637820720673,-0.1645895093679428,0.08601140975952148
1733359646422783200,0.656783203125,-0.1737932711839676,-0.13138476014137268,0.0733194649219513
1733359646432749300,0.666749267578125,-0.16428418457508087,-0.08826552331447601,0.047804780304431915
1733359646442714000,0.676714111328125,-0.15064427256584167,-0.035917360335588455,0.025767123326659203
1733359646452680200,0.68668017578125,-0.13631008565425873,0.0074881697073578835,0.006953223142772913
1733359646462646300,0.696646240234375,-0.1106518805027008,0.038524236530065536,0.002065682550892234
1733359646472611000,0.706611083984375,-0.08075043559074402,0.05413834750652313,-0.0002286307280883193
1733359646482577200,0.7165771484375,-0.04934932291507721,0.03749867528676987,0.00492533203214407
1733359646492542200,0.726542236328125,-0.022137142717838287,-0.0026215780526399612,0.020755160599946976
1733359646502508300,0.73650830078125,-0.014436875469982624,-0.04183035343885422,0.03375617787241936
1733359646512474400,0.746474365234375,-0.0011825888650491834,-0.0535099096596241,0.0470283068716526
1733359646522439200,0.756439208984375,0.012373137287795544,-0.03466188907623291,0.034080587327480316
1733359646532405200,0.7664052734375,0.004941586405038834,-0.029866334050893784,0.01261390745639801
1733359646542370300,0.776370361328125,-0.016056906431913376,-0.04731030389666557,0.01466107927262783
1733359646552336100,0.786336181640625,-0.020580019801855087,-0.08503078669309616,0.040574170649051666
1733359646562302200,0.79630224609375,-0.01447285432368517,-0.12539537250995636,0.059208035469055176
1733359646572267300,0.806267333984375,-0.014684309251606464,-0.1464330106973648,0.0680081844329834
1733359646582233000,0.816233154296875,-0.01981491409242153,-0.16803213953971863,0.07608265429735184
1733359646592198100,0.8261982421875,-0.015236142091453075,-0.18605934083461761,0.07463388890028
1733359646602164200,0.836164306640625,-0.01111727487295866,-0.18059353530406952,0.07542083412408829
1733359646612129300,0.84612939453125,-0.011988927610218525,-0.17018775641918182,0.07768291980028152
1733359646622095000,0.85609521484375,-0.01702335849404335,-0.17340590059757233,0.08188750594854355
1733359646632061200,0.866061279296875,-0.02460457943379879,-0.18726125359535217,0.09286212921142578
1733359646642026200,0.876026123046875,-0.026896243914961815,-0.20051220059394836,0.10439909994602203
1733359646651992000,0.885991943359375,-0.021308399736881256,-0.21702326834201813,0.11483336240053177
1733359646661957400,0.895957275390625,-0.023490047082304955,-0.23443862795829773,0.12922732532024384
1733359646671923200,0.905923095703125,-0.027481060475111008,-0.25337690114974976,0.1474580019712448
1733359646681889300,0.91588916015625,-0.03461192920804024,-0.26742857694625854,0.15994541347026825
1733359646691854300,0.925854248046875,-0.04405789449810982,-0.2870728373527527,0.17560666799545288
1733359646701820200,0.935820068359375,-0.039268240332603455,-0.3010716736316681,0.18299232423305511
1733359646711785200,0.94578515625,-0.03273817151784897,-0.3017401397228241,0.1756979376077652
1733359646721751300,0.955751220703125,-0.030979705974459648,-0.283612459897995,0.15512634813785553
1733359646731717000,0.965717041015625,-0.03201008215546608,-0.24677774310112,0.12360572069883347
1733359646741682200,0.97568212890625,-0.034380774945020676,-0.19791822135448456,0.1020863875746727
1733359646751648300,0.985648193359375,-0.030460337176918983,-0.1545712798833847,0.08459527790546417
1733359646761613000,0.995613037109375,-0.022848762571811676,-0.11779704689979553,0.059902723878622055
1733359646771579400,1.005579345703125,-0.01219798345118761,-0.07797160744667053,0.03777345269918442
1733359646781544200,1.015544189453125,-0.01464759185910225,-0.043034035712480545,0.014871235936880112
1733359646791510000,1.025510009765625,-0.009576666168868542,-0.016003217548131943,0.003120569745078683
1733359646801476400,1.035476318359375,-0.004844218026846647,0.007420053705573082,-0.004731372464448214
1733359646811441200,1.045441162109375,0.002505040727555752,0.027494430541992188,-0.01629961095750332
1733359646821407200,1.0554072265625,-0.0015280673978850245,0.041585687547922134,-0.03372838348150253
1733359646831372300,1.065372314453125,-0.007301001809537411,0.05383036658167839,-0.03642616420984268
1733359646841338000,1.075338134765625,-0.008616844192147255,0.055299192667007446,-0.029226338490843773
1733359646851304200,1.08530419921875,-0.011190522462129593,0.04857923835515976,-0.03113422729074955
1733359646861269200,1.095269287109375,-0.0064474474638700485,0.019969845190644264,-0.02185056358575821
1733359646871235000,1.105235107421875,-0.001306481659412384,-0.02168918401002884,0.0067118383012712
1733359646881200400,1.115200439453125,0.0008778451010584831,-0.06389635056257248,0.03317420557141304
1733359646891166200,1.125166259765625,0.0034019891172647476,-0.0909881591796875,0.04593447223305702
1733359646901132000,1.135132080078125,0.0034118492621928453,-0.12462486326694489,0.058770500123500824
1733359646911097300,1.145097412109375,0.006391660310328007,-0.16628921031951904,0.07941852509975433
1733359646921063200,1.155063232421875,-0.0036857835948467255,-0.23126384615898132,0.11153282970190048
1733359646931028200,1.1650283203125,-0.03295765072107315,-0.30156195163726807,0.1439853012561798
1733359646940994300,1.174994384765625,-0.05513908714056015,-0.3491229712963104,0.17388831079006195
1733359646950960000,1.184960205078125,-0.06500530242919922,-0.39893820881843567,0.18211348354816437
1733359646960925200,1.19492529296875,-0.06778188794851303,-0.4136897027492523,0.18421801924705505
1733359646970891300,1.204891357421875,-0.07916956394910812,-0.42182937264442444,0.18278418481349945
1733359646980856000,1.21485595703125,-0.08566638082265854,-0.4433455169200897,0.1876150518655777
1733359646990822400,1.224822509765625,-0.08747866004705429,-0.461630254983902,0.20106108486652374
1733359647000787200,1.234787109375,-0.09594803303480148,-0.46999579668045044,0.20498351752758026
1733359647010753300,1.244753173828125,-0.09524575620889664,-0.4694751501083374,0.20023669302463531
1733359647020719400,1.25471923828125,-0.08917538821697235,-0.4411461651325226,0.18798965215682983
1733359647030684200,1.26468408203125,-0.08356756716966629,-0.37992966175079346,0.18126943707466125
1733359647040650200,1.274650146484375,-0.0673651173710823,-0.3305266201496124,0.1642652302980423
1733359647050615300,1.284615234375,-0.05956898257136345,-0.33035778999328613,0.15305545926094055
1733359647060581000,1.2945810546875,-0.05430229380726814,-0.3577723503112793,0.16780096292495728
1733359647070547200,1.304547119140625,-0.039581671357154846,-0.3798723518848419,0.17900115251541138
1733359647080512300,1.31451220703125,-0.0328228659927845,-0.38049015402793884,0.1722194403409958
1733359647090478000,1.32447802734375,-0.04829929396510124,-0.3517373502254486,0.15873906016349792
1733359647100443100,1.334443115234375,-0.07275164872407913,-0.32770004868507385,0.13889238238334656
1733359647110409200,1.3444091796875,-0.09892705827951431,-0.32294711470603943,0.11291937530040741
1733359647120375000,1.354375,-0.1090710237622261,-0.3286554515361786,0.11442698538303375
1733359647130340000,1.364340087890625,-0.10854531824588776,-0.3351818025112152,0.12069500237703323
1733359647140306200,1.37430615234375,-0.09402631968259811,-0.32648390531539917,0.1238616481423378
1733359647150271200,1.384271240234375,-0.07540948688983917,-0.29463517665863037,0.11928980052471161
1733359647160237300,1.3942373046875,-0.05647414177656174,-0.25135183334350586,0.10390791296958923
1733359647170203100,1.404203125,-0.04673682525753975,-0.21935077011585236,0.09942101687192917
1733359647180168200,1.414168212890625,-0.03795398771762848,-0.19090421497821808,0.08787648379802704
1733359647190134300,1.42413427734375,-0.028138641268014908,-0.16953474283218384,0.07538865506649017
1733359647200099300,1.434099365234375,-0.016316872090101242,-0.15291336178779602,0.06864513456821442
1733359647210065200,1.444065185546875,-0.004698032047599554,-0.14552175998687744,0.06367753446102142
1733359647220031200,1.45403125,0.004364185035228729,-0.15833938121795654,0.061059631407260895
1733359647229996300,1.463996337890625,0.017024585977196693,-0.15917295217514038,0.06098266690969467
1733359647239962000,1.473962158203125,0.005751707125455141,-0.14485754072666168,0.06843750178813934
1733359647249927200,1.48392724609375,-0.02447250857949257,-0.1173047423362732,0.06377111375331879
1733359647259893200,1.493893310546875,-0.050241824239492416,-0.09241490066051483,0.04178076609969139
1733359647269859300,1.503859375,-0.0650324895977974,-0.06477048993110657,0.020882410928606987
1733359647279824400,1.513824462890625,-0.07112525403499603,-0.04641193151473999,0.00687469681724906
1733359647289789400,1.52378955078125,-0.07289092987775803,-0.04155885428190231,0.008797499351203442
1733359647299754500,1.53375439453125,-0.06426865607500076,-0.04286812245845795,0.009432108141481876
1733359647309720600,1.543720458984375,-0.05142555758357048,-0.05162672698497772,0.005632309243083
1733359647319686400,1.553686279296875,-0.04795414209365845,-0.04468010738492012,0.012180368416011333
1733359647329651500,1.5636513671875,-0.04761618748307228,-0.029254011809825897,0.01248956099152565
1733359647339617500,1.573617431640625,-0.03667435795068741,-0.009036418981850147,0.0013811548706144094
1733359647349582300,1.583582275390625,-0.026660073548555374,0.013288592919707298,-0.005055971443653107
1733359647359548700,1.593548583984375,-0.016857219859957695,0.023448437452316284,-0.0015937534626573324
1733359647369514500,1.603514404296875,-0.010622228495776653,0.003864615224301815,-0.0002997233532369137
1733359647379479300,1.613479248046875,-0.008513279259204865,-0.03313790634274483,0.0157434344291687
1733359647389445600,1.623445556640625,-0.008719141595065594,-0.0711771696805954,0.033283546566963196
1733359647399410400,1.633410400390625,-0.012682721950113773,-0.11437343060970306,0.03796258196234703
1733359647409376300,1.643376220703125,-0.022537482902407646,-0.1468954235315323,0.03870560601353645
1733359647419341600,1.653341552734375,-0.028454210609197617,-0.16242824494838715,0.04118366166949272
1733359647429307400,1.663307373046875,-0.026688270270824432,-0.15289093554019928,0.0364227294921875
1733359647439273500,1.6732734375,-0.029920009896159172,-0.13435599207878113,0.03351082280278206
1733359647449238500,1.683238525390625,-0.035839419811964035,-0.11917969584465027,0.034267425537109375
1733359647459204400,1.693204345703125,-0.039811789989471436,-0.11836610734462738,0.03672073036432266
1733359647469169400,1.70316943359375,-0.04046186804771423,-0.1332601010799408,0.043528567999601364
1733359647479135500,1.713135498046875,-0.04265552759170532,-0.15123948454856873,0.04767605662345886
1733359647489101300,1.723101318359375,-0.048098497092723846,-0.16354301571846008,0.0477660708129406
1733359647499066400,1.73306640625,-0.049993887543678284,-0.15752778947353363,0.04384485259652138
1733359647509032400,1.743032470703125,-0.05147833377122879,-0.14251048862934113,0.04664090648293495
1733359647518997500,1.75299755859375,-0.056976933032274246,-0.12795023620128632,0.04373190179467201
1733359647528963600,1.762963623046875,-0.05681394413113594,-0.11287247389554977,0.033455297350883484
1733359647538929400,1.772929443359375,-0.054243769496679306,-0.09898391366004944,0.02304038591682911
1733359647548894500,1.78289453125,-0.05162748321890831,-0.08606678247451782,0.022238509729504585
1733359647558860500,1.792860595703125,-0.04822633042931557,-0.06957006454467773,0.021455643698573112
1733359647568825600,1.80282568359375,-0.04109465330839157,-0.07847221195697784,0.022020766511559486
1733359647578791400,1.81279150390625,-0.04055166244506836,-0.12302666902542114,0.024345869198441505
1733359647588757500,1.822757568359375,-0.04573976621031761,-0.15683497488498688,0.0347612239420414
1733359647598722600,1.83272265625,-0.04584971442818642,-0.15572480857372284,0.04458265379071236
1733359647608688400,1.8426884765625,-0.040290895849466324,-0.12005496025085449,0.04316292330622673
1733359647618653400,1.8526533203125,-0.029367148876190186,-0.0737898200750351,0.0255569014698267
1733359647628619500,1.86261962890625,-0.019140344113111496,-0.042664919048547745,0.004519794601947069
1733359647638585600,1.872585693359375,-0.018213070929050446,-0.029115766286849976,-0.004632249940186739
1733359647648550400,1.88255029296875,-0.021934306249022484,-0.04594321548938751,0.003625946119427681
1733359647658516500,1.8925166015625,-0.015662550926208496,-0.0838480144739151,0.01539005059748888
1733359647668481300,1.902481201171875,-0.018852751702070236,-0.1191098615527153,0.017419112846255302
1733359647678447400,1.912447265625,-0.030458275228738785,-0.12366413325071335,0.014680052176117897
1733359647688413400,1.922413330078125,-0.04106777533888817,-0.12329555302858353,0.009786759503185749
1733359647698378500,1.93237841796875,-0.03023347444832325,-0.12481917440891266,0.009638656862080097
1733359647708344600,1.942344482421875,-0.022338267415761948,-0.127088725566864,0.022587478160858154
1733359647718309400,1.952309326171875,-0.023085027933120728,-0.1389525979757309,0.04429331421852112
1733359647728275500,1.962275390625,-0.022844277322292328,-0.1517980992794037,0.05765466019511223
1733359647738241500,1.972241455078125,-0.013215882703661919,-0.1448371857404709,0.058798354119062424
1733359647748206300,1.982206298828125,-0.01211573090404272,-0.1087803766131401,0.051045626401901245
1733359647758172400,1.99217236328125,-0.01316079217940569,-0.059641070663928986,0.03484725579619408
1733359647768137500,2.002137451171875,-0.012174357660114765,-0.0345865823328495,0.020225433632731438
1733359647778103300,2.012103271484375,-0.009970325045287609,-0.03998454287648201,0.023341597989201546
1733359647788069400,2.0220693359375,-0.0033315978944301605,-0.04036644101142883,0.03208289295434952
1733359647798034400,2.032034423828125,0.0020525273866951466,-0.026523681357502937,0.02743006870150566
1733359647808000500,2.04200048828125,0.0007222783751785755,-0.016955209895968437,0.014626124873757362
1733359647817965600,2.051965576171875,-0.008693310432136059,-0.021189309656620026,0.008574073202908039
1733359647827931400,2.061931396484375,-0.013894730247557163,-0.03799412027001381,0.014426103793084621
1733359647837897500,2.0718974609375,-0.016580283641815186,-0.06568615138530731,0.009009522385895252
1733359647847862500,2.081862548828125,-0.018568599596619606,-0.08098094165325165,0.003136186860501766
1733359647857828400,2.091828369140625,-0.025649692863225937,-0.07652612775564194,0.0068924566730856895
1733359647867793700,2.101793701171875,-0.02266988344490528,-0.06766819208860397,0.011021954007446766
1733359647877759500,2.111759521484375,-0.018187468871474266,-0.05119144916534424,0.010344931855797768
1733359647887725300,2.121725341796875,-0.0099977171048522,-0.021423431113362312,0.007375240325927734
1733359647897690600,2.131690673828125,-0.003758198581635952,-0.0003505777567625046,0.005294115282595158
1733359647907656400,2.141656494140625,-0.0035145191941410303,0.011150017380714417,0.006819307804107666
1733359647917621200,2.151621337890625,-0.0010058678453788161,0.02264445275068283,0.0016853132983669639
1733359647927587600,2.161587646484375,0.0024016466923058033,0.016709065064787865,-0.000822585541754961
1733359647937553400,2.171553466796875,0.004523145966231823,-0.017172109335660934,0.004019282292574644
1733359647947518500,2.1815185546875,0.004636330530047417,-0.046407490968704224,0.005506657995283604
1733359647957484500,2.191484619140625,0.00393910426646471,-0.06100798025727272,0.005812798626720905
1733359647967449300,2.201449462890625,0.0037628032732754946,-0.0801158994436264,0.0061163995414972305
1733359647977415700,2.211415771484375,0.007489385548979044,-0.08952490240335464,0.011265600100159645
1733359647987381500,2.221381591796875,0.008881686255335808,-0.07612200826406479,0.021777097135782242
1733359647997346300,2.23134619140625,0.008958349004387856,-0.06928999722003937,0.02826073206961155
1733359648007312600,2.241312744140625,0.002847459865733981,-0.06794562935829163,0.02573818527162075
1733359648017277400,2.25127734375,-0.0012412533396854997,-0.058856260031461716,0.017372092232108116
1733359648027243300,2.2612431640625,0.0003302780678495765,-0.037664953619241714,0.012675341218709946
1733359648037209600,2.271209716796875,0.0037287231534719467,-0.01161403302103281,0.012400652281939983
1733359648047174400,2.28117431640625,0.006592153571546078,0.01674516871571541,0.010732714086771011
1733359648057140200,2.29114013671875,0.00549173541367054,0.02681591361761093,0.002311798743903637
1733359648067105500,2.30110546875,0.003114065621048212,0.03449993208050728,-0.003843831829726696
1733359648077071400,2.3110712890625,0.006470447406172752,0.03769093006849289,0.0007088421261869371
1733359648087037400,2.321037353515625,0.007243296597152948,0.042600203305482864,0.0030513587407767773
1733359648097002500,2.33100244140625,0.005435803439468145,0.03980911895632744,0.0013761036098003387
1733359648106968300,2.34096826171875,0.0034584058448672295,0.021853554993867874,-0.0030583259649574757
1733359648116933400,2.350933349609375,0.010114761069417,0.01009028684347868,0.001878322334960103
1733359648126899500,2.3608994140625,0.009809030219912529,0.017565246671438217,0.00457663694396615
1733359648136865300,2.370865234375,0.010803100652992725,0.03479011729359627,-0.0032681464217603207
1733359648146830600,2.38083056640625,0.0053838337771594524,0.04710590839385986,-0.0067078848369419575
1733359648156796400,2.39079638671875,0.001467179274186492,0.056460268795490265,-0.011147296987473965
1733359648166761500,2.400761474609375,0.001458657206967473,0.0713883563876152,-0.019073130562901497
1733359648176727600,2.4107275390625,0.005150316283106804,0.0903795063495636,-0.02515830658376217
1733359648186693400,2.420693359375,0.01162099838256836,0.11925589293241501,-0.030185556039214134
1733359648196658400,2.430658447265625,0.014936113730072975,0.15223799645900726,-0.033415183424949646
1733359648206624500,2.44062451171875,0.017535094171762466,0.1687442660331726,-0.035086050629615784
1733359648216589600,2.450589599609375,0.01958785392343998,0.17764812707901,-0.03685971349477768
1733359648226555400,2.460555419921875,0.017216041684150696,0.1917293220758438,-0.04015191271901131
1733359648236521500,2.470521484375,0.01543862372636795,0.2164638787508011,-0.050303325057029724
1733359648246486500,2.480486572265625,0.019069045782089233,0.2532232105731964,-0.06559492647647858
1733359648256452600,2.49045263671875,0.02554798685014248,0.30993619561195374,-0.08783632516860962
1733359648266418400,2.50041845703125,0.03254677355289459,0.3778878152370453,-0.11348522454500198
1733359648276383500,2.510383544921875,0.04061536118388176,0.45884719491004944,-0.14470800757408142
1733359648286349300,2.520349365234375,0.04038899391889572,0.5285021662712097,-0.17475591599941254
1733359648296314000,2.530314208984375,0.03850933164358139,0.5808197259902954,-0.1950734406709671
1733359648306280200,2.5402802734375,0.046429574489593506,0.6160730123519897,-0.21390172839164734
1733359648316245200,2.550245361328125,0.05388452112674713,0.6344956755638123,-0.2245163768529892
1733359648326211300,2.56021142578125,0.040047537535429,0.6371585726737976,-0.22732281684875488
1733359648336177200,2.57017724609375,0.02155381068587303,0.6345151662826538,-0.2364564687013626
1733359648346142200,2.58014208984375,-0.0009158108150586486,0.6563629508018494,-0.2682031989097595
1733359648356108300,2.5901083984375,-0.053226180374622345,0.750697672367096,-0.32468095421791077
1733359648366074000,2.60007421875,-0.1725347340106964,0.8544626832008362,-0.38029494881629944
1733359648376039200,2.6100390625,-0.3087514340877533,0.8666203618049622,-0.39940354228019714
1733359648386005200,2.620005126953125,-0.4505671560764313,0.9334558248519897,-0.47682562470436096
1733359648395970000,2.629969970703125,0.2182021290063858,0.9578176736831665,-0.5219764709472656
1733359648405936000,2.63993603515625,0.5921275019645691,0.6997957229614258,-0.48351800441741943
1733359648415902200,2.649902099609375,0.6165785193443298,0.4637422561645508,-0.39978650212287903
1733359648425867300,2.6598671875,0.536989152431488,0.37210050225257874,-0.3178335726261139
1733359648435833000,2.6698330078125,0.45589327812194824,0.3951099216938019,-0.2824295163154602
1733359648445798100,2.679798095703125,0.37229666113853455,0.4496040344238281,-0.29731661081314087
1733359648455764200,2.68976416015625,0.28262317180633545,0.5012474656105042,-0.34493252635002136
1733359648465730300,2.699730224609375,0.22357822954654694,0.5436402559280396,-0.4009169638156891
1733359648475695000,2.709695068359375,0.21846525371074677,0.6071714162826538,-0.44978028535842896
1733359648485661200,2.7196611328125,0.23716703057289124,0.7186252474784851,-0.4979259669780731
1733359648495626200,2.729626220703125,0.24751979112625122,0.8624463081359863,-0.5564466714859009
1733359648505592000,2.739592041015625,0.2549566626548767,0.9615958333015442,-0.6228570938110352
1733359648515558100,2.74955810546875,0.26274749636650085,0.9822171330451965,-0.6500280499458313
1733359648525523200,2.759523193359375,0.26006221771240234,0.9411389231681824,-0.612167477607727
1733359648535489300,2.7694892578125,0.24806039035320282,0.8504636287689209,-0.5434269905090332
1733359648545454300,2.779454345703125,0.2319543957710266,0.7532787919044495,-0.4867069721221924
1733359648555420200,2.789420166015625,0.22571438550949097,0.6919957995414734,-0.45325198769569397
1733359648565386200,2.79938623046875,0.2226371020078659,0.6971284747123718,-0.4412696361541748
1733359648575351300,2.809351318359375,0.22019445896148682,0.7665529251098633,-0.4558894634246826
1733359648585317000,2.819317138671875,0.2247180938720703,0.9199827313423157,-0.49487626552581787
1733359648595282400,2.829282470703125,0.21801358461380005,1.1151278018951416,-0.5711912512779236
1733359648605248300,2.839248291015625,0.21903836727142334,1.27833092212677,-0.6714044213294983
1733359648615214000,2.849214111328125,0.2342737317085266,1.361538290977478,-0.746863842010498
1733359648625179400,2.859179443359375,0.26193758845329285,1.3728302717208862,-0.7693907022476196
1733359648635145200,2.869145263671875,0.2863103151321411,1.3345026969909668,-0.7455689311027527
1733359648645111000,2.879111083984375,0.30087941884994507,1.2511388063430786,-0.7094939947128296
1733359648655076400,2.889076416015625,0.31589534878730774,1.1366537809371948,-0.6653106808662415
1733359648665042200,2.899042236328125,0.3316330313682556,1.0213702917099,-0.6094159483909607
1733359648675007200,2.90900732421875,0.33073028922080994,0.9203721284866333,-0.547141969203949
1733359648684973300,2.918973388671875,0.3033665716648102,0.8592563271522522,-0.4891655445098877
1733359648694939100,2.928939208984375,0.2467440366744995,0.830833911895752,-0.45580822229385376
1733359648704904200,2.938904296875,0.1847429871559143,0.8094577789306641,-0.4432397186756134
1733359648714870300,2.948870361328125,0.13755017518997192,0.7688677906990051,-0.42801377177238464
1733359648724835000,2.9588349609375,0.11098487675189972,0.7103882431983948,-0.40391162037849426
1733359648734801400,2.968801513671875,0.10405233502388,0.6386563181877136,-0.3746190369129181
1733359648744767200,2.978767333984375,0.12513844668865204,0.5603591203689575,-0.348619669675827
1733359648754732000,2.98873193359375,0.16531194746494293,0.47244250774383545,-0.3231499493122101
1733359648764698400,2.998698486328125,0.1996976137161255,0.38540026545524597,-0.3044244647026062
1733359648774663200,3.0086630859375,0.199806347489357,0.3359648883342743,-0.27284878492355347
1733359648784629000,3.01862890625,0.1708977222442627,0.3340916335582733,-0.23141081631183624
1733359648794595300,3.02859521484375,0.13624997437000275,0.34671562910079956,-0.1991608440876007
1733359648804560100,3.03856005859375,0.10699622333049774,0.3652735948562622,-0.1750216782093048
1733359648814526200,3.048526123046875,0.0972386822104454,0.36614641547203064,-0.1510046273469925
1733359648824491300,3.0584912109375,0.10615254938602448,0.3402051031589508,-0.1296580582857132
1733359648834457000,3.06845703125,0.13053561747074127,0.30765366554260254,-0.11061151325702667
1733359648844423200,3.078423095703125,0.14774256944656372,0.2933064103126526,-0.10749322175979614
1733359648854388200,3.08838818359375,0.15305987000465393,0.2993689179420471,-0.11805613338947296
1733359648864354000,3.09835400390625,0.14093343913555145,0.34981024265289307,-0.14408932626247406
1733359648874319400,3.1083193359375,0.11728107929229736,0.4284629821777344,-0.17489182949066162
1733359648884285200,3.11828515625,0.08517453819513321,0.49754059314727783,-0.20243877172470093
1733359648894251000,3.1282509765625,0.056115757673978806,0.5188660621643066,-0.2210182249546051
1733359648904216300,3.13821630859375,0.050100211054086685,0.4677900969982147,-0.21873855590820312
1733359648914182100,3.14818212890625,0.06921956688165665,0.4120124280452728,-0.20398995280265808
1733359648924148000,3.15814794921875,0.07929430902004242,0.3625223934650421,-0.1836487352848053
1733359648934113300,3.16811328125,0.08652876317501068,0.2909146547317505,-0.15836334228515625
1733359648944079000,3.1780791015625,0.08122774213552475,0.21890172362327576,-0.129919171333313
1733359648954044200,3.188044189453125,0.05870673805475235,0.16510042548179626,-0.1044672355055809
1733359648964010200,3.19801025390625,0.03602113202214241,0.13486476242542267,-0.08254116028547287
1733359648973976000,3.20797607421875,0.01669054664671421,0.12554384768009186,-0.06302441656589508
1733359648983941400,3.21794140625,0.00495506078004837,0.11035290360450745,-0.04962339252233505
1733359648993907200,3.2279072265625,0.002715379698202014,0.08346377313137054,-0.03710124269127846
1733359649003872300,3.237872314453125,0.006461648270487785,0.0431206114590168,-0.028561817482113838
1733359649013838300,3.24783837890625,0.009829197078943253,-0.000584794208407402,-0.024063320830464363
1733359649023804200,3.25780419921875,0.001433581463061273,-0.02951204776763916,-0.03160618990659714
1733359649033769200,3.267769287109375,-0.011512063443660736,-0.03222421929240227,-0.03626257926225662
1733359649043735300,3.2777353515625,-0.01869061216711998,-0.018249280750751495,-0.0328792966902256
1733359649053700000,3.2877001953125,-0.02247679978609085,0.0031358804553747177,-0.01983782649040222
1733359649063666200,3.297666259765625,-0.02464008517563343,0.028834853321313858,-0.015928305685520172
1733359649073632300,3.30763232421875,-0.024578850716352463,0.05437077581882477,-0.01580685004591942
1733359649083597000,3.31759716796875,-0.019523106515407562,0.059222254902124405,-0.019883615896105766
1733359649093563400,3.3275634765625,-0.008668310940265656,0.0523763969540596,-0.018428748473525047
1733359649103528200,3.337528076171875,0.00205437489785254,0.04523273557424545,-0.018882017582654953
1733359649113494300,3.347494384765625,0.011712569743394852,0.04033774882555008,-0.02374439314007759
1733359649123460400,3.35746044921875,0.014888656325638294,0.047892872244119644,-0.032680362462997437
1733359649133425200,3.367425048828125,0.01603701338171959,0.06306670606136322,-0.0371151939034462
1733359649143391200,3.37739111328125,0.016207721084356308,0.06983353197574615,-0.03730028495192528
1733359649153357300,3.387357421875,0.013438843190670013,0.056591734290122986,-0.028025968000292778
1733359649163322000,3.397322021484375,0.015368036925792694,0.02405935898423195,-0.011741803959012032
1733359649173288200,3.4072880859375,0.01788792386651039,-0.013293723575770855,0.013992051593959332
1733359649183253200,3.417253173828125,0.022317294031381607,-0.051068264991045,0.02990151010453701
1733359649193219000,3.427218994140625,0.03330466151237488,-0.0864049643278122,0.03959305211901665
1733359649203185400,3.437185302734375,0.047247376292943954,-0.1070852056145668,0.041265517473220825
1733359649213150200,3.447150146484375,0.06452789157629013,-0.11231821030378342,0.044724639505147934
1733359649223116000,3.457115966796875,0.07858458906412125,-0.09819041192531586,0.0419355109333992
1733359649233081000,3.4670810546875,0.08282747119665146,-0.0722239539027214,0.03324367478489876
1733359649243047200,3.477047119140625,0.07660126686096191,-0.04522456228733063,0.027690453454852104
1733359649253013200,3.48701318359375,0.0707271620631218,-0.0240824855864048,0.02672995813190937
1733359649262978300,3.496978271484375,0.059535495936870575,-0.020504530519247055,0.0326983705163002
1733359649272944000,3.506944091796875,0.04454352334141731,-0.03147485479712486,0.03976783901453018
1733359649282909200,3.5169091796875,0.023176981136202812,-0.05366617813706398,0.04719752445816994
1733359649292875800,3.526875732421875,-0.003866633167490363,-0.06808337569236755,0.05128895118832588
1733359649302841600,3.536841552734375,-0.027127748355269432,-0.0756227895617485,0.05201572924852371
1733359649312806700,3.546806640625,-0.0422515794634819,-0.0835459902882576,0.046339474618434906
1733359649322772700,3.556772705078125,-0.046420492231845856,-0.07473599165678024,0.03712067753076553
1733359649332738600,3.566738525390625,-0.03710952773690224,-0.059045497328042984,0.026167871430516243
1733359649342703900,3.576703857421875,-0.02148396335542202,-0.03902917727828026,0.014247030019760132
1733359649352669700,3.586669677734375,-0.007827541790902615,-0.020682070404291153,0.005664862226694822
1733359649362634800,3.596634765625,-0.0010910765267908573,-0.013441200368106365,-0.0028370129875838757
1733359649372600800,3.606600830078125,0.0015041533624753356,-0.0026734527200460434,-0.011177213862538338
1733359649382566700,3.616566650390625,0.0035153727512806654,0.014327368699014187,-0.01727079227566719
1733359649392531700,3.62653173828125,0.0032168133184313774,0.035820938646793365,-0.02754218690097332
1733359649402497800,3.636497802734375,-0.0008136145188473165,0.06580227613449097,-0.039306968450546265
1733359649412462600,3.646462646484375,-0.005838724784553051,0.09807449579238892,-0.05210106819868088
1733359649422428700,3.6564287109375,-0.013962430879473686,0.12045915424823761,-0.06148897856473923
1733359649432394800,3.666394775390625,-0.015393886715173721,0.13235275447368622,-0.06966660171747208
1733359649442359800,3.67635986328125,-0.01270436029881239,0.12582480907440186,-0.06740903854370117
1733359649452325600,3.68632568359375,-0.008137047290802002,0.10692484676837921,-0.05979692563414574
1733359649462290700,3.696290771484375,0.0008657686412334442,0.08339501917362213,-0.05066920816898346
1733359649472256800,3.7062568359375,0.01084840390831232,0.061791084706783295,-0.04169492423534393
1733359649482222800,3.716222900390625,0.019695958122611046,0.05262208729982376,-0.03849007561802864
1733359649492187600,3.726187744140625,0.027190864086151123,0.05169021338224411,-0.04750125855207443
1733359649502153700,3.73615380859375,0.03313130885362625,0.056360598653554916,-0.06202960014343262
1733359649512119800,3.746119873046875,0.03945499286055565,0.06362185627222061,-0.07853268086910248
1733359649522084600,3.756084716796875,0.04297222942113876,0.07130294293165207,-0.09235155582427979
1733359649532050700,3.76605078125,0.04524979367852211,0.07858885824680328,-0.10054120421409607
1733359649542015700,3.776015625,0.04499918967485428,0.08686782419681549,-0.10155346989631653
1733359649551981600,3.785981689453125,0.04146623983979225,0.08945555984973907,-0.09778549522161484
1733359649561947600,3.79594775390625,0.03412976488471031,0.08734020590782166,-0.09045807272195816
1733359649571912700,3.80591259765625,0.026270218193531036,0.07800387591123581,-0.07813507318496704
1733359649581878800,3.815878662109375,0.018925752490758896,0.06380762904882431,-0.0647854432463646
1733359649591843600,3.825843505859375,0.013950965367257595,0.04317671060562134,-0.05058426782488823
1733359649601809700,3.8358095703125,0.006051230244338512,0.015338422730565071,-0.03566604107618332
1733359649611775700,3.845775634765625,-0.0015177314635366201,-0.009676086716353893,-0.030846526846289635
1733359649621740800,3.85574072265625,-0.004036282654851675,-0.017108969390392303,-0.036035697907209396
1733359649631706600,3.86570654296875,-0.010717334225773811,0.005857544485479593,-0.05634631589055061
1733359649641672700,3.875672607421875,-0.019484993070364,0.06766019016504288,-0.09602714329957962
1733359649651637800,3.8856376953125,-0.032568883150815964,0.1575380563735962,-0.1549813598394394
1733359649661603600,3.895603515625,-0.043589573353528976,0.27421700954437256,-0.21665431559085846
1733359649671568600,3.905568603515625,-0.04143877699971199,0.39904895424842834,-0.2744416296482086
1733359649681534700,3.91553466796875,-0.03396008908748627,0.5139380097389221,-0.3220522999763489
1733359649691500500,3.92550048828125,-0.0315089151263237,0.5905425548553467,-0.3492319881916046
1733359649701465600,3.935465576171875,-0.04336637258529663,0.6123367547988892,-0.3517979383468628
1733359649711431700,3.945431640625,-0.07845725119113922,0.58306485414505,-0.3377293646335602
1733359649721396700,3.955396728515625,-0.1235528215765953,0.49966418743133545,-0.32596832513809204
1733359649731362800,3.96536279296875,-0.1310080587863922,0.38653650879859924,-0.3145787715911865
1733359649741328600,3.97532861328125,-0.12239779531955719,0.3148908317089081,-0.3101816475391388
1733359649751293700,3.985293701171875,-0.09839422255754471,0.2883656919002533,-0.30316779017448425
1733359649761259800,3.995259765625,-0.06786001473665237,0.28838032484054565,-0.28955209255218506
1733359649771224800,4.005224853515625,-0.04183564707636833,0.30617600679397583,-0.26991644501686096
1733359649781190700,4.015190673828125,-0.014627194032073021,0.3276088535785675,-0.2523305416107178
1733359649791156700,4.02515673828125,0.021319406107068062,0.331477552652359,-0.23677958548069
1733359649801121800,4.035121826171875,0.05767102167010307,0.3216659426689148,-0.2275237739086151
1733359649811087600,4.045087646484375,0.07488805800676346,0.3068253695964813,-0.2203579694032669
1733359649821053700,4.0550537109375,0.07417938858270645,0.2945314049720764,-0.20983316004276276
1733359649831018800,4.065018798828125,0.06111126393079758,0.28998681902885437,-0.1998451054096222
1733359649840984600,4.074984619140625,0.03924831002950668,0.2961277961730957,-0.19213952124118805
1733359649850950000,4.084949951171875,0.01751425862312317,0.28868567943573,-0.1903769075870514
1733359649860915700,4.094915771484375,0.026517607271671295,0.2431727945804596,-0.19376471638679504
1733359649870881800,4.1048818359375,0.03297259658575058,0.22773931920528412,-0.21303190290927887
1733359649880846800,4.114846923828125,0.03965606540441513,0.22014370560646057,-0.23765070736408234
1733359649890812700,4.124812744140625,0.05443021282553673,0.20087797939777374,-0.24983519315719604
1733359649900777700,4.13477783203125,0.07416316866874695,0.18048988282680511,-0.2409714013338089
1733359649910743800,4.144743896484375,0.0960858017206192,0.13899293541908264,-0.2042050063610077
1733359649920709600,4.154709716796875,0.10337381064891815,0.07162667065858841,-0.15036681294441223
1733359649930674700,4.1646748046875,0.10184856504201889,0.011623715050518513,-0.08707380294799805
1733359649940640800,4.174640869140625,0.10191274434328079,-0.048930708318948746,-0.024675678461790085
1733359649950606600,4.184606689453125,0.09729275107383728,-0.08596082776784897,0.020918121561408043
1733359649960571600,4.194571533203125,0.09455075860023499,-0.09545446187257767,0.042358167469501495
1733359649970537700,4.204537841796875,0.0902625173330307,-0.06854008883237839,0.0519852451980114
1733359649980502500,4.21450244140625,0.08822838962078094,-0.029531965032219887,0.06405095756053925
1733359649990468900,4.22446875,0.07817444205284119,-0.0009801844134926796,0.07949702441692352
1733359650000434700,4.2344345703125,0.059738706797361374,-0.004677716642618179,0.08724921941757202
1733359650010399700,4.244399658203125,0.038591597229242325,-0.03419530764222145,0.08114153891801834
1733359650020365800,4.25436572265625,0.01749163679778576,-0.06099150329828262,0.05972013249993324
1733359650030330600,4.26433056640625,0.005516706965863705,-0.06419213116168976,0.03417711332440376
1733359650040296700,4.274296630859375,0.007421666290611029,-0.0506448931992054,0.018020248040556908
1733359650050262800,4.2842626953125,0.010750376619398594,-0.045756034553050995,0.013596980832517147
1733359650060227600,4.2942275390625,0.013789841905236244,-0.05659189820289612,0.019207995384931564
1733359650070193700,4.304193603515625,0.01993376761674881,-0.0615852065384388,0.031352393329143524
1733359650080159700,4.31415966796875,0.024981258437037468,-0.062231022864580154,0.04649139940738678
1733359650090124500,4.32412451171875,0.030223652720451355,-0.0660073384642601,0.052602458745241165
1733359650100090600,4.334090576171875,0.030930187553167343,-0.067350372672081,0.04744045436382294
1733359650110055700,4.3440556640625,0.0238435547798872,-0.06392186135053635,0.03705475479364395
1733359650120021800,4.354021728515625,0.013116608373820782,-0.057839471846818924,0.025761887431144714
1733359650129987800,4.36398779296875,0.002434938447549939,-0.05295475572347641,0.02069855108857155
1733359650139952600,4.37395263671875,-0.004259982146322727,-0.05113848298788071,0.020505471155047417
1733359650149918700,4.383918701171875,-0.013169856742024422,-0.05066544935107231,0.028648754581809044
1733359650159884800,4.393884765625,-0.01749616116285324,-0.05631588026881218,0.04082845523953438
1733359650169849600,4.403849609375,-0.02012290060520172,-0.07801776379346848,0.05673597380518913
1733359650179815700,4.413815673828125,-0.023226549848914146,-0.11236455291509628,0.07790837436914444
1733359650189780700,4.42378076171875,-0.023231826722621918,-0.13524144887924194,0.09180736541748047
1733359650199746600,4.43374658203125,-0.023570047691464424,-0.14951945841312408,0.09211362898349762
1733359650209712600,4.443712646484375,-0.015753671526908875,-0.15489764511585236,0.08043020963668823
1733359650219677700,4.453677734375,-0.004449351225048304,-0.15366247296333313,0.07324739545583725
1733359650229643500,4.4636435546875,0.005875682458281517,-0.13867755234241486,0.07591113448143005
1733359650239608800,4.47360888671875,0.009914100170135498,-0.11001715064048767,0.08438397943973541
1733359650249574700,4.48357470703125,0.015073472633957863,-0.09724044054746628,0.09641038626432419
1733359650259540700,4.493540771484375,0.01877420023083687,-0.1021270751953125,0.10372129827737808
1733359650269505800,4.503505859375,0.016709206625819206,-0.10584644228219986,0.10450490564107895
1733359650279471600,4.5134716796875,0.012683304026722908,-0.099941685795784,0.087447889149189
1733359650289438000,4.52343798828125,0.011622581630945206,-0.07691267132759094,0.06027178838849068
1733359650299403300,4.5334033203125,0.017836004495620728,-0.04804587364196777,0.034038055688142776
1733359650309369000,4.543369140625,0.023210784420371056,-0.02280839905142784,0.019283752888441086
1733359650319334100,4.553334228515625,0.028512073680758476,-0.000955565832555294,0.010311828926205635
1733359650329300200,4.56330029296875,0.031753938645124435,0.003208878915756941,0.0074072545394301414
1733359650339266000,4.57326611328125,0.028750156983733177,-0.003981655463576317,0.005525198299437761
1733359650349231000,4.583231201171875,0.02770458161830902,-0.006254670210182667,0.013116157613694668
1733359650359197200,4.593197265625,0.026099229231476784,-0.010382036678493023,0.015050144866108894
1733359650369162000,4.603161865234375,0.021495433524250984,-0.014917483553290367,0.011451936326920986
1733359650379128000,4.613128173828125,0.017518002539873123,-0.019552983343601227,0.012124650180339813
1733359650389094100,4.62309423828125,0.009609194472432137,-0.027191203087568283,0.012201500125229359
1733359650399059000,4.633058837890625,0.001437018858268857,-0.03289143368601799,0.015074518509209156
1733359650409025300,4.643025390625,-0.002365704858675599,-0.034644175320863724,0.019131042063236237
1733359650418991000,4.6529912109375,-0.002550262026488781,-0.03221989795565605,0.01825859025120735
1733359650428956000,4.662955810546875,-0.0047516594640910625,-0.03221402317285538,0.017975522205233574
1733359650438922200,4.672922119140625,-0.006693636532872915,-0.037790413945913315,0.01656750962138176
1733359650448887000,4.682886962890625,-0.005070978309959173,-0.04508357495069504,0.01655672863125801
1733359650458853000,4.69285302734375,-0.0013066004030406475,-0.03955644741654396,0.0101116131991148
1733359650468819200,4.702819091796875,0.0028748572804033756,-0.022482674568891525,0.008875081315636635
1733359650478784000,4.712783935546875,0.0077210115268826485,-0.00872691348195076,0.005310706328600645
1733359650488750000,4.72275,0.008446183986961842,-0.0013066409155726433,0.004499380011111498
1733359650498715100,4.732715087890625,0.008334064856171608,0.00214241910725832,0.0015656417235732079
1733359650508681000,4.742680908203125,0.011433962732553482,0.0013877879828214645,-0.0017056319629773498
1733359650518647300,4.752647216796875,0.01096950750797987,0.00957647617906332,-0.005266810767352581
1733359650528612000,4.762612060546875,0.011837733909487724,0.018236026167869568,-0.0075736744329333305
1733359650538578000,4.772577880859375,0.007668022997677326,0.025086741894483566,-0.009555598720908165
1733359650548544300,4.782544189453125,0.0051651946268975735,0.02245897427201271,-0.01337151974439621
1733359650558509000,4.792509033203125,0.004554797895252705,0.024301614612340927,-0.019852854311466217
1733359650568475100,4.80247509765625,0.004460515920072794,0.024556655436754227,-0.026636851951479912
1733359650578440200,4.812440185546875,0.0037246844731271267,0.023760903626680374,-0.027625150978565216
1733359650588406000,4.822406005859375,0.0011480391258373857,0.016079533845186234,-0.0188372191041708
1733359650598372000,4.8323720703125,0.004021856002509594,-0.009421564638614655,-0.0010864506475627422
1733359650608337200,4.842337158203125,0.0008383463718928397,-0.03692842647433281,0.01917484775185585
1733359650618303000,4.852302978515625,-0.002025350695475936,-0.05714394897222519,0.03559350222349167
1733359650628269300,4.862269287109375,-0.004742039367556572,-0.06846324354410172,0.039290901273489
1733359650638234000,4.872234130859375,-0.008750629611313343,-0.0661417618393898,0.04085763916373253
1733359650648200000,4.882199951171875,-0.00784942414611578,-0.058313701301813126,0.03768235817551613
1733359650658165000,4.8921650390625,-0.004529526922851801,-0.04017651081085205,0.03316031023859978
1733359650668131000,4.902131103515625,-0.00414017541334033,-0.020203273743391037,0.030605677515268326
1733359650678097000,4.912096923828125,-0.0061154416762292385,-0.008690429851412773,0.022808738052845
1733359650688062200,4.922062255859375,-0.00911787711083889,-0.007938702590763569,0.013019214384257793
1733359650698028000,4.932028076171875,-0.011296608485281467,-0.009806645102798939,0.008112872950732708
1733359650707993000,4.9419931640625,-0.01453609112650156,-0.01708258129656315,0.007640705909579992
1733359650717959200,4.951959228515625,-0.014336620457470417,-0.01601225696504116,0.01013608742505312
1733359650727925000,4.961925048828125,-0.013680118136107922,-0.0075062597170472145,0.007691807113587856
1733359650737890000,4.97189013671875,-0.009174316190183163,-0.0022915247827768326,0.0006618605111725628
1733359650747856100,4.981856201171875,-0.004831498488783836,0.003435070626437664,-0.010271747596561909
1733359650757822000,4.991822021484375,-0.0002367468987358734,0.012905005365610123,-0.018937407061457634
1733359650767787000,5.001787109375,0.004143061116337776,0.016926608979701996,-0.02482842653989792
1733359650777753000,5.011753173828125,0.007038982585072517,0.022813260555267334,-0.025821520015597343
1733359650787718100,5.02171826171875,0.007961749099195004,0.030442142859101295,-0.024745453149080276
1733359650797684200,5.031684326171875,0.00471988320350647,0.03590402007102966,-0.025983024388551712
1733359650807650000,5.041650146484375,0.0030980240553617477,0.038066066801548004,-0.02535279095172882
1733359650817615000,5.051614990234375,0.002486828714609146,0.04199369624257088,-0.023268600925803185
1733359650827581200,5.061581298828125,0.001836456242017448,0.0338154137134552,-0.015760591253638268
1733359650837547000,5.071547119140625,0.0011727965902537107,0.02478010579943657,-0.01000257208943367
1733359650847512000,5.081511962890625,0.001794425188563764,0.01227522175759077,-0.00660348916426301
1733359650857478100,5.09147802734375,-0.0012383826542645693,0.003992524463683367,-0.004381347447633743
1733359650867443200,5.101443115234375,-0.00333189545199275,0.0053366804495453835,-0.002346823690459132
1733359650877409000,5.111408935546875,-0.0012732718605548143,0.011863289400935173,-0.005204395391047001
1733359650887375000,5.121375,-0.003494620556011796,0.02070942148566246,-0.009015772491693497
1733359650897340200,5.131340087890625,-0.002224825555458665,0.026339342817664146,-0.01608593389391899
1733359650907306200,5.14130615234375,0.00005214441625867039,0.028464412316679955,-0.018797799944877625
1733359650917271000,5.15127099609375,0.0021741511300206184,0.023101871833205223,-0.017961034551262856
1733359650927237000,5.161237060546875,0.003155806800350547,0.014969502575695515,-0.011152010411024094
1733359650937203200,5.171203125,0.004014942329376936,0.005854301154613495,-0.009611105546355247
1733359650947168000,5.18116796875,-0.0029851372819393873,-0.001986357383430004,-0.009363867342472076
1733359650957134000,5.191134033203125,-0.007964449934661388,-0.010274646803736687,-0.007798461243510246
1733359650967100200,5.20110009765625,-0.013125129044055939,-0.021072523668408394,-0.005224909633398056
1733359650977065000,5.21106494140625,-0.025301368907094002,-0.03620780259370804,0.0008968987385742366
1733359650987031000,5.221031005859375,-0.03237796574831009,-0.04921957850456238,0.009052470326423645
1733359650996996000,5.23099609375,-0.03838445618748665,-0.06254070997238159,0.02135041356086731
1733359651006962200,5.240962158203125,-0.038776446133852005,-0.07892576605081558,0.03078530542552471
1733359651016928000,5.250927978515625,-0.03580595925450325,-0.09469833970069885,0.044647056609392166
1733359651026893000,5.26089306640625,-0.03676842898130417,-0.10967152565717697,0.0583888441324234
1733359651036859100,5.270859130859375,-0.030614396557211876,-0.1240568533539772,0.06884973496198654
1733359651046825200,5.2808251953125,-0.024714406579732895,-0.12735453248023987,0.06837008148431778
1733359651056790000,5.2907900390625,-0.02041180245578289,-0.11781217902898788,0.06481316685676575
1733359651066756000,5.300756103515625,-0.01625140942633152,-0.09497615694999695,0.057294391095638275
1733359651076721200,5.31072119140625,-0.013334982097148895,-0.07140425592660904,0.04784948751330376
1733359651086687000,5.32068701171875,-0.011106490157544613,-0.05663319677114487,0.03853592276573181
1733359651096653000,5.330653076171875,-0.007667283993214369,-0.043493691831827164,0.02878236025571823
1733359651106618000,5.3406181640625,-0.004777471534907818,-0.03310862556099892,0.022046944126486778
1733359651116584000,5.350583984375,0.002145149279385805,-0.021836798638105392,0.016310229897499084
1733359651126549000,5.360549072265625,0.0028905950020998716,-0.009776635095477104,0.008502746932208538
1733359651136515000,5.37051513671875,0.0033342777751386166,0.001793467439711094,-0.0016337762353941798
1733359651146481200,5.380481201171875,0.004733209498226643,0.018511954694986343,-0.013889751397073269
1733359651156446000,5.390446044921875,0.007734325714409351,0.03298091143369675,-0.023038774728775024
1733359651166412000,5.400412109375,0.010180202312767506,0.04250142350792885,-0.030589664354920387
1733359651176378000,5.410378173828125,0.010700583457946777,0.04309530928730965,-0.03635087609291077
1733359651186343200,5.42034326171875,0.010327205993235111,0.03656502813100815,-0.03888500854372978
1733359651196309000,5.43030908203125,0.01050350721925497,0.03358388692140579,-0.044325314462184906
1733359651206274000,5.440274169921875,0.00864968542009592,0.03140370547771454,-0.04900502413511276
1733359651216240000,5.450240234375,0.005294368602335453,0.029685433954000473,-0.05020904168486595
1733359651226206000,5.4602060546875,0.0034184022806584835,0.02401788905262947,-0.034230172634124756
1733359651236171000,5.4701708984375,0.00610340153798461,0.007335316855460405,-0.005158840212970972
1733359651246137000,5.48013720703125,0.012677382677793503,-0.020021872594952583,0.0241245087236166
1733359651256103000,5.49010302734375,0.016462532803416252,-0.044585272669792175,0.03621979057788849
1733359651266068000,5.50006787109375,0.014853225089609623,-0.05760343745350838,0.03427990525960922
1733359651276034000,5.510033935546875,0.007473872508853674,-0.047714054584503174,0.023229651153087616
1733359651285999000,5.5199990234375,-0.0004988184082321823,-0.02608506754040718,0.012310809455811977
1733359651295965400,5.52996533203125,-0.000039423146517947316,-0.011114641092717648,0.0012352552730590105
1733359651305931300,5.53993115234375,0.00015122830518521369,-0.00738347414880991,-0.0058525861240923405
1733359651315896300,5.549896240234375,-0.001309515442699194,-0.007842336781322956,-0.005125276744365692
1733359651325862400,5.5598623046875,-0.0023617364931851625,-0.008575595915317535,-0.003121375571936369
1733359651335827500,5.569827392578125,-0.005556464195251465,-0.005308164283633232,-0.006913983263075352
1733359651345793300,5.579793212890625,-0.00994110107421875,-0.0028769979253411293,-0.015094407834112644
1733359651355759400,5.58975927734375,-0.007567957974970341,0.003959869500249624,-0.02010487951338291
1733359651365724400,5.599724365234375,-0.004114881157875061,0.002903284039348364,-0.014983240514993668
1733359651375690200,5.609690185546875,0.0020055954810231924,-0.004849710501730442,-0.0060366177931427956
1733359651385656300,5.61965625,0.004526814445853233,-0.017496909946203232,0.004916959907859564
1733359651395621400,5.629621337890625,0.004589398391544819,-0.025525543838739395,0.008974818512797356
1733359651405587500,5.63958740234375,0.006117229349911213,-0.03217608481645584,0.009983913041651249
1733359651415552300,5.64955224609375,0.008278917521238327,-0.03236783295869827,0.007005432620644569
1733359651425518300,5.659518310546875,0.011293086223304272,-0.02848772704601288,0.010724001564085484
1733359651435484400,5.669484375,0.012894445098936558,-0.029792409390211105,0.013065719045698643
1733359651445449500,5.679449462890625,0.015372266992926598,-0.029873304069042206,0.012790332548320293
1733359651455415300,5.689415283203125,0.010807609185576439,-0.01991414651274681,0.010364992544054985
1733359651465381400,5.69938134765625,0.005098855122923851,-0.014448748901486397,0.005119765177369118
1733359651475346400,5.709346435546875,0.001022887066937983,-0.023270735517144203,0.004716029856353998
1733359651485312300,5.719312255859375,-0.0005098007386550307,-0.03206605464220047,0.013562419451773167
1733359651495277300,5.72927734375,0.0004097887722309679,-0.04270005598664284,0.020694097504019737
1733359651505243400,5.739243408203125,0.002176025416702032,-0.04973001405596733,0.023383866995573044
1733359651515209500,5.74920947265625,0.004067136440426111,-0.047952886670827866,0.019542789086699486
1733359651525174300,5.75917431640625,0.004885271657258272,-0.04281546548008919,0.02147383615374565
1733359651535140400,5.769140380859375,0.005540941841900349,-0.04212570935487747,0.02320062927901745
1733359651545105200,5.779105224609375,0.004314308054745197,-0.043440770357847214,0.01941586099565029
1733359651555071200,5.7890712890625,0.004726831801235676,-0.03284671530127525,0.012931596487760544
1733359651565037300,5.799037353515625,0.0037150890566408634,-0.015175610780715942,0.0037993586156517267
1733359651575002400,5.80900244140625,0.0039023093413561583,-0.006368270143866539,-0.001718977466225624
1733359651584968400,5.818968505859375,0.00010832289990503341,-0.007021002471446991,-0.009941045194864273
1733359651594934300,5.828934326171875,-0.0005382926319725811,-0.010695632547140121,-0.008524776436388493
1733359651604899300,5.8388994140625,0.00305034127086401,-0.02223687246441841,-0.005096244625747204
1733359651614865400,5.848865478515625,0.0029137209057807922,-0.03328898921608925,0.00347220990806818
1733359651624830200,5.858830322265625,0.005609104875475168,-0.04752273112535477,0.01598307676613331
1733359651634796300,5.86879638671875,0.003536100033670664,-0.06315681338310242,0.0243560541421175
1733359651644762400,5.878762451171875,0.009082429111003876,-0.07415175437927246,0.03129768744111061
1733359651654727200,5.88872705078125,0.014072926715016365,-0.07209339737892151,0.027130374684929848
1733359651664693200,5.898693359375,0.011432139202952385,-0.058798421174287796,0.014341474510729313
1733359651674659300,5.908659423828125,0.009919996373355389,-0.03187466040253639,-0.007600843440741301
1733359651684624400,5.918624267578125,0.013975140638649464,0.001336946152150631,-0.02893870882689953
1733359651694590200,5.928590087890625,0.019236747175455093,0.02380896545946598,-0.03683897480368614
1733359651704555300,5.93855517578125,0.020244508981704712,0.035035207867622375,-0.03342428803443909
1733359651714521300,5.948521240234375,0.015499288216233253,0.024722915142774582,-0.020177459344267845
1733359651724487400,5.9584873046875,0.009208936244249344,0.004492548760026693,-0.0033978461287915707
1733359651734452200,5.9684521484375,0.005786774680018425,-0.017745643854141235,0.01331482082605362
1733359651744418300,5.978418212890625,0.001325141522102058,-0.029860854148864746,0.022432057186961174
1733359651754384400,5.98838427734375,-0.0036262075882405043,-0.02909519523382187,0.025628115981817245
1733359651764349200,5.99834912109375,-0.004897065460681915,-0.02051801048219204,0.021908342838287354
1733359651774315300,6.008315185546875,-0.003968954086303711,-0.003705473616719246,0.016195597127079964
1733359651784280300,6.0182802734375,-0.010663324035704136,0.008015639148652554,0.012197243049740791
1733359651794246400,6.028246337890625,-0.019881855696439743,0.015622159466147423,0.012810835614800453
1733359651804212200,6.038212158203125,-0.02629263512790203,0.028001589700579643,0.01671917364001274
1733359651814177300,6.04817724609375,-0.029971260577440262,0.03347039222717285,0.024790149182081223
1733359651824143400,6.058143310546875,-0.03508581593632698,0.030916258692741394,0.025688795372843742
1733359651834109200,6.068109130859375,-0.03865072503685951,0.03124568983912468,0.024845637381076813
1733359651844074200,6.07807421875,-0.04214882105588913,0.028549492359161377,0.029834305867552757
1733359651854040300,6.088040283203125,-0.043035656213760376,0.02405807375907898,0.03982355445623398
1733359651864005400,6.09800537109375,-0.04103856161236763,0.01567094586789608,0.05175425857305527
1733359651873971200,6.10797119140625,-0.03524352237582207,0.005861724726855755,0.06115308776497841
1733359651883937300,6.117937255859375,-0.03288155049085617,-0.009033950977027416,0.06720671057701111
1733359651893902300,6.12790234375,-0.027736060321331024,-0.02955920249223709,0.07726253569126129
1733359651903868400,6.137868408203125,-0.02517300844192505,-0.0533246211707592,0.07960636168718338
1733359651913833500,6.14783349609375,-0.022560447454452515,-0.06594054400920868,0.07310664653778076
1733359651923799300,6.15779931640625,-0.019720442593097687,-0.06752962619066238,0.0671161338686943
1733359651933765400,6.167765380859375,-0.013791182078421116,-0.060002200305461884,0.051522787660360336
1733359651943730400,6.17773046875,-0.008557004854083061,-0.0453454926609993,0.03193870186805725
1733359651953696300,6.1876962890625,-0.0028519814368337393,-0.0345839224755764,0.01481031347066164
1733359651963662300,6.197662353515625,0.006927364971488714,-0.02954227849841118,0.00015005504246801138
1733359651973627400,6.20762744140625,0.011030497029423714,-0.03471600264310837,-0.011594219133257866
1733359651983593200,6.21759326171875,0.01619330234825611,-0.05117167532444,-0.017178868874907494
1733359651993558500,6.22755859375,0.02100829780101776,-0.0628509670495987,-0.01496045384556055
1733359652003524400,6.2375244140625,0.02361397072672844,-0.06578230112791061,-0.008722299709916115
1733359652013490400,6.247490478515625,0.025320790708065033,-0.053850267082452774,-0.01064590085297823
1733359652023455500,6.25745556640625,0.02314632199704647,-0.027599815279245377,-0.02148456871509552
1733359652033421300,6.26742138671875,0.022268276661634445,-0.0012555597350001335,-0.03478945791721344
1733359652043387400,6.277387451171875,0.017475908622145653,0.012091164477169514,-0.04289277642965317
1733359652053352400,6.2873525390625,0.012868107296526432,0.0188974067568779,-0.044032078236341476
1733359652063318300,6.297318359375,0.01023181527853012,0.02123461477458477,-0.03946872800588608
1733359652073283300,6.307283447265625,0.0052591608837246895,0.024096447974443436,-0.03298233076930046
1733359652083249400,6.31724951171875,0.006494625937193632,0.027884360402822495,-0.0327000617980957
1733359652093215200,6.32721533203125,0.006210732739418745,0.03074353002011776,-0.030311737209558487
1733359652103180300,6.33718017578125,0.006766266655176878,0.03672078624367714,-0.029646610841155052
1733359652113146400,6.347146484375,0.007895180024206638,0.04750925302505493,-0.019246432930231094
1733359652123112400,6.357112548828125,0.009474684484302998,0.056450750678777695,-0.008211609907448292
1733359652133077500,6.367077392578125,0.009748191572725773,0.05347759649157524,-0.001196045195683837
1733359652143043300,6.377043212890625,0.011371910572052002,0.047304946929216385,0.0031447834335267544
1733359652153008000,6.387008056640625,0.010039265267550945,0.0351252481341362,0.004543741699308157
1733359652162974500,6.396974365234375,0.003776591271162033,0.025023143738508224,0.004124012775719166
1733359652172940300,6.406940185546875,0.0008625605842098594,0.01674151048064232,0.003859827294945717
1733359652182905300,6.4169052734375,-0.002143853111192584,0.007961848750710487,0.00257828738540411
1733359652192871400,6.426871337890625,-0.0012998973252251744,-0.0011951643973588943,0.004763677250593901
1733359652202837200,6.436837158203125,-0.0031209688168019056,-0.016036368906497955,0.007744422182440758
1733359652212802300,6.44680224609375,-0.003964924719184637,-0.029033396393060684,0.00857612770050764
1733359652222768400,6.456768310546875,-0.007181265391409397,-0.0381263867020607,0.01503965724259615
1733359652232733200,6.466733154296875,-0.007618822623044252,-0.03682756423950195,0.019362499937415123
1733359652242699300,6.47669921875,-0.010008753277361393,-0.032084450125694275,0.024192551150918007
1733359652252665300,6.486665283203125,-0.011570964008569717,-0.036474406719207764,0.022797588258981705
1733359652262630100,6.496630126953125,-0.014660999178886414,-0.035833992063999176,0.02291939966380596
1733359652272596500,6.506596435546875,-0.013549928553402424,-0.037445735186338425,0.022688504308462143
1733359652282562300,6.516562255859375,-0.015114283189177513,-0.041383080184459686,0.025163790211081505
1733359652292526800,6.52652685546875,-0.014544100500643253,-0.041174016892910004,0.028421636670827866
1733359652302493200,6.5364931640625,-0.012655647471547127,-0.03719383105635643,0.02869420498609543
1733359652312458000,6.5464580078125,-0.011444708332419395,-0.03123527392745018,0.028092598542571068
1733359652322423800,6.556423828125,-0.008244626224040985,-0.023028705269098282,0.027181105688214302
1733359652332390100,6.56639013671875,-0.008281111717224121,-0.017290394753217697,0.024438049644231796
1733359652342355000,6.57635498046875,-0.002679976401850581,-0.010940715670585632,0.01873224973678589
1733359652352321000,6.586321044921875,-0.0026685248594731092,-0.006968079134821892,0.012439467012882233
1733359652362286000,6.5962861328125,-0.0029041876550763845,-0.001642783172428608,0.0043526203371584415
1733359652372252000,6.606251953125,-0.002690602093935013,0.007641795091331005,-0.0027396436780691147
1733359652382218000,6.616218017578125,-0.002365985419601202,0.0171270202845335,-0.011857886798679829
1733359652392183000,6.62618310546875,-0.0017409415449947119,0.02091803029179573,-0.014652873389422894
1733359652402148900,6.63614892578125,0.0041875154711306095,0.02134937047958374,-0.014385886490345001
1733359652412115200,6.646115234375,0.008687458001077175,0.019343212246894836,-0.015479113906621933
1733359652422080000,6.656080078125,0.010760756209492683,0.021895624697208405,-0.020032744854688644
1733359652432045800,6.6660458984375,0.012628165073692799,0.02788826823234558,-0.020419171079993248
1733359652442011000,6.676010986328125,0.014877473004162312,0.019961578771471977,-0.01480136625468731
1733359652451977000,6.68597705078125,0.015038593672215939,0.006596504710614681,-0.011367752216756344
1733359652461942800,6.69594287109375,0.015958696603775024,-0.0014970572665333748,-0.005928493570536375
1733359652471908000,6.705908203125,0.014945095404982567,-0.003731182776391506,-0.006459527648985386
1733359652481874000,6.7158740234375,0.014703810214996338,-0.003556894138455391,-0.008219873532652855
1733359652491840000,6.725840087890625,0.00821821391582489,-0.012242528609931469,-0.008423339575529099
1733359652501805000,6.73580517578125,-0.00016275030793622136,-0.03981941193342209,0.001176553894765675
1733359652511771000,6.74577099609375,-0.005383877549320459,-0.0759529173374176,0.02043786644935608
1733359652521736000,6.75573583984375,-0.009242535568773746,-0.10180037468671799,0.050760090351104736
1733359652531702000,6.765701904296875,-0.015484185889363289,-0.12238181382417679,0.08380112797021866
1733359652541667800,6.775667724609375,-0.02044169045984745,-0.13219894468784332,0.10701525956392288
1733359652551633000,6.7856328125,-0.021622536703944206,-0.1331142783164978,0.11344227194786072
1733359652561599000,6.795598876953125,-0.02500816062092781,-0.12840387225151062,0.10130912810564041
1733359652571564800,6.805564697265625,-0.024612147361040115,-0.11376819759607315,0.0762527734041214
1733359652581530000,6.815530029296875,-0.02270214818418026,-0.08587232977151871,0.051186058670282364
1733359652591496000,6.825495849609375,-0.01518990471959114,-0.05540657043457031,0.02854093536734581
1733359652601461000,6.8354609375,-0.00661429250612855,-0.0309855155646801,0.013570004142820835
1733359652611427000,6.845427001953125,-0.0015553516568616033,-0.018786907196044922,0.0002685799263417721
1733359652621393000,6.855392822265625,0.004030104260891676,-0.011943080462515354,-0.008044751361012459
1733359652631358000,6.86535791015625,0.00251263496465981,-0.000545283779501915,-0.01527097262442112
1733359652641324000,6.875323974609375,0.004549939185380936,0.011956267058849335,-0.015649529173970222
1733359652651289900,6.885289794921875,0.01047067902982235,0.021775342524051666,-0.010348239913582802
1733359652661255000,6.8952548828125,0.016150182113051414,0.020649351179599762,-0.008080466650426388
1733359652671221000,6.905220947265625,0.019231725484132767,0.02304752543568611,-0.00974494218826294
1733359652681186000,6.91518603515625,0.02038750611245632,0.02662854641675949,-0.013785727322101593
1733359652691152100,6.925152099609375,0.014793269336223602,0.02584477886557579,-0.017268609255552292
1733359652701118000,6.935117919921875,0.01090239081531763,0.020213790237903595,-0.017427334561944008
1733359652711083000,6.9450830078125,0.0073854210786521435,0.012559066526591778,-0.015622243285179138
1733359652721049000,6.955049072265625,0.003807209664955735,0.01152887288480997,-0.01018008403480053
1733359652731014000,6.965013916015625,0.0033006765879690647,0.011623415164649487,-0.008272461593151093
1733359652740980000,6.97497998046875,0.007599565666168928,0.015221202746033669,-0.006881639361381531
1733359652750946000,6.984946044921875,0.01207633875310421,0.0183701254427433,-0.009245460852980614
1733359652760911000,6.9949111328125,0.014970926567912102,0.007943641394376755,-0.006136084906756878
1733359652770877000,7.004876953125,0.016488930210471153,-0.006952483206987381,-0.0028105960227549076
1733359652780843000,7.014843017578125,0.01936858706176281,-0.009875843301415443,0.00009319849777966738
1733359652790808000,7.02480810546875,0.019408268854022026,0.004486850928515196,-0.001493246527388692
1733359652800774100,7.034774169921875,0.017374683171510696,0.012596800923347473,-0.01003334391862154
1733359652810739000,7.044739013671875,0.013445456512272358,0.01016853004693985,-0.016578063368797302
1733359652820705000,7.054705078125,0.01032719761133194,0.002426201943308115,-0.019877487793564796
1733359652830671000,7.064671142578125,0.007527150213718414,-0.006932412274181843,-0.0100320465862751
1733359652840636000,7.074635986328125,0.00412758020684123,-0.01133439876139164,-0.0005868378793820739
1733359652850602000,7.08460205078125,0.0017525727162137628,-0.012587415054440498,0.005652415566146374
1733359652860568000,7.094568115234375,-0.0012972424738109112,-0.014227108098566532,0.007598353549838066
1733359652870532900,7.104532958984375,-0.0021997878793627024,-0.012756510637700558,0.004256619140505791
1733359652880499000,7.1144990234375,-0.003968109842389822,-0.006994165480136871,0.00219877902418375
1733359652890464000,7.124464111328125,-0.005863215308636427,0.001284271478652954,-0.00032935990020632744
1733359652900430000,7.13443017578125,-0.007381248287856579,0.014478180557489395,-0.0052717579528689384
1733359652910396200,7.144396240234375,-0.011134175583720207,0.016881151124835014,-0.009657718241214752
1733359652920361000,7.15436083984375,-0.012850883416831493,0.0140267014503479,-0.008782438933849335
1733359652930327000,7.1643271484375,-0.011276422999799252,0.007123787887394428,-0.0023333283606916666
1733359652940293000,7.174293212890625,-0.013031975366175175,0.003176924306899309,0.004201933741569519
1733359652950258000,7.1842578125,-0.011613043956458569,-0.00022020377218723297,0.00764060765504837
1733359652960224000,7.19422412109375,-0.00898981187492609,-0.00046280864626169205,0.008084140717983246
1733359652970189000,7.20418896484375,-0.009123235940933228,0.007901381701231003,0.00631713354960084
1733359652980155000,7.21415478515625,-0.0034235308412462473,0.011041015386581421,0.005156520754098892
1733359652990121000,7.224120849609375,-0.0009577100281603634,0.007069176994264126,0.006742166820913553
1733359653000086000,7.2340859375,0.0009986584773287177,0.0074523803777992725,0.0066003440879285336
1733359653010051800,7.2440517578125,0.0010756237898021936,0.00436897249892354,0.006636829115450382
1733359653020018200,7.25401806640625,0.0007816148572601378,0.0026167617179453373,0.008739924058318138
1733359653029983000,7.26398291015625,-0.0008165481267496943,-0.004674174822866917,0.013574359938502312
1733359653039949000,7.273948974609375,0.000413041707361117,-0.017720701172947884,0.016028720885515213
1733359653049913900,7.283913818359375,-0.0013891193084418774,-0.0224603284150362,0.017466029152274132
1733359653059880000,7.2938798828125,-0.002521532354876399,-0.01953326351940632,0.018349433317780495
1733359653069846000,7.303845947265625,-0.0035907914862036705,-0.017333758994936943,0.018046099692583084
1733359653079811000,7.31381103515625,-0.004871235229074955,-0.012493046931922436,0.012885955162346363
1733359653089777000,7.32377685546875,-0.004618234932422638,-0.009769965894520283,0.009053399786353111
1733359653099743000,7.333742919921875,-0.004289551638066769,-0.007396894507110119,0.004436231683939695
1733359653109708000,7.3437080078125,-0.0051215230487287045,-0.009952195920050144,0.0000364233274012804
1733359653119673900,7.353673828125,-0.005321593955159187,-0.02250281348824501,0.0005913550266996026
1733359653129639000,7.363638916015625,-0.0035263572353869677,-0.03373602777719498,0.007033808156847954
1733359653139605000,7.37360498046875,-0.004213670268654823,-0.03247695416212082,0.014054655097424984
1733359653149570800,7.38357080078125,-0.004574262071400881,-0.021846413612365723,0.012789387255907059
1733359653159535900,7.393535888671875,-0.00276254047639668,-0.01307985931634903,0.0046935356222093105
1733359653169502000,7.403501953125,0.0019480589544400573,-0.0037516038864851,-0.004959091544151306
1733359653179467000,7.413467041015625,0.002925699111074209,0.001032407395541668,-0.01092629786580801
1733359653189433000,7.42343310546875,0.0025946684181690216,0.008217349648475647,-0.010694868862628937
1733359653199399000,7.43339892578125,0.0025139928329735994,0.010727651417255402,-0.008509363047778606
1733359653209364000,7.443364013671875,0.002828245749697089,0.013695744797587395,-0.007531982846558094
1733359653219330000,7.453330078125,0.009205983951687813,0.010669328272342682,-0.0034512211568653584
1733359653229295900,7.4632958984375,0.010070179589092731,0.0035570901818573475,-0.002732966560870409
1733359653239261000,7.473260986328125,0.011216388083994389,-0.0038971630856394768,-0.0007480977801606059
1733359653249227000,7.48322705078125,0.013327209278941154,-0.007070318795740604,-0.0037747803144156933
1733359653259192000,7.493192138671875,0.01788044348359108,-0.0033624181523919106,-0.00687552522867918
1733359653269158000,7.503157958984375,0.018683120608329773,0.011124911718070507,-0.015604035928845406
1733359653279124000,7.5131240234375,0.02143414504826069,0.025164883583784103,-0.01870207116007805
1733359653289089000,7.523089111328125,0.018089216202497482,0.027600344270467758,-0.014059649780392647
1733359653299054300,7.533054443359375,0.01414775662124157,0.01854879781603813,-0.006942501291632652
1733359653309020400,7.5430205078125,0.007804372813552618,0.00457918643951416,-0.0017317605670541525
1733359653318985500,7.5529853515625,-0.0009577057790011168,-0.006270181387662888,0.003722404595464468
1733359653328951600,7.56295166015625,-0.006836900487542152,-0.013228755444288254,0.00988868810236454
1733359653338916600,7.57291650390625,-0.010471058078110218,-0.012073774822056293,0.014903427101671696
1733359653348882400,7.58288232421875,-0.011274799704551697,-0.005937851034104824,0.011926545761525631
1733359653358848500,7.5928486328125,-0.009461430832743645,0.003166055306792259,0.003704681061208248
1733359653368813600,7.6028134765625,-0.008854496292769909,0.006830831058323383,-0.003630729392170906
1733359653378779400,7.612779296875,-0.008432676084339619,0.0038360082544386387,-0.008308815769851208
1733359653388745500,7.622745361328125,-0.007770081982016563,-0.0038847625255584717,-0.004232314880937338
1733359653398710500,7.63271044921875,-0.006075272802263498,-0.021096549928188324,0.005269467364996672
1733359653408676400,7.64267626953125,-0.00651922170072794,-0.030567549169063568,0.009727864526212215
1733359653418641700,7.6526416015625,-0.005491741932928562,-0.02760171890258789,0.01061839796602726
1733359653428607500,7.662607421875,-0.0032634749077260494,-0.017277175560593605,0.0034600868821144104
1733359653438573600,7.672573486328125,-0.0020320576149970293,-0.00628709327429533,-0.002826546085998416
1733359653448538600,7.68253857421875,0.004705473780632019,-0.0004856623709201813,-0.004792757332324982
1733359653458504400,7.69250439453125,0.006352939642965794,0.0035483017563819885,-0.008046772330999374
1733359653468470500,7.702470458984375,0.008695722557604313,0.008475149981677532,-0.008390852250158787
1733359653478435600,7.712435546875,0.011918165720999241,0.015929611399769783,-0.008342000655829906
1733359653488401400,7.7224013671875,0.01145850494503975,0.02090226486325264,-0.01080329343676567
1733359653498366700,7.73236669921875,0.012176994234323502,0.019016558304429054,-0.011583171784877777
1733359653508332500,7.74233251953125,0.013097116723656654,0.017570994794368744,-0.009990601800382137
1733359653518298400,7.75229833984375,0.013198863714933395,0.018075253814458847,-0.006581636145710945
1733359653528263700,7.762263671875,0.011184449307620525,0.015175605192780495,-0.004531534388661385
1733359653538229500,7.7722294921875,0.00862190779298544,0.014662155881524086,-0.0008269028039649129
1733359653548195600,7.782195556640625,0.006889255717396736,0.01786700263619423,-0.004469308070838451
1733359653558160600,7.79216064453125,0.0043875472620129585,0.021916605532169342,-0.009396480396389961
1733359653568126500,7.80212646484375,0.0024990998208522797,0.021333906799554825,-0.014847971498966217
1733359653578091300,7.81209130859375,-0.0005750278942286968,0.014148000627756119,-0.017745453864336014
1733359653588057600,7.8220576171875,0.0017379275523126125,0.008685857057571411,-0.011578637175261974
1733359653598023400,7.8320234375,-0.002154821064323187,0.0010526124387979507,-0.004637235775589943
1733359653607988500,7.841988525390625,-0.004648338537663221,0.0016547534614801407,-0.00020094250794500113
1733359653617954600,7.85195458984375,-0.005088260397315025,0.0032530492171645164,-0.0018113853875547647
1733359653627920400,7.86192041015625,-0.007766867987811565,0.006086386274546385,-0.006661267951130867
1733359653637885700,7.8718857421875,-0.007194804027676582,0.009399956092238426,-0.012990819290280342
1733359653647851500,7.8818515625,-0.004873859230428934,0.01291612721979618,-0.011933810077607632
1733359653657816300,7.89181640625,-0.0013630370376631618,0.01108131930232048,-0.010960802435874939
1733359653667782700,7.90178271484375,0.0001152837066911161,0.011527132242918015,-0.005527155008167028
1733359653677748500,7.91174853515625,0.002389088738709688,0.01068376749753952,-0.00580638600513339
1733359653687713300,7.92171337890625,0.0011821440421044827,0.012439856305718422,-0.006976844742894173
1733359653697679600,7.9316796875,0.003789100330322981,0.016099389642477036,-0.007688962854444981
1733359653707644400,7.94164453125,0.005083662923425436,0.019637133926153183,-0.008363009430468082
1733359653717610500,7.951610595703125,0.0036019126418977976,0.015567421913146973,-0.007527606096118689
1733359653727576600,7.96157666015625,0.006200891453772783,0.011595848947763443,-0.004797067027539015
1733359653737541400,7.971541259765625,0.005074341781437397,0.011923020705580711,-0.0037488164380192757
1733359653747507500,7.981507568359375,0.003048475133255124,0.014483117498457432,-0.009129200130701065
1733359653757473500,7.9914736328125,0.0024876336101442575,0.021882127970457077,-0.014141554944217205
1733359653767438300,8.001438232421876,0.00028706376906484365,0.02599404752254486,-0.020314227789640427
1733359653777404700,8.01140478515625,-0.004374262876808643,0.021804247051477432,-0.02131558209657669
1733359653787369500,8.021369384765626,-0.005743127781897783,0.01768513396382332,-0.01811819151043892
1733359653797335300,8.031335205078125,-0.0032970730680972338,0.01606389321386814,-0.013966670259833336
1733359653807301600,8.041301513671876,-0.003127962350845337,0.010133831761777401,-0.011688602156937122
1733359653817266400,8.051266357421875,-0.002635241486132145,-0.0019140234217047691,-0.013655643910169601
1733359653827232500,8.061232421875,-0.004592131823301315,-0.006293324753642082,-0.012493174523115158
1733359653837198600,8.071198486328125,-0.005106911063194275,-0.006367919966578484,-0.009213367477059364
1733359653847163400,8.081163330078125,-0.004018743522465229,-0.012248178943991661,-0.0010545074474066496
1733359653857129500,8.09112939453125,-0.0035564389545470476,-0.01958194188773632,0.005959744565188885
1733359653867094500,8.101094482421875,-0.006123193074017763,-0.02576340362429619,0.00911692250519991
1733359653877060400,8.111060302734375,-0.005717850290238857,-0.029247377067804337,0.011541854590177536
1733359653887026400,8.1210263671875,-0.009302997961640358,-0.029883340001106262,0.01352191437035799
1733359653896991500,8.130991455078124,-0.008000711910426617,-0.03221173956990242,0.012815644033253193
1733359653906957300,8.140957275390624,-0.009215911850333214,-0.033501509577035904,0.01099271047860384
1733359653916923600,8.150923583984374,-0.011964263394474983,-0.031188897788524628,0.005800982471555471
1733359653926888400,8.160888427734376,-0.013168544508516788,-0.028411485254764557,-0.002000747714191675
1733359653936854500,8.1708544921875,-0.011949651874601841,-0.020960036665201187,-0.00539504736661911
1733359653946819600,8.180819580078126,-0.008868640288710594,-0.018483296036720276,-0.003835766576230526
1733359653956785400,8.190785400390626,-0.009887028485536575,-0.026056908071041107,0.002693768125027418
1733359653966751500,8.20075146484375,-0.00737193925306201,-0.03221840038895607,0.00789012759923935
1733359653976716500,8.210716552734375,-0.006517335306853056,-0.02892235666513443,0.013752281665802002
1733359653986682400,8.220682373046875,-0.0039596352726221085,-0.013670963235199451,0.01734914630651474
1733359653996648400,8.2306484375,-0.0007041933131404221,0.0019760802388191223,0.01098646130412817
1733359654006613500,8.240613525390625,-0.002595836529508233,0.012961886823177338,-0.0007130716694518924
1733359654016579300,8.250579345703125,-0.007778038736432791,0.013322584331035614,-0.00824652798473835
1733359654026544600,8.260544677734375,-0.007743417751044035,0.00782635249197483,-0.011811701580882072
1733359654036510500,8.270510498046875,-0.009014607407152653,-0.0024266084656119347,-0.004825241398066282
1733359654046476500,8.2804765625,-0.00585423456504941,-0.008909009397029877,0.00216129538603127
1733359654056441600,8.290441650390624,-0.00434579374268651,-0.010331892408430576,0.010562613606452942
1733359654066407400,8.300407470703124,-0.0008706348016858101,-0.009221353568136692,0.012253454886376858
1733359654076372500,8.31037255859375,0.004762789234519005,-0.012015321291983128,0.010085205547511578
1733359654086338600,8.320338623046876,0.0002668403903953731,-0.013861157931387424,0.009184258058667183
1733359654096304400,8.330304443359376,0.0007033118163235486,-0.012197962962090969,0.007248692214488983
1733359654106269700,8.340269775390626,0.0008282140479423106,-0.0029970072209835052,0.00978561956435442
1733359654116235500,8.350235595703126,-0.0007845756481401622,-0.0032599130645394325,0.01370870228856802
1733359654126201300,8.360201416015625,-0.004343890119343996,-0.010158565826714039,0.01566346362233162
1733359654136166700,8.370166748046875,-0.007864626124501228,-0.014220166951417923,0.016980430111289024
1733359654146132500,8.380132568359375,-0.013101732358336449,-0.010237675160169601,0.015783073380589485
1733359654156098600,8.3900986328125,-0.01630632020533085,-0.0006493208929896355,0.009919464588165283
1733359654166063600,8.400063720703125,-0.015120681375265121,0.009002240374684334,-0.0024165643844753504
1733359654176029400,8.410029541015625,-0.01319362223148346,0.019592683762311935,-0.016133172437548637
1733359654185994500,8.419994384765625,-0.011931817047297955,0.02550969459116459,-0.02582947537302971
1733359654195960600,8.429960693359375,-0.00799538567662239,0.020883701741695404,-0.026138944551348686
1733359654205926400,8.439926513671875,-0.004854453261941671,0.00650476198643446,-0.017180604860186577
1733359654215891700,8.4498916015625,-0.00028393027605488896,-0.01760580949485302,-0.003303543198853731
1733359654225857500,8.459857421875,0.00693510053679347,-0.036343544721603394,0.009249266237020493
1733359654235822300,8.469822265625,0.011081893928349018,-0.035570017993450165,0.012409785762429237
1733359654245788700,8.47978857421875,0.012723732739686966,-0.021084820851683617,0.005284764803946018
1733359654255754500,8.48975439453125,0.009700252674520016,-0.007704475894570351,-0.0053533706814050674
1733359654265719300,8.49971923828125,0.005208831746131182,-0.005976350978016853,-0.013608104549348354
1733359654275685600,8.509685546875,0.004681011196225882,-0.005572340451180935,-0.011730460450053215
1733359654285651500,8.5196513671875,0.0030588798690587282,-0.004528914578258991,0.002231428399682045
1733359654295616500,8.529616455078125,0.0016636393265798688,-0.002877197228372097,0.012029340490698814
1733359654305582800,8.539582763671875,0.00014883339463267475,-0.0019240519031882286,0.014328979887068272
1733359654315547600,8.549547607421875,-0.00046343746362254024,-0.001977556385099888,0.010705625638365746
1733359654325513700,8.559513671875,0.00009556005534250289,-0.0006707431748509407,0.006100487429648638
1733359654335479800,8.569479736328125,0.0013845545472577214,-0.002962561324238777,0.005160635337233543
1733359654345444600,8.579444580078125,0.000799990666564554,0.001859358511865139,0.004985399544239044
1733359654355410700,8.58941064453125,0.0013528302079066634,0.01107216626405716,-0.0008964288281276822
1733359654365376800,8.599376708984375,0.0009597477037459612,0.02143106237053871,-0.009391913190484047
1733359654375341600,8.609341552734374,0.00019169008010067046,0.02019168622791767,-0.011108984239399433
1733359654385308000,8.619307861328124,-0.002764951204881072,0.013524196110665798,-0.006265493109822273
1733359654395272700,8.629272705078124,-0.002000614069402218,0.003407621756196022,-0.00047459115739911795
1733359654405238500,8.639238525390626,-0.005008121952414513,-0.0023959390819072723,0.007156963460147381
1733359654415204900,8.649204833984374,-0.006300810258835554,-0.002610348165035248,0.011960364878177643
1733359654425169700,8.659169677734376,-0.0038951768074184656,-0.004063635133206844,0.017464853823184967
1733359654435135500,8.669135498046876,-0.005314887501299381,-0.0034839166328310966,0.010394672863185406
1733359654445101800,8.679101806640626,-0.006025152280926704,-0.0006087683141231537,0.006061443127691746
1733359654455066600,8.689066650390625,-0.0055212825536727905,0.004359625279903412,0.004097894765436649
1733359654465032700,8.69903271484375,-0.0027659758925437927,-0.002101469784975052,0.00662949588149786
1733359654474997800,8.708997802734375,-0.00003070409729843959,-0.01342081930488348,0.012323655188083649
1733359654484963600,8.718963623046875,-0.0006866406183689833,-0.015950556844472885,0.011598742567002773
1733359654494929700,8.7289296875,-0.0023630396462976933,-0.009333017282187939,0.009053771384060383
1733359654504894700,8.738894775390625,-0.0009504989138804376,-0.0068935612216591835,0.007481440901756287
1733359654514860500,8.748860595703125,-0.00031427800422534347,-0.011569039896130562,0.004736528731882572
1733359654524827000,8.758826904296875,0.0008865413255989552,-0.012594090774655342,0.0025615249760448933
1733359654534791700,8.768791748046874,-0.00005835439151269384,-0.014730569906532764,0.0031896373257040977
1733359654544757500,8.778757568359374,0.0005294053116813302,-0.007219658233225346,-0.004796650260686874
1733359654554722800,8.788722900390624,0.002509449375793338,0.0037849918007850647,-0.011391953565180302
1733359654564688600,8.798688720703124,0.0037632654421031475,0.006865203846246004,-0.016182713210582733
1733359654574654700,8.80865478515625,0.005519384518265724,-0.00026841554790735245,-0.018087835982441902
1733359654584619800,8.818619873046876,0.004159308038651943,-0.007849902845919132,-0.014918939210474491
1733359654594585600,8.828585693359376,0.004844516981393099,-0.009695096872746944,-0.008821744471788406
1733359654604550700,8.838550537109375,0.003236234188079834,-0.003494725562632084,-0.001571554341353476
1733359654614516700,8.848516845703125,0.002671397989615798,0.003498151432722807,0.0013957205228507519
1733359654624482600,8.858482666015625,-0.00018138010636903346,0.006909128278493881,0.0009467115742154419
1733359654634448000,8.86844775390625,0.0008335259626619518,0.008563651703298092,0.0034226751886308193
1733359654644413700,8.87841357421875,-0.00023599951236974448,0.006605163216590881,0.001963262911885977
1733359654654379500,8.888379638671875,-0.0005097804241813719,0.010649405419826508,0.0012514072004705667
1733359654664344800,8.8983447265625,0.00006519602902699262,0.01608225330710411,0.00008307851385325193
1733359654674310700,8.908310546875,-0.0007105314289219677,0.015794504433870316,-0.001616199384443462
1733359654684275700,8.918275634765624,-0.000123570702271536,0.01335558108985424,-0.0032399287447333336
1733359654694241800,8.92824169921875,-0.000558514439035207,0.008886335417628288,-0.003629769431427121
1733359654704207600,8.93820751953125,0.00011926006118301302,0.0032068779692053795,-0.004073452204465866
1733359654714172700,8.948172607421874,-0.0005097457324154675,-0.001266302540898323,-0.002862276742234826
1733359654724138800,8.958138671875,-0.0012588929384946823,-0.0008031781762838364,-0.00046143680810928345
1733359654734104600,8.9681044921875,0.0003493983531370759,0.0005747722461819649,0.002242196351289749
1733359654744070000,8.97806982421875,0.0007430135738104582,0.00019687041640281677,0.00391679210588336
1733359654754035700,8.98803564453125,-0.00011720199836418033,-0.0018421690911054611,0.0005786666879430413
1733359654764000800,8.998000732421875,0.0018838973483070731,-0.003146585077047348,0.00022366736084222794
1733359654773966800,9.007966796875,0.0002625463530421257,-0.000733768567442894,-0.0006808585021644831
1733359654783932700,9.0179326171875,0.0025632514152675867,-0.0022669509053230286,-0.0014640940353274345
1733359654793897700,9.027897705078125,0.0063915555365383625,-0.0001878468319773674,-0.005203048698604107
1733359654803863800,9.03786376953125,0.006227771285921335,-0.0022898800671100616,-0.0074451640248298645
1733359654813829600,9.04782958984375,0.00877294596284628,-0.0038047172129154205,-0.008834261447191238
1733359654823794700,9.057794677734375,0.012226266786456108,-0.008694547228515148,-0.007555677555501461
1733359654833760800,9.0677607421875,0.010807573795318604,-0.015470203943550587,-0.0051717255264520645
1733359654843725600,9.0777255859375,0.013032911345362663,-0.01774267852306366,0.0015716645866632462
1733359654853692000,9.08769189453125,0.00928506813943386,-0.017905771732330322,0.008324222639203072
1733359654863657700,9.09765771484375,0.009335135109722614,-0.02229785919189453,0.014699830673635006
1733359654873622500,9.10762255859375,0.007062909658998251,-0.024950966238975525,0.02092764712870121
1733359654883588900,9.1175888671875,0.003573636058717966,-0.0258183591067791,0.023742076009511948
1733359654893554700,9.1275546875,-0.00219048117287457,-0.018991895020008087,0.026150347664952278
1733359654903519700,9.137519775390626,-0.008001765236258507,-0.008056421764194965,0.018833843991160393
1733359654913485800,9.14748583984375,-0.012009580619633198,0.004410534631460905,0.00736416457220912
1733359654923450600,9.15745068359375,-0.010649237781763077,0.018335670232772827,-0.008349285461008549
1733359654933416700,9.167416748046875,-0.01035388559103012,0.028579022735357285,-0.02458125911653042
1733359654943382800,9.1773828125,-0.011663894169032574,0.03294207900762558,-0.0321507602930069
1733359654953347600,9.18734765625,-0.01217681635171175,0.030183250084519386,-0.02636384777724743
1733359654963314000,9.19731396484375,-0.01148625835776329,0.02436158061027527,-0.015075505711138248
1733359654973279700,9.20727978515625,-0.006021726876497269,0.012610082514584064,-0.00348622165620327
1733359654983244500,9.21724462890625,-0.003542324062436819,0.00724221533164382,0.0009005375322885811
1733359654993211000,9.2272109375,-0.0012203056830912828,0.004399590659886599,0.00006216717883944511
1733359655003175700,9.23717578125,0.001525413361378014,0.00694823544472456,-0.0034747770987451077
1733359655013141800,9.247141845703124,-0.0004556980275083333,0.010009663179516792,-0.005390002392232418
1733359655023107800,9.25710791015625,0.0010242206044495106,0.00879446230828762,-0.002508728299289942
1733359655033072600,9.26707275390625,0.0014321984490379691,-0.0018430082127451897,-0.00024435902014374733
1733359655043038700,9.277038818359374,0.0006183364312164485,-0.004991130903363228,0.005694489926099777
1733359655053003800,9.287003662109376,0.0007549915462732315,-0.007737843319773674,0.010788952000439167
1733359655062969600,9.296969482421876,-0.001215481199324131,-0.009869435802102089,0.010881097987294197
1733359655072936000,9.30693603515625,0.001335546257905662,-0.01383048016577959,0.012031196616590023
1733359655082900700,9.316900634765625,0.0033896425738930702,-0.015073376707732677,0.013014968484640121
1733359655092866600,9.326866455078125,0.0032884462270885706,-0.01608096808195114,0.010805873200297356
1733359655102833000,9.3368330078125,0.004037593491375446,-0.012851884588599205,0.011648496612906456
1733359655112797700,9.346797607421875,0.0054067205637693405,-0.007605873979628086,0.011043696664273739
1733359655122763500,9.356763427734375,0.007308483589440584,-0.008639712817966938,0.008646318688988686
1733359655132728800,9.366728759765625,0.007788902148604393,-0.010183613747358322,0.0068673426285386086
1733359655142694700,9.376694580078125,0.006297265645116568,-0.008458416908979416,0.00805058516561985
1733359655152660700,9.38666064453125,0.003735865466296673,-0.005495668388903141,0.005810307338833809
1733359655162625800,9.396625732421874,0.00017628453497309238,0.0005925837904214859,0.004318138584494591
1733359655172591600,9.406591552734374,-0.0017406874103471637,0.0041583082638680935,0.0025168026331812143
1733359655182557700,9.4165576171875,-0.004188398364931345,0.008228950202465057,-0.0018262803787365556
1733359655192522800,9.426522705078124,-0.005698929540812969,0.007288711611181498,-0.004585195332765579
1733359655202488600,9.436488525390626,-0.008636396378278732,0.0018278993666172028,-0.007621997967362404
1733359655212453600,9.44645361328125,-0.00708005903288722,-0.00770154781639576,-0.007400542497634888
1733359655222419700,9.456419677734376,-0.004439268261194229,-0.012293901294469833,-0.005557368975132704
1733359655232385500,9.466385498046876,-0.002215821761637926,-0.006884266622364521,-0.008691753260791302
1733359655242350800,9.476350830078125,0.000819116597995162,0.004370518494397402,-0.01400982029736042
1733359655252316700,9.486316650390625,0.004422957077622414,0.014708785340189934,-0.01925615966320038
1733359655262282500,9.496282470703125,0.00861530564725399,0.017195912078022957,-0.020611975342035294
1733359655272247800,9.506247802734375,0.007860301062464714,0.01670423522591591,-0.017099667340517044
1733359655282213600,9.516213623046875,0.006176650989800692,0.01375691406428814,-0.011375468224287033
1733359655292178400,9.526178466796875,0.0038834025617688894,0.011305741034448147,-0.006141557823866606
1733359655302144500,9.53614453125,0.003275402821600437,0.00888253003358841,-0.0029556183144450188
1733359655312110300,9.5461103515625,0.0008897187071852386,0.004425365477800369,0.0025603435933589935
1733359655322075400,9.556075439453124,-0.0003744838759303093,-0.004648823291063309,0.007628072984516621
1733359655332041500,9.56604150390625,-0.0003984481154475361,-0.008449803106486797,0.011837194673717022
1733359655342007300,9.57600732421875,-0.001723637105897069,-0.004367710091173649,0.010296289809048176
1733359655351972400,9.585972412109374,-0.0013838544255122542,0.0018606064841151237,0.005460021551698446
1733359655361938400,9.5959384765625,-0.000543627014849335,0.011716965585947037,0.0014290609396994114
1733359655371903500,9.605903564453126,0.0014287485973909497,0.00988813303411007,-0.004323533736169338
1733359655381869600,9.61586962890625,-0.00011481955152703449,0.009104098193347454,-0.005096916109323502
1733359655391835400,9.62583544921875,-0.00270445691421628,0.01229078508913517,-0.003851907094940543
1733359655401800400,9.635800537109375,-0.0032237733248621225,0.015568338334560394,-0.005037546157836914
1733359655411766500,9.6457666015625,-0.002134308684617281,0.015017522498965263,-0.00439236406236887
1733359655421732400,9.655732421875,-0.0001726242626318708,0.010068037547171116,-0.004430446773767471
1733359655431697400,9.665697509765625,-0.004111976362764835,0.003452595788985491,-0.0018399866530671716
1733359655441663500,9.67566357421875,-0.003836871823295951,-0.008173699490725994,0.0065913149155676365
1733359655451628500,9.685628662109375,-0.003939112648367882,-0.019652090966701508,0.013475830666720867
1733359655461594400,9.695594482421875,-0.0027476144023239613,-0.023175984621047974,0.015280121937394142
1733359655471560400,9.705560546875,-0.0005185566842556,-0.024050068110227585,0.01571821980178356
1733359655481525500,9.715525390625,-0.0014096503145992756,-0.016710396856069565,0.011655833572149277
1733359655491491600,9.72549169921875,-0.0006336113438010216,-0.0030314279720187187,0.009184558875858784
1733359655501457400,9.73545751953125,0.0005597511772066355,0.0026040873490273952,0.006826329976320267
1733359655511422500,9.74542236328125,-0.0000365245396096725,0.002034529112279415,0.004657312761992216
1733359655521388500,9.755388427734376,0.0012875990942120552,-0.0036489227786660194,0.00203409930691123
1733359655531353600,9.765353515625,-0.0005585286999121308,-0.005775025114417076,0.004746283870190382
1733359655541319400,9.7753193359375,-0.002439253032207489,-0.0030354317277669907,0.00530714588239789
1733359655551285500,9.785285400390626,-0.002791056642308831,-0.004195504821836948,0.0031356043182313442
1733359655561250600,9.79525048828125,-0.004374838434159756,-0.007280509918928146,-0.0007973521715030074
1733359655571216400,9.80521630859375,-0.0003595923772081733,-0.0024422872811555862,0.001202550483867526
1733359655581182500,9.815182373046875,-0.0008584024617448449,0.0035258568823337555,-0.0013905693776905537
1733359655591147500,9.8251474609375,0.0005192608223296702,0.0029580467380583286,-0.0028746244497597218
1733359655601113600,9.835113525390625,-0.0013880952028557658,0.002042984589934349,-0.005986528471112251
1733359655611078400,9.845078369140625,0.0010500452481210232,0.005815419368445873,-0.006357521750032902
1733359655621044500,9.85504443359375,0.003495359793305397,0.003166372887790203,-0.004933529067784548
1733359655631010600,9.865010498046875,0.002125423401594162,-0.0010614870116114616,-0.00804236438125372
1733359655640975400,9.874975341796874,0.0019176970236003399,-0.002268165349960327,-0.01120327040553093
1733359655650941400,9.88494140625,0.0050096455961465836,-0.0005307113751769066,-0.010020177811384201
1733359655660907500,9.894907470703124,0.007296768017113209,0.0043098502792418,-0.005827829707413912
1733359655670872600,9.90487255859375,0.009505847468972206,0.006712638307362795,-0.00043278688099235296
1733359655680838400,9.91483837890625,0.005969436373561621,0.0018704785034060478,0.005547075066715479
1733359655690803500,9.924803466796876,0.006101252511143684,-0.007329385727643967,0.006934457458555698
1733359655700769500,9.93476953125,0.001134457066655159,-0.009950734674930573,0.00504680909216404
1733359655710735600,9.944735595703126,-0.0037271715700626373,-0.0030294321477413177,0.005469743628054857
1733359655720700400,9.954700439453125,-0.006675823591649532,0.004212501924484968,0.005739788059145212
1733359655730666500,9.96466650390625,-0.007753046229481697,0.011761807836592197,0.004977968521416187
1733359655740632600,9.974632568359375,-0.009189022704958916,0.017092924565076828,0.001394951599650085
1733359655750597400,9.984597412109375,-0.004845947492867708,0.0162433423101902,-0.004108197521418333
1733359655760563500,9.9945634765625,-0.0053088050335645676,0.007939339615404606,-0.007409452460706234
1733359655770528500,10.004528564453125,-0.005048059392720461,-0.002275056205689907,-0.010102060623466969
1733359655780494300,10.014494384765625,-0.00556710921227932,-0.009861337020993233,-0.005678283981978893
1733359655790460400,10.02446044921875,-0.004956472665071487,-0.013174884021282196,-0.0019550281576812267
1733359655800425500,10.034425537109374,-0.0031870687380433083,-0.013797532767057419,0.0010258479742333293
1733359655810391600,10.0443916015625,0.0006449661450460553,-0.010973596945405006,-0.00024475669488310814
1733359655820356400,10.0543564453125,0.0033906851895153522,-0.005960728973150253,-0.00051160529255867
1733359655830322400,10.064322509765624,0.00539017841219902,-0.0028563160449266434,-0.003309781663119793
1733359655840288500,10.07428857421875,0.004172581247985363,-0.00837385281920433,-0.005433919373899698
1733359655850253300,10.08425341796875,0.0023041439708322287,-0.011235670186579227,-0.0021161860786378384
1733359655860219400,10.094219482421876,0.0017853602766990662,-0.009012729860842228,-0.0008479886455461383
1733359655870185500,10.104185546875,-0.0002729928237386048,-0.010744966566562653,0.004703899379819632
1733359655880150500,10.114150634765625,-0.0008242671610787511,-0.008674891665577888,0.010485888458788395
1733359655890116400,10.124116455078125,-0.0015971430111676455,-0.0076767802238464355,0.012645070441067219
1733359655900081400,10.134081298828125,-0.0016746410401538014,-0.005813099443912506,0.01103199366480112
1733359655910047500,10.144047607421875,-0.0013870440889149904,-0.0018679937347769737,0.006229537073522806
1733359655920013300,10.154013427734375,-0.0008245845092460513,0.000530448742210865,0.0024305374827235937
1733359655929978400,10.163978271484375,0.001295556197874248,-0.00032623205333948135,0.0045385644771158695
1733359655939944400,10.1739443359375,0.005743567831814289,-0.00018322095274925232,0.006155636161565781
1733359655949910500,10.18391064453125,0.0042892564088106155,0.0009178975597023964,0.005763848777860403
1733359655959875300,10.193875244140624,0.0033931024372577667,0.005830364767462015,0.000319548649713397
1733359655969841400,10.20384130859375,0.0033499859273433685,0.006942274048924446,-0.005017851013690233
1733359655979806500,10.213806396484374,0.00029161182465031743,0.0066748932003974915,-0.0033443206921219826
1733359655989772500,10.2237724609375,-0.0007255348609760404,0.002763556782156229,0.0009839250706136227
1733359655999738400,10.23373828125,0.0005083077121526003,0.003046384546905756,0.004065468907356262
1733359656009703400,10.243703369140626,-0.00222111982293427,0.005403278395533562,0.00015817233361303806
1733359656019669500,10.25366943359375,-0.0018530709203332663,0.0056786490604281425,-0.004807557910680771
1733359656029635300,10.26363525390625,-0.004575388506054878,0.0027259252965450287,-0.00551259983330965
1733359656039600400,10.273600341796875,-0.004139961674809456,0.0014217756688594818,-0.00250083114951849
1733359656049566500,10.28356640625,-0.0030727945268154144,0.00393123272806406,0.0003637647023424506
1733359656059531500,10.293531494140625,-0.005002254620194435,0.0054766652174293995,0.001141674118116498
1733359656069497300,10.303497314453125,-0.005440084263682365,0.0028371140360832214,0.0019578051287680864
1733359656079463400,10.31346337890625,-0.0023082070983946323,0.00007248669862747192,0.004226818215101957
1733359656089428500,10.323428466796875,0.0007053915178403258,-0.002400868572294712,0.0075844284147024155
1733359656099394600,10.33339453125,0.0012481437297537923,-0.00341207068413496,0.015415986068546772
1733359656109360400,10.3433603515625,0.0019869969692081213,-0.005574786104261875,0.014832536689937115
1733359656119325400,10.353325439453124,0.0010064210509881377,-0.005056003108620644,0.00851844809949398
1733359656129291500,10.36329150390625,-0.0016304467571899295,0.0011525396257638931,-0.00033902551513165236
1733359656139257300,10.37325732421875,-0.001890903920866549,0.009760941378772259,-0.003573967609554529
1733359656149222400,10.383222412109374,0.0021251756697893143,0.012842352502048016,-0.007378588430583477
1733359656159188500,10.3931884765625,0.0029558155220001936,0.007133333943784237,-0.008375676348805428
1733359656169153500,10.403153564453126,0.0030010587070137262,0.002883003558963537,-0.006596790626645088
1733359656179119400,10.413119384765626,0.0029248923528939486,0.004667587578296661,-0.0038444132078438997
1733359656189085400,10.42308544921875,0.005450892262160778,0.005288869608193636,-0.0013610082678496838
1733359656199050500,10.433050537109375,0.003915579989552498,0.004527205601334572,0.0019839219748973846
1733359656209016600,10.4430166015625,0.005197105463594198,0.0031236368231475353,0.00229896348901093
1733359656218981600,10.452981689453125,0.003975247032940388,-0.0011709770187735558,0.0028350576758384705
1733359656228947500,10.462947509765625,0.0006303288973867893,-0.005625196732580662,0.0016390210948884487
1733359656238913500,10.47291357421875,-0.00008233299013227224,-0.009967747144401073,0.0010238309623673558
1733359656248878600,10.482878662109375,-0.0006120458710938692,-0.009881701320409775,-0.0004250525962561369
1733359656258844400,10.492844482421875,-0.0009702410316094756,-0.007952507585287094,0.00009799213148653507
1733359656268810500,10.502810546875,-0.0019686538726091385,-0.005966497585177422,-0.0021469248458743095
1733359656278775600,10.512775634765624,-0.00394791504368186,-0.00532574113458395,-0.001444383175112307
1733359656288741400,10.522741455078124,-0.003797674085944891,-0.005037365481257439,-0.00021763413678854704
1733359656298706700,10.532706787109374,-0.0007092060404829681,-0.005632581189274788,0.0017690840177237988
1733359656308673000,10.542673095703124,0.0005738434847444296,-0.0006115734577178955,0.007534883450716734
1733359656318638800,10.552638916015624,0.0015466961776837707,-0.005206857807934284,0.01147023681551218
1733359656328603600,10.562603759765626,0.0012220446951687336,-0.010110720060765743,0.014489738270640373
1733359656338570000,10.572570068359376,-0.0004642688436433673,-0.008735996671020985,0.01206759363412857
1733359656348535800,10.582535888671876,0.000031365671020466834,-0.0005878359079360962,0.004493546672165394
1733359656358500600,10.59250048828125,0.0016452412819489837,0.0069952490739524364,-0.0026767486706376076
1733359656368467000,10.602467041015625,0.0020918655209243298,0.011000294238328934,-0.009200704284012318
1733359656378431700,10.612431640625,0.000019926272216252983,0.00635973596945405,-0.01274111121892929
1733359656388397800,10.622397705078125,0.0008037108927965164,0.0010712957009673119,-0.012464690022170544
1733359656398364000,10.632364013671875,0.0011549817863851786,0.00211339071393013,-0.009031075984239578
1733359656408328700,10.64232861328125,0.0009823887376114726,0.000970679335296154,-0.0054728081449866295
1733359656418294800,10.652294677734375,0.0026236947160214186,-0.004255241714417934,-0.005434990860521793
1733359656428260900,10.6622607421875,0.003992563579231501,-0.009762507863342762,-0.0009595527080819011
1733359656438225700,10.6722255859375,0.0025235640350729227,-0.012009683065116405,0.001815993688069284
1733359656448192000,10.68219189453125,0.002163543598726392,-0.009436049498617649,0.0032616546377539635
1733359656458156800,10.69215673828125,-0.0005286458181217313,-0.004430372267961502,0.00028317514806985855
1733359656468122600,10.70212255859375,0.0016591059975326061,-0.0011744629591703415,-0.0015201517380774021
1733359656478089000,10.7120888671875,0.0003714675549417734,-0.00441313348710537,-0.000907358480617404
1733359656488053800,10.7220537109375,0.002018083818256855,-0.005625205114483833,0.0011147940531373024
1733359656498019800,10.732019775390626,0.002207967219874263,-0.004527715966105461,0.002199233276769519
1733359656507986000,10.74198583984375,0.0042975121177732944,-0.004934931173920631,0.002179234055802226
1733359656517950700,10.75195068359375,0.004604308400303125,0.002331237308681011,0.004102569073438644
1733359656527916800,10.761916748046875,0.008562006987631321,0.006377545651048422,0.0019374409457668662
1733359656537881900,10.7718818359375,0.007442147936671972,0.00639432342723012,0.0011030726600438356
1733359656547847700,10.78184765625,0.0032340853940695524,0.0024574301205575466,0.002977007534354925
1733359656557813800,10.791813720703125,0.0005879685049876571,0.0030113677494227886,0.006765354424715042
1733359656567778800,10.80177880859375,-0.0021885919850319624,0.004544421564787626,0.009323938749730587
1733359656577744600,10.81174462890625,-0.006116488482803106,0.0067058433778584,0.009356429800391197
1733359656587711000,10.8217109375,-0.007484050467610359,0.009625219739973545,0.009064574725925922
1733359656597675800,10.83167578125,-0.008138122968375683,0.012436985969543457,0.0038999062962830067
1733359656607641900,10.841641845703125,-0.007014555390924215,0.010966438800096512,-0.006040324456989765
1733359656617607000,10.85160693359375,-0.006345835980027914,0.009650570340454578,-0.00979697983711958
1733359656627572700,10.86157275390625,-0.0062600430101156235,0.006415585987269878,-0.006417330354452133
1733359656637538800,10.871538818359374,-0.0044224620796740055,-0.0022295676171779633,0.0028259693644940853
1733359656647504000,10.88150390625,-0.006978061981499195,-0.01330238301306963,0.008773501962423325
1733359656657469700,10.8914697265625,-0.0019185886485502124,-0.024449311196804047,0.013208198361098766
1733359656667435800,10.901435791015626,-0.0009478582651354373,-0.02678859606385231,0.01008643303066492
1733359656677400800,10.91140087890625,0.002156855072826147,-0.013978791423141956,0.0054131182841956615
1733359656687366700,10.92136669921875,0.0024399489630013704,-0.0023178746923804283,-0.002289010211825371
1733359656697332000,10.93133203125,-0.0021928860805928707,-0.0021498296409845352,-0.004523668438196182
1733359656707297800,10.9412978515625,-0.003995854407548904,-0.01323686819523573,-0.00011479808017611504
1733359656717264000,10.951263916015625,-0.005014779511839151,-0.02416541799902916,0.008736217394471169
1733359656727229000,10.96122900390625,-0.0038256742991507053,-0.022301852703094482,0.015246311202645302
1733359656737194800,10.97119482421875,-0.0021880967542529106,-0.014994405210018158,0.014687580056488514
1733359656747160800,10.981160888671875,0.002284434624016285,-0.0051881056278944016,0.011430117301642895
1733359656757126000,10.9911259765625,0.0045052445493638515,0.0014793844893574715,0.00347392400726676
1733359656767091700,11.001091796875,0.005441317334771156,0.004683982580900192,0.0007881521596573293
1733359656777057000,11.01105712890625,0.004641836509108543,0.0027867467142641544,0.0021865779999643564
1733359656787022800,11.02102294921875,0.006066625472158194,-0.0014683930203318596,0.0063383146189153194
1733359656796988700,11.03098876953125,0.003500137012451887,-0.004354461096227169,0.009234501980245113
1733359656806954000,11.0409541015625,0.004427757114171982,-0.008665155619382858,0.011237961240112782
1733359656816919800,11.050919921875,0.004438409581780434,-0.010614855214953423,0.00900250393897295
1733359656826886000,11.060885986328126,0.0032340975012630224,-0.004553157836198807,0.005504869390279055
1733359656836851000,11.070850830078125,0.0031928184907883406,0.00054146908223629,0.00035697908606380224
1733359656846816800,11.080816650390625,0.005208807066082954,0.004569132812321186,-0.0008480801479890943
1733359656856782800,11.090782958984375,0.0054716612212359905,0.004449822939932346,0.000473646679893136
1733359656866748000,11.100747802734375,0.0023744492791593075,0.0012980224564671516,-0.0016992662567645311
1733359656876713700,11.110713623046875,0.004243988543748856,-0.0019281301647424698,-0.004898521583527327
1733359656886679000,11.120678955078125,0.0009416239336133003,-0.0016954215243458748,-0.006666820961982012
1733359656896644900,11.130644775390625,-0.0029021166265010834,0.0003613382577896118,-0.006969089154154062
1733359656906610700,11.140610595703125,-0.004502643831074238,-0.0024518901482224464,-0.005368025507777929
1733359656916576000,11.150575927734375,-0.004160427488386631,-0.002914481796324253,-0.005052707623690367
1733359656926541800,11.160541748046874,-0.003156155813485384,-0.00411565788090229,-0.002822437323629856
1733359656936506600,11.170506591796874,-0.0017308318056166172,-0.004221651703119278,-0.004661882761865854
1733359656946473000,11.180472900390624,-0.003113006241619587,-0.004485214129090309,-0.002791417296975851
1733359656956438800,11.190438720703124,-0.0025074034929275513,-0.00253338273614645,-0.001868898281827569
1733359656966403800,11.20040380859375,-0.0019420366734266281,-0.0026086419820785522,0.00004660012200474739
1733359656976370000,11.210369873046876,-0.0011734483996406198,-0.006605781614780426,0.00329672172665596
1733359656986335700,11.220335693359376,0.0013214130885899067,-0.005017021670937538,0.006232846528291702
1733359656996301000,11.230301025390625,0.0019597727805376053,-0.003331507556140423,0.006780126132071018
1733359657006267000,11.240266845703125,0.0006558931199833751,-0.003944949246942997,0.008119160309433937
1733359657016231700,11.250231689453125,0.00019330203940626234,-0.0063079725950956345,0.009758868254721165
1733359657026198000,11.260197998046875,0.003980848006904125,-0.011532237753272057,0.007746984716504812
1733359657036163800,11.270163818359375,0.0022010572720319033,-0.00866401381790638,0.003530668094754219
1733359657046128600,11.280128662109375,0.004442914389073849,-0.0019818423315882683,-0.0034907632507383823
1733359657056095000,11.290094970703125,0.0016934667946770787,0.0068377479910850525,-0.0056260861456394196
1733359657066060800,11.300060791015625,0.00718813156709075,0.012178638949990273,-0.0074632964096963406
1733359657076025600,11.310025634765625,0.006743916310369968,0.020135099068284035,-0.00943616684526205
1733359657085992000,11.319991943359375,0.006646143272519112,0.017982926219701767,-0.011022712104022503
1733359657095957800,11.329957763671874,0.007624056190252304,0.015613779425621033,-0.009701783768832684
1733359657105922800,11.3399228515625,0.004714020062237978,0.010590790770947933,-0.007249545305967331
1733359657115889000,11.349888916015624,0.004129988607019186,0.005366734229028225,-0.002695273607969284
1733359657125853700,11.359853759765626,-0.0012083275942131877,0.0033092014491558075,0.0005821548402309418
1733359657135820000,11.369820068359376,-0.001963067566975951,0.0027312953025102615,0.004863985348492861
1733359657145785900,11.379785888671876,-0.0003576751914806664,0.00436030700802803,0.006929363589733839
1733359657155750700,11.389750732421875,0.0023619448766112328,0.0023757191374897957,0.00558340223506093
1733359657165717000,11.399717041015625,-0.0021366870496422052,-0.0031377719715237617,0.00523960730060935
1733359657175682800,11.409682861328125,-0.0011622366728261113,-0.007780993357300758,0.005995945073664188
1733359657185647600,11.419647705078125,-0.00132284767460078,-0.0037065139040350914,0.0039473287761211395
1733359657195614000,11.429614013671875,0.00036905851447954774,0.0022038398310542107,-0.0002692543203011155
1733359657205578800,11.439578857421875,0.00014136855315882713,0.00977438222616911,-0.006831158883869648
1733359657215544800,11.449544921875,-0.0035407179966568947,0.009986902587115765,-0.008152086287736893
1733359657225511000,11.459510986328125,-0.0012650713324546814,0.008996371179819107,-0.008792289532721043
1733359657235475700,11.469475830078125,0.0014175308169797063,0.014966379851102829,-0.007670033257454634
1733359657245441800,11.47944189453125,0.0026710866950452328,0.017870916053652763,-0.005971607752144337
1733359657255406800,11.48940673828125,0.004420517012476921,0.014953688718378544,-0.004985172767192125
1733359657265372700,11.49937255859375,0.005644782911986113,0.00581502728164196,-0.004722993355244398
1733359657275339000,11.509339111328124,0.0027483287267386913,-0.000015963800251483917,-0.0007279854035004973
1733359657285303800,11.5193037109375,0.004044761415570974,-0.0039554862305521965,0.003094577230513096
1733359657295269600,11.52926953125,-0.0006309503223747015,-0.008102825842797756,0.0034684850834310055
1733359657305235700,11.539235595703126,0.00031605554977431893,-0.0016208179295063019,0.00003341923002153635
1733359657315200800,11.54920068359375,0.0014465674757957458,0.007922885939478874,-0.003533086273819208
1733359657325166600,11.55916650390625,0.0014090454205870628,0.012293382547795773,-0.004309422802180052
1733359657335133000,11.5691328125,0.004186456091701984,0.011275256052613258,-0.0041030277498066425
1733359657345097700,11.57909765625,0.005679426249116659,0.010624853894114494,-0.008133857510983944
1733359657355063600,11.5890634765625,0.00425410270690918,0.011072530411183834,-0.010114982724189758
1733359657365028900,11.59902880859375,0.006372081581503153,0.012212763540446758,-0.009227854199707508
1733359657374994700,11.60899462890625,0.007443471346050501,0.012962177395820618,-0.007168964482843876
1733359657384960800,11.618960693359375,0.005862399470061064,0.01289265975356102,-0.004676954820752144
1733359657394925800,11.62892578125,0.003474076744168997,0.014081228524446487,-0.0005842086393386126
1733359657404891600,11.6388916015625,-0.0026978820096701384,0.01391370128840208,0.004139912314713001
1733359657414857700,11.648857666015624,-0.0034989607520401478,0.008806291036307812,0.005035266745835543
1733359657424822800,11.65882275390625,-0.004587344825267792,0.007380051538348198,0.004165302962064743
1733359657434788600,11.66878857421875,-0.006124787498265505,0.007819739170372486,0.002029980532824993
1733359657444753700,11.678753662109376,-0.006181234028190374,0.010025817900896072,0.003601234406232834
1733359657454719700,11.6887197265625,-0.0043053035624325275,0.0085371108725667,0.0012153084389865398
1733359657464685600,11.698685546875,-0.002651224145665765,0.006002339534461498,-0.0037004780024290085
1733359657474651000,11.70865087890625,-0.001450404874049127,0.003445971291512251,-0.010583417490124702
1733359657484616700,11.71861669921875,0.0005488218739628792,0.0025047766976058483,-0.015367780812084675
1733359657494582500,11.72858251953125,0.00024175943690352142,0.007758661173284054,-0.015866056084632874
1733359657504547800,11.7385478515625,0.0013643185375258327,0.007527780719101429,-0.013127028942108154
1733359657514513700,11.748513671875,0.0008487306185998023,0.0033823037520051003,-0.008695795200765133
1733359657524478700,11.758478759765625,0.0035199017729610205,-0.0015347432345151901,-0.003156706690788269
1733359657534444800,11.76844482421875,0.006215553730726242,-0.006241881288588047,-0.0004970078589394689
1733359657544410600,11.77841064453125,0.005338521208614111,-0.0018283026292920113,-0.001201896695420146
1733359657554375700,11.788375732421875,0.004484978038817644,0.0046141501516103745,-0.003963062539696693
1733359657564341800,11.798341796875,-0.000697791634593159,0.013901425525546074,-0.010727498680353165
1733359657574306800,11.808306884765624,-0.0000740793184377253,0.021318327635526657,-0.012602363713085651
1733359657584273000,11.81827294921875,-0.0027542640455067158,0.02331032231450081,-0.014427447691559792
1733359657594238700,11.82823876953125,-0.0018748883157968521,0.022960115224123,-0.008094982244074345
1733359657604203800,11.838203857421876,-0.001971615944057703,0.011382796801626682,-0.00021876837126910686
1733359657614169900,11.848169921875,-0.0018650894053280354,-0.0014163553714752197,0.00911534484475851
1733359657624135700,11.8581357421875,-0.0020006282720714808,-0.009766362607479095,0.015994809567928314
1733359657634100700,11.868100830078125,-0.0003023304743692279,-0.015224244445562363,0.019538942724466324
