time,seconds_elapsed,z,y,x
1733703546137683500,0.023683349609375,0.04521219804883003,-0.0404568687081337,0.00248905667103827
1733703546147649300,0.033649169921875,0.04064761847257614,-0.01981978863477707,0.009199184365570545
1733703546157615400,0.043615478515625,0.028443949297070503,-0.00034808553755283356,-0.002374114701524377
1733703546167582500,0.05358251953125,0.0033260006457567215,0.021616622805595398,-0.004126768093556166
1733703546177548300,0.06354833984375,-0.0057452586479485035,0.03806404024362564,0.00011191912926733494
1733703546187515400,0.073515380859375,-0.011638572439551353,0.04703134298324585,0.008421771228313446
1733703546197481500,0.0834814453125,-0.014185619540512562,0.056048810482025146,0.006091238930821419
1733703546207447300,0.093447265625,-0.01664396934211254,0.06909394264221191,0.004583902657032013
1733703546217414400,0.103414306640625,-0.01874254085123539,0.07689939439296722,0.0007116664201021194
1733703546227380500,0.11338037109375,-0.02076425775885582,0.07456931471824646,-0.0010477539617568254
1733703546237347300,0.123347412109375,-0.01738603785634041,0.06807465851306915,-0.0008107325993478298
1733703546247313400,0.1333134765625,-0.011012863367795944,0.06112934648990631,0.004581190645694733
1733703546257279500,0.143279541015625,-0.007440499030053616,0.05103490129113197,0.0074675241485238075
1733703546267246600,0.15324658203125,-0.003577160183340311,0.042335059493780136,0.005752841476351023
1733703546277212400,0.16321240234375,0.00549809355288744,0.03236765041947365,0.0009895116090774536
1733703546287178500,0.173178466796875,0.009128781035542488,0.015179874375462532,-0.004000453278422356
1733703546297145300,0.183145263671875,0.007012299261987209,-0.004030910320580006,-0.013885051012039185
1733703546307111400,0.193111328125,0.0043122172355651855,-0.02418021485209465,-0.01576090417802334
1733703546317078300,0.203078369140625,0.002805134514346719,-0.0362912081182003,-0.011243650689721107
1733703546327044600,0.213044677734375,0.0012943907640874386,-0.04461216554045677,-0.002238381886854768
1733703546337010400,0.223010498046875,0.002229959238320589,-0.05162639915943146,0.003201656974852085
1733703546346977500,0.2329775390625,0.00684056943282485,-0.05837097764015198,0.0014552081702277064
1733703546356943400,0.242943359375,0.011380193755030632,-0.05514349043369293,-0.002029271563515067
1733703546366910500,0.252910400390625,0.012538477778434753,-0.04373026266694069,-0.0035480414517223835
1733703546376876300,0.262876220703125,0.010928064584732056,-0.033598002046346664,-0.0022801104933023453
1733703546386842400,0.27284228515625,0.007001473102718592,-0.025773122906684875,0.0014601966831833124
1733703546396809200,0.282809326171875,0.003722855355590582,-0.021190356463193893,0.0027044254820793867
1733703546406775600,0.292775634765625,-0.0025147029664367437,-0.012670186348259449,0.005978638771921396
1733703546416741400,0.302741455078125,-0.005640455521643162,-0.00298933032900095,0.009483092464506626
1733703546426708500,0.31270849609375,-0.007609209511429071,0.008557363413274288,0.010000212118029594
1733703546436674300,0.32267431640625,-0.013595996424555779,0.01845633238554001,0.011123532429337502
1733703546446641400,0.332641357421875,-0.016460442915558815,0.027171049267053604,0.008699201047420502
1733703546456607200,0.342607177734375,-0.01666337624192238,0.03333333879709244,0.004303653724491596
1733703546466573300,0.3525732421875,-0.010705207474529743,0.039328433573246,-0.0014197076670825481
1733703546476540400,0.36254052734375,-0.00885084830224514,0.03506071865558624,-0.003467944683507085
1733703546486506200,0.37250634765625,0.0011874526971951127,0.02525198832154274,-0.00006316439248621464
1733703546496473300,0.382473388671875,0.003157659200951457,0.014286156743764877,0.003307065926492214
1733703546506439200,0.392439208984375,0.0034960985649377108,0.004321446642279625,0.0053937239572405815
1733703546516405200,0.4024052734375,0.0014883414842188358,-0.005947437137365341,-0.0007355415727943182
1733703546526372400,0.412372314453125,0.0026486569549888372,-0.005114599131047726,-0.0034661705140024424
1733703546536338400,0.42233837890625,0.004668931011110544,-0.0013038814067840576,-0.0036675056908279657
1733703546546304300,0.43230419921875,0.0021639165934175253,0.00303853303194046,-0.006794507149606943
1733703546556271400,0.442271240234375,0.0035655382089316845,0.006473744288086891,-0.01043717935681343
1733703546566237200,0.4522373046875,-0.002180085051804781,0.0008226595818996429,-0.009205415844917297
1733703546576204300,0.462204345703125,0.002157938200980425,-0.0048964787274599075,-0.007041864562779665
1733703546586170400,0.47217041015625,0.0032520319800823927,-0.01105416752398014,-0.0026646824553608894
1733703546596136400,0.482136474609375,0.0010892788413912058,-0.016072627156972885,0.0013923768419772387
1733703546606103300,0.492103271484375,0.002840457484126091,-0.014809522777795792,0.005342439748346806
1733703546616069400,0.5020693359375,0.002325402107089758,-0.01052050106227398,0.006348315626382828
1733703546626036500,0.512036376953125,-0.0012111830292269588,-0.0023112092167139053,0.004913251381367445
1733703546636002300,0.522002197265625,-0.002691634465008974,0.00749934371560812,0.005959340836852789
1733703546645968100,0.531968017578125,-0.004949463065713644,0.01680753007531166,0.005377691704779863
1733703546655935200,0.541935302734375,-0.008196921087801456,0.026712626218795776,0.004045312292873859
1733703546665901300,0.5519013671875,-0.008959335274994373,0.03227575495839119,0.004129145294427872
1733703546675867400,0.561867431640625,-0.009529784321784973,0.029707934707403183,0.003019405761733651
1733703546685834500,0.57183447265625,-0.005004612263292074,0.027107730507850647,-0.002187893493101001
1733703546695800300,0.58180029296875,-0.00007616629591211677,0.015670519322156906,-0.004143984988331795
1733703546705767400,0.591767333984375,0.00025403956533409655,0.004428664688020945,-0.00472547160461545
1733703546715733200,0.601733154296875,0.0025795118417590857,-0.011147898621857166,-0.004681529477238655
1733703546725699300,0.61169921875,0.002919838996604085,-0.024483341723680496,-0.0025707967579364777
1733703546735666200,0.621666259765625,0.004722532816231251,-0.034417200833559036,-0.0009958033915609121
1733703546745632500,0.631632568359375,0.0061651431024074554,-0.03776419535279274,-0.0011689993552863598
1733703546755599400,0.641599365234375,0.006562486756592989,-0.03933253139257431,-0.00015832972712814808
1733703546765565400,0.6515654296875,0.006530093494802713,-0.036852139979600906,-0.001239183358848095
1733703546775531300,0.66153125,0.005249379202723503,-0.03326806053519249,-0.0026296195574104786
1733703546785498400,0.671498291015625,0.001691325567662716,-0.028734911233186722,-0.0004506732802838087
1733703546795464200,0.681464111328125,-0.00032921478850767016,-0.017489979043602943,0.0010441590566188097
1733703546805430500,0.691430419921875,-0.002831765217706561,-0.004484669305384159,0.00709789851680398
1733703546815397400,0.7013974609375,-0.0029127253219485283,0.008889726363122463,0.004043252673000097
1733703546825363500,0.711363525390625,-0.004748055711388588,0.02280043065547943,0.002429074142128229
1733703546835330300,0.721330322265625,-0.005888687446713448,0.03463977947831154,0.002726549282670021
1733703546845296400,0.73129638671875,-0.004101972561329603,0.044055383652448654,0.004222712945193052
1733703546855262200,0.74126220703125,-0.004815433640033007,0.05131702497601509,0.001939851325005293
1733703546865229300,0.751229248046875,-0.004855839069932699,0.053648874163627625,0.00005250109825283289
1733703546875195400,0.7611953125,-0.0034121396020054817,0.05501827225089073,-0.001252714078873396
1733703546885162200,0.771162353515625,-0.002708437154069543,0.04972133785486221,0.0011732697021216154
1733703546895128300,0.78112841796875,-0.0008876339998096228,0.04436545446515083,0.002068358240649104
1733703546905094400,0.791094482421875,-0.0023375556338578463,0.037972353398799896,0.002436283277347684
1733703546915061200,0.801061279296875,0.00016208732267841697,0.033816222101449966,0.003287962172180414
1733703546925027300,0.81102734375,-0.0023804325610399246,0.0287261214107275,0.0003281249664723873
1733703546934993200,0.8209931640625,-0.004084589425474405,0.023943882435560226,0.000151823740452528
1733703546944960300,0.830960205078125,-0.004813370294868946,0.017919033765792847,0.002593335462734103
1733703546954926300,0.84092626953125,-0.007637386210262775,0.010377495549619198,0.0036676544696092606
1733703546964893400,0.8508935546875,-0.007540668826550245,0.004308569245040417,0.005422109737992287
1733703546974859300,0.860859375,-0.006667951121926308,0.0005124993622303009,0.004741938319057226
1733703546984825300,0.870825439453125,-0.006342295557260513,-0.0030710091814398766,0.005190752446651459
1733703546994792200,0.880792236328125,-0.0029925713315606117,-0.004113903269171715,0.006377190817147493
1733703547004758300,0.89075830078125,-0.0011823491659015417,-0.005559041164815426,0.008189757354557514
1733703547014725000,0.90072509765625,-0.00041269551729783416,-0.004635456018149853,0.005048292689025402
1733703547024691500,0.91069140625,-0.0017612706869840622,-0.0021721674129366875,0.0026199345011264086
1733703547034657300,0.9206572265625,-0.0004049227572977543,-0.0007811980322003365,0.0016936871688812971
1733703547044624400,0.930624267578125,-0.0025545251555740833,0.00267169252038002,0.0027564382180571556
1733703547054590200,0.940590087890625,-0.0009062949102371931,0.0054807947017252445,0.0023479091469198465
1733703547064556300,0.950556396484375,-0.003675715997815132,0.009269940666854382,0.0022999723441898823
1733703547074523100,0.960523193359375,-0.0054344674572348595,0.010583678260445595,0.005433980375528336
1733703547084489500,0.970489501953125,-0.006061137188225985,0.012306188233196735,0.005042926874011755
1733703547094456300,0.980456298828125,-0.007626809645444155,0.013901688158512115,0.005528421141207218
1733703547104422400,0.99042236328125,-0.005164863541722298,0.013585599139332771,0.002643885789439082
1733703547114388200,1.00038818359375,-0.004850877448916435,0.011884638108313084,0.0006217475747689605
1733703547124355300,1.010355224609375,-0.0006835390231572092,0.007596708834171295,0.0001805671490728855
1733703547134321200,1.020321044921875,-0.0003871291992254555,0.0056707109324634075,0.0004948201822116971
1733703547144288300,1.030288330078125,-0.0008558653062209487,-0.0012882547453045845,0.002847064286470413
1733703547154254300,1.04025439453125,-0.004314512945711613,-0.0020563099533319473,0.00523671880364418
1733703547164220400,1.050220458984375,-0.002842950401827693,-0.002823122777044773,0.004983082413673401
1733703547174187500,1.0601875,-0.005943402647972107,-0.0003719497472047806,0.006675787270069122
1733703547184153300,1.0701533203125,-0.003875579684972763,0.005692481994628906,0.006927243433892727
1733703547194119200,1.080119140625,-0.0023794155567884445,0.011281924322247505,0.0024752365425229073
1733703547204086300,1.090086181640625,-0.0013503703521564603,0.013150131329894066,-0.005357120186090469
1733703547214052000,1.100052001953125,0.003321080468595028,0.012908050790429115,-0.006473250687122345
1733703547224019200,1.110019287109375,0.0039053820073604584,0.009311353787779808,-0.0026468411087989807
1733703547233985500,1.119985595703125,0.00003634166205301881,0.00550276692956686,-0.0023576216772198677
1733703547243951400,1.129951416015625,0.00008479109965264797,0.004465167876332998,0.00037653534673154354
1733703547253918500,1.13991845703125,0.00033432929194532335,0.004598059691488743,0.003053278662264347
1733703547263884300,1.14988427734375,-0.00018303317483514547,0.007976301945745945,0.003213748801499605
1733703547273851400,1.159851318359375,-0.0004988840082660317,0.013634453527629375,0.005114712752401829
1733703547283817200,1.169817138671875,-0.0015003022272139788,0.021438591182231903,0.0037508707027882338
1733703547293783600,1.179783447265625,-0.006079607643187046,0.029873887076973915,0.0022448531817644835
1733703547303750400,1.18975048828125,-0.006741092540323734,0.03384311869740486,-0.00002714083530008793
1733703547313716500,1.199716552734375,-0.010270579718053341,0.0311871487647295,0.0005140135763213038
1733703547323682300,1.209682373046875,-0.0088545773178339,0.023469042032957077,0.00021494063548743725
1733703547333649400,1.2196494140625,-0.00683510210365057,0.013804430142045021,0.000025856075808405876
1733703547343615200,1.229615234375,-0.003666688222438097,0.003012100700289011,0.00178238726221025
1733703547353582300,1.239582275390625,-0.0021212559659034014,-0.007269032299518585,0.00380505807697773
1733703547363548200,1.249548095703125,-0.0008842798415571451,-0.017452586442232132,0.005790193565189838
1733703547373514500,1.259514404296875,0.0002800541988108307,-0.023355748504400253,0.005141713656485081
1733703547383481300,1.2694814453125,0.000042753759771585464,-0.024196945130825043,0.007686881348490715
1733703547393447400,1.279447509765625,0.0017825968097895384,-0.020730575546622276,0.0073052505031228065
1733703547403414300,1.289414306640625,0.002381639089435339,-0.015611527487635612,0.005461934022605419
1733703547413380400,1.29938037109375,0.0018167825182899833,-0.009105691686272621,0.0022522923536598682
1733703547423346200,1.30934619140625,0.0000789522600825876,-0.0012776413932442665,0.0023279436863958836
1733703547433313300,1.319313232421875,-0.0009429026977159083,0.0013160118833184242,-0.0012034077662974596
1733703547443279400,1.329279296875,-0.002545984461903572,-0.00023876316845417023,-0.0012113247066736221
1733703547453246500,1.33924658203125,-0.0010681962594389915,-0.0004267822951078415,-0.000303453067317605
1733703547463212300,1.34921240234375,-0.0012343751732259989,-0.0020170528441667557,-0.00019428180530667305
1733703547473178000,1.35917822265625,-0.0010135991033166647,0.003161197528243065,0.0012811095220968127
1733703547483145200,1.369145263671875,0.0013188454322516918,0.004008309915661812,0.0005468052113428712
1733703547493111000,1.379111083984375,0.00011403128155507147,0.0038772826083004475,0.002200894523411989
1733703547503077400,1.389077392578125,-0.001071291510015726,0.00029307976365089417,0.0036874287761747837
1733703547513044200,1.399044189453125,-0.0017200375441461802,0.00020626094192266464,0.004336707293987274
1733703547523010300,1.40901025390625,-0.004194263368844986,0.0002435743808746338,0.004378455691039562
1733703547532977200,1.41897705078125,-0.00412901584059,0.0013663629069924355,0.002321962732821703
1733703547542943200,1.428943115234375,-0.003648818004876375,0.0003456743434071541,0.0007422426715493202
1733703547552909000,1.438908935546875,-0.004011540208011866,0.002474072389304638,0.002119629643857479
1733703547562876200,1.448876220703125,-0.0051166289485991,0.007902244105935097,0.0038274594116955996
1733703547572842200,1.45884228515625,-0.003946701996028423,0.009659663774073124,0.004896718543022871
1733703547582809000,1.46880908203125,-0.005865755490958691,0.014586277306079865,0.0037279673852026463
1733703547592775200,1.478775146484375,-0.004391962196677923,0.015609197318553925,0.0037490064278244972
1733703547602741200,1.4887412109375,-0.005196237005293369,0.016168193891644478,0.0017692125402390957
1733703547612708000,1.4987080078125,-0.003941621631383896,0.014591336250305176,0.0023638964630663395
1733703547622674200,1.508674072265625,-0.004325649701058865,0.009934533387422562,0.0000767736928537488
1733703547632641000,1.51864111328125,-0.0026585110463202,0.004774392582476139,0.0007886366220191121
1733703547642607000,1.528607177734375,-0.000546576629858464,0.0020400863140821457,0.0022778057027608156
1733703547652573200,1.5385732421875,-0.0006198135088197887,0.00032048299908638,0.0015329195884987712
1733703547662540300,1.548540283203125,0.0019642736297100782,-0.0016624769195914268,0.0004674970405176282
1733703547672506000,1.558506103515625,-0.0002829016884788871,-0.0005833646282553673,0.00026136834640055895
1733703547682472200,1.56847216796875,0.0008992502698674798,0.00017863325774669647,0.0008876550709828734
1733703547692439000,1.57843896484375,-0.0016890759579837322,0.0020516347140073776,-0.0002212852705270052
1733703547702405000,1.588405029296875,0.00009720539674162865,0.0022189710289239883,-0.0011881734244525433
1733703547712372200,1.598372314453125,-0.0018775283824652433,0.0029457476921379566,-0.0026550423353910446
1733703547722338300,1.60833837890625,-0.0007708891062065959,0.0017533721402287483,-0.001869018655270338
1733703547732304100,1.61830419921875,-0.00019538000924512744,0.000296090729534626,-0.0003422284498810768
1733703547742271200,1.628271240234375,0.0006639000494033098,-0.002044147811830044,-0.00015761773101985455
1733703547752237000,1.638237060546875,0.0002274079597555101,-0.002105400897562504,-0.0007869226392358541
1733703547762204200,1.6482041015625,-0.0010663075372576714,0.00018354691565036774,0.0008756178431212902
1733703547772170200,1.658170166015625,0.00005941063864156604,-0.0024649668484926224,0.0013712320942431688
1733703547782136300,1.66813623046875,-0.00013086036778986454,-0.0016280552372336388,0.0011342638172209263
1733703547792103200,1.678103271484375,0.00014237992581911385,-0.0010051419958472252,-0.0013248990289866924
1733703547802069200,1.6880693359375,-0.0033423355780541897,-0.0001901155337691307,0.0014123644214123487
1733703547812036400,1.698036376953125,-0.0033463304862380028,-0.0008242148905992508,0.002761521842330694
1733703547822002200,1.708002197265625,-0.004156853072345257,-0.004083774983882904,0.0015711438609287143
1733703547831968300,1.71796826171875,-0.003090523649007082,-0.005699515342712402,0.0012688750866800547
1733703547841935000,1.72793505859375,-0.001298700924962759,-0.003259032964706421,0.000012857839465141296
1733703547851901200,1.737901123046875,0.0009095921413972974,-0.004018300212919712,-0.0010140570811927319
1733703547861867300,1.7478671875,0.00003399251727387309,-0.009454915300011635,-0.0014815123286098242
1733703547871834400,1.75783447265625,-0.00015296140918508172,-0.010377967730164528,0.0004849657416343689
1733703547881800200,1.76780029296875,0.0015605164226144552,-0.007257275283336639,0.0019515685271471739
1733703547891767300,1.777767333984375,-0.000758542213588953,-0.0038507962599396706,0.00021502934396266937
1733703547901733000,1.787733154296875,-0.00015407433966174722,-0.001272314228117466,0.0018054315587505698
1733703547911699200,1.79769921875,0.000843279471155256,0.0007333122193813324,0.0001284389290958643
1733703547921666000,1.807666015625,0.0010804517660290003,0.00042496342211961746,-0.0013509171549230814
1733703547931632400,1.81763232421875,0.001564081758260727,0.001626848243176937,-0.0056886738166213036
1733703547941599200,1.82759912109375,0.0005300437333062291,0.0005064494907855988,-0.003082197392359376
1733703547951565300,1.8375654296875,0.0021740130614489317,-0.0032557975500822067,-0.0025722018908709288
1733703547961531100,1.84753125,0.00018356239888817072,-0.0038714222609996796,0.0007043055957183242
1733703547971498200,1.857498291015625,-0.0011498823296278715,-0.0006593838334083557,0.003064931370317936
1733703547981464000,1.867464111328125,-0.0030031241476535797,0.0011311881244182587,0.002311698393896222
1733703547991431200,1.87743115234375,-0.00041905889520421624,0.005122201517224312,0.000613134354352951
1733703548001397200,1.887397216796875,-0.003161792643368244,0.00489009777083993,0.00025351124349981546
1733703548011363300,1.89736328125,-0.0015697547933086753,0.005484248977154493,0.0033214727882295847
1733703548021330200,1.907330078125,-0.0045800586231052876,0.007135223597288132,0.003312249667942524
1733703548031296300,1.917296142578125,-0.004271131940186024,0.008531251922249794,0.0036259701009839773
1733703548041263000,1.92726318359375,-0.0038865949027240276,0.0076412903144955635,0.0032098935917019844
1733703548051229200,1.937229248046875,-0.005662390496581793,0.004460676573216915,0.0031478418968617916
1733703548061195000,1.947195068359375,-0.005034384783357382,0.0003096098080277443,0.0008304080693051219
1733703548071162000,1.957162109375,-0.00559284957125783,-0.003611096180975437,0.0015278898645192385
1733703548081128200,1.967128173828125,-0.00478196470066905,-0.008678519167006016,0.0025042749475687742
1733703548091094300,1.97709423828125,-0.0036775521002709866,-0.01153635885566473,0.0024808389134705067
1733703548101061000,1.98706103515625,-0.0015890602953732014,-0.011780773289501667,0.0025851887185126543
1733703548111027200,1.997027099609375,0.0037186197005212307,-0.007357263006269932,0.002022196538746357
1733703548120994000,2.006994140625,0.006219594739377499,-0.004264533519744873,0.0006440106080844998
1733703548130960100,2.016960205078125,0.00571678951382637,-0.0013001691550016403,-0.003629830200225115
1733703548140926200,2.02692626953125,0.005637102294713259,0.0017501190304756165,-0.005417410284280777
1733703548150893300,2.036893310546875,0.005177440587431192,0.0023261606693267822,-0.0053982362151145935
1733703548160859100,2.046859130859375,0.00396007252857089,0.0036435360088944435,-0.005284044425934553
1733703548170826200,2.056826171875,0.0027896130923181772,0.0028560394421219826,-0.003740210086107254
1733703548180792000,2.0667919921875,-0.0007515648612752557,-0.001286843791604042,-0.0021837721578776836
1733703548190758100,2.076758056640625,-0.0007840554462745786,-0.0035896794870495796,0.00034276850055903196
1733703548200725000,2.08672509765625,-0.0017383412923663855,0.000009159557521343231,0.000380836077965796
1733703548210691300,2.09669140625,-0.0003455079277046025,0.0002278052270412445,0.0008285135263577104
1733703548220658200,2.106658203125,-0.0002801853115670383,-0.0020423829555511475,0.0013134907931089401
1733703548230624300,2.116624267578125,0.0007091789739206433,-0.002593657001852989,0.0011230746749788523
1733703548240590000,2.126590087890625,-0.00015407433966174722,-0.0008355565369129181,0.0029710971284657717
1733703548250557200,2.13655712890625,-0.00005660264287143946,-0.003416691906750202,0.0007875713054090738
1733703548260523000,2.14652294921875,-0.0004292745725251734,-0.001483691856265068,-0.0005252261180430651
1733703548270490000,2.156489990234375,0.0008754080045036972,0.0015049083158373833,-0.002179049188271165
1733703548280456200,2.166456298828125,0.000280985637800768,0.0033993138931691647,-0.0017776894383132458
1733703548290422300,2.17642236328125,-0.0007022533682174981,0.008454792201519012,-0.0025071294512599707
1733703548300389400,2.186389404296875,-0.0008957929094322026,0.011135251261293888,-0.0016319802962243557
1733703548310355200,2.196355224609375,-0.0014470673631876707,0.013147003017365932,-0.0020658092107623816
1733703548320321000,2.206321044921875,-0.0003807093598879874,0.012121254578232765,-0.0010761087760329247
1733703548330288000,2.2162880859375,-0.0017237416468560696,0.007778171915560961,-0.0013014122378081083
1733703548340254200,2.226254150390625,-0.0018548169173300266,0.001554669812321663,-0.001222511986270547
1733703548350221000,2.236220947265625,-0.0004228352918289602,-0.00016226992011070251,-0.00040359003469347954
1733703548360187400,2.2461875,0.0007089407881721854,-0.0029503265395760536,0.0005127630429342389
1733703548370153200,2.2561533203125,-0.0010050697019323707,-0.0004954244941473007,0.0006373989162966609
1733703548380120300,2.266120361328125,-0.0006505396449938416,0.0011614197865128517,0.00039218307938426733
1733703548390086100,2.276086181640625,0.00046772166388109326,0.0031076576560735703,-0.0007468508556485176
1733703548400053200,2.28605322265625,0.0018723208922892809,0.003943317569792271,-0.001823637867346406
1733703548410019000,2.29601904296875,0.0014166540931910276,0.0034045600332319736,-0.003730461234226823
1733703548419985400,2.3059853515625,0.0008345124078914523,0.0014273617416620255,-0.0018347350414842367
1733703548429952300,2.3159521484375,0.0019421210745349526,-0.002944483421742916,-0.0008759968914091587
1733703548439918300,2.32591845703125,0.0006056775455363095,-0.004812682047486305,0.00019029481336474419
1733703548449885200,2.33588525390625,0.0009564158390276134,-0.006134409457445145,0.0002904296852648258
1733703548459851300,2.345851318359375,-0.0010889873374253511,-0.0048877038061618805,-0.00007801083847880363
1733703548469817600,2.355817626953125,-0.0007920449133962393,-0.003361978568136692,-0.0005973272491246462
1733703548479784400,2.365784423828125,-0.002376093063503504,0.00044527649879455566,-0.001150199444964528
1733703548489750500,2.37575048828125,-0.0021981941536068916,-0.0021672844886779785,-0.0011225026100873947
1733703548499717400,2.38571728515625,-0.001256271032616496,-0.0017212722450494766,0.0005119211273267865
1733703548509683700,2.39568359375,-0.0004655785160139203,-0.0071306852623820305,0.00046291889157146215
1733703548519649500,2.4056494140625,-0.0011695765424519777,-0.00840778648853302,0.002370598027482629
1733703548529616600,2.41561669921875,0.0002767862461041659,-0.0071678198873996735,0.0026425067335367203
1733703548539582500,2.42558251953125,0.0007542819366790354,-0.006303519010543823,0.001978607615455985
1733703548549549600,2.435549560546875,-0.0004651795607060194,-0.002283478155732155,0.0037615937180817127
1733703548559515400,2.445515380859375,-0.0013571246527135372,-0.0001855669543147087,-0.00020109815523028374
1733703548569481700,2.455481689453125,0.0011582309380173683,0.002850702963769436,-0.0025257712695747614
1733703548579448600,2.465448486328125,-0.0013683426659554243,0.0012201499193906784,-0.0013760635629296303
1733703548589414700,2.47541455078125,-0.0006165323429740965,-0.0016083931550383568,-0.0005827080458402634
1733703548599380500,2.48538037109375,0.003644590964540839,-0.005940030328929424,0.0004583644913509488
1733703548609347600,2.49534765625,-0.0013016981538385153,-0.011051169596612453,0.0020016662310808897
1733703548619313400,2.5053134765625,-0.0017748180544003844,-0.00827230978757143,0.002896965015679598
1733703548629280500,2.515280517578125,-0.002335147000849247,-0.004352935589849949,0.0030341176316142082
1733703548639246300,2.525246337890625,-0.0024485979229211807,0.0015885764732956886,0.002888176590204239
1733703548649212700,2.535212646484375,0.00013679888797923923,0.0043172514997422695,-0.0011531703639775515
1733703548659179500,2.545179443359375,-0.001058558584190905,0.004779295064508915,-0.0028678998351097107
1733703548669145600,2.5551455078125,0.0003795484371948987,0.004797404631972313,-0.00461013987660408
1733703548679112700,2.56511279296875,0.0025932700373232365,-9.918585419654846e-7,-0.004751185420900583
1733703548689078500,2.57507861328125,0.003400207730010152,-0.0029786722734570503,0.0006172147113829851
1733703548699044400,2.58504443359375,0.0021297666244208813,-0.0033562639728188515,0.0028953105211257935
1733703548709011500,2.595011474609375,0.003977201413363218,-0.0008006952702999115,0.002730460837483406
1733703548718977500,2.6049775390625,0.0010071198921650648,0.004236025270074606,-0.00015981122851371765
1733703548728944600,2.614944580078125,0.00261087529361248,0.007809720933437347,-0.00222083181142807
1733703548738910700,2.62491064453125,0.0019210127647966146,0.008918044157326221,-0.0023849818389862776
1733703548748876500,2.63487646484375,-0.0015837072860449553,0.009528174065053463,-0.0010448792017996311
1733703548758843600,2.64484375,-0.0042595877312123775,0.008429438807070255,0.002728183288127184
1733703548768809500,2.6548095703125,-0.006501436699181795,0.003457050770521164,0.00338917993940413
1733703548778776600,2.664776611328125,-0.006988386157900095,0.0016084332019090652,0.0024809238966554403
1733703548788742700,2.67474267578125,-0.004477824084460735,0.0014497088268399239,0.0007796966237947345
1733703548798708700,2.684708740234375,-0.003007525810971856,-0.0018604295328259468,0.0008007049327716231
1733703548808675600,2.694675537109375,-0.0002785847755149007,-0.004405079409480095,0.0000651398440822959
1733703548818641700,2.7046416015625,0.0006966647924855351,-0.0069057876244187355,0.00036476145032793283
1733703548828608500,2.7146083984375,0.0021901654545217752,-0.007993689738214016,0.0018377559026703238
1733703548838574600,2.72457470703125,0.0027785382699221373,-0.007647687569260597,0.0024577558506280184
1733703548848540700,2.734540771484375,0.002732998225837946,-0.004014336504042149,0.0015650643035769463
1733703548858507500,2.744507568359375,0.0036682491190731525,-0.004649072885513306,0.0017860146472230554
1733703548868473600,2.7544736328125,0.004018987528979778,-0.0025318600237369537,-0.0024193827994167805
1733703548878440700,2.764440673828125,0.0029489146545529366,-0.0011370517313480377,-0.004512061830610037
1733703548888406500,2.774406494140625,0.004644283093512058,-0.0032121874392032623,-0.0058875842951238155
1733703548898372600,2.78437255859375,0.004225481301546097,-0.0025357892736792564,-0.004451369866728783
1733703548908339500,2.79433935546875,0.005356259178370237,-0.0035429969429969788,-0.002524039940908551
1733703548918305500,2.804305419921875,0.002515533473342657,-0.006416289135813713,-0.0016440493054687977
1733703548928272400,2.8142724609375,0.0015474745305255055,-0.006586197763681412,0.002124323509633541
1733703548938238700,2.82423876953125,0.0011423598043620586,-0.003447890281677246,-0.0007565806154161692
1733703548948204500,2.83420458984375,0.0005591275985352695,0.00010183732956647873,-0.0019560684449970722
1733703548958171600,2.844171630859375,0.0018689734861254692,0.004223962780088186,-0.0005085398443043232
1733703548968137500,2.854137451171875,0.00013552192831411958,0.007125476840883493,0.0010177178774029016
1733703548978103600,2.864103515625,0.0005804412066936493,0.007432883605360985,0.0005946817109361291
1733703548988070400,2.8740703125,-0.00022836081916466355,0.008715461939573288,-0.001220528967678547
1733703548998036700,2.88403662109375,-0.00012750312453135848,0.005598609335720539,-0.0010248005855828524
1733703549008003600,2.894003662109375,0.0009694528998807073,0.005527769215404987,-0.0007430382538586855
1733703549017969700,2.9039697265625,0.0021175616420805454,0.007981903851032257,0.00021883868612349033
1733703549027935500,2.913935546875,0.0004570808378048241,0.008317728526890278,-0.00019208691082894802
1733703549037902600,2.923902587890625,-0.0021382176782935858,0.006934521719813347,0.0028997324407100677
1733703549047868400,2.933868408203125,-0.0037848500069230795,0.008437076583504677,0.002888280898332596
1733703549057835500,2.94383544921875,-0.0025790086947381496,0.010940649546682835,0.000995615147985518
1733703549067801600,2.953801513671875,-0.002238656859844923,0.012225625105202198,0.002661422360688448
1733703549077767700,2.963767578125,-0.0042036245577037334,0.01035746093839407,0.0008118877885863185
1733703549087734500,2.973734619140625,-0.003785508219152689,0.008317746222019196,0.0024489329662173986
1733703549097700600,2.98370068359375,-0.004125830251723528,0.005372656974941492,0.0013981168158352375
1733703549107667700,2.993667724609375,-0.0005018006777390838,0.00629437668249011,0.0015634989831596613
1733703549117633500,3.003633544921875,0.0008629199583083391,0.004559278953820467,0.0006215069442987442
1733703549127599400,3.013599365234375,0.0016642650589346886,0.006613641511648893,-0.0003127299714833498
1733703549137566500,3.02356640625,0.0021620364859700203,0.007357126101851463,-0.002582378452643752
1733703549147532500,3.033532470703125,0.00361825292930007,0.004201280418783426,-0.002622592030093074
1733703549157499600,3.043499755859375,0.004063009284436703,0.004250711761415005,-0.0013527118135243654
1733703549167465700,3.0534658203125,0.0004024947411380708,0.003443241585046053,-0.0007633543573319912
1733703549177431600,3.063431640625,-0.001435798592865467,0.0007321685552597046,0.002189026214182377
1733703549187398700,3.073398681640625,-0.004358883947134018,0.0026323338970541954,0.0016417467268183827
1733703549197364500,3.083364501953125,-0.002612409181892872,0.0022031012922525406,0.002031591022387147
1733703549207331600,3.09333154296875,-0.003836663905531168,0.0021937796846032143,0.0030052426736801863
1733703549217297700,3.103297607421875,-0.003671665908768773,0.0014976784586906433,0.0035618762485682964
1733703549227263500,3.113263427734375,-0.003289768472313881,0.0022396352142095566,0.0014465274289250374
1733703549237230600,3.123230712890625,-0.0030709998682141304,-0.0003927825018763542,0.0005958586698397994
1733703549247196700,3.13319677734375,-0.002126909326761961,-0.0016561858355998993,0.0003793436335399747
1733703549257163500,3.14316357421875,-0.0004184030694887042,-0.004749665968120098,0.0019551196601241827
1733703549267129600,3.153129638671875,-0.0013092304579913616,-0.0039717573672533035,0.0035468912683427334
1733703549277095700,3.163095703125,0.0005012979963794351,-0.005377148278057575,0.0041413200087845325
1733703549287062500,3.1730625,-0.002724589081481099,-0.0023110508918762207,0.0015407432802021503
1733703549297028600,3.183028564453125,-0.000691294320859015,0.0007404712960124016,0.0004527581622824073
1733703549306994700,3.19299462890625,-0.0010923664085566998,0.0063847741112113,-0.0009320855606347322
1733703549316961500,3.20296142578125,-0.0032967403531074524,0.007393689826130867,-0.0026809987612068653
1733703549326927600,3.212927734375,-0.0032077908981591463,0.004585386253893375,-0.0028844643384218216
1733703549336894500,3.22289453125,-0.000666022184304893,-0.0008083526045084,0.0011890367604792118
1733703549346860500,3.232860595703125,-0.0032330432441085577,-0.00454024039208889,0.00399307906627655
1733703549356826600,3.24282666015625,-0.0028033345006406307,-0.00007653795182704926,0.005135915242135525
1733703549366793700,3.252793701171875,-0.0015870686620473862,0.00337997917085886,0.0065364716574549675
1733703549376759600,3.262759521484375,-0.0011644905898720026,0.0071471985429525375,0.0030852225609123707
1733703549386726700,3.2727265625,0.00003952451515942812,0.012288430705666542,-0.0018117979634553194
1733703549396692500,3.2826923828125,0.0002736746973823756,0.015490471385419369,-0.007051932625472546
1733703549406658600,3.292658447265625,-0.000146039470564574,0.01612403802573681,-0.007117180153727531
1733703549416625400,3.30262548828125,0.0020420716609805822,0.014185085892677307,-0.004040095955133438
1733703549426591700,3.312591796875,-0.0014762303326278925,0.008202827535569668,-0.00027039158158004284
1733703549436558600,3.32255859375,0.0007964689284563065,0.0025700340047478676,0.0011526993475854397
1733703549446524700,3.332524658203125,0.0011208419455215335,0.0005713310092687607,0.002435544040054083
1733703549456490500,3.342490478515625,0.0018759453669190407,0.0018454547971487045,0.0026651162188500166
1733703549466457600,3.35245751953125,-0.0021169318351894617,0.007860736921429634,0.0035034792963415384
1733703549476424200,3.362424072265625,-0.0018827638123184443,0.016860779374837875,0.0007737529231235385
1733703549486391000,3.37239111328125,-0.005783495493233204,0.02164301648736,0.0006983855273574591
1733703549496357000,3.382357177734375,-0.005726083181798458,0.017926350235939026,-0.0007847035303711891
1733703549506323200,3.3923232421875,-0.008159679360687733,0.013215219601988792,0.0006573982536792755
1733703549516290300,3.402290283203125,-0.006044124253094196,0.0057031214237213135,0.0017906741704791784
1733703549526256000,3.412256103515625,-0.0059570386074483395,-0.0033281901851296425,0.0014141032006591558
1733703549536223200,3.42222314453125,-0.0036027750466018915,-0.012018690817058086,0.002673062961548567
1733703549546189000,3.43218896484375,0.0002620041777845472,-0.01736551895737648,0.004446461796760559
1733703549556155100,3.442155029296875,0.0007114571635611355,-0.022876353934407234,0.0026158366817981005
1733703549566122000,3.4521220703125,0.0037575808819383383,-0.02386518381536007,0.0033266344107687473
1733703549576088000,3.462088134765625,0.0035253085661679506,-0.02064361609518528,0.004404999315738678
1733703549586055200,3.47205517578125,0.0019487172830849886,-0.012293007224798203,0.0019309228518977761
1733703549596021200,3.482021240234375,0.003003042656928301,-0.005627946928143501,-0.0001403277274221182
1733703549605987000,3.491987060546875,0.00010792029206641018,0.0017242422327399254,-0.0022863030899316072
1733703549615954200,3.5019541015625,-0.0006382212741300464,0.008592956699430943,-0.004193644970655441
1733703549625920000,3.511919921875,-0.0003479367005638778,0.009894443675875664,-0.004696715623140335
1733703549635886000,3.521885986328125,-0.0010574375046417117,0.0112640131264925,-0.0034331076312810183
1733703549645853000,3.53185302734375,-0.001043056370690465,0.009618978947401047,-0.0036269857082515955
1733703549655819300,3.5418193359375,-0.0015498021384701133,0.007790046278387308,-0.00011143996380269527
1733703549665786400,3.551786376953125,-0.000775887630879879,0.007369266822934151,0.0005942977732047439
1733703549675752200,3.561752197265625,-0.0009854838717728853,0.0032579791732132435,0.0005426546558737755
1733703549685718000,3.571718017578125,-0.0016211803304031491,-0.002541586756706238,0.0034284559078514576
1733703549695685000,3.58168505859375,-0.00389016792178154,-0.0055108144879341125,0.0036714239977300167
1733703549705651000,3.59165087890625,-0.003243818646296859,-0.0034729624167084694,0.005040022544562817
1733703549715618000,3.6016181640625,-0.0018435680540278554,-0.003834684379398823,0.004847254604101181
1733703549725584400,3.61158447265625,-0.003078209236264229,-0.0009390292689204216,0.0015720988158136606
1733703549735550200,3.62155029296875,-0.0017724615754559636,0.0016277255490422249,0.0013342784950509667
1733703549745517300,3.631517333984375,-0.0016899035545066,0.007205716334283352,0.0000865875044837594
1733703549755483100,3.641483154296875,-0.001982715679332614,0.00989336334168911,0.00023553811479359865
1733703549765450200,3.6514501953125,-0.0034154963213950396,0.00980414729565382,0.0007228966569527984
1733703549775416000,3.661416015625,-0.0018700568471103907,0.01002801675349474,0.0011585659813135862
1733703549785382100,3.671382080078125,-0.0033062996808439493,0.008698034100234509,-0.000246251467615366
1733703549795349200,3.681349365234375,-0.003987520933151245,0.010201520286500454,0.0005264627980068326
1733703549805315300,3.6913154296875,-0.0030679311603307724,0.007989497855305672,0.0008122200379148126
1733703549815282200,3.7012822265625,-0.0004373822011984885,0.008936398662626743,-0.00021996814757585526
1733703549825248300,3.711248291015625,-0.0017202268354594707,0.009115362539887428,0.0021672893781214952
1733703549835214000,3.721214111328125,-0.0007860350306145847,0.006715797819197178,0.0014719896716997027
1733703549845181200,3.73118115234375,0.000054724863730371,0.0033647422678768635,0.00207732617855072
1733703549855147000,3.74114697265625,-0.00039384711999446154,0.0027770609594881535,0.002308629686012864
1733703549865114000,3.751114013671875,0.00045303808292374015,0.0020020809024572372,0.0009022143203765154
1733703549875080200,3.761080078125,0.001601755153387785,0.0026076054200530052,-0.0005408274009823799
1733703549885046300,3.77104638671875,-0.0009530152310617268,0.0040201460942626,-0.0011805188842117786
1733703549895013000,3.78101318359375,-0.0014109350740909576,0.002631988376379013,-0.0021250878926366568
1733703549904979200,3.790979248046875,0.000016785634215921164,0.0038631679490208626,-0.0011807309929281473
1733703549914946000,3.800946044921875,-0.002881543943658471,0.0003204960376024246,0.0014314274303615093
1733703549924912000,3.810912109375,0.0003390168130863458,0.0008155778050422668,-0.0005318550392985344
1733703549934878200,3.820878173828125,0.0020030902232974768,0.0015791896730661392,0.0005415006307885051
1733703549944845300,3.83084521484375,0.00003155216109007597,0.0038913460448384285,-0.0008859536610543728
1733703549954811100,3.84081103515625,0.0011140559799969196,0.003309990279376507,-0.00090569700114429
1733703549964777200,3.850777099609375,0.00010045690578408539,0.001620747148990631,-0.0022106459364295006
1733703549974744000,3.860744140625,0.0018524337792769074,-0.0014644768089056015,-0.0007442773785442114
1733703549984710100,3.870710205078125,-0.0008389567956328392,-0.0049127377569675446,0.0008163350867107511
1733703549994677000,3.880677001953125,-0.0012941387249156833,-0.008571084588766098,0.0023482555989176035
1733703550004643300,3.890643310546875,-0.0018126562936231494,-0.008178800344467163,0.0027796877548098564
1733703550014609200,3.900609130859375,-0.0036163977347314358,-0.007200493477284908,0.0022194874472916126
1733703550024576300,3.910576171875,-0.002697074320167303,-0.0074002305045723915,0.0024812761694192886
1733703550034542000,3.9205419921875,-0.003247396321967244,-0.009302042424678802,0.0035127303563058376
1733703550044509200,3.93050927734375,-0.005027985665947199,-0.015037426725029945,0.002683954546228051
1733703550054475000,3.94047509765625,-0.005937046371400356,-0.016104936599731445,0.0031790914945304394
1733703550064441000,3.950441162109375,-0.00812350120395422,-0.017062876373529434,0.005167407914996147
1733703550074408000,3.960407958984375,-0.007515349425375462,-0.020498842000961304,0.005989287979900837
1733703550084374300,3.970374267578125,-0.007351032458245754,-0.019847165793180466,0.006278506480157375
1733703550094341000,3.980341064453125,-0.00624155905097723,-0.015528584830462933,0.0022110610734671354
1733703550104307200,3.99030712890625,-0.002883845940232277,-0.010482960380613804,-0.001807649154216051
1733703550114273000,4.00027294921875,-0.0026903916150331497,-0.005146197974681854,-0.005705458112061024
1733703550124240100,4.010240234375,0.002985869999974966,-0.0028612054884433746,-0.006986704654991627
1733703550134206000,4.0202060546875,0.007220178376883268,-0.007128339260816574,-0.006500645540654659
1733703550144173000,4.030173095703125,0.010966447181999683,-0.013532709330320358,-0.0025301382411271334
1733703550154139100,4.04013916015625,0.00890315230935812,-0.013453229330480099,-0.003016752889379859
1733703550164105200,4.050105224609375,0.01095085684210062,-0.012036160565912724,-0.0020769231487065554
1733703550174072300,4.060072265625,0.0132888900116086,-0.005804304964840412,-0.00221945159137249
1733703550184038100,4.0700380859375,0.013292085379362106,-0.0007597450166940689,-0.0013552557211369276
1733703550194005200,4.080005126953125,0.009196880273520947,0.004306027200073004,-0.004508766811341047
1733703550203971000,4.08997119140625,0.00304204854182899,0.005333474837243557,-0.004163355100899935
1733703550213937200,4.099937255859375,-0.002482830546796322,0.003124070819467306,-0.005266465712338686
1733703550223904300,4.109904296875,-0.006298608146607876,-0.00186136644333601,-0.0017521583940833807
1733703550233870300,4.119870361328125,-0.006354805082082748,-0.009122110903263092,0.0005898460512980819
1733703550243836200,4.129836181640625,-0.00918680988252163,-0.018095098435878754,0.0032253102399408817
1733703550253803300,4.13980322265625,-0.006801260635256767,-0.024516567587852478,0.004138783551752567
1733703550263769000,4.14976904296875,-0.002247255528345704,-0.030772067606449127,0.004090580157935619
1733703550273736200,4.159736083984375,-0.0009542769403196871,-0.03273921087384224,0.0040678102523088455
1733703550283702000,4.169701904296875,0.0034303516149520874,-0.030013997107744217,0.004177265800535679
1733703550293668400,4.17966845703125,0.0025322912260890007,-0.0265684612095356,0.0007900400087237358
1733703550303635200,4.18963525390625,0.0014206876512616873,-0.017267104238271713,0.0019474498694762588
1733703550313601300,4.199601318359375,0.0009654782479628921,-0.0066665466874837875,-0.00017563765868544579
1733703550323568000,4.209568115234375,0.0009425750467926264,0.0013588881120085716,-0.001713879406452179
1733703550333534200,4.2195341796875,0.002583300694823265,0.00827249325811863,-0.005046488717198372
1733703550343500000,4.2295,0.00256838696077466,0.014822538942098618,-0.006043043918907642
1733703550353467100,4.239467041015625,0.00434909388422966,0.01785396598279476,-0.007115264423191547
1733703550363433200,4.24943310546875,0.004436179529875517,0.016055000945925713,-0.006871053017675877
1733703550373400300,4.259400390625,0.0044722058810293674,0.011536040343344212,-0.004889644682407379
1733703550383366100,4.2693662109375,0.004090841393917799,0.008390048518776894,-0.0038323698099702597
1733703550393332200,4.279332275390625,0.004131539724767208,0.004984703846275806,-0.001624271972104907
1733703550403299000,4.289299072265625,0.0017458799993619323,0.00029274728149175644,0.003071147482842207
1733703550413265200,4.29926513671875,-0.0037486692890524864,-0.003949349746108055,0.003349702339619398
1733703550423232000,4.30923193359375,-0.005727397743612528,-0.0014252057299017906,0.003580598160624504
1733703550433198300,4.3191982421875,-0.00775672635063529,-0.0032425476238131523,0.005625373683869839
1733703550443164200,4.3291640625,-0.007039233110845089,-0.00019928812980651855,0.002744322642683983
1733703550453131300,4.33913134765625,-0.0050562908872962,0.0015539098531007767,0.0009808478644117713
1733703550463097000,4.34909716796875,-0.005155360326170921,-0.0011489316821098328,0.0011467627482488751
1733703550473063700,4.359063720703125,-0.0037852120585739613,-0.0029209591448307037,0.00209252187050879
1733703550483029800,4.36902978515625,0.0005030100583098829,-0.0024154912680387497,0.001253359718248248
1733703550492995800,4.378995849609375,0.0002211046521551907,0.0008736290037631989,-0.0005515199154615402
1733703550502963000,4.388962890625,0.0011377646587789059,0.0046739596873521805,0.00014676095452159643
1733703550512928800,4.3989287109375,0.003826826112344861,0.009423433803021908,-0.0009328448213636875
1733703550522894800,4.408894775390625,0.001470993971452117,0.011579528450965881,-0.0038037323392927647
1733703550532861700,4.41886181640625,0.001976014580577612,0.013646725565195084,-0.0035901591181755066
1733703550542827800,4.428827880859375,0.004899632651358843,0.010862923227250576,-0.0046884468756616116
1733703550552795000,4.438794921875,0.007999371737241745,0.00812921579927206,-0.0030784127302467823
1733703550562760700,4.4487607421875,0.005784420296549797,0.007286325097084045,-0.0012810451444238424
1733703550572726800,4.458726806640625,0.002658410929143429,0.004162332974374294,-0.003882447723299265
1733703550582694000,4.46869384765625,0.0006831443170085549,0.0016472432762384415,-0.0014155616518110037
1733703550592659700,4.47865966796875,-0.0009608861291781068,-0.0029868530109524727,-0.0005752008873969316
1733703550602626800,4.488626708984375,-0.0030666477978229523,-0.002358347177505493,-0.00034776702523231506
1733703550612593000,4.498593017578125,-0.005072555970400572,-0.0037258388474583626,-0.0020203792955726385
1733703550622558700,4.508558837890625,-0.007771936245262623,-0.008795165456831455,-0.0022315678652375937
1733703550632525800,4.51852587890625,-0.0064689163118600845,-0.01804671436548233,-0.0014494406059384346
1733703550642492000,4.528491943359375,-0.0031649989541620016,-0.024042021483182907,0.0036459853872656822
1733703550652459000,4.538458984375,-0.0017264969646930695,-0.025138095021247864,0.006442409008741379
1733703550662424800,4.5484248046875,0.00038379180477932096,-0.023201975971460342,0.006410450674593449
1733703550672390700,4.558390625,0.002245825482532382,-0.0165855810046196,0.005327946972101927
1733703550682357800,4.568357666015625,0.0046056522987782955,-0.009121804498136044,-0.000169083708897233
1733703550692323800,4.57832373046875,0.005733144469559193,0.0015318840742111206,-0.005401276983320713
1733703550702290700,4.588290771484375,0.006158717442303896,0.009121892973780632,-0.009434900246560574
1733703550712257000,4.598257080078125,0.004001744091510773,0.012731216847896576,-0.011173407547175884
1733703550722222800,4.608222900390625,0.002853655256330967,0.008075212128460407,-0.008028746582567692
1733703550732190000,4.61818994140625,0.004579463042318821,-0.0003491062670946121,-0.002369534457102418
1733703550742155800,4.62815576171875,-0.00013486470561474562,-0.004797384142875671,0.0017447832506150007
1733703550752123000,4.638122802734375,-0.0009836619719862938,-0.010240580886602402,0.003472712356597185
1733703550762088700,4.648088623046875,-0.0010917863110080361,-0.008333224803209305,0.004228517413139343
1733703550772054800,4.6580546875,-0.004121015779674053,-0.0034777969121932983,0.00215415027923882
1733703550782022000,4.66802197265625,-0.0024112663231790066,0.0025132503360509872,-0.0019220842514187098
1733703550791988000,4.677988037109375,0.001995302503928542,0.00647558830678463,-0.0008045202121138573
1733703550801953800,4.687953857421875,0.003926094621419907,0.0115648889914155,-0.0005110397469252348
1733703550811921000,4.6979208984375,0.00678552221506834,0.011439650319516659,-0.003777898848056793
1733703550821886700,4.70788671875,0.004465908743441105,0.012507045641541481,-0.004776584450155497
1733703550831853800,4.717853759765625,0.0027419233229011297,0.011142520233988762,-0.003999069333076477
1733703550841819600,4.727819580078125,-0.0005726470262743533,0.0074503133073449135,-0.002763096010312438
1733703550851786000,4.737785888671875,-0.0019036604790017009,0.004375496879220009,-0.002941566752269864
1733703550861752800,4.7477529296875,0.0003786685410887003,0.0020929016172885895,-0.004066485911607742
1733703550871719000,4.757718994140625,0.0031464104540646076,0.005726729519665241,-0.002336222445592284
1733703550881685800,4.767685791015625,0.003901416901499033,0.0027210861444473267,-0.0002733378205448389
1733703550891651800,4.77765185546875,0.005109460558742285,0.0006039673462510109,-0.0010991217568516731
1733703550901617700,4.78761767578125,0.0057211886160075665,0.003209870308637619,-0.0034504267387092113
1733703550911584800,4.797584716796875,0.007798883598297834,0.0032920772209763527,-0.005116866901516914
1733703550921550800,4.80755078125,0.0077727846801280975,0.0027535860426723957,-0.004440157674252987
1733703550931518000,4.81751806640625,0.004701436031609774,0.0009614350274205208,-0.0039479900151491165
1733703550941483800,4.82748388671875,-0.0005351378349587321,-0.0013549821451306343,-0.00032688979990780354
1733703550951449900,4.837449951171875,-0.005741559900343418,-0.0002818731591105461,0.002066927496343851
1733703550961416700,4.847416748046875,-0.006525594741106033,0.003472385462373495,0.005238485988229513
1733703550971382800,4.8573828125,-0.005370741244405508,0.00558752566576004,0.0063314433209598064
1733703550981349600,4.867349609375,-0.0067776888608932495,0.0106062525883317,0.004952991381287575
1733703550991316000,4.87731591796875,-0.007851497270166874,0.010724999010562897,0.0005932876374572515
1733703551001281800,4.88728173828125,-0.006919390521943569,0.0051424806006252766,-0.0022469735704362392
1733703551011249000,4.897248779296875,-0.006700963247567415,0.0006422316655516624,-0.001056078588590026
1733703551021214700,4.907214599609375,-0.005167781375348568,-0.005578113719820976,0.0009852343937382102
1733703551031181800,4.917181884765625,-0.0015948888612911105,-0.013532611541450024,0.003108060220256448
1733703551041147600,4.927147705078125,0.0018392574274912477,-0.013950462453067303,0.0035831681452691555
1733703551051113700,4.93711376953125,0.0034116872120648623,-0.0151839479804039,0.0016146645648404956
1733703551061080800,4.947080810546875,0.004540867637842894,-0.01621032878756523,0.0003243630053475499
1733703551071047000,4.957046875,0.005385862663388252,-0.011808853596448898,-0.00433465838432312
1733703551081012700,4.9670126953125,0.004374660551548004,-0.009133176878094673,-0.00592989195138216
1733703551090979800,4.976979736328125,0.005143501330167055,-0.006019008345901966,-0.010645418427884579
1733703551100945700,4.986945556640625,0.0034798248670995235,-0.002932405099272728,-0.005785149522125721
1733703551110912800,4.996912841796875,0.003959431312978268,-0.004590949974954128,-0.003193978453055024
1733703551120878800,5.00687890625,0.003187380963936448,-0.0012340359389781952,0.0020103708375245333
1733703551130845000,5.016844970703125,0.0012217219918966293,0.0013894755393266678,0.002667748834937811
1733703551140812000,5.02681201171875,-0.0009769836906343699,0.005610852502286434,0.003156705293804407
1733703551150777900,5.03677783203125,0.00011145020835101604,0.008330472745001316,0.001853620633482933
1733703551160745000,5.046744873046875,-0.002751181600615382,0.009713718667626381,0.0006706444546580315
1733703551170710800,5.056710693359375,-0.00020236585987731814,0.011179599910974503,-0.0021534967236220837
1733703551180676600,5.066676513671875,-0.0013113061431795359,0.014906427823007107,-0.0026730792596936226
1733703551190643700,5.076643798828125,-0.0030168690718710423,0.01528523862361908,0.0002641048049554229
1733703551200610000,5.086610107421875,-0.004197981208562851,0.0123120853677392,0.0016409590607509017
1733703551210577000,5.096576904296875,-0.006660462822765112,0.004919925704598427,0.003880482167005539
1733703551220543000,5.10654296875,-0.00750468485057354,0.003650929778814316,0.005771859083324671
1733703551230508800,5.1165087890625,-0.005838385783135891,0.00555919436737895,0.004066401161253452
1733703551240476000,5.126475830078125,-0.007340674754232168,0.007163216359913349,0.0027683768421411514
1733703551250441700,5.136441650390625,-0.006758539937436581,0.0068067885003983974,-0.00003386614844202995
1733703551260408800,5.146408935546875,-0.003569937078282237,0.00542194489389658,-0.0006522522307932377
1733703551270374700,5.156374755859375,-0.001467685797251761,0.004983455408364534,-0.001150177326053381
1733703551280341000,5.166341064453125,0.0014908199664205313,0.0013282662257552147,-0.003652217099443078
1733703551290307800,5.176307861328125,0.0061189825646579266,0.0012044552713632584,-0.004801706410944462
1733703551300274000,5.18627392578125,0.00517648970708251,-0.0009252745658159256,-0.0028216459322720766
1733703551310240800,5.19624072265625,0.007846646010875702,-0.001965518109500408,-0.0032916583586484194
1733703551320206800,5.206206787109375,0.007630131673067808,0.0017163027077913284,-0.005061062052845955
1733703551330172700,5.216172607421875,0.005480154417455196,0.005001877900213003,-0.005109422840178013
1733703551340139800,5.226139892578125,0.005134476348757744,0.007536408491432667,-0.004574660211801529
1733703551350105900,5.23610595703125,0.00339128402993083,0.007551809772849083,-0.004142189864069223
1733703551360072000,5.246072021484375,0.0020107014570385218,0.008549962192773819,-0.003411151934415102
1733703551370038800,5.256038818359375,-0.0010027943644672632,0.008984575048089027,-0.004130926914513111
1733703551380004900,5.2660048828125,-0.0023647351190447807,0.007157113403081894,-0.00313836638815701
1733703551389971700,5.2759716796875,-0.0034802518784999847,0.0038415328599512577,-0.00005549914203584194
1733703551399937800,5.285937744140625,-0.0040658810175955296,-0.001808895729482174,0.001610574428923428
1733703551409903900,5.29590380859375,-0.0023647118359804153,-0.004676083102822304,0.0035135173238813877
1733703551419871000,5.30587109375,-0.0007281994330696762,-0.006843895651400089,0.0028096437454223633
1733703551429836800,5.3158369140625,-0.001880947151221335,-0.00793028250336647,0.00042388367000967264
1733703551439804000,5.325803955078125,0.00028686595032922924,-0.006180586293339729,0.0007698283297941089
1733703551449769700,5.335769775390625,0.0018010556232184172,-0.0026178620755672455,0.0008587886113673449
1733703551459735800,5.34573583984375,0.0019680357072502375,-0.0029904376715421677,-0.0005766551475971937
1733703551469702100,5.3557021484375,0.0023990850895643234,-0.0014577414840459824,-0.0008077863603830338
1733703551479668200,5.365668212890625,0.004191658925265074,-0.00023082271218299866,-0.0014421511441469193
1733703551489635300,5.37563525390625,0.0033175619319081306,-0.0007535628974437714,-0.001907335128635168
1733703551499601200,5.38560107421875,0.00360731384716928,-0.0026742340996861458,-0.0017102612182497978
1733703551509567200,5.395567138671875,0.0004780677263624966,-0.005339356139302254,-0.0010464000515639782
1733703551519534000,5.4055341796875,-0.00032966904109343886,-0.003404836170375347,-0.0008951325435191393
1733703551529500200,5.415500244140625,-0.0006790324114263058,0.0015848521143198013,-0.0011662072502076626
1733703551539467000,5.425467041015625,-0.0021099490113556385,0.0035108504816889763,-0.0007243889849632978
1733703551549433300,5.435433349609375,-0.000043689156882464886,0.005538531579077244,-0.0015049467328935862
1733703551559399200,5.445399169921875,-0.00001492706360295415,0.007878385484218597,-0.0031414590775966644
1733703551569366300,5.4553662109375,0.0015515394043177366,0.0005603842437267303,-0.0024231835268437862
1733703551579332000,5.46533203125,0.0021315759513527155,-0.0034226393327116966,-0.00009131943807005882
1733703551589299200,5.47529931640625,-0.001015817979350686,-0.008510332554578781,0.000428492552600801
1733703551599265000,5.48526513671875,-0.002386546926572919,-0.011521302163600922,0.003817365039139986
1733703551609231400,5.4952314453125,0.0006174508016556501,-0.01086718961596489,0.005082969553768635
1733703551619198200,5.5051982421875,-0.00005899212555959821,-0.005098517052829266,0.003364431904628873
1733703551629164300,5.515164306640625,0.0016114457976073027,0.0016247173771262169,-0.0010752235539257526
1733703551639130000,5.525130126953125,0.004490056540817022,0.007169951684772968,-0.005557856522500515
1733703551649097200,5.53509716796875,0.004432059358805418,0.009886762127280235,-0.007093535270541906
1733703551659063000,5.54506298828125,0.0028554678428918123,0.00645847525447607,-0.0067079090513288975
1733703551669030100,5.555030029296875,0.0013846511719748378,-0.00031904131174087524,-0.0010242608841508627
1733703551678996000,5.564995849609375,0.0009191306307911873,-0.004479697905480862,0.001325446180999279
1733703551688962300,5.57496240234375,-0.0002670413232408464,-0.0031449217349290848,0.0021675375755876303
1733703551698929200,5.58492919921875,0.0008464262937195599,0.0009859073907136917,0.0005864189006388187
1733703551708895200,5.594895263671875,0.0004270798817742616,0.00488626305013895,0.0005848391447216272
1733703551718862000,5.604862060546875,-0.000394238973967731,0.00873346533626318,-0.00017922185361385345
1733703551728828200,5.614828125,-0.0049260822124779224,0.010827536694705486,-0.0013149080332368612
1733703551738794000,5.6247939453125,-0.006184958387166262,0.012807064689695835,0.001452649012207985
1733703551748761000,5.634760986328125,-0.008071760646998882,0.008506020531058311,0.0002549553755670786
1733703551758727200,5.64472705078125,-0.006064002867788076,0.004617272410541773,0.0017125033773481846
1733703551768694300,5.6546943359375,-0.004479647614061832,-0.0012823650613427162,0.0036962456069886684
1733703551778660000,5.66466015625,-0.006322022061794996,-0.007168483920395374,0.002715136855840683
1733703551788626200,5.674626220703125,-0.0016934983432292938,-0.009696753695607185,0.0027549066580832005
1733703551798593000,5.684593017578125,-0.0004146485007368028,-0.009568389505147934,0.0018222675425931811
1733703551808559000,5.69455908203125,0.002046777866780758,-0.013066000305116177,-0.0005384562537074089
1733703551818526200,5.704526123046875,0.002793794497847557,-0.00845074187964201,-0.0000878495629876852
1733703551828492300,5.7144921875,0.0059793367981910706,-0.009011085145175457,0.000763643067330122
1733703551838458000,5.7244580078125,0.00567413866519928,-0.005677605979144573,-0.00010508019477128983
1733703551848425200,5.73442529296875,0.006227932404726744,-0.005535010248422623,-0.0015781286638230085
1733703551858391000,5.74439111328125,0.0036891407798975706,-0.004968821071088314,-0.002640729770064354
1733703551868357000,5.754357177734375,0.004118342883884907,-0.0010058609768748283,-0.0016147186979651451
1733703551878324000,5.764323974609375,0.0017744945362210274,0.0006287870928645134,-0.0008152376394718885
1733703551888290000,5.7742900390625,0.0005385735421441495,0.0029900744557380676,-0.0022622242104262114
1733703551898257200,5.784257080078125,-0.0010705082677304745,0.0060167573392391205,-0.0024390581529587507
1733703551908223200,5.79422314453125,-0.0014476403594017029,0.009648675099015236,-0.0016585553530603647
1733703551918189000,5.80418896484375,-0.002697461750358343,0.00888967327773571,-0.0009331102482974529
1733703551928156200,5.81415625,-0.0011350794229656458,0.004462684504687786,0.0012502733152359724
1733703551938122000,5.8241220703125,-0.0030650722328573465,-0.00189188402146101,0.00437549315392971
1733703551948089000,5.834089111328125,-0.0033909245394170284,-0.003677850589156151,0.005676679313182831
1733703551958055200,5.84405517578125,-0.00400345167145133,-0.003124445676803589,0.0031932813581079245
1733703551968021200,5.854021240234375,-0.0024238312616944313,-0.0008060736581683159,-0.0010492955334484577
1733703551977988400,5.86398828125,-0.0007460397901013494,0.003911982756108046,-0.00017311540432274342
1733703551987954200,5.8739541015625,-0.0015824905131012201,0.005893068388104439,-0.001844852464273572
1733703551997921300,5.88392138671875,0.0011480484390631318,0.009492596611380577,0.00046117871534079313
1733703552007887000,5.89388720703125,-0.00022541772341355681,0.010663431137800217,-0.00026428326964378357
1733703552017853200,5.903853271484375,-0.0025929678231477737,0.007780825719237328,0.0008736855816096067
1733703552027820000,5.913820068359375,-0.002010171767324209,0.006644202396273613,0.0029974295757710934
1733703552037786400,5.923786376953125,-0.0010679452680051327,0.006660181097686291,0.002658142941072583
1733703552047753200,5.933753173828125,-0.001707370625808835,0.007148512173444033,0.002178226364776492
1733703552057719300,5.94371923828125,-0.004506353288888931,0.005343155469745398,0.0022067222744226456
1733703552067685000,5.95368505859375,-0.0029790301341563463,0.006721074692904949,0.0005065602017566562
1733703552077652200,5.96365234375,-0.0016589011065661907,0.007815633900463581,0.0009241438237950206
1733703552087618000,5.9736181640625,-0.0027038035914301872,0.006007199641317129,0.000056432210840284824
1733703552097584000,5.983584228515625,-0.0014638358261436224,0.003837255761027336,0.0001216796226799488
1733703552107551000,5.993551025390625,-0.0011226367205381393,0.0022081611678004265,0.0006595674203708768
1733703552117517300,6.003517333984375,-0.0017665891209617257,-0.0015546195209026337,0.0006595674203708768
1733703552127484200,6.013484130859375,-0.00017099309479817748,-0.0023025134578347206,0.003654150292277336
1733703552137450200,6.0234501953125,-0.001094843726605177,0.0014900937676429749,0.0022352179512381554
1733703552147416000,6.033416015625,0.0004282419686205685,0.004650494083762169,0.0016931042773649096
1733703552157383200,6.043383056640625,-0.000005586945917457342,0.010679357685148716,-0.0009673936292529106
1733703552167349000,6.053348876953125,-0.0015389497857540846,0.011624472215771675,-0.004740854725241661
1733703552177316000,6.063316162109375,-0.00044225994497537613,0.009462517686188221,-0.004596245475113392
1733703552187282200,6.0732822265625,0.0013222412671893835,0.010006616823375225,-0.0011792208533734083
1733703552197248300,6.083248291015625,-0.0003206627443432808,0.010329924523830414,-0.0003602986689656973
1733703552207215000,6.093215087890625,0.0013515366008505225,0.011363057419657707,-0.001266291132196784
1733703552217181200,6.10318115234375,0.0008418075740337372,0.008359810337424278,-0.0014164934400469065
1733703552227148000,6.11314794921875,-0.0004045952809974551,0.00015632342547178268,0.001422736793756485
1733703552237114000,6.123114013671875,-0.001608610269613564,-0.00187753327190876,0.0028813499957323074
1733703552247080200,6.133080078125,-0.0006679611396975815,-0.0028277188539505005,0.005923056043684483
1733703552257047300,6.14304736328125,-0.0036091560032218695,-0.0036106882616877556,0.006660484708845615
1733703552267013000,6.15301318359375,-0.00465795723721385,-0.0006534745916724205,0.006112211383879185
1733703552276980200,6.162980224609375,-0.0039567467756569386,0.005484046880155802,0.0029744745697826147
1733703552286946000,6.172946044921875,-0.002450366737321019,0.010548234917223454,-0.00020707910880446434
1733703552296912100,6.182912109375,-0.004387816414237022,0.01591903157532215,-0.0027013958897441626
1733703552306879000,6.19287890625,-0.0021226536482572556,0.013722870498895645,-0.003700293367728591
1733703552316845000,6.202844970703125,-0.002839044202119112,0.006797320209443569,-0.0006400551646947861
1733703552326811100,6.21281103515625,-0.0028690844774246216,-0.001070861704647541,0.0019684184808284044
1733703552336778200,6.2227783203125,-0.0023119510151445866,-0.006244051270186901,0.003538351971656084
1733703552346744000,6.232744140625,-0.0017976247472688556,-0.00826548133045435,0.009459692053496838
1733703552356711200,6.242711181640625,-0.001823191181756556,-0.007754686288535595,0.008107871748507023
1733703552366677000,6.252677001953125,-0.0017854233738034964,-0.0014721704646945,0.0037991846911609173
1733703552376643000,6.26264306640625,-0.0007649001781828701,0.0027004708535969257,-0.0009321870747953653
1733703552386610200,6.272610107421875,-0.0016897793393582106,0.00668491842225194,-0.0036826408468186855
1733703552396576300,6.282576171875,-0.00042850623140111566,0.006027916446328163,-0.0009435797110199928
1733703552406543400,6.29254345703125,-0.001325617777183652,0.002891833893954754,0.0012535231653600931
1733703552416509200,6.30250927734375,-0.0009565036743879318,0.0009128386154770851,0.0025518140755593777
1733703552426475000,6.31247509765625,-0.0008344347006641328,-0.0005866000428795815,0.003388437908142805
1733703552436442000,6.322442138671875,0.0020164791494607925,0.001999329775571823,0.001935150707140565
1733703552446408000,6.332407958984375,0.0017401438672095537,0.007118545938283205,0.0022596274502575397
1733703552456375000,6.342375,0.0010181608377024531,0.013954880647361279,-0.0032123695127665997
1733703552466341400,6.35234130859375,-0.0020821543876081705,0.017288774251937866,-0.002448520390316844
1733703552476307000,6.362306884765625,-0.003383641131222248,0.018320750445127487,-0.0024858044926077127
1733703552486274000,6.372274169921875,-0.004776894114911556,0.014569617807865143,-0.0022524252999573946
1733703552496239900,6.382239990234375,-0.0044357432052493095,0.008041677065193653,-0.0009373566135764122
1733703552506207000,6.39220703125,-0.002589135430753231,-0.00010933540761470795,-0.00012177298776805401
1733703552516172800,6.4021728515625,-0.0014274646528065205,-0.008433843962848186,0.0009892977541312575
1733703552526139000,6.412138916015625,-0.00005796109326183796,-0.014802347868680954,0.0026603781152516603
1733703552536106000,6.42210595703125,0.00360681489109993,-0.020159030333161354,0.0010827213991433382
1733703552546072000,6.432072021484375,0.0013341958401724696,-0.020812271162867546,0.0031121601350605488
1733703552556038000,6.442037841796875,0.007522583473473787,-0.02047724649310112,0.0027712753508239985
1733703552566005000,6.4520048828125,0.0068202875554561615,-0.014989567920565605,0.00033570476807653904
1733703552575970800,6.461970703125,0.0049246493726968765,-0.008355101570487022,-0.0010219747200608253
1733703552585938000,6.47193798828125,0.001828697044402361,-0.0030526770278811455,-0.0028460598550736904
1733703552595904000,6.481904052734375,-0.0006192806758917868,0.00025949627161026,-0.0027661649510264397
1733703552605870000,6.4918701171875,-0.0038114890921860933,0.003098543733358383,-0.0005051959306001663
1733703552615837000,6.5018369140625,-0.0070381746627390385,0.006456256844103336,0.0008498203242197633
1733703552625803000,6.511802978515625,-0.0064872195944190025,0.0026018302887678146,0.0018419555854052305
1733703552635769900,6.521769775390625,-0.006119171157479286,-0.0018499093130230904,0.004882752895355225
1733703552645736000,6.53173583984375,-0.007689443416893482,-0.00506353285163641,0.004480848554521799
1733703552655701800,6.54170166015625,-0.007802894338965416,-0.007435610517859459,0.0059298742562532425
1733703552665668900,6.5516689453125,-0.008801120333373547,-0.011935713700950146,0.009076913818717003
1733703552675635000,6.561635009765625,-0.00803626049309969,-0.011630515567958355,0.009135769680142403
1733703552685602000,6.57160205078125,-0.00857668835669756,-0.008036832325160503,0.006902407854795456
1733703552695568000,6.58156787109375,-0.008139929734170437,-0.0045166658237576485,0.004389182664453983
1733703552705534000,6.591533935546875,-0.005052521824836731,0.001557905226945877,0.00260111503303051
1733703552715500800,6.601500732421875,-0.004056499805301428,0.0035137301310896873,-0.00389673188328743
1733703552725467000,6.611466796875,0.0013477520551532507,0.004187422338873148,-0.0030992182437330484
1733703552735433000,6.621432861328125,0.000866785179823637,-0.00035619642585515976,-0.0031197245698422194
1733703552745400000,6.631400146484375,0.004858765751123428,-0.003872727043926716,-0.001721938606351614
1733703552755366000,6.641365966796875,0.0045740739442408085,-0.004627998918294907,-0.001195964403450489
1733703552765333000,6.6513330078125,0.005097652785480022,-0.0024964995682239532,-0.0017334073781967163
1733703552775298800,6.661298828125,0.0048398589715361595,0.000752289779484272,-0.00241704098880291
1733703552785265000,6.671264892578125,0.0042495583184063435,0.004560729023069143,-0.0010194680653512478
1733703552795231700,6.681231689453125,0.0031651188619434834,0.008867326192557812,-0.0011483649723231792
1733703552805198000,6.691197998046875,0.000186880148248747,0.012581439688801765,-0.0006781383417546749
1733703552815165000,6.7011650390625,0.00033335399348288774,0.01417161338031292,-0.002140213968232274
1733703552825131000,6.711131103515625,0.003944995813071728,0.008543571457266808,0.000607557944022119
1733703552835096800,6.721096923828125,0.003958577755838633,0.0033685164526104927,0.0003923744661733508
1733703552845064000,6.73106396484375,-0.0016800935845822096,-0.004586187191307545,-0.004127838183194399
1733703552855029800,6.74102978515625,-0.005643676035106182,-0.013538935221731663,-0.004841831978410482
1733703552864996900,6.750996826171875,-0.00410985853523016,-0.018430905416607857,-0.0018028134945780039
1733703552874962700,6.760962646484375,-0.0030408655293285847,-0.018833309412002563,0.0029485321138054132
1733703552884929000,6.770928955078125,-0.002696546260267496,-0.026498613879084587,0.0030954526737332344
1733703552894895900,6.780895751953125,-0.0035815145820379257,-0.029814517125487328,0.0015675971517339349
1733703552904862000,6.790862060546875,-0.00018002948490902781,-0.03307323902845383,-0.000027245143428444862
1733703552914829000,6.8008291015625,-0.0032216256950050592,-0.03539658337831497,0.005285761319100857
1733703552924795000,6.810794921875,-0.005775275640189648,-0.02665569633245468,0.006330424919724464
1733703552934760700,6.8207607421875,-0.00621096882969141,-0.018541842699050903,0.00562575226649642
1733703552944727800,6.830727783203125,0.0015194362495094538,-0.004495304077863693,0.007740498520433903
1733703552954694000,6.84069384765625,0.0033237277530133724,0.011657566763460636,0.006806528195738792
1733703552964660000,6.850659912109375,0.002110896399244666,0.026181720197200775,0.0007959541399031878
1733703552974627000,6.860626953125,0.001575334696099162,0.035815704613924026,-0.003912248183041811
1733703552984593000,6.870593017578125,0.0010757256532087922,0.04431971162557602,-0.0053929658606648445
1733703552994560000,6.88056005859375,0.0005051759071648121,0.048640958964824677,-0.00593181187286973
1733703553004525800,6.89052587890625,0.0020999249536544085,0.04069741815328598,-0.009650204330682755
1733703553014492000,6.900491943359375,0.007426513358950615,0.03328557312488556,-0.008334334939718246
1733703553024459000,6.910458984375,0.008526229299604893,0.022548161447048187,-0.00798746757209301
1733703553034424800,6.9204248046875,0.006197826936841011,0.01049709040671587,-0.008267899043858051
1733703553044392000,6.930391845703125,-0.0009621776989661157,-0.003136349841952324,-0.004620824009180069
1733703553054358000,6.94035791015625,-0.0068672047927975655,-0.011997218243777752,0.00037393474485725164
1733703553064323800,6.95032373046875,-0.009431387297809124,-0.0172513909637928,0.00505482591688633
1733703553074291000,6.960291015625,-0.007802065461874008,-0.018593091517686844,0.0067888107150793076
1733703553084256800,6.9702568359375,-0.004824438132345676,-0.02406814508140087,0.004115888848900795
1733703553094224000,6.980223876953125,0.00018017395632341504,-0.024705437943339348,0.0016822919715195894
1733703553104190000,6.99018994140625,0.004383875522762537,-0.02735111303627491,-0.0014350446872413158
1733703553114156000,7.000156005859375,0.008139731362462044,-0.025540964677929878,-0.003411376615986228
1733703553124123000,7.010122802734375,0.009645774029195309,-0.022675737738609314,-0.0032277952414005995
1733703553134089000,7.0200888671875,0.011610121466219425,-0.01735260896384716,-0.0008932682685554028
1733703553144054800,7.0300546875,0.010932721197605133,-0.00959643255919218,-0.0017776251770555973
1733703553154022000,7.04002197265625,0.008243195712566376,0.00565788708627224,-0.0028165241237729788
1733703553163988000,7.049988037109375,0.007956990040838718,0.022578135132789612,-0.0053186616860330105
1733703553173955000,7.059955078125,0.004460792522877455,0.03154793009161949,-0.0088175218552351
1733703553183921000,7.0699208984375,0.0012926238123327494,0.035920146852731705,-0.007211655378341675
1733703553193887000,7.079886962890625,-0.002231004647910595,0.03286470100283623,-0.004120790399610996
1733703553203853800,7.089853759765625,-0.004621936473995447,0.02429601550102234,0.0020472481846809387
1733703553213820000,7.09981982421875,-0.009226541966199875,0.013930458575487137,0.0053138816729187965
1733703553223786800,7.109786865234375,-0.00911776628345251,0.00494588864967227,0.009244437329471111
1733703553233753000,7.119753173828125,-0.011841114610433578,0.0009322389960289001,0.009416477754712105
1733703553243719000,7.129718994140625,-0.01186239905655384,-0.0071908263489604,0.00819576345384121
1733703553253686000,7.13968603515625,-0.007050599902868271,-0.00863292720168829,0.0024502594023942947
1733703553263651800,7.14965185546875,-0.004346837289631367,-0.009078088216483593,0.0005705470684915781
1733703553273619000,7.159618896484375,0.00041649260674603283,-0.006388562731444836,-0.002081961603835225
1733703553283584800,7.169584716796875,0.0015917455311864614,-0.00978702213615179,-0.0017900790553539991
1733703553293550800,7.17955078125,0.006003804504871368,-0.009230689145624638,-0.0025123280938714743
1733703553303517700,7.189517578125,0.00667303241789341,-0.009232484735548496,-0.003925223834812641
1733703553313484000,7.199484130859375,0.008906358852982521,-0.009504127316176891,-0.0044037941843271255
1733703553323451000,7.209450927734375,0.010745806619524956,-0.008014451712369919,-0.004578516818583012
1733703553333417000,7.2194169921875,0.01136712171137333,-0.008993696421384811,-0.005837126635015011
1733703553343382800,7.2293828125,0.011688540689647198,-0.0059248656034469604,-0.0065868934616446495
1733703553353350000,7.239349853515625,0.008352930657565594,-0.0031056441366672516,-0.004412955604493618
1733703553363315700,7.249315673828125,0.005552422255277634,0.0008645839989185333,-0.003532745875418186
1733703553373282000,7.259281982421875,0.00025432970141991973,0.0023042894899845123,-0.0026168846525251865
1733703553383249000,7.269248779296875,-0.0017649505753070116,0.005289438646286726,-0.0009034418035298586
1733703553393215000,7.279215087890625,-0.004714667797088623,0.004988234955817461,-0.0003082253970205784
1733703553403181800,7.289181884765625,-0.0040782419964671135,0.0035341582261025906,0.0025005729403346777
1733703553413148000,7.29914794921875,-0.006213298533111811,0.002041722647845745,0.004272107966244221
1733703553423113700,7.30911376953125,-0.0058780331164598465,-0.0025010276585817337,0.003443777794018388
1733703553433080800,7.319080810546875,-0.002864932408556342,-0.002604890614748001,0.0013292278163135052
1733703553443047000,7.329046875,-0.0007659730035811663,-0.003121425397694111,-0.00003995746374130249
1733703553453014000,7.339013916015625,-0.0012637177715077996,-0.0037776287645101547,0.0006809602491557598
1733703553462979800,7.348979736328125,0.000642255472484976,-0.002632332965731621,0.001814225222915411
1733703553472946700,7.35894677734375,-0.0010946581605821848,0.00010166782885789871,0.0006703976541757584
1733703553482913500,7.36891357421875,0.0010369842639192939,0.0020108483731746674,0.0008511552587151527
1733703553492879600,7.378879638671875,-0.0013260385021567345,0.004941390361636877,-0.001343822106719017
1733703553502846500,7.388846435546875,-0.0009544767090119421,0.006550336256623268,-0.00023257476277649403
1733703553512812500,7.3988125,0.000022104475647211075,0.007012661080807447,-0.0013367212377488613
1733703553522778600,7.408778564453125,0.0017289244569838047,0.0038392385467886925,-0.0021806771401315928
1733703553532745500,7.418745361328125,0.0014724619686603546,-0.0007597748190164566,-0.0020693570841103792
1733703553542711600,7.428711669921875,0.00032173271756619215,-0.004304052330553532,-0.0007211421616375446
1733703553552677600,7.438677734375,0.00011081036063842475,-0.004528290592133999,-0.0010899899061769247
1733703553562644500,7.44864453125,0.0012065349146723747,-0.001099742017686367,-0.0005375612527132034
1733703553572610600,7.458610595703125,0.0009599261684343219,0.001092572696506977,-0.0024505096953362226
1733703553582577400,7.468577392578125,0.0012854873202741146,0.003923364449292421,-0.002951771719381213
1733703553592543500,7.47854345703125,0.001917189103551209,0.003278080839663744,-0.001228440087288618
1733703553602509600,7.488509521484375,0.0015418481780216098,0.0035373838618397713,-0.0033308423589915037
1733703553612476700,7.4984765625,0.002255841623991728,0.005223431158810854,-0.0006956444121897221
1733703553622442500,7.5084423828125,-0.00017915992066264153,0.0038687894120812416,-0.0011870150920003653
1733703553632409600,7.51840966796875,-0.000858798623085022,0.0007875114679336548,-0.0017473441548645496
1733703553642375400,7.52837548828125,-0.0023959996178746223,0.001965494826436043,0.0008544748416170478
1733703553652341500,7.538341552734375,0.00007328312494792044,0.00029329583048820496,-0.0008030766621232033
1733703553662308400,7.548308349609375,-0.00024890725035220385,0.00026964396238327026,0.00011139269918203354
1733703553672274700,7.558274658203125,0.0010648301104083657,0.0009841704741120338,-0.0019831836689263582
1733703553682240500,7.568240478515625,0.0013979161158204079,-0.00005391426384449005,-0.00009876140393316746
1733703553692207600,7.57820751953125,0.0017004512483254075,-0.0030092233791947365,-0.0003040910232812166
1733703553702173400,7.58817333984375,0.002479425398632884,-0.003345407545566559,0.0009481122251600027
1733703553712140500,7.598140625,0.0007779317093081772,-0.005875411443412304,0.0009824670851230621
1733703553722106400,7.6081064453125,0.0006639489438384771,-0.0037146955728530884,0.001384885748848319
1733703553732072700,7.61807275390625,0.0020687663927674294,-0.004919243045151234,0.00006182724609971046
1733703553742039600,7.62803955078125,-0.0016615232452750206,-0.003861702047288418,0.0000016398262232542038
1733703553752005600,7.638005615234375,-0.0038056340999901295,-0.0017285095527768135,0.0007675649831071496
1733703553761972500,7.647972412109375,-0.0042622690089046955,-0.000984768383204937,0.0005780707579106092
1733703553771938600,7.6579384765625,-0.0017258744919672608,-0.00004254281520843506,-0.0009503173641860485
1733703553781904400,7.667904296875,-0.0014620530419051647,0.000027486123144626617,-0.0020881574600934982
1733703553791871500,7.67787158203125,0.0015486504416912794,-0.003926243633031845,-0.00024445122107863426
1733703553801837600,7.687837646484375,0.0015163049101829529,-0.01093127578496933,-0.00013627391308546066
1733703553811804400,7.697804443359375,0.0014912711922079325,-0.013835186138749123,0.00316231744363904
1733703553821770500,7.7077705078125,0.0014273067936301231,-0.011726190336048603,0.00129364849999547
1733703553831736600,7.717736572265625,0.0012462119339033961,-0.0066118547692894936,0.00044543168041855097
1733703553841703400,7.727703369140625,0.0014670956879854202,-0.0012748930603265762,0.0015653708251193166
1733703553851669500,7.73766943359375,0.0005110208876430988,0.007406213320791721,-0.0013734274543821812
1733703553861635300,7.74763525390625,0.003226368920877576,0.011971603147685528,-0.005224580876529217
1733703553871602400,7.7576025390625,0.001873749541118741,0.016087785363197327,-0.010228926315903664
1733703553881568500,7.767568603515625,0.002708190819248557,0.016185415908694267,-0.0055534630082547665
1733703553891535600,7.77753564453125,0.003216588171198964,0.012931833043694496,-0.0055625177919864655
1733703553901501400,7.78750146484375,0.00022798895952291787,0.008896877057850361,-0.0020535364747047424
1733703553911467500,7.797467529296875,0.001702581299468875,0.003056032583117485,0.00039603898767381907
1733703553921434600,7.8074345703125,0.004572418052703142,-0.0006797872483730316,-0.000236244173720479
1733703553931400400,7.817400390625,0.002480505034327507,-0.0006142733618617058,-0.0021332139149308205
1733703553941367600,7.827367431640625,0.004532238002866507,0.0032701105810701847,-0.0014378847554326057
1733703553951333600,7.837333740234375,-0.0015948963118717074,0.004728723783046007,0.0006905135232955217
1733703553961299500,7.847299560546875,-0.004182662349194288,0.007992278784513474,0.0008815788896754384
1733703553971266600,7.8572666015625,-0.005127285607159138,0.007085738703608513,0.0016874513821676373
1733703553981232600,7.867232666015625,-0.0064365193247795105,0.0035584322176873684,0.0010151322931051254
1733703553991199500,7.877199462890625,-0.005629315041005611,-0.0006134090945124626,0.00008302589412778616
1733703554001165600,7.88716552734375,-0.002658248646184802,-0.0049987779930233955,-0.0003156997263431549
1733703554011131600,7.897131591796875,-0.0012901826994493604,-0.008109084330499172,-0.0002427289728075266
1733703554021098500,7.907098388671875,0.002665241016075015,-0.011952904053032398,0.0020770083647221327
1733703554031064600,7.917064697265625,0.006270894780755043,-0.01527200173586607,0.003991820849478245
1733703554041030400,7.927030517578125,0.0051943520084023476,-0.01696339249610901,0.0059813242405653
1733703554050997500,7.93699755859375,0.005362663883715868,-0.017197486013174057,0.006533663719892502
1733703554060963600,7.946963623046875,0.004585020709782839,-0.021201014518737793,0.00797043927013874
1733703554070930400,7.956930419921875,0.002558888169005513,-0.021618332713842392,0.0023996392264962196
1733703554080896500,7.966896484375,0.0011757377069443464,-0.022607773542404175,0.0020484933629631996
1733703554090862600,7.976862548828125,-0.0023723915219306946,-0.01674376055598259,0.0021595472935587168
1733703554100829700,7.98682958984375,-0.0013967091217637062,-0.015114263631403446,0.002668105997145176
1733703554110795500,7.99679541015625,-0.0007215978112071753,-0.008204159326851368,0.0017213522223755717
1733703554120762600,8.0067626953125,0.00046827836195006967,-0.004936926066875458,0.0011540090199559927
1733703554130728400,8.016728515625,-0.0008334747399203479,-0.0007214080542325974,0.0005715755978599191
1733703554140694500,8.026694580078125,0.0015032083028927445,0.0047002811916172504,-0.003052350366488099
1733703554150661400,8.036661376953125,0.0016731179784983397,0.006945858709514141,-0.0031988241244107485
1733703554160627700,8.046627685546875,0.0039108749479055405,0.004566137678921223,-0.00027932366356253624
1733703554170594600,8.056594482421875,0.0015787447337061167,0.0031168456189334393,-0.0004303248133510351
1733703554180560600,8.066560546875,0.002573071513324976,0.001591200940310955,-0.0011993029620498419
1733703554190526500,8.0765263671875,0.0009730444871820509,0.0038381097838282585,-0.002188134705647826
1733703554200493600,8.08649365234375,-0.000009655661415308714,0.003752693999558687,-0.002314406679943204
1733703554210459400,8.09645947265625,-0.0010139336809515953,0.003956958651542664,-0.0006818890105932951
1733703554220425700,8.10642578125,-0.0017119774129241705,0.006132488138973713,-0.000015353085473179817
1733703554230392600,8.116392578125,-0.00033672089921310544,0.009381544776260853,0.0015724236145615578
1733703554240358700,8.126358642578126,-0.0011278509628027678,0.014489316381514072,0.001285445294342935
1733703554250325500,8.136325439453126,-0.0015864473534747958,0.01649387739598751,0.00034295255318284035
1733703554260291600,8.14629150390625,-0.001415011240169406,0.01862521842122078,-0.0011202231980860233
1733703554270257400,8.15625732421875,-0.0008754548616707325,0.019327759742736816,-0.002944754669442773
1733703554280224500,8.166224609375,-0.00039845675928518176,0.013386445119976997,-0.002645061584189534
1733703554290190300,8.1761904296875,-0.0024695969186723232,0.007730423007160425,-0.00045567681081593037
1733703554300157400,8.186157470703124,0.00019702603458426893,0.0016815857961773872,0.000015968922525644302
1733703554310123500,8.19612353515625,-0.000497260014526546,-0.0015794550999999046,0.002240773756057024
1733703554320089600,8.206089599609374,0.0006355804507620633,-0.0013908958062529564,0.001396778505295515
1733703554330056400,8.216056396484374,0.0011652831453830004,0.0020325975492596626,-0.0008352168370038271
1733703554340022500,8.2260224609375,0.0023490753956139088,0.004776314366608858,-0.002750166691839695
1733703554349988400,8.23598828125,0.0035530906170606613,0.005180848762392998,-0.002687049563974142
1733703554359955500,8.24595556640625,0.0008026991272345185,0.005389494355767965,-0.002252741251140833
1733703554369921500,8.255921630859374,0.001345451339147985,-0.00015920214354991913,-0.0012322177644819021
1733703554379888600,8.265888671875,-0.0003448999486863613,-0.006819027476012707,-0.00007609021849930286
1733703554389854500,8.2758544921875,-2.0605511963367462e-8,-0.011401529423892498,0.001679199282079935
1733703554399820500,8.285820556640624,-0.0009398072143085301,-0.011710396967828274,0.003380377311259508
1733703554409787400,8.295787353515625,-0.0005192940006963909,-0.01017668191343546,0.0012916600098833442
1733703554419753500,8.30575341796875,-0.0008599853026680648,-0.002835572697222233,0.00090255425311625
1733703554429720600,8.315720458984375,-0.0007875473820604384,0.005447923671454191,-0.00021357648074626923
1733703554439686700,8.325686767578125,-0.0015459421556442976,0.012315936386585236,-0.0033294421155005693
1733703554449652500,8.335652587890625,0.0010783367324620485,0.01372741162776947,-0.005375548265874386
1733703554459619600,8.34561962890625,0.0003714903723448515,0.012636695057153702,-0.0024638802278786898
1733703554469585400,8.35558544921875,-0.0010591597529128194,0.005371325183659792,-0.0014385634567588568
1733703554479551700,8.3655517578125,-0.000830858014523983,-0.002387803979218006,-0.0008267967496067286
1733703554489518800,8.375518798828125,-0.001431933487765491,-0.003488222137093544,0.002092560287564993
1733703554499484700,8.385484619140625,-0.0003979020402766764,-0.006446525454521179,0.0018811040790751576
1733703554509451800,8.39545166015625,-0.0031627959106117487,-0.00482572615146637,0.0018243787344545126
1733703554519417900,8.40541796875,-0.0004940421786159277,-0.0030976003035902977,0.0005838782526552677
1733703554529383700,8.4153837890625,0.00013845862122252584,-0.00091513991355896,0.0001380651956424117
1733703554539350800,8.425350830078125,-0.0003549285465851426,-0.0010159807279706001,-0.002601952524855733
1733703554549316900,8.43531689453125,-0.00033362326212227345,-0.005018712021410465,-0.0006133699789643288
1733703554559283700,8.44528369140625,-0.002011365257203579,-0.01255780179053545,0.0019506639800965786
1733703554569249800,8.455249755859375,-0.0003391664940863848,-0.01430430170148611,0.0032638688571751118
1733703554579216000,8.4652158203125,-0.0005255637224763632,-0.010482028126716614,0.0013741643633693457
1733703554589183000,8.475182861328125,0.0017615590477362275,-0.0006067613139748573,0.0030098778661340475
1733703554599148800,8.485148681640625,0.0019516252214089036,0.004765089135617018,0.0017763373907655478
1733703554609116000,8.495115966796876,0.001378779299557209,0.012109820730984211,-0.003295652801170945
1733703554619081700,8.505081787109376,0.0009410518105141819,0.016439389437437057,-0.007320312783122063
1733703554629047800,8.5150478515625,0.0027131191454827785,0.014940828084945679,-0.009653507731854916
1733703554639014700,8.5250146484375,0.002533441409468651,0.005593971814960241,-0.006120220758020878
1733703554648980700,8.534980712890626,0.002414397895336151,-0.0008032070472836494,0.0006015981780365109
1733703554658946800,8.54494677734375,-0.00004040804924443364,-0.008787017315626144,0.0023892545141279697
1733703554668914000,8.554913818359376,-0.0006577288149856031,-0.008173957467079163,0.004917659796774387
1733703554678879700,8.564879638671876,-0.0002328642294742167,-0.003021571785211563,0.004167509265244007
1733703554688846800,8.574846923828124,0.0018228298285976052,0.007300840225070715,0.0019927718676626682
1733703554698812700,8.584812744140624,-0.00009200471686199307,0.013057740405201912,-0.0001416041050106287
1733703554708778800,8.59477880859375,-0.0030875285156071186,0.01947915554046631,-0.002909160917624831
1733703554718745600,8.60474560546875,-0.006374078802764416,0.01852792128920555,-0.0010308483615517616
1733703554728712000,8.6147119140625,-0.006117083597928286,0.015605101361870766,-0.0011594791430979967
1733703554738678800,8.6246787109375,-0.0058904970064759254,0.0039953566156327724,-0.000612128060311079
1733703554748644900,8.634644775390624,-0.0020622028969228268,-0.0024114102125167847,0.0019985688850283623
1733703554758610700,8.644610595703124,-0.003205376910045743,-0.008125368505716324,0.0016104935202747583
1733703554768577800,8.654577880859375,-0.0019715342205017805,-0.01135684922337532,0.0011257980950176716
1733703554778543600,8.664543701171874,-0.0023571117781102657,-0.01602594181895256,0.0009456974221393466
1733703554788510000,8.674510009765624,0.0012019367422908545,-0.014741766266524792,0.002927621826529503
1733703554798476800,8.684476806640625,0.0008082983549684286,-0.013408882543444633,0.0021844934672117233
1733703554808443000,8.69444287109375,0.0038216649554669857,-0.014136990532279015,0.004369883332401514
1733703554818409700,8.70440966796875,0.002676265314221382,-0.012186292558908463,0.0025025624781847
1733703554828375800,8.714375732421875,0.0034397938288748264,-0.011860588565468788,0.00184795749373734
1733703554838341600,8.724341552734375,-0.00019716675160452724,-0.009665396064519882,0.00090569700114429
1733703554848308700,8.734308837890625,-0.0019319498678669333,-0.005132694728672504,0.0006875840481370687
1733703554858274800,8.74427490234375,-0.0014752881834283471,0.0016703596338629723,-0.002650192240253091
1733703554868241700,8.75424169921875,-0.0027453498914837837,0.006344473920762539,-0.003207858419045806
1733703554878207700,8.764207763671875,-0.004288192838430405,0.008091882802546024,-0.002694950206205249
1733703554888173800,8.774173828125,-0.0021611263509839773,0.00893610529601574,-0.00020888936705887318
1733703554898140700,8.784140625,-0.0031628389842808247,0.008116291835904121,0.0003537291195243597
1733703554908106800,8.794106689453125,-0.0010956934420391917,0.0022501470521092415,0.00394074060022831
1733703554918072600,8.804072509765625,-0.0016058809123933315,-0.003020530566573143,0.005411636549979448
1733703554928039700,8.814039794921875,-0.0011952214408665895,-0.0018119877204298973,0.005550387315452099
1733703554938005800,8.824005859375,-0.001543731545098126,0.0036035487428307533,0.0033128915820270777
1733703554947972900,8.833972900390625,-0.003493165597319603,0.00340247992426157,0.001603142125532031
1733703554957938700,8.843938720703125,-0.002155073219910264,0.00817410834133625,-0.0014651063829660416
1733703554967904800,8.85390478515625,-0.0016621220856904984,0.009162940084934235,-0.0011716261506080627
1733703554977872000,8.863871826171875,-0.0018658299231901765,0.009627500548958778,0.0012817526003345847
1733703554987837700,8.873837646484375,-0.0024826182052493095,0.005046863574534655,0.0027709922287613153
1733703554997804800,8.8838046875,-0.0024788896553218365,0.004172547720372677,0.004468757659196854
1733703555007771000,8.89377099609375,-0.0017044424312189221,0.0037472411058843136,0.002784840762615204
1733703555017736700,8.90373681640625,-0.00031296617817133665,0.0058959475718438625,0.0009804607834666967
1733703555027703800,8.913703857421876,0.0005661433096975088,0.007285318337380886,-0.00029625860042870045
1733703555037669600,8.923669677734376,0.0008974906522780657,0.008324269205331802,-0.002189557533711195
1733703555047635700,8.9336357421875,0.003058379516005516,0.008317878469824791,-0.0007799465674906969
1733703555057602800,8.943602783203126,0.0013921111822128296,0.007033863104879856,-0.00011866353452205658
1733703555067569000,8.95356884765625,-0.00003108207602053881,0.00532491272315383,-0.0017461213283240795
1733703555077535700,8.96353564453125,0.003182070329785347,0.0043637375347316265,0.0009217619663104415
1733703555087501800,8.973501708984376,0.002095500472933054,0.002102181315422058,-0.00028385105542838573
1733703555097467600,8.983467529296876,-0.000836227263789624,0.0030011432245373726,-0.0006379999686032534
1733703555107434800,8.993434814453124,0.000722787284757942,0.0029801041819155216,-0.0002790058497339487
1733703555117400800,9.00340087890625,0.00004670833004638553,0.0007863780483603477,-0.0006565193179994822
1733703555127367700,9.01336767578125,-0.0038660080172121525,0.0009096823632717133,-0.000021355459466576576
1733703555137333800,9.023333740234374,-0.0051999581046402454,0.0013334006071090698,0.000872723525390029
1733703555147299800,9.0332998046875,-0.006786935962736607,-0.0036645540967583656,0.0005574051756411791
1733703555157267000,9.043266845703124,-0.008694536983966827,-0.0105320168659091,0.002854490652680397
1733703555167232800,9.053232666015624,-0.007891328074038029,-0.01616353541612625,0.0053839609026908875
1733703555177198800,9.06319873046875,-0.005258819088339806,-0.015770386904478073,0.006323436740785837
1733703555187165700,9.073165771484375,-0.0077627236023545265,-0.012608415447175503,0.00498652970418334
1733703555197131800,9.0831318359375,-0.0029429562855511904,-0.009493423625826836,0.004184042103588581
1733703555207098600,9.0930986328125,-0.0035000895150005817,-0.006970612332224846,0.00014482589904218912
1733703555217065000,9.10306494140625,-0.0017914314521476626,-0.006194950081408024,-0.001783421030268073
1733703555227030800,9.11303076171875,-0.0005999332061037421,-0.0057328930124640465,-0.0009269483853131533
1733703555236998000,9.122997802734375,-0.0005495509831234813,-0.0049413470551371574,-0.0000106107909232378
1733703555246963700,9.132963623046875,-0.002978087402880192,-0.0088657820597291,0.001881298841908574
1733703555256930800,9.142930908203125,0.0010723406448960304,-0.008550704456865788,0.0014363870723173022
1733703555266896600,9.152896728515625,0.0014094968792051077,-0.0051583703607320786,0.000507210148498416
1733703555276863000,9.162863037109375,0.0003925536875613034,-0.002678140066564083,-0.0012779710814356804
1733703555286829800,9.172829833984375,-0.000908933172468096,-0.0011156629770994186,-0.003922756295651197
1733703555296796000,9.1827958984375,-0.0008039053063839674,-0.0035183560103178024,-0.00349385105073452
1733703555306762800,9.1927626953125,-0.0007767410716041923,-0.0039039812982082367,-0.004300256259739399
1733703555316728800,9.202728759765625,0.0005358077469281852,-0.0046144574880599976,-0.0022559738717973232
1733703555326694700,9.212694580078125,-0.0003283880650997162,-0.008246742188930511,0.0007296961266547441
1733703555336661800,9.222661865234375,0.000220612739212811,-0.01048784889280796,0.0017219498986378312
1733703555346627800,9.2326279296875,0.003965816460549831,-0.009907811880111694,0.0008992993971332908
1733703555356594000,9.242593994140625,0.004295789171010256,-0.006040393374860287,-0.003267803927883506
1733703555366560800,9.252560791015625,0.005033751018345356,-0.0032163765281438828,-0.004884342662990093
1733703555376526800,9.26252685546875,0.004883135203272104,-0.003933601081371307,-0.004361552186310291
1733703555386493700,9.27249365234375,0.0015256879851222038,-0.006424189545214176,-0.00015482306480407715
1733703555396459800,9.282459716796875,-0.003694792976602912,-0.004500553943216801,0.0010920094791799784
1733703555406425600,9.292425537109375,-0.0034934577997773886,0.0013988800346851349,0.0010294250678271055
1733703555416392700,9.302392822265626,0.00020889483857899904,0.007514587603509426,0.0021720239892601967
1733703555426358800,9.31235888671875,0.0009662978118285537,0.014524027705192566,0.002589873969554901
1733703555436326000,9.322325927734376,0.003697733860462904,0.018111757934093475,-0.00019353930838406086
1733703555446291700,9.332291748046876,0.001924068434163928,0.021311014890670776,0.0013963679084554315
1733703555456257800,9.3422578125,-0.001572810928337276,0.022165384143590927,0.0029558513779193163
1733703555466224600,9.352224609375,-0.008257611654698849,0.019729124382138252,0.0032338853925466537
1733703555476191000,9.36219091796875,-0.014175880700349808,0.014630756340920925,-0.0016756190452724695
1733703555486157000,9.372156982421876,-0.013968952931463718,0.009349174797534943,0.0009633073350414634
1733703555496124000,9.3821240234375,-0.01057870127260685,0.0016045700758695602,0.002976837335154414
1733703555506090000,9.392090087890624,-0.008422073908150196,-0.00579875148832798,0.0021035869140177965
1733703555516057000,9.40205712890625,-0.0010778261348605156,-0.011920067481696606,-0.001318646129220724
1733703555526023000,9.41202294921875,0.0007861204212531447,-0.014456727541983128,-0.0010363510809838772
1733703555535989000,9.421989013671874,0.007916999980807304,-0.01703839749097824,0.00004622386768460274
1733703555545955800,9.431955810546874,0.008562526665627956,-0.0166817307472229,0.000607262016274035
1733703555555922000,9.441921875,0.007753241341561079,-0.013429349288344383,0.00004711106885224581
1733703555565888800,9.451888671875,0.009654206223785877,-0.007347222417593002,-0.0012716862838715315
1733703555575855000,9.461855224609375,0.0065224734134972095,-0.0007918756455183029,-0.0021363457199186087
1733703555585821000,9.471821044921874,0.0014976209495216608,0.0035014059394598007,-0.002087077358737588
1733703555595788000,9.4817880859375,-0.0008487213053740561,0.003933983389288187,-0.002746865851804614
1733703555605753900,9.49175390625,5.607143975794315e-7,0.0038341148756444454,-0.004167395643889904
1733703555615720000,9.501719970703125,-0.0003153145080432296,0.0028425930067896843,0.0014626879710704088
1733703555625686800,9.511686767578125,-0.000408791471272707,0.006789930164813995,0.001385988900437951
1733703555635653000,9.521653076171875,-0.002024918794631958,0.011203467845916748,-0.00007576728239655495
1733703555645620000,9.531619873046875,-0.0022132042795419693,0.011252736672759056,0.00139056914485991
1733703555655586000,9.5415859375,-0.00331417890265584,0.01201890129595995,0.004140443168580532
1733703555665552000,9.5515517578125,-0.0034015304408967495,0.01220399048179388,0.002391811925917864
1733703555675519000,9.56151904296875,-0.00006008445052430034,0.010346859693527222,-0.00040831277146935463
1733703555685484800,9.57148486328125,0.0032121415715664625,0.010233675129711628,-0.0025638751685619354
1733703555695452000,9.581451904296875,0.0035011405125260353,0.00883618462830782,-0.005148290656507015
1733703555705418000,9.59141796875,0.004681986290961504,0.009687330573797226,-0.003714444348588586
1733703555715384000,9.601384033203125,0.004005374852567911,0.011130589060485363,-0.001534007489681244
1733703555725351000,9.611350830078125,0.0017251763492822647,0.009234418161213398,-0.000467145349830389
1733703555735317000,9.62131689453125,-0.0017621106235310435,0.01149529404938221,-0.0004719928838312626
1733703555745282800,9.63128271484375,-0.0027333656325936317,0.010650805197656155,-0.0011505663860589266
1733703555755250000,9.64125,-0.003255419200286269,0.010188323445618153,-0.0013905339874327183
1733703555765216000,9.651216064453125,-0.0019683134742081165,0.0072623081505298615,-0.0015135719440877438
1733703555775182800,9.661182861328125,-0.0028687049634754658,-0.0018235715106129646,-0.001578712835907936
1733703555785149000,9.67114892578125,-0.0011696082074195147,-0.008289727382361889,-0.0003715020138770342
1733703555795115000,9.681114990234375,0.0003484903718344867,-0.015334399417042732,0.001289369072765112
1733703555805081900,9.691081787109376,0.0032699781004339457,-0.01707450859248638,0.0032867398113012314
1733703555815048000,9.7010478515625,0.002541265217587352,-0.015616854652762413,0.0034952459391206503
1733703555825013800,9.711013671875,0.002800657181069255,-0.011058587580919266,0.0014158498961478472
1733703555834980900,9.72098095703125,0.0033945906907320023,-0.0035764770582318306,-0.0019802844617515802
1733703555844947000,9.730947021484376,0.0006664484390057623,0.000542900525033474,-0.0027696455363184214
1733703555854914000,9.7409140625,0.0007723781745880842,0.0037615206092596054,-0.004644257947802544
1733703555864879900,9.7508798828125,0.00011697423178702593,0.007006049621850252,-0.003704695263877511
1733703555874846000,9.760845947265626,-0.0003183166845701635,0.007600703742355108,-0.0037006675265729427
1733703555884812800,9.770812744140626,0.0022817275021225214,0.005617181304842234,-0.0050191981717944145
1733703555894779000,9.78077880859375,0.0027397247031331062,0.004998988006263971,-0.0020953244529664516
1733703555904746000,9.79074609375,0.004135487135499716,0.006822454743087292,-0.0014875908382236958
1733703555914712000,9.800712158203124,0.006200306583195925,0.006191182881593704,-0.00038475426845252514
1733703555924678000,9.810677978515624,0.0020833255257457495,0.006488125305622816,-0.0008662536274641752
1733703555934645000,9.82064501953125,0.003344328608363867,0.006297352723777294,-0.0015592195559293032
1733703555944610800,9.83061083984375,0.0026481784880161285,0.005444608628749847,-0.0015602847561240196
1733703555954577000,9.840576904296874,0.0015818312531337142,0.0032609691843390465,0.0006516542052850127
1733703555964544000,9.8505439453125,-0.0012794689973816276,0.0018585482612252235,0.0004963919054716825
1733703555974510000,9.860510009765624,-0.0019459102768450975,-0.0024308618158102036,0.001794199924916029
1733703555984477000,9.870476806640625,-0.0021933179814368486,-0.0037134401500225067,0.001106571638956666
1733703555994443000,9.880443115234375,-0.00021747977007180452,-0.006924894638359547,-0.0010520112700760365
1733703556004408800,9.890408935546875,-0.0015229614218696952,-0.008500422351062298,-0.0010994153562933207
1733703556014376000,9.9003759765625,0.0007885212544351816,-0.004972510971128941,-0.0007343688048422337
1733703556024342000,9.910342041015625,0.0008444476407021284,-0.004557856358587742,0.0001476701581850648
1733703556034308900,9.920308837890625,-0.0003827615873888135,-0.00041052699089050293,0.00009354948997497559
1733703556044275000,9.93027490234375,0.0013725279131904244,0.0016076164320111275,-0.001981851877644658
1733703556054241000,9.940240966796875,0.0022863519843667746,0.006401136051863432,-0.004483778961002827
1733703556064208100,9.9502080078125,0.003911679144948721,0.010164448991417885,-0.006835617125034332
1733703556074174000,9.960174072265625,0.0029057301580905914,0.00977883581072092,-0.005074768327176571
1733703556084141000,9.97014111328125,0.0027278310153633356,0.005568644963204861,-0.0017053370829671621
1733703556094107000,9.98010693359375,0.0004076125333085656,-0.0006444025784730911,-0.0010307768825441599
1733703556104073000,9.990072998046875,-0.00009599118493497372,-0.006589110940694809,0.0008049400057643652
1733703556114039800,10.000039794921875,0.000759103917516768,-0.008752265945076942,0.0034625919070094824
1733703556124006100,10.010006103515625,-0.0014409334398806095,-0.006185244768857956,0.0048998999409377575
1733703556133972000,10.019971923828125,-0.0006797942332923412,-0.0048858048394322395,0.0034088019747287035
1733703556143939000,10.02993896484375,0.001852605608291924,-0.004658902995288372,-0.002154275309294462
1733703556153905000,10.03990478515625,0.0007606277358718216,-0.0036342814564704895,-0.0022763011511415243
1733703556163872000,10.0498720703125,0.0019270922057330608,-0.003527488559484482,-0.002880039857700467
1733703556173837800,10.059837890625,0.003077603178098798,-0.00035767536610364914,-0.0008854793850332499
1733703556183804200,10.06980419921875,0.0017393645830452442,0.004854131024330854,-0.00099919643253088
1733703556193771000,10.07977099609375,0.0015065555926412344,0.006167375482618809,-0.0007399991154670715
1733703556203737000,10.089737060546875,0.00211322377435863,0.008361287415027618,-0.004067885223776102
1733703556213703000,10.099702880859375,0.0006398712284862995,0.00954363215714693,-0.0015739495866000652
1733703556223670000,10.109669921875,0.002435108181089163,0.00758354552090168,-0.0023547881282866
1733703556233635800,10.1196357421875,-0.00045096524991095066,0.005993817467242479,-0.0006450472865253687
1733703556243603000,10.12960302734375,-0.0023042592220008373,0.0035612862557172775,0.0011957294773310423
1733703556253568800,10.13956884765625,-0.004773970693349838,0.0005399351939558983,0.0018560573225840926
1733703556263535000,10.14953515625,-0.005054933950304985,-0.004441507160663605,0.002784701529890299
1733703556273502000,10.159501953125,-0.004734191112220287,-0.007927932776510715,0.0016838725423440337
1733703556283468000,10.169468017578126,-0.006727566942572594,-0.014257469214498997,0.0020463287364691496
1733703556293435000,10.179434814453124,-0.002984647871926427,-0.01728091761469841,0.001901129144243896
1733703556303401000,10.18940087890625,-0.0013196396175771952,-0.01848067343235016,0.0025663869455456734
1733703556313366800,10.19936669921875,0.00023586969473399222,-0.018011827021837234,0.001402133028022945
1733703556323334000,10.209333984375,0.0038431212306022644,-0.013831731863319874,0.001494544674642384
1733703556333300000,10.219300048828124,0.0045905448496341705,-0.007986299693584442,-0.0009595153387635946
1733703556343266000,10.22926611328125,0.004820908419787884,0.00010571442544460297,-0.003906569443643093
1733703556353233000,10.23923291015625,0.003905313555151224,0.0027030957862734795,-0.004833615850657225
1733703556363199000,10.249198974609374,0.0024078181013464928,0.004093265626579523,-0.005584094673395157
1733703556373165800,10.259165771484374,0.0020132323261350393,0.006787414662539959,-0.004375973716378212
1733703556383132000,10.2691318359375,-0.0001079754438251257,0.004584181122481823,-0.004636962898075581
1733703556393098000,10.279097900390624,-0.0003524536150507629,-0.00090805534273386,-0.002038783160969615
1733703556403065000,10.289065185546875,-0.002589775249361992,-0.0035586999729275703,-0.0005087973549962044
1733703556413031000,10.299031005859375,-0.0010722806910052896,-0.006373369134962559,0.001447930932044983
1733703556422998000,10.308998046875,-0.001903453259728849,-0.008094037882983685,-0.001235203817486763
1733703556432963800,10.3189638671875,0.0028264166321605444,-0.007823633030056953,-0.000586880836635828
1733703556442930000,10.328929931640625,0.0026341364718973637,-0.006498444825410843,0.0007039534393697977
1733703556452896800,10.338896728515625,0.0007680109119974077,-0.0051207514479756355,0.00157887302339077
1733703556462862800,10.34886279296875,0.0015653613954782486,-0.0034560086205601692,-0.001237686024978757
1733703556472829000,10.358828857421875,0.0009112416300922632,0.0012211669236421585,-0.0035875739995390177
1733703556482795500,10.36879541015625,0.0015703740064054728,0.0015945415943861008,-0.006412122398614883
1733703556492761600,10.37876171875,-0.0002499703550711274,0.0008414145559072495,-0.0044637867249548435
1733703556502728400,10.388728515625,0.0028949566185474396,-0.0004949597641825676,-0.0010978174395859241
1733703556512694500,10.398694580078125,0.0002238363667856902,-0.0027811704203486443,0.0014940842520445585
1733703556522660600,10.40866064453125,-0.0018920450238510966,-0.0010000485926866531,0.0018621331546455622
1733703556532627500,10.41862744140625,-0.0020207297056913376,-0.0004767840728163719,0.0026981618721038103
1733703556542593500,10.428593505859375,-0.0021711983717978,0.0009778346866369247,0.00040091911796480417
1733703556552559600,10.4385595703125,-0.0021345438435673714,0.00560196116566658,0.0016956246690824628
1733703556562526500,10.4485263671875,-0.001684735994786024,0.0031443964689970016,0.0014428907306864858
1733703556572492500,10.458492431640625,-0.0012882399605587125,0.004223549272865057,0.0010618636151775718
1733703556582459400,10.46845947265625,-0.00021685025421902537,0.002109265886247158,0.0005143176531419158
1733703556592425500,10.478425537109375,0.0007120922673493624,0.0021445313468575478,0.0014670419041067362
1733703556602391600,10.4883916015625,0.0026876251213252544,0.0025027263909578323,0.00015010882634669542
1733703556612358700,10.498358642578125,0.0013608806766569614,0.005255242809653282,-0.002785573247820139
1733703556622324500,10.508324462890625,0.003890883643180132,0.00837753340601921,-0.0031570843420922756
1733703556632291600,10.51829150390625,0.003019721480086446,0.008307618089020252,-0.004362617619335651
1733703556642257400,10.52825732421875,0.0011342032812535763,0.0058844080194830894,-0.00343637028709054
1733703556652223500,10.538223388671875,-0.0005207047797739506,-0.000506850890815258,-0.0019498891197144985
1733703556662190600,10.548190673828126,-0.0007310945075005293,-0.0034150229766964912,0.0014283305499702692
1733703556672156700,10.55815673828125,-0.0032243579626083374,-0.006497805006802082,0.002171336440369487
1733703556682122500,10.56812255859375,-0.0022792022209614515,-0.005629881285130978,0.003004905767738819
1733703556692089600,10.578089599609376,-0.0005573714734055102,-0.005270966328680515,0.00045931385830044746
1733703556702055400,10.588055419921876,-0.00023885746486485004,-0.0019271010532975197,0.001761333318427205
1733703556712022500,10.5980224609375,-0.00000524462666362524,0.000823458656668663,0.0008416817290708423
1733703556721988600,10.607988525390626,-0.000567171664442867,0.000559006817638874,0.000055250246077775955
1733703556731954700,10.61795458984375,-0.0006036355625838041,0.00008197128772735596,0.0002955608069896698
1733703556741921500,10.627921630859374,-0.0006896557752043009,-0.0022078147158026695,0.0012580272741615772
1733703556751887600,10.6378876953125,0.0014031992759555578,-0.00037470459938049316,0.000762186711654067
1733703556761853400,10.647853515625,-0.001592324348166585,0.00196195300668478,-0.0003283778205513954
1733703556771820500,10.657820556640624,-0.0012151234550401568,0.008070898242294788,-0.0008622182067483664
1733703556781786600,10.66778662109375,-0.0017797136679291725,0.008735889568924904,-0.001247843960300088
1733703556791753500,10.67775341796875,0.000495158601552248,0.008697179146111012,-0.001146659255027771
1733703556801719600,10.687719482421874,-0.0014998154947534204,0.0052832732908427715,0.0019721686840057373
1733703556811685600,10.697685546875,-0.001125201815739274,-0.0008430657908320427,0.001428253948688507
1733703556821652700,10.70765283203125,-0.0008828542195260525,-0.005893483757972717,0.0017651438247412443
1733703556831618600,10.71761865234375,0.0005536832031793892,-0.006811986677348614,0.00040676514618098736
1733703556841585700,10.727585693359375,0.0009496952407062054,-0.007981115020811558,0.0025367613416165113
1733703556851551500,10.737551513671875,-0.0001971172750927508,-0.009375856257975101,0.004219410941004753
1733703556861517600,10.747517578125,-0.0024562766775488853,-0.006508165039122105,0.002213784260675311
1733703556871484400,10.757484375,-0.0015776240034028888,-0.0016271406784653664,-0.00029248674400150776
1733703556881450800,10.76745068359375,-0.0012553815031424165,0.007015349343419075,-0.0004325688350945711
1733703556891416600,10.77741650390625,-0.0013706355821341276,0.007101451046764851,-0.0005951439961791039
1733703556901383700,10.7873837890625,0.0009953166591003537,0.003590339794754982,-0.001735509606078267
1733703556911349500,10.797349609375,0.0010599513771012425,0.0017314339056611061,-0.0030209894757717848
1733703556921316600,10.807316650390625,0.002061566337943077,0.0019426224753260612,-0.0036175374407321215
1733703556931282400,10.817282470703125,0.003715126309543848,0.0011472366750240326,-0.0027637844905257225
1733703556941248800,10.827248779296875,0.0035505425184965134,-0.0025063538923859596,0.0007627735612913966
1733703556951215600,10.837215576171875,-0.0006581032648682594,0.0005302857607603073,-0.0003851647488772869
1733703556961181700,10.847181640625,0.00020263041369616985,0.0073487767949700356,-0.00001924624666571617
1733703556971148500,10.8571484375,0.0009740283712744713,0.012751149944961071,-0.0003453320823609829
1733703556981114600,10.867114501953125,0.0025330428034067154,0.013525331392884254,-0.0019669309258461
1733703556991080400,10.87708056640625,0.00045731436694040895,0.014987073838710785,-0.001065628370270133
1733703557001047600,10.887047607421875,-0.001766957575455308,0.014827815815806389,0.00201351847499609
1733703557011013600,10.897013671875,-0.005140688735991716,0.011653355322778225,0.0027848766185343266
1733703557020979700,10.906979736328125,-0.005928718019276857,0.008041043765842915,0.004259468987584114
1733703557030946600,10.916946533203125,-0.006376056000590324,0.001146811991930008,0.003644296433776617
1733703557040912600,10.92691259765625,-0.0052751051262021065,-0.002282806672155857,0.001657312037423253
1733703557050879500,10.93687939453125,-0.005113645456731319,-0.0044964393600821495,0.000515116611495614
1733703557060845600,10.946845458984376,-0.0030129440128803253,-0.005418957211077213,0.0005800977814942598
1733703557070811400,10.956811279296875,-0.001304598175920546,-0.009278836660087109,0.0021236464381217957
1733703557080778500,10.966778564453126,0.002066431101411581,-0.012275426648557186,0.001854400965385139
1733703557090744600,10.97674462890625,0.002887153532356024,-0.012763925828039646,0.0025754556991159916
1733703557100710700,10.986710693359376,0.006822772789746523,-0.013380981050431728,0.002635376760736108
1733703557110677500,10.996677490234376,0.004750764463096857,-0.01325597707182169,0.0015889639034867287
1733703557120643600,11.0066435546875,0.005308697000145912,-0.009300383739173412,0.0008145166793838143
1733703557130610400,11.0166103515625,0.0029595820233225822,-0.0037463735789060593,-0.0012534570414572954
1733703557140576500,11.026576416015626,0.0016740740975365043,0.00024037808179855347,-0.0028287169989198446
1733703557150542600,11.03654248046875,0.000217088294448331,0.004198482725769281,-0.0050837574526667595
1733703557160509700,11.046509765625,0.0005704897921532393,0.0052672093734145164,-0.00291328108869493
1733703557170475500,11.0564755859375,-0.00019754457753151655,0.005690588615834713,-0.0020873413886874914
1733703557180442600,11.066442626953124,-0.001008210820145905,0.0055739423260092735,-0.0009621558710932732
1733703557190408400,11.076408447265624,-0.0024976187851279974,0.0069512492045760155,0.0010630342876538634
1733703557200374500,11.08637451171875,-0.0010528538841754198,0.005020723678171635,0.0020630513317883015
1733703557210341400,11.09634130859375,-0.00013827538350597024,0.0022217007353901863,0.003504548454657197
1733703557220307700,11.1063076171875,-0.0038507222197949886,-0.0015352210029959679,0.002371373353525996
1733703557230273500,11.1162734375,-0.0015558316372334957,-0.003343370743095875,0.003391814883798361
1733703557240240600,11.12624072265625,-0.0010879142209887505,-0.0003925878554582596,0.001851176260970533
1733703557250206500,11.13620654296875,-0.0013937660260125995,0.0025627748109400272,0.0001350725069642067
1733703557260173600,11.146173583984375,-0.0011556794634088874,0.005068543367087841,-0.001414354657754302
1733703557270139400,11.156139404296875,-0.0006197532056830823,0.009343727491796017,-0.0005369719583541155
1733703557280105500,11.16610546875,-0.00303790345788002,0.015033837407827377,0.0024465674068778753
1733703557290072600,11.176072509765625,-0.0015252409502863884,0.018763741478323936,-0.0008334701415151358
1733703557300038700,11.18603857421875,-0.0007044545491226017,0.013258721679449081,0.000013148877769708633
1733703557310004500,11.19600439453125,-0.002670558402314782,0.010543576441705227,-0.0004993109032511711
1733703557319971600,11.2059716796875,0.000003521563485264778,0.005777583923190832,0.0018282919190824032
1733703557329937400,11.2159375,0.000797216547653079,0.0038866326212882996,0.002825930481776595
1733703557339904500,11.225904541015625,-0.0013767217751592398,0.001318546012043953,-0.00005161506123840809
1733703557349870600,11.23587060546875,0.0005351388826966286,0.0015566041693091393,0.0012111484538763762
1733703557359836700,11.245836669921875,-0.0012044379254803061,0.002896173857152462,0.0018276702612638474
1733703557369803800,11.2558037109375,-0.002052527153864503,0.006818870082497597,0.0010912918951362371
1733703557379769600,11.26576953125,-0.0018996617291122675,0.005916058551520109,-0.000589961651712656
1733703557389735400,11.2757353515625,-0.000605295819696039,0.005339381285011768,-0.00015637697651982307
1733703557399702500,11.28570263671875,-0.00347937922924757,0.0006583426147699356,0.0016966506373137236
1733703557409668600,11.295668701171875,0.0012330567697063088,-0.002239731140434742,0.0005671030376106501
1733703557419635500,11.305635498046875,0.00020374500309117138,-0.002247454598546028,0.0022398345172405243
1733703557429601800,11.315601806640625,-0.0015828717732802033,-0.0009444504976272583,0.0019757715053856373
1733703557439567600,11.325567626953125,-0.0013762105954810977,0.0029664011672139168,0.001067633624188602
1733703557449534700,11.33553466796875,0.0005416088970378041,0.0063683046028018,-0.0010130656883120537
1733703557459500500,11.34550048828125,0.00031417497666552663,0.009325211867690086,0.0007241141283884645
1733703557469467600,11.355467529296876,-0.0005589129868894815,0.009204299189150333,-0.002135718706995249
1733703557479433200,11.36543310546875,-0.00017887994181364775,0.003440686035901308,0.0016853846609592438
1733703557489399600,11.375399658203126,-0.00045270146802067757,0.0011879578232765198,0.0013064882950857282
1733703557499366400,11.385366455078126,-0.001213034032844007,-0.0027428679168224335,0.0011520249536260962
1733703557509332500,11.39533251953125,-0.0005866812425665557,-0.003845084458589554,0.003583665471524
1733703557519298300,11.40529833984375,-0.00346396048553288,-0.0026447977870702744,0.0020289120730012655
1733703557529265400,11.415265380859376,-0.0038635951932519674,-0.0009166700765490532,0.0020088001620024443
1733703557539231200,11.425231201171876,-0.004436707589775324,0.00087750144302845,0.0028346464969217777
1733703557549198300,11.4351982421875,-0.0031546205282211304,0.003082741517573595,0.0006097642472013831
1733703557559164200,11.4451640625,-0.0005295427399687469,0.0042761038057506084,0.00021188799291849136
1733703557569130500,11.455130615234374,-0.0001426375238224864,0.005339187569916248,-0.0004354659467935562
1733703557579097300,11.465097412109374,-0.00001240900019183755,0.0032147839665412903,-0.0025332379154860973
1733703557589063400,11.4750634765625,0.0013889463152736425,0.00012897886335849762,-0.002347615547478199
1733703557599029200,11.485029296875,0.0009308826411142945,-0.0067193396389484406,0.00027453270740807056
1733703557608996400,11.494996337890624,-0.00023501820396631956,-0.008997027762234211,0.0026318086311221123
1733703557618962200,11.504962158203124,0.0006707228603772819,-0.0047668637707829475,0.002732476219534874
1733703557628929300,11.51492919921875,-0.0022307210601866245,0.0007934467867016792,0.0035839106421917677
1733703557638895400,11.524895263671874,-0.0014605348696932197,0.006055853329598904,0.001347920624539256
1733703557648861400,11.534861328125,-0.00016090337885543704,0.008466629311442375,-0.0006792731583118439
1733703557658828300,11.544828369140625,-0.001491418806836009,0.009503930807113647,-0.005908922292292118
1733703557668794400,11.55479443359375,-0.0005918157403357327,0.011865183711051941,-0.005727576091885567
1733703557678760200,11.56476025390625,0.0035501988604664803,0.0044456166215240955,-0.0034388552885502577
1733703557688727300,11.574727294921875,0.0005402883980423212,0.0022234413772821426,-0.0013595412019640207
1733703557698693400,11.584693359375,0.0020521648693829775,0.0004369933158159256,0.0011611406225711107
1733703557708660500,11.594660400390625,0.002172451466321945,0.0021109934896230698,0.0017259670421481133
1733703557718626300,11.604626220703125,0.00010637118248268962,0.004015420563519001,0.00019225256983190775
1733703557728592400,11.61459228515625,-0.0009707508143037558,0.0069147637113928795,-0.0010491188149899244
