time,seconds_elapsed,z,y,x
1733703416865745400,0.023745361328125,0.00295046204701066,0.31234967708587646,-0.02742161974310875
1733703416875712500,0.03371240234375,-0.005440625827759504,0.30543583631515503,-0.033355940133333206
1733703416885679400,0.043679443359375,-0.023572055622935295,0.3037995398044586,-0.04895450174808502
1733703416895645400,0.0536455078125,-0.03888869285583496,0.3043369650840759,-0.06597688794136047
1733703416905612300,0.0636123046875,-0.03488526493310928,0.28635168075561523,-0.08573878556489944
1733703416915578400,0.073578369140625,-0.019668493419885635,0.24830467998981476,-0.0996982753276825
1733703416925545200,0.083545166015625,-0.005217451602220535,0.20633366703987122,-0.10492557287216187
1733703416935511300,0.09351123046875,0.006025349721312523,0.1692131906747818,-0.10498043894767761
1733703416945478400,0.103478515625,0.007723180111497641,0.1456698179244995,-0.10018540918827057
1733703416955445200,0.1134453125,0.0016474442090839148,0.12682636082172394,-0.09052879363298416
1733703416965411300,0.123411376953125,0.004834616556763649,0.09695225208997726,-0.08299816399812698
1733703416975378200,0.133378173828125,0.003476404584944248,0.07243252545595169,-0.07554424554109573
1733703416985344500,0.143344482421875,-0.01946343295276165,0.05299067497253418,-0.06156462803483009
1733703416995311400,0.153311279296875,-0.02096092700958252,0.03954783454537392,-0.04831486940383911
1733703417005277400,0.16327734375,-0.01639983244240284,0.02112397365272045,-0.03684196621179581
1733703417015244300,0.173244384765625,-0.00851874053478241,-0.010999340564012527,-0.026660967618227005
1733703417025211400,0.18321142578125,-0.00834137387573719,-0.039261072874069214,-0.010581067763268948
1733703417035177200,0.19317724609375,-0.008225526660680771,-0.05046605318784714,0.00404234929010272
1733703417045144300,0.203144287109375,-0.004766607191413641,-0.05396616458892822,0.01690465584397316
1733703417055110100,0.213110107421875,-0.0014594935346394777,-0.05426310747861862,0.020664505660533905
1733703417065077200,0.2230771484375,0.005446443799883127,-0.04896631836891174,0.020430907607078552
1733703417075044400,0.23304443359375,0.004312470089644194,-0.026071922853589058,0.015248394571244717
1733703417085010200,0.24301025390625,-0.0002311159623786807,0.006335796322673559,0.009052231907844543
1733703417094977300,0.252977294921875,0.002034435048699379,0.043097272515296936,-0.00013194535858929157
1733703417104943400,0.262943359375,-0.0011915796203538775,0.09254337847232819,-0.011504349298775196
1733703417114910500,0.272910400390625,-0.005896320100873709,0.152425616979599,-0.021819038316607475
1733703417124876300,0.282876220703125,-0.015838371589779854,0.21627789735794067,-0.03211028128862381
1733703417134843400,0.292843505859375,-0.02765987627208233,0.28848788142204285,-0.036170270293951035
1733703417144810500,0.302810546875,-0.07855156064033508,0.3753397762775421,-0.04920366778969765
1733703417154776300,0.3127763671875,-0.10248405486345291,0.44346609711647034,-0.06649237871170044
1733703417164743400,0.322743408203125,-0.10386194288730621,0.4953491985797882,-0.08360334485769272
1733703417174709200,0.332709228515625,-0.13112178444862366,0.5343027114868164,-0.09916020184755325
1733703417184676400,0.34267626953125,-0.11068335175514221,0.28909915685653687,-0.13697172701358795
1733703417194643200,0.352643310546875,0.06631140410900116,-0.286230206489563,-0.15674836933612823
1733703417204609300,0.362609375,0.10484183579683304,-0.38307565450668335,-0.12988018989562988
1733703417214576000,0.372576171875,0.03541562706232071,-0.15478922426700592,-0.09776966273784637
1733703417224542500,0.38254248046875,-0.017640763893723488,0.0032303063198924065,-0.0593147911131382
1733703417234509300,0.39250927734375,-0.035067424178123474,0.01921726204454899,-0.03243577107787132
1733703417244475400,0.402475341796875,-0.030037248507142067,-0.029552320018410683,-0.014370904304087162
1733703417254442200,0.412442138671875,-0.01971217431128025,-0.0690576508641243,0.0029556213412433863
1733703417264409300,0.422409423828125,-0.013104637153446674,-0.08736526221036911,0.011682586744427681
1733703417274375400,0.43237548828125,-0.006670972798019648,-0.07819386571645737,0.016995858401060104
1733703417284342300,0.44234228515625,-0.0037751467898488045,-0.06443814188241959,0.020443163812160492
1733703417294308400,0.452308349609375,-0.005648147780448198,-0.053236350417137146,0.02206502854824066
1733703417304275200,0.462275146484375,-0.007341423537582159,-0.0506046786904335,0.016794579103589058
1733703417314242300,0.4722421875,-0.005868162494152784,-0.04969973489642143,0.011437631212174892
1733703417324208400,0.48220849609375,-0.005724252667278051,-0.04663033038377762,0.006032210774719715
1733703417334175200,0.49217529296875,-0.005737568251788616,-0.04091891646385193,0.006793608423322439
1733703417344141300,0.502141357421875,-0.008526195771992207,-0.035755377262830734,0.004666747525334358
1733703417354108200,0.512108154296875,-0.006195397581905127,-0.028904128819704056,0.0022102477960288525
1733703417364074200,0.52207421875,-0.003086491022258997,-0.02262106165289879,0.0009952656691893935
1733703417374041000,0.532041015625,-0.0006568891694769263,-0.01727396994829178,0.0007265526801347733
1733703417384008200,0.54200830078125,0.00165560154709965,-0.012540866620838642,-0.001815919065847993
1733703417393974000,0.55197412109375,0.0018665238749235868,-0.015504698269069195,-0.0021323026157915592
1733703417403941000,0.561941162109375,-0.00018693110905587673,-0.021687213331460953,-0.0008589033968746662
1733703417413907000,0.571906982421875,-0.0012103839544579387,-0.025243330746889114,-0.001870638458058238
1733703417423874000,0.5818740234375,-0.002131115412339568,-0.025074170902371407,0.0032430822029709816
1733703417433840000,0.591840087890625,-0.0022397725842893124,-0.022764144465327263,0.005410362500697374
1733703417443807200,0.60180712890625,-0.0009248006390407681,-0.014477740041911602,0.0019911739509552717
1733703417453774300,0.6117744140625,-0.004506751894950867,-0.0039079198613762856,0.007558778394013643
1733703417463740200,0.621740234375,-0.007289087865501642,0.002535685431212187,0.004997824318706989
1733703417473707300,0.631707275390625,-0.007775114383548498,0.008773873560130596,-0.00021105213090777397
1733703417483673000,0.641673095703125,-0.006828561890870333,0.015790993347764015,-0.0043576983734965324
1733703417493640200,0.65164013671875,-0.004168330226093531,0.024446267634630203,-0.013747205026447773
1733703417503607300,0.661607177734375,-0.0005943350261077285,0.027316860854625702,-0.019468991085886955
1733703417513573000,0.671572998046875,0.002823831979185343,0.0331912636756897,-0.01877923309803009
1733703417523540200,0.681540283203125,0.004694633185863495,0.03375261649489403,-0.02029057964682579
1733703417533506000,0.691506103515625,0.005006222985684872,0.03203833848237991,-0.02287863940000534
1733703417543473200,0.70147314453125,0.007174312137067318,0.030286774039268494,-0.02553282491862774
1733703417553439200,0.711439208984375,0.011869998648762703,0.03392385318875313,-0.02692805416882038
1733703417563406300,0.72140625,0.013698614202439785,0.03616049513220787,-0.023556150496006012
1733703417573373200,0.731373291015625,0.01592341810464859,0.036194317042827606,-0.018682831898331642
1733703417583339300,0.74133935546875,0.015699947252869606,0.034886810928583145,-0.014457030221819878
1733703417593306000,0.75130615234375,0.014985953457653522,0.030476614832878113,-0.007516832090914249
1733703417603272200,0.761272216796875,0.0118313729763031,0.024969156831502914,-0.00642520934343338
1733703417613239000,0.771239013671875,0.00830614659935236,0.01766304112970829,-0.006381000392138958
1733703417623206100,0.7812060546875,0.0047502703964710236,0.013907021842896938,-0.006432048976421356
1733703417633172200,0.791172119140625,0.003850121982395649,0.005557212978601456,-0.004555585794150829
1733703417643139000,0.80113916015625,0.0004996911156922579,-0.0055601224303245544,-0.0019169626757502556
1733703417653105200,0.811105224609375,-0.00015944120241329074,-0.012601787224411964,-0.0001885711681097746
1733703417663072000,0.821072021484375,-0.0022476953454315662,-0.0184064581990242,0.004220089875161648
1733703417673038300,0.831038330078125,-0.00497610354796052,-0.01996600441634655,0.007681666873395443
1733703417683005200,0.841005126953125,-0.007422979921102524,-0.018893755972385406,0.0066124629229307175
1733703417692972300,0.85097216796875,-0.009526876732707024,-0.018227431923151016,0.006417253520339727
1733703417702938000,0.860938232421875,-0.007137025706470013,-0.024219850078225136,0.005881689488887787
1733703417712905200,0.8709052734375,-0.00736366119235754,-0.032050877809524536,0.00610725861042738
1733703417722871000,0.88087109375,-0.0026044188998639584,-0.03735387325286865,0.0064989374950528145
1733703417732838100,0.890838134765625,-0.0009942717151716352,-0.03921755403280258,0.007892036810517311
1733703417742804000,0.900803955078125,0.002539275214076042,-0.03805992379784584,0.008116171695291996
1733703417752771000,0.91077099609375,0.001372810686007142,-0.039771538227796555,0.006850637495517731
1733703417762738200,0.92073828125,0.0009112849365919828,-0.034782905131578445,0.002445769030600786
1733703417772704000,0.9307041015625,0.0031988024711608887,-0.02775908075273037,0.002829969860613346
1733703417782671000,0.940671142578125,0.002128944266587496,-0.017888827249407768,0.0044378251768648624
1733703417792637200,0.95063720703125,0.0009925735648721457,-0.012859979644417763,0.003817308694124222
1733703417802604300,0.960604248046875,-0.0011671156389638782,-0.01415525283664465,0.0068258242681622505
1733703417812571100,0.970571044921875,-0.0012997410958632827,-0.014456723816692829,0.00787803903222084
1733703417822537200,0.980537109375,-0.0021451960783451796,-0.01784699223935604,0.008185211569070816
1733703417832504300,0.99050439453125,0.0006428672932088375,-0.025102509185671806,0.003054897766560316
1733703417842470100,1.00047021484375,0.0016250737244263291,-0.028790922835469246,0.001440549036487937
1733703417852437200,1.010437255859375,0.003557995893061161,-0.030060717836022377,0.002044021151959896
1733703417862403000,1.020403076171875,0.005926911253482103,-0.02530042640864849,0.0018204179359599948
1733703417872370200,1.0303701171875,0.002079975325614214,-0.018528807908296585,-0.001505071297287941
1733703417882337000,1.0403369140625,0.005181097891181707,-0.006991648115217686,-0.002967140870168805
1733703417892303000,1.05030322265625,0.006352888885885477,0.0030804271809756756,-0.006961350329220295
1733703417902270000,1.06027001953125,0.0063818152993917465,0.016381660476326942,-0.009328007698059082
1733703417912236300,1.070236328125,0.009323276579380035,0.022655002772808075,-0.012765349820256233
1733703417922203100,1.080203125,0.009849251247942448,0.029321694746613503,-0.012700101360678673
1733703417932170200,1.090170166015625,0.009255632758140564,0.03176674246788025,-0.011778116226196289
1733703417942136000,1.100135986328125,0.006972569040954113,0.029651258140802383,-0.00784930121153593
1733703417952103200,1.110103271484375,0.0063078440725803375,0.021371755748987198,-0.009614710696041584
1733703417962069200,1.1200693359375,0.004730952437967062,0.016488339751958847,-0.006744035519659519
1733703417972036000,1.1300361328125,0.003740256652235985,0.010588373988866806,-0.007989063858985901
1733703417982002200,1.140002197265625,0.0015179198235273361,0.006681553553789854,-0.00374957756139338
1733703417991969000,1.149968994140625,0.001830042339861393,0.0068709044717252254,-0.0040939245373010635
1733703418001936100,1.15993603515625,0.0014559635892510414,0.01104029268026352,-0.00044188485480844975
1733703418011902200,1.169902099609375,-0.0028844561893492937,0.01501372829079628,-0.00013269204646348953
1733703418021869000,1.179869140625,-0.0032160538248717785,0.017242372035980225,-0.0027125978376716375
1733703418031835100,1.189835205078125,-0.0017941922415047884,0.020006999373435974,-0.0021333603654056787
1733703418041802200,1.19980224609375,-0.0008816929766908288,0.018719825893640518,-0.006380194798111916
1733703418051768000,1.20976806640625,-0.0010723753366619349,0.016847623512148857,-0.004262182861566544
1733703418061735200,1.219735107421875,-0.003581070574000478,0.01431984081864357,-0.004583319649100304
1733703418071702300,1.229702392578125,-0.0037097011227160692,0.008745845407247543,-0.0017121657729148865
1733703418081668000,1.239668212890625,-0.002543039619922638,0.003896716982126236,0.0008418703218922019
1733703418091635200,1.24963525390625,-0.004450927954167128,0.0004700273275375366,0.004956187680363655
1733703418101601000,1.25960107421875,-0.004051718395203352,-0.001398094929754734,0.00799416471272707
1733703418111568100,1.269568115234375,-0.005783571861684322,-0.010565227828919888,0.005828747991472483
1733703418121535000,1.279534912109375,-0.0044937715865671635,-0.015679670497775078,0.007007568143308163
1733703418131501300,1.289501220703125,-0.0042381081730127335,-0.0159358661621809,0.004789687693119049
1733703418141468200,1.29946826171875,-0.0033976114355027676,-0.01895580068230629,0.006495215930044651
1733703418151434200,1.309434326171875,-0.005281798075884581,-0.019670061767101288,0.00550958001986146
1733703418161401300,1.3194013671875,-0.003996485844254494,-0.02248329482972622,0.008656682446599007
1733703418171367200,1.3293671875,-0.0035184486769139767,-0.022261986508965492,0.010267894715070724
1733703418181334300,1.339334228515625,-0.002155150519683957,-0.01902288943529129,0.007903452962636948
1733703418191301000,1.349301025390625,-0.0014653918333351612,-0.01979707181453705,0.007458704989403486
1733703418201267200,1.35926708984375,-0.0021188596729189157,-0.017989275977015495,0.005079635418951511
1733703418211234000,1.369234130859375,-0.0018751805182546377,-0.016847845166921616,0.008907129988074303
1733703418221200100,1.3792001953125,-0.0009820280829444528,-0.014669154770672321,0.007985744625329971
1733703418231167000,1.3891669921875,-0.0025817889254540205,-0.007489538751542568,0.004763585980981588
1733703418241134000,1.399134033203125,-0.002952833194285631,0.00139561016112566,0.004368743859231472
1733703418251100200,1.40910009765625,-0.0023147398605942726,0.0027445009909570217,0.0038185352459549904
1733703418261067300,1.4190673828125,-0.001993853598833084,0.0049193426966667175,0.0032550960313528776
1733703418271033000,1.429033203125,0.001927118399180472,0.003975784871727228,0.0026681353338062763
1733703418281000200,1.439000244140625,0.0031962718348950148,0.0024109836667776108,0.004703826270997524
1733703418290966300,1.44896630859375,-0.0013321670703589916,0.0051806713454425335,0.004452423192560673
1733703418300933000,1.45893310546875,-0.0016199880046769977,0.004069023299962282,0.005622244440019131
1733703418310900200,1.468900146484375,-0.0037941928021609783,0.004642401821911335,0.006130109075456858
1733703418320866000,1.478865966796875,-0.0069171348586678505,0.008270771242678165,0.00728764571249485
1733703418330833200,1.488833251953125,-0.009947013109922409,0.009194621816277504,0.005377626046538353
1733703418340799000,1.498799072265625,-0.011706143617630005,0.011447467841207981,0.006395728327333927
1733703418350765800,1.508765869140625,-0.012871276587247849,0.011933760717511177,0.009020273573696613
1733703418360732200,1.518732177734375,-0.01226797141134739,0.010983745567500591,0.011864904314279556
1733703418370699000,1.528698974609375,-0.01299501582980156,0.005086707416921854,0.012846812605857849
1733703418380666000,1.538666015625,-0.013135230168700218,0.0021133767440915108,0.013322928920388222
1733703418390632000,1.5486318359375,-0.013275578618049622,-0.002963140606880188,0.013290705159306526
1733703418400599000,1.55859912109375,-0.013585031032562256,-0.007697455585002899,0.01324948575347662
1733703418410565000,1.568565185546875,-0.013832971453666687,-0.012539613991975784,0.012832701206207275
1733703418420532000,1.578531982421875,-0.014106648974120617,-0.015895072370767593,0.01239720918238163
1733703418430499000,1.5884990234375,-0.018385550007224083,-0.025371402502059937,0.01173967495560646
1733703418440465000,1.59846484375,-0.021687304601073265,-0.028233520686626434,0.00998353399336338
1733703418450432000,1.608431884765625,-0.020438015460968018,-0.03007030487060547,0.011593680828809738
1733703418460398000,1.618398193359375,-0.022309554740786552,-0.03406824171543121,0.014714276418089867
1733703418470365000,1.628364990234375,-0.020573705434799194,-0.03457850217819214,0.014172855764627457
1733703418480331000,1.6383310546875,-0.018659191206097603,-0.03251240402460098,0.009888681583106518
1733703418490298000,1.648298095703125,-0.014709457755088806,-0.026928549632430077,0.003617203328758478
1733703418500265200,1.65826513671875,-0.01445712149143219,-0.014851647429168224,0.003646861296147108
1733703418510231000,1.66823095703125,-0.013063223101198673,-0.009662478230893612,0.005062331445515156
1733703418520198100,1.6781982421875,-0.012874665670096874,-0.005959181115031242,0.006078742444515228
1733703418530164000,1.6881640625,-0.012382247485220432,-0.0028755059465765953,0.004552484955638647
1733703418540131000,1.698131103515625,-0.01070389710366726,0.00662921043112874,0.00006443820893764496
1733703418550097000,1.708096923828125,-0.011224279180169106,0.01665814220905304,0.0004655102966353297
1733703418560064000,1.71806396484375,-0.01415009144693613,0.02647211216390133,0.00010677333921194077
1733703418570030800,1.72803076171875,-0.012536215595901012,0.02882608026266098,0.0009752301266416907
1733703418579997200,1.7379970703125,-0.013690132647752762,0.028438925743103027,0.000684208469465375
1733703418589964000,1.747964111328125,-0.012287446297705173,0.023289170116186142,-0.0011560358107089996
1733703418599930000,1.75793017578125,-0.005133426748216152,0.017884481698274612,-0.003462661523371935
1733703418609897200,1.767897216796875,0.0008032915065996349,0.013292926363646984,-0.005998789798468351
1733703418619864000,1.777864013671875,0.004618204198777676,0.013078585267066956,-0.006915079429745674
1733703418629830100,1.787830078125,0.006259243935346603,0.01178348995745182,-0.006424259394407272
1733703418639797000,1.797796875,0.008121256716549397,0.01097828522324562,-0.0021800256799906492
1733703418649763000,1.80776318359375,0.008935651741921902,0.01130612101405859,-0.0017635072581470013
1733703418659730000,1.81772998046875,0.01045598927885294,0.008545705117285252,-0.0054631829261779785
1733703418669696000,1.827696044921875,0.01082057598978281,0.01001257449388504,-0.004531608894467354
1733703418679662800,1.837662841796875,0.011321144178509712,0.014229938387870789,-0.006392504088580608
1733703418689630000,1.8476298828125,0.011627674102783203,0.020565330982208252,-0.007858308032155037
1733703418699596000,1.857595947265625,0.008395063690841198,0.022273968905210495,-0.007379678077995777
1733703418709563100,1.867563232421875,0.0076696183532476425,0.021419625729322433,-0.008292876183986664
1733703418719529000,1.877529052734375,0.005935433320701122,0.014056832529604435,-0.007930479943752289
1733703418729496000,1.88749609375,0.004629685543477535,0.0059493714943528175,-0.006766412407159805
1733703418739463200,1.897463134765625,0.007389440666884184,0.0027938405983150005,-0.007492591626942158
1733703418749429000,1.907428955078125,0.0026900265365839005,-0.0027327509596943855,-0.001684769755229354
1733703418759396000,1.91739599609375,-0.0029408088885247707,-0.006755998358130455,0.006783681455999613
1733703418769362000,1.92736181640625,-0.008737178519368172,-0.013470359146595001,0.01312866248190403
1733703418779329000,1.9373291015625,-0.01399116963148117,-0.020399922505021095,0.014596985653042793
1733703418789294800,1.947294921875,-0.014627132564783096,-0.0276490468531847,0.017009809613227844
1733703418799262000,1.957261962890625,-0.017406972125172615,-0.03304343670606613,0.015123923309147358
1733703418809229000,1.96722900390625,-0.01719099096953869,-0.036730051040649414,0.01420486718416214
1733703418819195100,1.977195068359375,-0.019243255257606506,-0.03612104803323746,0.015340644866228104
1733703418829162200,1.987162353515625,-0.01860249973833561,-0.03733225166797638,0.016113227233290672
1733703418839128000,1.997128173828125,-0.015648355707526207,-0.038726262748241425,0.01635318249464035
1733703418849095200,2.00709521484375,-0.012964155524969101,-0.03495016694068909,0.01400347612798214
1733703418859061000,2.01706103515625,-0.010939151048660278,-0.030854806303977966,0.01217467337846756
1733703418869028000,2.027028076171875,-0.005628807935863733,-0.024572141468524933,0.005702659487724304
1733703418878995000,2.036994873046875,-0.0026984685100615025,-0.017554931342601776,0.0033401791006326675
1733703418888961000,2.0469609375,0.00012394963414408267,-0.013328495435416698,0.0007672990905120969
1733703418898927900,2.056927978515625,0.002602490596473217,-0.013815633952617645,-0.0009264813270419836
1733703418908894000,2.06689404296875,0.0061037479899823666,-0.012741047888994217,-0.0019464718643575907
1733703418918860800,2.07686083984375,0.009622613899409771,-0.013939318247139454,-0.0037290186155587435
1733703418928828000,2.086827880859375,0.009317414835095406,-0.013206948526203632,-0.003574022324755788
1733703418938794200,2.096794189453125,0.006242699921131134,-0.01518658734858036,-0.003368495963513851
1733703418948761000,2.106760986328125,0.0008420755621045828,-0.017337622120976448,-0.0012275807093828917
1733703418958727200,2.11672705078125,-0.0028616520576179028,-0.017814725637435913,-0.00036183325573801994
1733703418968694000,2.126694091796875,-0.003107994794845581,-0.01664746180176735,0.0010208800667896867
1733703418978660000,2.13666015625,-0.003036654554307461,-0.013930481858551502,0.0006608727853745222
1733703418988627000,2.146626953125,-0.0014081316767260432,-0.010575964115560055,0.0025341403670608997
1733703418998594000,2.156593994140625,-0.0021306821145117283,-0.0047229379415512085,0.0024185695219784975
1733703419008559900,2.166559814453125,-0.004192501772195101,0.004117158707231283,0.003136823885142803
1733703419018527000,2.17652685546875,-0.0032337969169020653,0.01141788437962532,-0.00005982629954814911
1733703419028492800,2.186492919921875,-0.009358269162476063,0.015330334194004536,0.0006011702353134751
1733703419038460000,2.1964599609375,-0.011266988702118397,0.017043834552168846,-0.004155981354415417
1733703419048426000,2.206426025390625,-0.009206234477460384,0.020405275747179985,-0.007369617931544781
1733703419058393000,2.21639306640625,-0.006480205804109573,0.022493446245789528,-0.005255156196653843
1733703419068360200,2.226360107421875,-0.00640111044049263,0.019725356251001358,-0.00039355596527457237
1733703419078326000,2.236325927734375,-0.012079819105565548,0.026570603251457214,-0.0009014348033815622
1733703419088293000,2.246293212890625,-0.01669934019446373,0.024573499336838722,0.0009808873292058706
1733703419098259000,2.256259033203125,-0.013254206627607346,0.019415443763136864,0.0008164648897945881
1733703419108226000,2.26622607421875,-0.011705578304827213,0.017275327816605568,-0.0034720234107226133
1733703419118193000,2.27619287109375,-0.010245164856314659,0.014294315129518509,-0.00266353995539248
1733703419128159000,2.286158935546875,-0.01067366823554039,0.01020796038210392,0.002822305541485548
1733703419138126000,2.2961259765625,-0.011351408436894417,0.005750604905188084,0.0033759234938770533
1733703419148092000,2.306091796875,-0.011311461217701435,-0.0046003032475709915,0.01198086328804493
1733703419158059000,2.31605908203125,-0.016940753906965256,-0.009582516737282276,0.012823376804590225
1733703419168025000,2.326025146484375,-0.017709342762827873,-0.014934404753148556,0.008862190879881382
1733703419177992200,2.3359921875,-0.014862286858260632,-0.010033924132585526,0.006067031994462013
1733703419187959000,2.345958984375,-0.013036956079304218,-0.0033746901899576187,0.0035623288713395596
1733703419197925000,2.355925048828125,-0.012738971039652824,-0.0016418583691120148,0.002948800101876259
1733703419207892000,2.36589208984375,-0.013707030564546585,0.0036370595917105675,0.002241730922833085
1733703419217858000,2.375858154296875,-0.01662653312087059,0.001133711077272892,0.001316328882239759
1733703419227825000,2.385824951171875,-0.017864635214209557,-0.0006050672382116318,-0.003461115527898073
1733703419237792000,2.3957919921875,-0.02040802501142025,0.004131319001317024,-0.005646175239235163
1733703419247757800,2.4057578125,-0.021148916333913803,0.001032198779284954,-0.00928884744644165
1733703419257725000,2.415724853515625,-0.026451032608747482,0.0005848975852131844,-0.014520267955958843
1733703419267691000,2.42569091796875,-0.030817285180091858,-0.006984870880842209,-0.014812151901423931
1733703419277658000,2.435658203125,-0.031910307705402374,-0.017135467380285263,-0.015582766383886337
1733703419287624200,2.445624267578125,-0.03183068335056305,-0.032137319445610046,-0.01836204156279564
1733703419297591000,2.455591064453125,-0.02912411466240883,-0.037846338003873825,-0.02155323512852192
1733703419307558100,2.46555810546875,-0.025438832119107246,-0.04653223976492882,-0.025147702544927597
1733703419317524000,2.47552392578125,-0.019761506468057632,-0.043259479105472565,-0.030795469880104065
1733703419327491000,2.485490966796875,-0.014751833863556385,-0.03655150905251503,-0.03575560823082924
1733703419337457000,2.495456787109375,-0.0006927404319867492,-0.02982090413570404,-0.04022039473056793
1733703419347424000,2.505424072265625,0.004863412119448185,-0.018169838935136795,-0.03839826211333275
1733703419357389800,2.515389892578125,0.007024033460766077,-0.00890558585524559,-0.036538682878017426
1733703419367357000,2.52535693359375,0.003012247383594513,0.003768131136894226,-0.034308820962905884
1733703419377323800,2.53532373046875,0.005727410316467285,0.005625462159514427,-0.030316809192299843
1733703419387290000,2.5452900390625,0.006756190210580826,-0.0008500134572386742,-0.018996508792042732
1733703419397257000,2.555257080078125,0.007446311414241791,-0.009823690168559551,-0.006332843564450741
1733703419407223000,2.56522314453125,0.007113682571798563,-0.022638291120529175,0.0046974364668130875
1733703419417190000,2.57518994140625,0.004238136112689972,-0.033992499113082886,0.012988709844648838
1733703419427157000,2.585156982421875,0.0015310326125472784,-0.04438149183988571,0.01904154196381569
1733703419437122800,2.595122802734375,-0.002945640357211232,-0.04737201705574989,0.018441306427121162
1733703419447090000,2.60508984375,-0.003456700826063752,-0.04611340910196304,0.017147276550531387
1733703419457055700,2.6150556640625,-0.008575765416026115,-0.036498017609119415,0.011861976236104965
1733703419467022800,2.62502294921875,-0.0067238034680485725,-0.025320731103420258,0.00785445049405098
1733703419476988700,2.63498876953125,-0.007346883416175842,-0.017518537119030952,0.0069738514721393585
1733703419486955800,2.644955810546875,-0.004610484931617975,-0.013680921867489815,0.007847368717193604
1733703419496923000,2.6549228515625,-0.0017126987222582102,-0.004569537006318569,0.004453856498003006
1733703419506889000,2.664888916015625,0.0006993262795731425,0.0064346445724368095,0.002565142698585987
1733703419516856000,2.67485595703125,0.0031339223496615887,0.013658512383699417,0.0028946800157427788
1733703419526822000,2.68482177734375,0.0037363292649388313,0.0202876515686512,-0.0033357851207256317
1733703419536789000,2.6947890625,0.0030758969951421022,0.02630060352385044,-0.009383497759699821
1733703419546754800,2.7047548828125,0.004555016756057739,0.03448982536792755,-0.013557735830545425
1733703419556722000,2.714721923828125,0.005935001187026501,0.03709665685892105,-0.01672188751399517
1733703419566689000,2.72468896484375,0.006066295318305492,0.040963299572467804,-0.01906546950340271
1733703419576654800,2.73465478515625,0.005954091437160969,0.039280228316783905,-0.018817055970430374
1733703419586622000,2.7446220703125,0.01026947796344757,0.03846556693315506,-0.01578238420188427
1733703419596587800,2.754587890625,0.015446248464286327,0.031839288771152496,-0.01727454736828804
1733703419606555000,2.764554931640625,0.01752484403550625,0.027935627847909927,-0.01739518716931343
1733703419616521700,2.774521728515625,0.020653028041124344,0.025957321748137474,-0.018112273886799812
1733703419626488000,2.784488037109375,0.022901268675923347,0.02136976271867752,-0.015439258888363838
1733703419636455000,2.794454833984375,0.026103084906935692,0.015686463564634323,-0.01327490620315075
1733703419646421000,2.8044208984375,0.027503641322255135,0.008400054648518562,-0.011602973565459251
1733703419656387800,2.814387939453125,0.027226774021983147,0.005932394415140152,-0.013166896998882294
1733703419666354000,2.82435400390625,0.027717063203454018,0.006127337925136089,-0.011224919930100441
1733703419676320800,2.83432080078125,0.026462480425834656,0.010406836867332458,-0.010365457274019718
1733703419686288000,2.844287841796875,0.02624410204589367,0.0190887413918972,-0.011355887167155743
1733703419696254000,2.85425390625,0.025031697005033493,0.029866643249988556,-0.011380177922546864
1733703419706220800,2.864220703125,0.022461213171482086,0.036664631217718124,-0.010471773333847523
1733703419716187000,2.874186767578125,0.02423734776675701,0.0428030751645565,-0.0118684908375144
1733703419726153700,2.88415380859375,0.02579662762582302,0.04975339025259018,-0.017086686566472054
1733703419736120000,2.8941201171875,0.028818653896450996,0.0534469299018383,-0.0232649277895689
1733703419746087000,2.9040869140625,0.03100271336734295,0.04970039799809456,-0.02248595468699932
1733703419756054000,2.914053955078125,0.02948530949652195,0.04390185326337814,-0.019256973639130592
1733703419766019800,2.924019775390625,0.02575262263417244,0.03762345016002655,-0.012417443096637726
1733703419775987000,2.933987060546875,0.014927100390195847,0.03111453354358673,-0.005057628732174635
1733703419785952800,2.943952880859375,0.006632418371737003,0.028431931510567665,0.004956389777362347
1733703419795920000,2.953919921875,-0.008460916578769684,0.02803751826286316,0.00844104029238224
1733703419805885700,2.9638857421875,-0.022541048005223274,0.033676229417324066,0.013547385111451149
1733703419815852800,2.973852783203125,-0.030409352853894234,0.031679555773735046,0.015580391511321068
1733703419825820000,2.98381982421875,-0.035711172968149185,0.01894565299153328,0.01660597324371338
1733703419835786000,2.993785888671875,-0.037831589579582214,-0.00022554583847522736,0.017491793259978294
1733703419845752800,3.0037529296875,-0.03522062674164772,-0.01884370483458042,0.017508570104837418
1733703419855719000,3.013718994140625,-0.028253663331270218,-0.038497477769851685,0.02015622891485691
1733703419865686000,3.02368603515625,-0.020585622638463974,-0.05995430052280426,0.0208787452429533
1733703419875652900,3.03365283203125,-0.013987175188958645,-0.07792863994836807,0.02039586380124092
1733703419885619000,3.043618896484375,-0.009857411496341228,-0.08953656256198883,0.015400039963424206
1733703419895586000,3.0535859375,-0.005085592158138752,-0.09675991535186768,0.013556008227169514
1733703419905552000,3.0635517578125,-0.004517806228250265,-0.09944571554660797,0.011172745376825333
1733703419915519000,3.07351904296875,-0.0018106704810634255,-0.09207774698734283,0.007215081248432398
1733703419925484800,3.08348486328125,-0.002216003369539976,-0.08426350355148315,0.006413735914975405
1733703419935452000,3.093451904296875,-0.0024731645826250315,-0.07268547266721725,0.004733122885227203
1733703419945418800,3.103418701171875,0.000851525692269206,-0.06239422783255577,0.001985273091122508
1733703419955385000,3.113385009765625,0.0007992297760210931,-0.05368686839938164,-0.0017388903070241213
1733703419965352000,3.12335205078125,0.0008652762044221163,-0.04833843931555748,-0.004630284383893013
1733703419975318000,3.133318115234375,-0.0019212248735129833,-0.046780288219451904,-0.00622317660599947
1733703419985284900,3.143284912109375,0.0011968041071668267,-0.043947480618953705,0.0009865328902378678
1733703419995251000,3.1532509765625,0.0009538629092276096,-0.039169639348983765,0.0053409431129693985
1733703420005217800,3.1632177734375,0.0013283034786581993,-0.030925028026103973,0.007567612454295158
1733703420015185000,3.173184814453125,0.00371289299800992,-0.01814984157681465,0.0060137310065329075
1733703420025151000,3.18315087890625,0.007272474467754364,-0.008515323512256145,-0.0001693300437182188
1733703420035117800,3.193117919921875,0.008349624462425709,0.00495163956657052,-0.008020928129553795
1733703420045084000,3.203083984375,0.01196752954274416,0.015574989840388298,-0.015308134257793427
1733703420055050800,3.21305078125,0.009954376146197319,0.017107326537370682,-0.02004104107618332
1733703420065017900,3.223017822265625,0.009045706130564213,0.01463351771235466,-0.018141143023967743
1733703420074984000,3.23298388671875,0.009368387050926685,0.00986900832504034,-0.011191162280738354
1733703420084951000,3.242950927734375,0.006985390093177557,0.004792490974068642,-0.004774807952344418
1733703420094916900,3.252916748046875,0.0058184536173939705,0.001149156130850315,0.0014938650419935584
1733703420104884000,3.262884033203125,0.0069292583502829075,-0.002637593075633049,0.003949832171201706
1733703420114849800,3.272849853515625,0.006186980288475752,-0.004309765994548798,0.004931631498038769
1733703420124817000,3.28281689453125,0.002340576844289899,-0.009831830859184265,0.0013536745682358742
1733703420134784000,3.292783935546875,0.0020019779913127422,-0.015520702116191387,0.00028010422829538584
1733703420144749800,3.302749755859375,-0.0037666952703148127,-0.015349994413554668,0.003519306890666485
1733703420154717000,3.312717041015625,-0.008754889480769634,-0.01345172431319952,0.004151115193963051
1733703420164682800,3.322682861328125,-0.009557565674185753,-0.01255024503916502,0.007377801463007927
1733703420174649900,3.33264990234375,-0.01196650043129921,-0.01475659478455782,0.011380096897482872
1733703420184616000,3.342615966796875,-0.01055076438933611,-0.012967216782271862,0.0113031305372715
1733703420194583000,3.3525830078125,-0.01095829252153635,-0.00819559395313263,0.007765025831758976
1733703420204550000,3.3625498046875,-0.010376924648880959,-0.008085338398814201,0.0014685140922665596
1733703420214516000,3.372515869140625,-0.007359330542385578,-0.006896214559674263,-0.002626309171319008
1733703420224483000,3.382483154296875,-0.005214420612901449,-0.0075675975531339645,-0.0036929049529135227
1733703420234449000,3.392448974609375,-0.0032789043616503477,-0.004459993913769722,-0.002119778422638774
1733703420244416000,3.402416015625,-0.003905280027538538,0.0018732696771621704,0.000620880862697959
1733703420254381800,3.4123818359375,-0.000042231171391904354,0.010145490057766438,-0.0004107728600502014
1733703420264349000,3.422348876953125,0.0038515767082571983,0.01932806894183159,-0.003532530041411519
1733703420274315800,3.432315673828125,0.008723635226488113,0.026140473783016205,-0.005264383740723133
1733703420284281900,3.44228173828125,0.012701332569122314,0.03130354359745979,-0.011580070480704308
1733703420294248700,3.452248779296875,0.01822156272828579,0.03107999823987484,-0.01650734432041645
1733703420304215000,3.462215087890625,0.019716927781701088,0.03199532628059387,-0.018987545743584633
1733703420314182000,3.472181884765625,0.01991826295852661,0.028362242504954338,-0.018093522638082504
1733703420324148000,3.48214794921875,0.01691325195133686,0.03036806732416153,-0.01667182147502899
1733703420334114800,3.49211474609375,0.014987717382609844,0.03640461713075638,-0.015864085406064987
1733703420344082000,3.50208203125,0.01237355824559927,0.0386163704097271,-0.013488546013832092
1733703420354048000,3.512048095703125,0.006300986744463444,0.04191480204463005,-0.010350381955504417
1733703420364014800,3.522014892578125,0.005366483703255653,0.04527677595615387,-0.008663002401590347
1733703420373981000,3.53198095703125,0.00003103935159742832,0.046919193118810654,-0.009368102066218853
1733703420383947800,3.54194775390625,-0.0006712362519465387,0.050966665148735046,-0.015229718759655952
1733703420393915000,3.551914794921875,-0.0017676595598459244,0.05020952969789505,-0.0168308112770319
1733703420403881000,3.561880859375,-0.005363726057112217,0.04465657100081444,-0.018312860280275345
1733703420413847800,3.571847900390625,-0.006657445337623358,0.04295974224805832,-0.018226685002446175
1733703420423814100,3.581814208984375,-0.007657729089260101,0.04088541120290756,-0.017332129180431366
1733703420433781000,3.591781005859375,-0.004338105209171772,0.034229826182127,-0.016964448615908623
1733703420443747000,3.6017470703125,-0.0036845654249191284,0.025656044483184814,-0.01559638325124979
1733703420453714000,3.6117138671875,-0.003922747913748026,0.011228518560528755,-0.009333696216344833
1733703420463681000,3.621680908203125,-0.0032239346764981747,0.001597994938492775,-0.006696633994579315
1733703420473646800,3.631646728515625,-0.003587131155654788,-0.007659628055989742,-0.0021607892122119665
1733703420483614000,3.641614013671875,-0.0070335278287529945,-0.015062416903674603,-0.000911766430363059
1733703420493579800,3.651579833984375,-0.007545053958892822,-0.017440931871533394,0.00035632483195513487
1733703420503547000,3.661546875,-0.009985041804611683,-0.019667601212859154,0.0030911248177289963
1733703420513513000,3.671512939453125,-0.010573035106062889,-0.024307914078235626,0.007581161335110664
1733703420523480000,3.68147998046875,-0.01211633626371622,-0.027450978755950928,0.010932217352092266
1733703420533447000,3.691447021484375,-0.012740809470415115,-0.03567715734243393,0.010103226639330387
1733703420543413000,3.7014130859375,-0.014194894582033157,-0.03545398637652397,0.006140975281596184
1733703420553380000,3.711380126953125,-0.014737674035131931,-0.037738874554634094,0.00766499200835824
1733703420563346000,3.721345947265625,-0.0148220956325531,-0.036361221224069595,0.008512143045663834
1733703420573313000,3.73131298828125,-0.018821408972144127,-0.035084374248981476,0.00984889641404152
1733703420583278800,3.74127880859375,-0.020690683275461197,-0.038991764187812805,0.014492650516331196
1733703420593246000,3.751245849609375,-0.022082418203353882,-0.04369101673364639,0.021159445866942406
1733703420603212800,3.761212890625,-0.022031020373106003,-0.04273654520511627,0.02058553509414196
1733703420613179000,3.771178955078125,-0.019061662256717682,-0.040108755230903625,0.014580477960407734
1733703420623146000,3.78114599609375,-0.015387832187116146,-0.037587277591228485,0.012198545970022678
1733703420633112000,3.791112060546875,-0.011908411048352718,-0.038391996175050735,0.00636153994128108
1733703420643079200,3.8010791015625,-0.006151189096271992,-0.03669450059533119,0.0018160564359277487
1733703420653046000,3.8110458984375,-0.003333192551508546,-0.03719116374850273,-0.0029579803813248873
1733703420663012000,3.82101220703125,-0.0018748454749584198,-0.039575494825839996,-0.003972112201154232
1733703420672979000,3.83097900390625,-0.0013947496190667152,-0.04072148725390434,-0.008690433576703072
1733703420682945000,3.840945068359375,0.00008570152567699552,-0.039053548127412796,-0.010671558789908886
1733703420692911900,3.850911865234375,-0.00009379553375765681,-0.03547452762722969,-0.009637986309826374
1733703420702878000,3.8608779296875,-0.00006210390711203218,-0.029600925743579865,-0.004412331152707338
1733703420712844800,3.8708447265625,-0.0010306620970368385,-0.021708671003580093,-0.00004506693221628666
1733703420722812000,3.88081201171875,-0.001811234513297677,-0.015591921284794807,0.0046394336968660355
1733703420732777700,3.89077783203125,-0.0032739737071096897,-0.020039226859807968,0.008272837847471237
1733703420742744800,3.900744873046875,-0.0008955046068876982,-0.01758086308836937,0.009272322058677673
1733703420752711200,3.910711181640625,-0.003289890242740512,-0.02034437283873558,0.003158179810270667
1733703420762678000,3.920677978515625,-0.0021495246328413486,-0.018867917358875275,0.003856726922094822
1733703420772644000,3.93064404296875,-0.0025765257887542248,-0.022182514891028404,0.0009633124573156238
1733703420782611000,3.94061083984375,-0.00330063933506608,-0.020849069580435753,-0.0016391284298151731
1733703420792578000,3.950578125,0.0004466255195438862,-0.019256360828876495,-0.0041639190167188644
1733703420802543900,3.9605439453125,0.0025297501124441624,-0.014608612284064293,-0.0033449968323111534
1733703420812511000,3.970510986328125,0.006921601947396994,-0.010564357042312622,-0.00435918103903532
1733703420822476800,3.980476806640625,0.007299770601093769,-0.001082705333828926,-0.00442043412476778
1733703420832444000,3.99044384765625,0.010870703496038914,0.00785714853554964,-0.005732037127017975
1733703420842409700,4.00040966796875,0.014229215681552887,0.015851957723498344,-0.006945373024791479
1733703420852376800,4.010376953125,0.012036737985908985,0.0256047360599041,-0.007827462628483772
1733703420862344000,4.020343994140625,0.014301490038633347,0.03380381315946579,-0.008482333272695541
1733703420872310000,4.03031005859375,0.016848072409629822,0.04113518074154854,-0.009274730458855629
1733703420882277000,4.040277099609375,0.016022758558392525,0.047734227031469345,-0.010731480084359646
1733703420892243000,4.050242919921875,0.015515325590968132,0.05569794774055481,-0.012659714557230473
1733703420902210000,4.0602099609375,0.013692392036318779,0.0620352067053318,-0.012174753472208977
1733703420912175900,4.07017578125,0.012811250053346157,0.06682448089122772,-0.013355599716305733
1733703420922143000,4.08014306640625,0.0123185645788908,0.06698960065841675,-0.01707523688673973
1733703420932109800,4.09010986328125,0.010882837697863579,0.07042320817708969,-0.018398728221654892
1733703420942076000,4.100075927734375,0.008431398309767246,0.06925168633460999,-0.018965449184179306
1733703420952043000,4.11004296875,0.006989879533648491,0.06678983569145203,-0.019211411476135254
1733703420962008800,4.1200087890625,0.0029085848946124315,0.06747826933860779,-0.021625034511089325
1733703420971976000,4.129975830078125,0.0042317090556025505,0.06456223875284195,-0.018851567059755325
1733703420981942000,4.13994189453125,0.0017168859485536814,0.054452084004879,-0.01888485811650753
1733703420991909000,4.1499091796875,0.0019542116206139326,0.043992578983306885,-0.013937517069280148
1733703421001876000,4.1598759765625,-0.0005744598456658423,0.0291712898761034,-0.012769986875355244
1733703421011842000,4.169842041015625,-0.002054414711892605,0.015184389427304268,-0.006649918854236603
1733703421021809000,4.179808837890625,-0.004042997024953365,-0.006430625915527344,0.00025938579346984625
1733703421031775000,4.18977490234375,-0.008354021236300468,-0.030862798914313316,0.006077966652810574
1733703421041741800,4.199741943359375,-0.014988753944635391,-0.052408039569854736,0.010988568887114525
1733703421051708000,4.2097080078125,-0.018059836700558662,-0.06602634489536285,0.01691223494708538
1733703421061674800,4.2196748046875,-0.02339734509587288,-0.07483368366956711,0.022287294268608093
1733703421071641900,4.229641845703125,-0.028681527823209763,-0.07528787851333618,0.022664187476038933
1733703421081608000,4.23960791015625,-0.03173857182264328,-0.06672262400388718,0.02091129496693611
1733703421091574800,4.24957470703125,-0.02952435053884983,-0.06335563212633133,0.018916744738817215
1733703421101541000,4.259541015625,-0.032259415835142136,-0.05771692469716072,0.01648874208331108
1733703421111508000,4.269508056640625,-0.026929104700684547,-0.05355802923440933,0.014956144616007805
1733703421121474000,4.27947412109375,-0.025942936539649963,-0.056712277233600616,0.013169163838028908
1733703421131441000,4.28944091796875,-0.02414765954017639,-0.0590762235224247,0.014369344338774681
1733703421141408000,4.299407958984375,-0.023137256503105164,-0.05662025883793831,0.01569133810698986
1733703421151373800,4.309373779296875,-0.020849470049142838,-0.05284406989812851,0.016017789021134377
1733703421161341000,4.3193408203125,-0.017103202641010284,-0.051799576729536057,0.015340014360845089
1733703421171306800,4.329306640625,-0.013086951337754726,-0.049366652965545654,0.013069613836705685
1733703421181273900,4.33927392578125,-0.00877875555306673,-0.04998636990785599,0.008100422099232674
1733703421191240000,4.349239990234375,-0.007855177856981754,-0.04988844692707062,0.0047545889392495155
1733703421201207000,4.35920703125,-0.0008465363644063473,-0.04272028058767319,0.0010234999936074018
1733703421211174000,4.369173828125,0.0058089750818908215,-0.03868391364812851,0.0001913662999868393
1733703421221140000,4.379139892578125,0.013479677960276604,-0.033530429005622864,0.00001905974932014942
1733703421231107000,4.389107177734375,0.016262507066130638,-0.03385157510638237,0.00317027373239398
1733703421241073000,4.399072998046875,0.01584545522928238,-0.03311387822031975,0.0062699271366000175
1733703421251040000,4.4090400390625,0.016799932345747948,-0.03554880619049072,0.008503254503011703
1733703421261005800,4.419005859375,0.01692376844584942,-0.03945513069629669,0.0057037388905882835
1733703421270973000,4.428972900390625,0.014550927095115185,-0.045966584235429764,0.003712174016982317
1733703421280940000,4.43893994140625,0.01127577107399702,-0.05610044673085213,0.003449852578341961
1733703421290905900,4.44890576171875,0.012186674401164055,-0.06496058404445648,0.005955727770924568
1733703421300873000,4.458873046875,0.010794905945658684,-0.07181822508573532,0.005624696612358093
1733703421310839000,4.468839111328125,0.0105925053358078,-0.06987278163433075,0.005532018840312958
1733703421320806100,4.47880615234375,0.011458032764494419,-0.062018588185310364,0.002506667748093605
1733703421330772000,4.48877197265625,0.012224694713950157,-0.05283721163868904,0.000019487226381897926
1733703421340739000,4.498739013671875,0.009556739591062069,-0.04849066957831383,-0.005233065225183964
1733703421350706700,4.508706787109375,0.012266444973647594,-0.04532777518033981,-0.008877390995621681
1733703421360673000,4.518673095703125,0.012567381374537945,-0.03815055638551712,-0.010175416246056557
1733703421370640000,4.528639892578125,0.008154421113431454,-0.0276672150939703,-0.006309675984084606
1733703421380606000,4.53860595703125,0.003868596162647009,-0.02357366867363453,-0.004982090555131435
1733703421390572800,4.54857275390625,0.0034205501433461905,-0.01998179405927658,-0.002101187827065587
1733703421400540000,4.558539794921875,0.004028017167001963,-0.014134825207293034,0.0018216483294963837
1733703421410506000,4.568506103515625,0.003744787070900202,0.0016359752044081688,-0.0020541022531688213
1733703421420472800,4.578472900390625,0.005039349664002657,0.02381957322359085,-0.006515695713460445
1733703421430439000,4.58843896484375,0.007337420713156462,0.04665252938866615,-0.01037115789949894
1733703421440405800,4.59840576171875,0.004169590771198273,0.06502274423837662,-0.013534193858504295
1733703421450372000,4.6083720703125,0.0028861300088465214,0.08526396751403809,-0.014485958963632584
1733703421460339000,4.6183388671875,0.0019974331371486187,0.10633809119462967,-0.016418347135186195
1733703421470305000,4.628304931640625,0.002876055659726262,0.12569452822208405,-0.01771979220211506
1733703421480272000,4.63827197265625,0.0029311832040548325,0.13897810876369476,-0.01350933313369751
1733703421490239000,4.648239013671875,0.001304136123508215,0.14766845107078552,-0.015326445922255516
1733703421500204800,4.658204833984375,0.001613595406524837,0.15115372836589813,-0.018708927556872368
1733703421510172000,4.668171875,0.0014484410639852285,0.14913871884346008,-0.01571372151374817
1733703421520137700,4.6781376953125,0.002145922975614667,0.13870126008987427,-0.011945082806050777
1733703421530104800,4.688104736328125,-0.0002379898796789348,0.1254478394985199,-0.01158609613776207
1733703421540072000,4.698072021484375,0.00027679913910105824,0.1066424697637558,-0.01095386128872633
1733703421550037800,4.708037841796875,-0.0009537187870591879,0.08437294512987137,-0.010844722390174866
1733703421560004900,4.7180048828125,-0.0030432348139584064,0.06354755908250809,-0.010261223651468754
1733703421569971000,4.727970947265625,-0.0034645202104002237,0.03639519587159157,-0.005834140814840794
1733703421579938000,4.73793798828125,-0.007321043871343136,0.008732673712074757,-0.002172027947381139
1733703421589904000,4.74790380859375,-0.009704776108264923,-0.018515054136514664,-0.00015090079978108406
1733703421599871000,4.75787109375,-0.010273095220327377,-0.046014055609703064,0.003035305067896843
1733703421609838000,4.767838134765625,-0.009975953958928585,-0.07069805264472961,0.004851954057812691
1733703421619804000,4.777803955078125,-0.01193177979439497,-0.09243716299533844,0.008886909112334251
1733703421629771000,4.78777099609375,-0.013427743688225746,-0.10987257212400436,0.013912400230765343
1733703421639736800,4.79773681640625,-0.01368766836822033,-0.1197584867477417,0.017280234023928642
1733703421649704000,4.807703857421875,-0.014291474595665932,-0.13083913922309875,0.02364145591855049
1733703421659669800,4.817669677734375,-0.013390793465077877,-0.1399165242910385,0.02448035217821598
1733703421669636900,4.827636962890625,-0.00925376731902361,-0.1420501470565796,0.022377897053956985
1733703421679603700,4.837603759765625,-0.008492901921272278,-0.13837258517742157,0.020437784492969513
1733703421689570000,4.847570068359375,-0.004383116494864225,-0.12783744931221008,0.0205114483833313
1733703421699537000,4.857536865234375,-0.004415340721607208,-0.11545215547084808,0.016152650117874146
1733703421709503000,4.8675029296875,-0.00608797324821353,-0.10712140798568726,0.012568301521241665
1733703421719470000,4.877469970703125,-0.0026548923924565315,-0.10090453177690506,0.009430298581719398
1733703421729436000,4.887435791015625,0.0002913089992944151,-0.09437869489192963,0.011249926872551441
1733703421739403000,4.897403076171875,0.0027331612072885036,-0.0847335234284401,0.012482704594731331
1733703421749368800,4.907368896484375,0.007160967215895653,-0.07904504239559174,0.00999978557229042
1733703421759336000,4.9173359375,0.008758065290749073,-0.06735775619745255,0.009222142398357391
1733703421769302800,4.927302734375,0.009626255370676517,-0.057007644325494766,0.00975131243467331
1733703421779268900,4.937268798828125,0.006640851963311434,-0.04648682847619057,0.0057754795998334885
1733703421789235700,4.947235595703125,0.0031298601534217596,-0.036770619451999664,0.0055222176015377045
1733703421799202000,4.9572021484375,0.0009005278698168695,-0.03157506138086319,0.0005381114315241575
1733703421809169000,4.9671689453125,-0.0010822261683642864,-0.026745842769742012,0.0019779768772423267
1733703421819135000,4.977135009765625,-0.0023115412332117558,-0.02756343223154545,0.002418729942291975
1733703421829101800,4.987101806640625,-0.003989702090620995,-0.021724732592701912,0.004643319174647331
1733703421839069000,4.99706884765625,-0.0006450381479226053,-0.014588793739676476,0.002838495187461376
1733703421849034800,5.00703466796875,0.0006895720725879073,-0.0035015903413295746,0.003531557507812977
1733703421859001900,5.017001953125,0.004202281590551138,0.00967679638415575,-0.0015803801361471415
1733703421868968000,5.026968017578125,0.003053282853215933,0.02614220231771469,-0.0038588852621614933
1733703421878934800,5.036934814453125,0.0045228153467178345,0.041143521666526794,-0.005918574053794146
1733703421888901000,5.046901123046875,0.0057239471934735775,0.050671499222517014,-0.007733399048447609
1733703421898868000,5.056867919921875,0.00909257959574461,0.058796271681785583,-0.009760864078998566
1733703421908834800,5.066834716796875,0.010000549256801605,0.06980881839990616,-0.014383845962584019
1733703421918801000,5.07680078125,0.013979312032461166,0.07913921028375626,-0.018918145447969437
1733703421928768000,5.08676806640625,0.017073776572942734,0.09166005253791809,-0.01902184821665287
1733703421938733800,5.09673388671875,0.019501248374581337,0.10349220782518387,-0.018617313355207443
1733703421948701000,5.106700927734375,0.01942889764904976,0.11145995557308197,-0.01970139518380165
1733703421958666800,5.116666748046875,0.0178174190223217,0.11461979150772095,-0.019238270819187164
1733703421968633900,5.1266337890625,0.016635660082101822,0.11833783239126205,-0.020934907719492912
1733703421978601000,5.13660107421875,0.019925996661186218,0.12743119895458221,-0.021509617567062378
1733703421988566800,5.14656689453125,0.022368671372532845,0.13241805136203766,-0.01982702873647213
1733703421998534000,5.156533935546875,0.022244833409786224,0.13771773874759674,-0.020632900297641754
1733703422008500000,5.1665,0.020525125786662102,0.13306505978107452,-0.02165972627699375
1733703422018467000,5.176467041015625,0.01960819959640503,0.12566573917865753,-0.024791337549686432
1733703422028433000,5.186432861328125,0.015776582062244415,0.11796371638774872,-0.02477177046239376
1733703422038400000,5.19639990234375,0.012584516778588295,0.10729722678661346,-0.020825766026973724
1733703422048367000,5.2063671875,0.010498398914933205,0.09349685162305832,-0.01725212298333645
1733703422058333000,5.2163330078125,0.004013601690530777,0.07763746380805969,-0.01314526330679655
1733703422068300000,5.226300048828125,-0.0032880043145269156,0.0556950569152832,-0.009293809533119202
1733703422078265900,5.236265869140625,-0.012118513695895672,0.03216709569096565,-0.0026241897139698267
1733703422088233000,5.24623291015625,-0.01687111333012581,0.003009884152561426,0.003939126618206501
1733703422098198800,5.25619873046875,-0.02278093434870243,-0.03231029212474823,0.012811181135475636
1733703422108166000,5.266165771484375,-0.026889318600296974,-0.06652595102787018,0.018677247688174248
1733703422118132700,5.2761328125,-0.029857676476240158,-0.09431017935276031,0.023658689111471176
1733703422128099000,5.28609912109375,-0.029933109879493713,-0.1155613362789154,0.02700870670378208
1733703422138066000,5.29606591796875,-0.03028571419417858,-0.13249583542346954,0.02862311527132988
1733703422148032000,5.306031982421875,-0.030105434358119965,-0.14257760345935822,0.027530673891305923
1733703422157998800,5.315998779296875,-0.026369553059339523,-0.14587059617042542,0.028030017390847206
1733703422167965000,5.32596484375,-0.02429942600429058,-0.15066315233707428,0.025289315730333328
1733703422177932000,5.33593212890625,-0.019618920981884003,-0.15167595446109772,0.02337503433227539
1733703422187899000,5.34589892578125,-0.012854432687163353,-0.14106053113937378,0.02060103416442871
1733703422197865000,5.355864990234375,-0.008534519001841545,-0.13021694123744965,0.02161703072488308
1733703422207831800,5.365831787109375,-0.004371162503957748,-0.12048596143722534,0.02127699926495552
1733703422217798000,5.3757978515625,-0.00013061088975518942,-0.10539249330759048,0.01736428216099739
1733703422227764700,5.3857646484375,0.002875434933230281,-0.09038195013999939,0.01605406031012535
1733703422237731000,5.39573095703125,0.006874437909573317,-0.07434892654418945,0.013782117515802383
1733703422247698000,5.405697998046875,0.009623777121305466,-0.052316535264253616,0.00983369629830122
1733703422257665000,5.4156650390625,0.01012791320681572,-0.030403245240449905,0.00806455872952938
1733703422267630800,5.425630859375,0.007791494484990835,-0.013158706948161125,0.004859676584601402
1733703422277598000,5.435597900390625,0.005192249082028866,-0.007982054725289345,0.0010497586335986853
1733703422287563800,5.445563720703125,0.006505119614303112,-0.006083972752094269,-0.0035209183115512133
1733703422297531000,5.45553076171875,0.005924816709011793,0.001604040153324604,-0.004927599802613258
1733703422307496700,5.46549658203125,0.0061103771440684795,0.007369644939899445,-0.004535104148089886
1733703422317463800,5.4754638671875,0.005614229943603277,0.01264270395040512,-0.003641613991931081
1733703422327431000,5.485430908203125,0.0035378597676753998,0.01856888458132744,-0.0010692654177546501
1733703422337396700,5.495396728515625,0.00042196118738502264,0.026133328676223755,0.0024402483832091093
1733703422347363800,5.50536376953125,-0.0009351857006549835,0.03427328169345856,0.0035092411562800407
1733703422357329000,5.515328857421875,-0.002097389195114374,0.04036685824394226,0.0019398403819650412
1733703422367295700,5.525295654296875,-0.0035109887830913067,0.0453084334731102,-0.003245230298489332
1733703422377261800,5.53526171875,-0.00499197281897068,0.0420796163380146,-0.005450327880680561
1733703422387228700,5.545228759765625,-0.008598391897976398,0.041009001433849335,-0.006083148531615734
1733703422397195800,5.55519580078125,-0.007578667253255844,0.03997623175382614,-0.003317189635708928
1733703422407161600,5.56516162109375,-0.008121144026517868,0.03822527825832367,-0.0012920219451189041
1733703422417128700,5.575128662109375,-0.00801754742860794,0.038312364369630814,-0.0006246338598430157
1733703422427094800,5.5850947265625,-0.006747137755155563,0.039657749235630035,0.0005466875154525042
1733703422437062000,5.595061767578125,-0.007369784638285637,0.045614711940288544,-0.001001408090814948
1733703422447027700,5.60502783203125,-0.004118563607335091,0.04999106004834175,-0.0022265149746090174
1733703422456994800,5.614994873046875,0.0016298696864396334,0.05676507577300072,-0.008349122479557991
1733703422466960600,5.624960693359375,0.005251850467175245,0.06768414378166199,-0.015638362616300583
1733703422476927700,5.634927734375,0.009607716463506222,0.0774741992354393,-0.01357308030128479
1733703422486894800,5.644894775390625,0.011421294882893562,0.08639421314001083,-0.016974948346614838
1733703422496860700,5.654860595703125,0.012792023830115795,0.09215489029884338,-0.018655935302376747
1733703422506827800,5.664827880859375,0.011839601211249828,0.09317272901535034,-0.020858630537986755
1733703422516793600,5.674793701171875,0.011566894128918648,0.08971115201711655,-0.022425634786486626
1733703422526760700,5.6847607421875,0.014485621824860573,0.08295512199401855,-0.02150018699467182
1733703422536726800,5.694726806640625,0.013742067851126194,0.07830018550157547,-0.02118327096104622
1733703422546694000,5.70469384765625,0.013021348044276237,0.07111635059118271,-0.018716543912887573
1733703422556661000,5.714660888671875,0.009778683073818684,0.05922320485115051,-0.016370831057429314
1733703422566626800,5.724626708984375,0.005114723462611437,0.04843205586075783,-0.013252591714262962
1733703422576594000,5.734593994140625,0.002647837158292532,0.028991246595978737,-0.012727415189146996
1733703422586559700,5.744559814453125,-0.0015998015878722072,0.009747706353664398,-0.009221525862812996
1733703422596526800,5.75452685546875,-0.00529413903132081,-0.010724012739956379,-0.0007143237162381411
1733703422606492700,5.76449267578125,-0.011292296461760998,-0.03429162874817848,0.006002691574394703
1733703422616459800,5.774459716796875,-0.01275197509676218,-0.05135876312851906,0.012141810730099678
1733703422626426600,5.784426513671875,-0.01800357550382614,-0.0639062449336052,0.016718782484531403
1733703422636392700,5.794392822265625,-0.02173413336277008,-0.07081262767314911,0.020036015659570694
1733703422646359800,5.80435986328125,-0.024166816845536232,-0.07752005755901337,0.021506283432245255
1733703422656326000,5.814325927734375,-0.025513309985399246,-0.08144901692867279,0.02136140875518322
1733703422666292700,5.824292724609375,-0.024563249200582504,-0.08051884174346924,0.02240937575697899
1733703422676258800,5.8342587890625,-0.022093433886766434,-0.07832252979278564,0.018130740150809288
1733703422686226000,5.844225830078125,-0.022199859842658043,-0.075233593583107,0.017190484330058098
1733703422696192800,5.85419287109375,-0.01707007735967636,-0.06935626268386841,0.01852259784936905
1733703422706158800,5.864158935546875,-0.015367784537374973,-0.06137690320611,0.01624186709523201
1733703422716125700,5.874125732421875,-0.009454235434532166,-0.05271870270371437,0.014328384771943092
1733703422726091800,5.884091796875,-0.003995096310973167,-0.04848957061767578,0.009490149095654488
1733703422736058600,5.89405859375,0.003322205040603876,-0.041000496596097946,0.006766799837350845
1733703422746025000,5.90402490234375,0.008804310113191605,-0.03901864215731621,0.004156805574893951
1733703422755991800,5.91399169921875,0.01334473304450512,-0.036180779337882996,0.0025602406822144985
1733703422765959000,5.923958984375,0.016316302120685577,-0.03041849285364151,-0.0010889195837080479
1733703422775924700,5.9339248046875,0.01868092268705368,-0.025039441883563995,-0.0007475023157894611
1733703422785891800,5.943891845703125,0.015545234084129333,-0.02133014425635338,-0.003393680090084672
1733703422795857700,5.953857666015625,0.013449858874082565,-0.014500203542411327,0.000884155509993434
1733703422805824800,5.96382470703125,0.007357132621109486,-0.009595131501555443,0.0015019633574411273
1733703422815790800,5.973790771484375,0.0008004301926121116,-0.003942305222153664,0.004948359914124012
1733703422825757700,5.9837578125,-0.003782923799008131,-0.0018746890127658844,0.006866414099931717
1733703422835724800,5.993724853515625,-0.003976269159466028,-0.0016272813081741333,0.007456837221980095
1733703422845690600,6.003690673828125,-0.005221270956099033,-0.003360568545758724,0.00388325285166502
1733703422855657700,6.01365771484375,-0.003478498198091984,-0.007131338119506836,0.0011564421001821756
1733703422865623800,6.023623779296875,-0.00009761552792042494,-0.010756965726613998,-0.0037347194738686085
1733703422875591000,6.0335908203125,0.0039058802649378777,-0.012009426951408386,-0.007640990428626537
1733703422885556700,6.043556640625,0.005917626433074474,-0.016115302219986916,-0.00933113694190979
1733703422895523800,6.05352392578125,0.008952564559876919,-0.016418103128671646,-0.011035826057195663
1733703422905489700,6.06348974609375,0.010371134616434574,-0.016708236187696457,-0.0072794388979673386
1733703422915456800,6.073456787109375,0.010882461443543434,-0.01261043082922697,-0.0059550488367676735
1733703422925423900,6.083423828125,0.00808289460837841,-0.009380081668496132,-0.005981369875371456
1733703422935389700,6.0933896484375,0.00808262825012207,0.0012224949896335602,-0.00865624938160181
1733703422945356800,6.103356689453125,0.008648539893329144,0.01468895934522152,-0.010035066865384579
1733703422955322600,6.113322509765625,0.010030454024672508,0.03243093937635422,-0.012688374146819115
1733703422965289700,6.123289794921875,0.009273850359022617,0.04731082171201706,-0.014581348747015
1733703422975255800,6.133255859375,0.007557443343102932,0.05122672766447067,-0.01699124462902546
1733703422985223000,6.143222900390625,0.00978691317141056,0.04937254264950752,-0.015833783894777298
1733703422995189800,6.153189697265625,0.008806336671113968,0.050039663910865784,-0.015472659841179848
1733703423005155800,6.16315576171875,0.010247863829135895,0.05020046606659889,-0.013787991367280483
1733703423015123000,6.173123046875,0.010417507030069828,0.051359206438064575,-0.0119932871311903
1733703423025088800,6.1830888671875,0.005807541310787201,0.0546165406703949,-0.007149476557970047
1733703423035055900,6.193055908203125,0.004949737340211868,0.05618887022137642,-0.008346833288669586
1733703423045021700,6.203021728515625,0.0026398077607154846,0.057773567736148834,-0.008812619373202324
1733703423054988800,6.21298876953125,-0.0011610557558014989,0.05577965825796127,-0.008192102424800396
1733703423064955600,6.22295556640625,-0.0036078847479075193,0.05055198445916176,-0.00505693256855011
1733703423074921700,6.232921630859375,-0.0065733143128454685,0.040611203759908676,-0.0034238824155181646
1733703423084888600,6.242888671875,-0.0076133315451443195,0.03131895139813423,0.00022705423180013895
1733703423094855000,6.25285498046875,-0.010740681551396847,0.025218183174729347,0.001610832754522562
1733703423104821800,6.26282177734375,-0.0143862534314394,0.016774145886301994,0.004284522496163845
1733703423114787800,6.272787841796875,-0.01841348595917225,0.0063412124291062355,0.00759429857134819
1733703423124754700,6.282754638671875,-0.019273953512310982,-0.009370372630655766,0.010134954936802387
1733703423134721800,6.2927216796875,-0.019641734659671783,-0.026709679514169693,0.013291599228978157
1733703423144687900,6.30268798828125,-0.01984924077987671,-0.04306234046816826,0.013759740628302097
1733703423154654700,6.31265478515625,-0.019784526899456978,-0.059457555413246155,0.012702998705208302
1733703423164620800,6.322620849609375,-0.02040405385196209,-0.07153156399726868,0.013267861679196358
1733703423174587600,6.332587646484375,-0.019213087856769562,-0.07614655792713165,0.01894065923988819
1733703423184554000,6.342553955078125,-0.017068948596715927,-0.08109907805919647,0.02346707694232464
1733703423194520800,6.352520751953125,-0.017255637794733047,-0.08482909947633743,0.02786182425916195
1733703423204487000,6.36248681640625,-0.016344452276825905,-0.08621838688850403,0.027759870514273643
1733703423214453800,6.372453857421875,-0.015184113755822182,-0.08053839206695557,0.025184594094753265
1733703423224420900,6.3824208984375,-0.013057218864560127,-0.07256902754306793,0.018528824672102928
1733703423234386700,6.39238671875,-0.008550617843866348,-0.060425546020269394,0.015025969594717026
1733703423244353800,6.402353759765625,-0.0021891938522458076,-0.05065116286277771,0.011122682131826878
1733703423254319600,6.412319580078125,0.0013373640831559896,-0.04529900848865509,0.008622240275144577
1733703423264286700,6.42228662109375,0.005213424563407898,-0.04319313168525696,0.004475434776395559
1733703423274252800,6.432252685546875,0.009253972209990025,-0.04514096677303314,0.0006327596493065357
1733703423284219600,6.4422197265625,0.009404053911566734,-0.054590415209531784,0.004935514181852341
1733703423294186800,6.452186767578125,0.00892388541251421,-0.06458285450935364,0.00952893402427435
1733703423304152800,6.46215283203125,0.00817533116787672,-0.0751434788107872,0.009239773266017437
1733703423314120000,6.472119873046875,0.007408340461552143,-0.0756678581237793,0.010191054083406925
1733703423324085800,6.482085693359375,0.00840966496616602,-0.0693265050649643,0.008447369560599327
1733703423334052900,6.492052978515625,0.007673034444451332,-0.058075450360774994,0.005929350852966309
1733703423344018700,6.502018798828125,0.00921427458524704,-0.04207921773195267,0.003072203602641821
1733703423353986600,6.511986572265625,0.010528012178838253,-0.028580985963344574,-0.002736150985583663
1733703423363953700,6.52195361328125,0.0108525725081563,-0.01779015362262726,-0.007743417285382748
1733703423373919500,6.53191943359375,0.012599872425198555,-0.008484803140163422,-0.011903008446097374
1733703423383886600,6.541886474609375,0.012494008056819439,-0.002820964902639389,-0.011568300426006317
1733703423393852400,6.551852294921875,0.009288361296057701,0.0002786889672279358,-0.013671931810677052
1733703423403819500,6.561819580078125,0.012110116891562939,0.0015814127400517464,-0.013061483390629292
1733703423413785300,6.571785400390625,0.01227043941617012,0.007813742384314537,-0.00757457222789526
1733703423423752400,6.58175244140625,0.010747541673481464,0.018102403730154037,-0.008727294392883778
1733703423433719600,6.591719482421875,0.011901223100721836,0.030836308375000954,-0.010643438436090946
1733703423443685600,6.601685546875,0.010432497598230839,0.043797191232442856,-0.012927263975143433
1733703423453652700,6.61165283203125,0.014552141539752483,0.05530790612101555,-0.014100385829806328
1733703423463618600,6.62161865234375,0.011034493334591389,0.064222052693367,-0.01388588733971119
1733703423473585700,6.631585693359375,0.006886087357997894,0.07307520508766174,-0.014274975284934044
1733703423483551500,6.641551513671875,0.0016566519625484943,0.08612063527107239,-0.01167408935725689
1733703423493518600,6.6515185546875,0.0005455812206491828,0.09279638528823853,-0.010137711651623249
1733703423503484400,6.661484375,-0.0006715609924867749,0.10101539641618729,-0.011981677263975143
1733703423513451500,6.671451416015625,-0.00032987736631184816,0.10480959713459015,-0.0125265596434474
1733703423523418400,6.68141845703125,-0.0004371943650767207,0.10742197185754776,-0.014245528727769852
1733703423533384400,6.691384521484375,0.0006954480777494609,0.10513325035572052,-0.013972287997603416
1733703423543351300,6.701351318359375,0.0002617478894535452,0.10545053333044052,-0.016262391582131386
1733703423553317600,6.711317626953125,-0.003931399434804916,0.09845893830060959,-0.01460031233727932
1733703423563284700,6.72128466796875,-0.005011809524148703,0.08850507438182831,-0.013880513608455658
1733703423573250600,6.73125048828125,-0.007348733022809029,0.07406727969646454,-0.011448781006038189
1733703423583217700,6.7412177734375,-0.010117866098880768,0.058083608746528625,-0.010057007893919945
1733703423593184500,6.7511845703125,-0.010399362072348595,0.03963083028793335,-0.004935216158628464
1733703423603150600,6.761150634765625,-0.011184819042682648,0.023149022832512856,-0.00011852080933749676
1733703423613117400,6.771117431640625,-0.011303596198558807,0.004585724789649248,0.00442909263074398
1733703423623083500,6.78108349609375,-0.010820477269589901,-0.01243571937084198,0.00873748492449522
1733703423633050400,6.79105029296875,-0.012888421304523945,-0.03053962253034115,0.008329488337039948
1733703423643016700,6.8010166015625,-0.012312599457800388,-0.04553075134754181,0.009475675411522388
1733703423652983600,6.810983642578125,-0.013750173151493073,-0.058746155351400375,0.007912132889032364
1733703423662950400,6.820950439453125,-0.013282256200909615,-0.07120149582624435,0.011636830866336823
1733703423672916500,6.83091650390625,-0.010467294603586197,-0.07802771031856537,0.009306564927101135
1733703423682883600,6.840883544921875,-0.007668415550142527,-0.08920814096927643,0.007733143400400877
1733703423692849700,6.850849609375,-0.0063347043469548225,-0.09406761080026627,0.0073144943453371525
1733703423702816500,6.86081640625,-0.00267069973051548,-0.10070189088582993,0.01099954079836607
1733703423712782600,6.870782470703125,0.0016345663461834192,-0.10259300470352173,0.01145494170486927
1733703423722749400,6.88074951171875,0.002965610008686781,-0.10105670988559723,0.010904892347753048
1733703423732715500,6.890715576171875,0.004501454997807741,-0.09521692991256714,0.013482299633324146
1733703423742682400,6.900682373046875,0.005304135847836733,-0.08779328316450119,0.010447201319038868
1733703423752649500,6.9106494140625,0.005156063940376043,-0.08089783042669296,0.010437347926199436
1733703423762615600,6.920615478515625,0.002058187499642372,-0.06722892820835114,0.012310181744396687
1733703423772582700,6.930582763671875,-0.00023213092936202884,-0.05311683565378189,0.010851834900677204
1733703423782548500,6.940548583984375,-0.0019453309942036867,-0.039796698838472366,0.00815201923251152
1733703423792515600,6.950515625,-0.005620227195322514,-0.0241817869246006,0.008546966128051281
1733703423802481400,6.9604814453125,-0.007855972275137901,-0.016200993210077286,0.00828559324145317
1733703423812448500,6.970448486328125,-0.009932172484695911,-0.006835456006228924,0.006727111525833607
1733703423822415600,6.98041552734375,-0.00982910580933094,-0.00447720754891634,0.007075104862451553
1733703423832381400,6.99038134765625,-0.007515885401517153,-0.005789613351225853,0.0068364860489964485
1733703423842348500,7.0003486328125,-0.0025650064926594496,-0.006277099251747131,0.003385084681212902
1733703423852314400,7.010314453125,0.0017048397567123175,-0.0047899894416332245,-0.0017356416210532188
1733703423862281500,7.020281494140625,0.004615244455635548,-0.0029399609193205833,-0.008022193796932697
1733703423872247600,7.03024755859375,0.00818148348480463,0.001730424351990223,-0.011780713684856892
1733703423882214700,7.040214599609375,0.010818134061992168,0.010447830893099308,-0.018592244014143944
1733703423892181800,7.050181640625,0.00983462855219841,0.022269869223237038,-0.022188575938344002
1733703423902147600,7.060147705078125,0.008910861797630787,0.029829828068614006,-0.022001449018716812
1733703423912114700,7.07011474609375,0.005899092648178339,0.038188427686691284,-0.020589174702763557
1733703423922080500,7.08008056640625,0.0022058896720409393,0.04425452649593353,-0.015247248113155365
1733703423932047600,7.090047607421875,0.002225597156211734,0.051440801471471786,-0.013327108696103096
1733703423942013400,7.100013427734375,0.004443360958248377,0.057289350777864456,-0.018326779827475548
1733703423951980500,7.10998046875,0.007238348480314016,0.06425564736127853,-0.023311153054237366
1733703423961946400,7.1199462890625,0.011516137979924679,0.06893103569746017,-0.024146096780896187
1733703423971913500,7.12991357421875,0.015387575142085552,0.07061415910720825,-0.024269133806228638
1733703423981880300,7.13988037109375,0.0166434645652771,0.06327860802412033,-0.022063031792640686
1733703423991846700,7.1498466796875,0.019305558875203133,0.060646601021289825,-0.020786311477422714
1733703424001813500,7.1598134765625,0.019757462665438652,0.06145169958472252,-0.020175861194729805
1733703424011779600,7.169779541015625,0.016419190913438797,0.06338968127965927,-0.020592113956809044
1733703424021746700,7.17974658203125,0.01578681729733944,0.06571844220161438,-0.016626982018351555
1733703424031712500,7.18971240234375,0.013075186870992184,0.07186848670244217,-0.01503068208694458
1733703424041679600,7.1996796875,0.006878543645143509,0.07389355450868607,-0.014876218512654305
1733703424051646500,7.209646484375,0.0030103023163974285,0.07095475494861603,-0.011626631021499634
1733703424061612500,7.219612548828125,-0.000611734576523304,0.05575938522815704,-0.006682521663606167
1733703424071579400,7.229579345703125,-0.0028487900272011757,0.0349249392747879,-0.005816994234919548
1733703424081545500,7.23954541015625,-0.0019377125427126884,0.014315878972411156,-0.0036759802605956793
1733703424091512300,7.24951220703125,-0.0014058793894946575,-0.003569377586245537,-0.00020162039436399937
1733703424101478700,7.259478759765625,-0.0027416162192821503,-0.021778281778097153,0.0003766544396057725
1733703424111445500,7.269445556640625,-0.004411152098327875,-0.03838149458169937,0.0005641409661620855
1733703424121412600,7.27941259765625,-0.004672534763813019,-0.0494355745613575,0.0024451790377497673
1733703424131378400,7.28937841796875,-0.007515458855777979,-0.05841202288866043,0.004406863823533058
1733703424141345500,7.299345458984375,-0.008022571913897991,-0.06616799533367157,0.00795175600796938
1733703424151311600,7.3093115234375,-0.013044760562479496,-0.07765314728021622,0.009404510259628296
1733703424161278500,7.319278564453125,-0.01532906573265791,-0.08376137912273407,0.008564344607293606
1733703424171244500,7.32924462890625,-0.015365551225841045,-0.08495713770389557,0.009980613365769386
1733703424181211400,7.33921142578125,-0.014135868288576603,-0.0817643404006958,0.009745295159518719
1733703424191177700,7.349177734375,-0.014828023500740528,-0.07956963032484055,0.012719513848423958
1733703424201144600,7.35914453125,-0.01345250103622675,-0.07627902925014496,0.016087345778942108
1733703424211111400,7.369111328125,-0.014304712414741516,-0.07063499093055725,0.016498006880283356
1733703424221077500,7.379077392578125,-0.011940579861402512,-0.06475867331027985,0.01676090620458126
1733703424231044600,7.389044677734375,-0.009982624091207981,-0.05876203626394272,0.01170090027153492
1733703424241010400,7.399010498046875,-0.007116851396858692,-0.048262473195791245,0.0105831827968359
1733703424250977500,7.4089775390625,-0.0020182295702397823,-0.039417315274477005,0.006603887304663658
1733703424260943400,7.418943359375,0.0016304755117744207,-0.02400323934853077,0.005320081952959299
1733703424270910500,7.428910400390625,0.003788701258599758,-0.0159935150295496,0.000004945090040564537
1733703424280877600,7.438877685546875,0.005858981981873512,-0.013103062286973,-0.0029586777091026306
1733703424290843400,7.448843505859375,0.003294091671705246,-0.014945169910788536,-0.0012563851196318865
1733703424300810500,7.458810546875,0.002569317352026701,-0.019405793398618698,0.00040627585258334875
1733703424310776600,7.468776611328125,0.0016984636895358562,-0.022637274116277695,0.0008603448513895273
1733703424320743700,7.47874365234375,0.00210532546043396,-0.02626870945096016,0.000815712264738977
1733703424330709500,7.48870947265625,-0.0021477427799254656,-0.02495257556438446,0.0009150481782853603
1733703424340676600,7.498676513671875,-0.002071171533316374,-0.028653934597969055,0.0011260196333751082
1733703424350642400,7.508642333984375,-0.0012317432556301355,-0.029689107090234756,0.000054629985243082047
1733703424360610000,7.518610107421875,0.0023621234577149153,-0.02417578175663948,-0.0029735418502241373
1733703424370577000,7.528576904296875,0.002283293753862381,-0.018002307042479515,-0.0026220043655484915
1733703424380543000,7.53854296875,0.006304134614765644,-0.008979251608252525,-0.004987690597772598
1733703424390509800,7.548509765625,0.008506301790475845,-0.0036377497017383575,-0.0071203503757715225
1733703424400476000,7.558475830078125,0.010784661397337914,0.0008778059855103493,-0.010190595872700214
1733703424410442800,7.56844287109375,0.013592698611319065,0.0017254902049899101,-0.01094187330454588
1733703424420409000,7.5784091796875,0.012038108892738819,0.002747415564954281,-0.012294331565499306
1733703424430376000,7.5883759765625,0.010748607106506824,0.004160222597420216,-0.010052482597529888
1733703424440342800,7.5983427734375,0.008542211726307869,0.003887737635523081,-0.011394690722227097
1733703424450308900,7.608308837890625,0.008884693495929241,0.006008679047226906,-0.010075094178318977
1733703424460276000,7.61827587890625,0.007647793274372816,0.006331912241876125,-0.010172860696911812
1733703424470242000,7.628241943359375,0.008781234733760357,0.010219328105449677,-0.008860721252858639
1733703424480209000,7.638208984375,0.00771745853126049,0.016732878983020782,-0.007299250923097134
1733703424490175000,7.648175048828125,0.00743063585832715,0.02238490618765354,-0.008198333904147148
1733703424500141800,7.658141845703125,0.009007073007524014,0.025064297020435333,-0.008488069288432598
1733703424510109000,7.66810888671875,0.008017443120479584,0.030473975464701653,-0.008230009116232395
1733703424520074800,7.67807470703125,0.00848149973899126,0.03878163546323776,-0.008540026843547821
1733703424530041900,7.688041748046875,0.0040574572049081326,0.04246239364147186,-0.008982377126812935
1733703424540008000,7.698008056640625,0.0016823811456561089,0.050713177770376205,-0.011793768964707851
1733703424549975000,7.70797509765625,0.0028978479094803333,0.05410178378224373,-0.008156157098710537
1733703424559940900,7.71794091796875,0.0036593335680663586,0.05366000533103943,-0.004526901058852673
1733703424569908000,7.727907958984375,0.0010494356974959373,0.04704737663269043,-0.0025614879559725523
1733703424579873800,7.737873779296875,0.000009452342055737972,0.03914808854460716,-0.0018685420509427786
1733703424589841000,7.7478408203125,-0.0020116204395890236,0.03256715089082718,0.00007077190093696117
1733703424599808000,7.75780810546875,-0.004800259601324797,0.021163174882531166,-0.001320776529610157
1733703424609773800,7.76777392578125,-0.009869320318102837,0.005909653380513191,-0.0009226340334862471
1733703424619741000,7.777740966796875,-0.01256639789789915,-0.0079652676358819,0.0024787522852420807
1733703424629706800,7.787706787109375,-0.01502822432667017,-0.023493625223636627,0.0068194386549293995
1733703424639673900,7.797673828125,-0.019168313592672348,-0.030893079936504364,0.009604362770915031
1733703424649640000,7.807639892578125,-0.02145969681441784,-0.03957551717758179,0.015270237810909748
1733703424659607000,7.81760693359375,-0.022205768153071404,-0.04331248253583908,0.017867235466837883
1733703424669574100,7.82757421875,-0.022228138521313667,-0.046954624354839325,0.020036114379763603
1733703424679540000,7.8375400390625,-0.02110987715423107,-0.04372260719537735,0.01832822896540165
1733703424689507000,7.847507080078125,-0.02110268734395504,-0.041640281677246094,0.020645711570978165
1733703424699473000,7.857472900390625,-0.0210326686501503,-0.03649256378412247,0.021887164562940598
1733703424709440000,7.86743994140625,-0.019984448328614235,-0.03504433482885361,0.01725752465426922
1733703424719405800,7.87740576171875,-0.019217539578676224,-0.03329945728182793,0.014724071137607098
1733703424729373000,7.887373046875,-0.01931101642549038,-0.034908004105091095,0.0175387654453516
1733703424739338800,7.8973388671875,-0.014952869154512882,-0.03771373629570007,0.017709162086248398
1733703424749305900,7.907305908203125,-0.014286546967923641,-0.039411768317222595,0.01682286337018013
1733703424759272700,7.917272705078125,-0.013522093184292316,-0.037194255739450455,0.013311361894011497
1733703424769239000,7.927239013671875,-0.007533175405114889,-0.03349991887807846,0.007125637028366327
1733703424779206000,7.937205810546875,-0.004951843526214361,-0.02676287293434143,0.0091111334040761
1733703424789172000,7.947171875,-0.003888975828886032,-0.02250101789832115,0.010310088284313679
1733703424799139000,7.95713916015625,-0.004502602852880955,-0.017641521990299225,0.011039582081139088
1733703424809105000,7.96710498046875,-0.006591320037841797,-0.013211085461080074,0.00840811338275671
1733703424819072000,7.977072021484375,-0.008698397316038609,-0.01107727363705635,0.0073676276952028275
1733703424829038800,7.987038818359375,-0.00951492227613926,-0.008333951234817505,0.0049769077450037
1733703424839005000,7.9970048828125,-0.011784966103732586,-0.012855756096541882,0.004630110692232847
1733703424848971800,8.0069716796875,-0.011736762709915638,-0.02009103074669838,0.006876753177493811
1733703424858937900,8.016937744140625,-0.012203949503600597,-0.02708178386092186,0.011146440170705318
1733703424868904700,8.02690478515625,-0.00944651197642088,-0.03595304116606712,0.013363521546125412
1733703424878871000,8.03687109375,-0.013269576244056225,-0.041846729815006256,0.01858198456466198
1733703424888838000,8.046837890625,-0.01170843094587326,-0.04452347382903099,0.0162301454693079
1733703424898804000,8.056803955078125,-0.009172729216516018,-0.03963267430663109,0.011889905668795109
1733703424908770800,8.066770751953126,-0.0060219429433345795,-0.031905513256788254,0.008686389774084091
1733703424918738000,8.076738037109376,-0.0021284737158566713,-0.02485072799026966,0.004001389257609844
1733703424928704000,8.0867041015625,0.0012249787105247378,-0.01365000382065773,0.0033371970057487488
1733703424938670800,8.0966708984375,0.0018501776503399014,-0.008388756774365902,0.0055640824139118195
1733703424948637000,8.106636962890626,0.0014488393208011985,-0.0025130249559879303,0.00008729135151952505
1733703424958603800,8.116603759765624,0.0036148307844996452,0.007620976306498051,-0.0022060652263462543
1733703424968570000,8.126570068359374,0.004416442476212978,0.018374819308519363,-0.0061360918916761875
1733703424978537000,8.136536865234374,0.010848946869373322,0.026288552209734917,-0.004248979035764933
1733703424988503800,8.14650390625,0.009047318249940872,0.029029477387666702,-0.002334965392947197
1733703424998470000,8.156469970703125,0.010743821039795876,0.035789597779512405,-0.003135087201371789
1733703425008437000,8.16643701171875,0.012634132988750935,0.04540600627660751,-0.004432046785950661
1733703425018402800,8.17640283203125,0.01391735952347517,0.05396860092878342,-0.006382346153259277
1733703425028370000,8.186369873046875,0.01226513460278511,0.05975112318992615,-0.010152849368751049
1733703425038335700,8.196335693359375,0.013975636102259159,0.06547421216964722,-0.010537984780967236
1733703425048302800,8.206302734375,0.015233446843922138,0.06985883414745331,-0.010401364415884018
1733703425058269000,8.21626904296875,0.015884943306446075,0.0747029036283493,-0.012292306870222092
1733703425068235800,8.22623583984375,0.014552030712366104,0.07589839398860931,-0.013031333684921265
1733703425078203000,8.236202880859375,0.01325187087059021,0.0775655210018158,-0.01519320160150528
1733703425088169000,8.2461689453125,0.01225718017667532,0.07686936855316162,-0.014765499159693718
1733703425098136000,8.256135986328125,0.008557400666177273,0.070902019739151,-0.011862853541970253
1733703425108102000,8.266101806640625,0.0048388284631073475,0.06480098515748978,-0.012036491185426712
1733703425118069000,8.276069091796876,-0.002243183786049485,0.0546480193734169,-0.004987611435353756
1733703425128034800,8.286034912109375,-0.008329039439558983,0.0430411659181118,0.004913755692541599
1733703425138002000,8.296001953125,-0.016100481152534485,0.029287341982126236,0.012051592580974102
1733703425147967700,8.3059677734375,-0.022306181490421295,0.01201035175472498,0.019686076790094376
1733703425157934800,8.315934814453126,-0.02894599922001362,-0.00023076776415109634,0.024577125906944275
1733703425167902000,8.32590185546875,-0.03204378858208656,-0.008653813973069191,0.026979297399520874
1733703425177867800,8.33586767578125,-0.03408018872141838,-0.01872347481548786,0.025992443785071373
1733703425187835000,8.3458349609375,-0.03208494558930397,-0.02888663113117218,0.025663277134299278
1733703425197801000,8.355801025390624,-0.028212830424308777,-0.04131561890244484,0.0246058888733387
1733703425207768000,8.36576806640625,-0.02376934513449669,-0.048755161464214325,0.02268921211361885
1733703425217734000,8.37573388671875,-0.01999526284635067,-0.05271342024207115,0.02196582779288292
1733703425227701000,8.385700927734375,-0.015084661543369293,-0.049473684281110764,0.01950293593108654
1733703425237667800,8.395667724609375,-0.014927211217582226,-0.0482945516705513,0.019694745540618896
1733703425247634000,8.405634033203125,-0.010155092924833298,-0.0417301282286644,0.018740534782409668
1733703425257601000,8.41560107421875,-0.0066769905388355255,-0.0365145243704319,0.017589345574378967
1733703425267566800,8.42556689453125,-0.0018689194694161415,-0.03187476471066475,0.013842012733221054
1733703425277534000,8.435533935546875,0.003126202616840601,-0.028507590293884277,0.00940910167992115
1733703425287500000,8.4455,0.008942014537751675,-0.026950176805257797,0.0036750491708517075
1733703425297467000,8.455466796875,0.010541086085140705,-0.0321023166179657,-0.0016404129564762115
1733703425307433700,8.465433837890625,0.011587708257138729,-0.032333217561244965,-0.002280903048813343
1733703425317400000,8.475400146484375,0.00894901342689991,-0.033183805644512177,-0.0059584081172943115
1733703425327367000,8.485366943359375,0.010440117679536343,-0.03478462994098663,-0.009858340956270695
1733703425337333000,8.4953330078125,0.014260879717767239,-0.03742971271276474,-0.004427618347108364
1733703425347299800,8.5052998046875,0.01621803641319275,-0.03654101863503456,0.0014441192615777254
1733703425357265400,8.515265380859375,0.020899692550301552,-0.03403780236840248,-0.0003387732431292534
1733703425367232300,8.525232177734376,0.02354101650416851,-0.025217682123184204,-0.006603860296308994
1733703425377198300,8.5351982421875,0.024206480011343956,-0.02159976214170456,-0.013699142262339592
1733703425387165200,8.545165283203126,0.019740357995033264,-0.017181575298309326,-0.0222950279712677
1733703425397132300,8.55513232421875,0.01832152158021927,-0.011892578564584255,-0.023983437567949295
1733703425407098400,8.565098388671874,0.01669353060424328,-0.0029265154153108597,-0.02118418738245964
1733703425417065500,8.5750654296875,0.015710026025772095,0.005160972476005554,-0.014482876285910606
1733703425427031600,8.585031494140624,0.012773416005074978,0.01072579063475132,-0.00828058086335659
1733703425436998400,8.594998291015624,0.013010078109800816,0.01783311553299427,-0.005805710330605507
1733703425446964500,8.604964599609374,0.013094766065478325,0.025462806224822998,-0.006385747343301773
1733703425456931300,8.614931396484375,0.01377858780324459,0.03773835301399231,-0.010626821778714657
1733703425466897400,8.6248974609375,0.0165349580347538,0.04690974950790405,-0.01446789875626564
1733703425476864300,8.6348642578125,0.014059629291296005,0.05400390550494194,-0.016091370955109596
1733703425486831400,8.644831298828125,0.011271033436059952,0.06598706543445587,-0.01491079106926918
1733703425496797400,8.65479736328125,0.006531035993248224,0.07392574846744537,-0.01237183716148138
1733703425506764300,8.664764404296875,0.005697732791304588,0.08147688210010529,-0.014527400024235249
1733703425516730400,8.67473046875,0.004727913066744804,0.08594851940870285,-0.015422118827700615
1733703425526697500,8.684697509765625,-0.0008447512518614531,0.09516758471727371,-0.01358453743159771
1733703425536663300,8.694663330078125,-0.002842781599611044,0.09768231213092804,-0.013342407532036304
1733703425546630400,8.70463037109375,-0.004174628295004368,0.09820482134819031,-0.010810008272528648
1733703425556597500,8.714597412109375,-0.009584447368979454,0.09347701072692871,-0.006306118331849575
1733703425566563300,8.724563232421875,-0.010688327252864838,0.08658608049154282,-0.003918594680726528
1733703425576530400,8.734530517578126,-0.0127516258507967,0.07691933959722519,-0.0026318244636058807
1733703425586496300,8.744496337890626,-0.009613356553018093,0.06168339401483536,-0.002621971070766449
1733703425596463400,8.75446337890625,-0.009441898204386234,0.041879814118146896,-0.0027210800908505917
1733703425606429400,8.764429443359376,-0.009819268248975277,0.021826744079589844,-0.0005838931538164616
1733703425616396500,8.774396484375,-0.006975752767175436,0.002153318375349045,0.003145923838019371
1733703425626362400,8.7843623046875,-0.005354420281946659,-0.015836866572499275,0.00395339448004961
1733703425636329500,8.79432958984375,-0.003679014276713133,-0.03019602596759796,0.005366298370063305
1733703425646296600,8.804296630859374,-0.00310616847127676,-0.04504368081688881,0.004057354759424925
1733703425656262400,8.814262451171874,-0.0010634658392518759,-0.05564132332801819,0.0004536256892606616
1733703425666229500,8.8242294921875,-0.0014722610358148813,-0.0632166862487793,-0.00005929917097091675
1733703425676195300,8.8341953125,-0.002378022763878107,-0.07185141742229462,0.00135000329464674
1733703425686162400,8.844162353515625,-0.0046092187985777855,-0.0807434469461441,0.0024104740004986525
1733703425696128300,8.854128173828125,-0.002920951694250107,-0.08550259470939636,0.0068267276510596275
1733703425706095400,8.864095458984375,-0.006359092425554991,-0.08942223340272903,0.008911450393497944
1733703425716061400,8.8740615234375,-0.006202938035130501,-0.08609289675951004,0.011356503702700138
1733703425726028500,8.884028564453125,-0.004169880878180265,-0.0832531675696373,0.013249479234218597
1733703425735995400,8.893995361328125,-0.00457784254103899,-0.07402081042528152,0.015338407829403877
1733703425745961500,8.90396142578125,-0.00506094004958868,-0.06481719017028809,0.01439564861357212
1733703425755928600,8.913928466796875,-0.0022554497700184584,-0.05141083896160126,0.012248275801539421
1733703425765894400,8.923894287109375,-0.0009789967443794012,-0.03516475856304169,0.006579203996807337
1733703425775861500,8.933861572265625,0.00018135472782887518,-0.025759179145097733,0.0025405376218259335
1733703425785827300,8.943827392578125,0.0034210900776088238,-0.02050263062119484,-0.0008392799645662308
1733703425795794400,8.95379443359375,0.004835658241063356,-0.014566639438271523,-0.0037246530409902334
1733703425805761300,8.96376123046875,0.0071821692399680614,-0.012664610520005226,-0.004318271763622761
1733703425815727400,8.973727294921876,0.004627385176718235,-0.007027589716017246,-0.0017712395638227463
1733703425825694200,8.983694091796876,-0.000299462815746665,-0.0037660161033272743,0.0021635808516293764
1733703425835660500,8.99366064453125,-0.001141357934102416,-0.0009166514500975609,0.004765331745147705
1733703425845627400,9.00362744140625,-0.0021179390605539083,0.0021044379100203514,0.001315473229624331
1733703425855593500,9.013593505859374,-0.004292662255465984,0.0012395139783620834,0.0015307513531297445
1733703425865560300,9.023560302734374,-0.004361371975392103,0.0013367198407649994,-0.0001185443252325058
1733703425875526400,9.0335263671875,-0.004863714333623648,0.0004520658403635025,0.0026344750076532364
1733703425885493500,9.043493408203124,-0.002868474228307605,0.004346406552940607,0.0034496686421334743
1733703425895460400,9.05346044921875,-0.0017135783564299345,0.009025314822793007,0.0034193764440715313
1733703425905426400,9.063426513671875,0.0012324105482548475,0.023688413202762604,-0.00002542254514992237
1733703425915393300,9.073393310546875,0.004085999447852373,0.03457042947411537,-0.00306638958863914
1733703425925359400,9.083359375,0.00898861326277256,0.04333249479532242,-0.006090409122407436
1733703425935326500,9.093326416015625,0.010418245568871498,0.05380650982260704,-0.011792541481554508
1733703425945292500,9.10329248046875,0.013248653151094913,0.061958979815244675,-0.0158554594963789
1733703425955259400,9.11325927734375,0.015822404995560646,0.0673653855919838,-0.018642224371433258
1733703425965225500,9.1232255859375,0.016963303089141846,0.07106771320104599,-0.02130352146923542
1733703425975192300,9.1331923828125,0.01817288249731064,0.07134374231100082,-0.017267955467104912
1733703425985159400,9.143159423828125,0.01490624900907278,0.07279996573925018,-0.015852218493819237
1733703425995125200,9.153125244140625,0.009949099272489548,0.07469334453344345,-0.009735411033034325
1733703426005092400,9.16309228515625,0.009259073995053768,0.07581187039613724,-0.006899943575263023
1733703426015058400,9.173058349609375,0.006707001477479935,0.07870431244373322,-0.002867439528927207
1733703426025025300,9.183025390625,0.005357577931135893,0.07486243546009064,-0.005535926669836044
1733703426034991600,9.19299169921875,0.0038377181626856327,0.06912702322006226,-0.005160882603377104
1733703426044958500,9.20295849609375,0.0015492639504373074,0.06004830449819565,-0.005996049847453833
1733703426054925600,9.212925537109374,-0.0015131199033930898,0.044863440096378326,-0.004290999844670296
1733703426064891400,9.222891357421876,-0.005229028407484293,0.030954286456108093,-0.0034228095319122076
1733703426074858500,9.2328583984375,-0.006200240459293127,0.019412200897932053,-0.0005012750625610352
1733703426084824300,9.24282421875,-0.005386910866945982,0.0013572992756962776,0.004280430264770985
1733703426094791400,9.25279150390625,-0.002731426153331995,-0.014695919118821621,0.004520690068602562
1733703426104757200,9.26275732421875,-0.0005415090126916766,-0.03206053003668785,0.0014330212725326419
1733703426114724400,9.272724365234374,0.0007939612260088325,-0.046573884785175323,-0.0009522084146738052
1733703426124690200,9.282690185546874,-0.0008129901252686977,-0.06082819029688835,-0.0012837720569223166
1733703426134657300,9.2926572265625,-0.004449683241546154,-0.06556861847639084,0.0032872073352336884
1733703426144624400,9.302624267578125,-0.008693696931004524,-0.06991143524646759,0.007586614694446325
1733703426154590500,9.312590576171875,-0.010681157931685448,-0.06840340793132782,0.014236325398087502
1733703426164557600,9.3225576171875,-0.011369053274393082,-0.058737464249134064,0.016466455534100533
1733703426174523400,9.3325234375,-0.013146817684173584,-0.05130743607878685,0.018208326771855354
1733703426184490500,9.342490478515625,-0.013536704704165459,-0.0439792163670063,0.01426818035542965
1733703426194456300,9.352456298828125,-0.01599833555519581,-0.04180735722184181,0.00982400681823492
1733703426204423400,9.36242333984375,-0.01480470597743988,-0.04106300324201584,0.0060505736619234085
1733703426214389200,9.37238916015625,-0.011249559000134468,-0.04428024962544441,0.002138928510248661
1733703426224356400,9.3823564453125,-0.006936836056411266,-0.046347662806510925,0.003469443880021572
1733703426234323500,9.392323486328126,-0.002218682784587145,-0.050381459295749664,0.006512184627354145
1733703426244289300,9.402289306640625,-0.000752079940866679,-0.05069704353809357,0.009123147465288639
1733703426254256400,9.41225634765625,0.0028603575192391872,-0.04956268519163132,0.014051467180252075
1733703426264222500,9.422222412109376,0.0025330549106001854,-0.044487763196229935,0.013745736330747604
1733703426274189600,9.432189453125,0.0028084253426641226,-0.03757501766085625,0.01079556718468666
1733703426284155400,9.4421552734375,0.0032939196098595858,-0.02434762939810753,0.006111865863204002
1733703426294122500,9.45212255859375,0.0032406423706561327,-0.014244732446968555,0.00203553750179708
1733703426304088300,9.46208837890625,0.0037098913453519344,-0.005155363120138645,-0.002269195858389139
1733703426314055400,9.472055419921874,0.0035556540824472904,0.004753381945192814,-0.006164305843412876
1733703426324022300,9.482022216796874,0.0043266392312943935,0.009324431419372559,-0.011853883974254131
1733703426333988400,9.49198828125,0.005047290585935116,0.008270353078842163,-0.009445054456591606
1733703426343955500,9.50195556640625,0.006336526945233345,0.00695555005222559,-0.0038553455378860235
1733703426353921500,9.511921630859375,0.00887239445000887,0.004330574534833431,-0.0066873254254460335
1733703426363888000,9.52188818359375,0.01305302418768406,0.005266143009066582,-0.00805698987096548
1733703426373854000,9.53185400390625,0.012459060177206993,0.012613777071237564,-0.009945693425834179
1733703426383821000,9.541821044921875,0.013189831748604774,0.01915716379880905,-0.010198427364230156
1733703426393787100,9.551787109375,0.009608526714146137,0.02606487274169922,-0.010706089437007904
1733703426403754000,9.56175390625,0.00887136347591877,0.03294461965560913,-0.01254686713218689
1733703426413721000,9.57172119140625,0.009606095030903816,0.03905659541487694,-0.012783833779394627
1733703426423687000,9.58168701171875,0.012041289359331131,0.0409996397793293,-0.01419025007635355
1733703426433654000,9.591654052734375,0.012063185684382915,0.044452570378780365,-0.012276707217097282
1733703426443619800,9.601619873046875,0.013613411225378513,0.046435825526714325,-0.012412529438734055
1733703426453587000,9.6115869140625,0.011357054114341736,0.0465925931930542,-0.011376776732504368
1733703426463553000,9.621552978515625,0.01095624826848507,0.04793828725814819,-0.0123576195910573
1733703426473520000,9.63152001953125,0.009752245619893074,0.05146491527557373,-0.010839521884918213
1733703426483487200,9.6414873046875,0.0073247747495770454,0.0561550073325634,-0.014329595491290092
1733703426493453000,9.651453125,0.005314943380653858,0.05755145102739334,-0.01631198823451996
1733703426503420200,9.661420166015626,0.0073748985305428505,0.056382060050964355,-0.011075682938098907
1733703426513386000,9.671385986328126,0.00244705518707633,0.049217041581869125,-0.009276825934648514
1733703426523353000,9.68135302734375,-0.0010677847312763333,0.043688319623470306,-0.010596422478556633
1733703426533319000,9.69131884765625,0.00011210041702724993,0.039585378021001816,-0.01218542829155922
1733703426543286000,9.7012861328125,-0.00019203260308131576,0.03538291156291962,-0.0089385025203228
1733703426553252000,9.711252197265624,-0.006373067852109671,0.025849400088191032,-0.00399178359657526
1733703426563219000,9.721218994140624,-0.008040739223361015,0.015416200272738934,0.001546526444144547
1733703426573186000,9.73118603515625,-0.012127857655286789,0.004060723818838596,0.004011494107544422
1733703426583152000,9.741152099609375,-0.01444960106164217,-0.007118693552911282,0.009785227477550507
1733703426593119200,9.751119140625,-0.014251497574150562,-0.02272133156657219,0.0071125328540802
1733703426603085000,9.7610849609375,-0.014204892329871655,-0.03727470710873604,0.008141844533383846
1733703426613052200,9.77105224609375,-0.01346064917743206,-0.04975910484790802,0.008642392233014107
1733703426623018000,9.78101806640625,-0.01454881764948368,-0.05861358344554901,0.00968475267291069
1733703426632985000,9.790985107421875,-0.013030079193413258,-0.06408356130123138,0.011903032660484314
1733703426642951000,9.800950927734375,-0.011916611343622208,-0.06505535542964935,0.015757692977786064
1733703426652918000,9.81091796875,-0.01124587468802929,-0.062305375933647156,0.012866893783211708
1733703426662884900,9.820884765625,-0.006708380300551653,-0.060809217393398285,0.010192014276981354
1733703426672851200,9.830851318359375,-0.004489915445446968,-0.05889943987131119,0.007237619254738092
1733703426682818000,9.840818115234375,-0.004683793522417545,-0.058338843286037445,0.0024271514266729355
1733703426692784000,9.8507841796875,-0.0022734187077730894,-0.05768480896949768,0.004723826423287392
1733703426702751000,9.8607509765625,-0.0012073552934452891,-0.05673353374004364,0.007905504666268826
1733703426712717000,9.870717041015626,0.00014554732479155064,-0.050915785133838654,0.011239340528845787
1733703426722684200,9.88068408203125,0.001235845498740673,-0.04496175795793533,0.010307500138878822
1733703426732650000,9.89064990234375,-0.0006043234607204795,-0.03949563577771187,0.006004623137414455
1733703426742617000,9.9006171875,0.0038735156413167715,-0.03472910821437836,0.005884514655917883
1733703426752584000,9.910583984375,0.004652974661439657,-0.029086116701364517,0.0030108473729342222
1733703426762550000,9.920550048828124,0.002078496851027012,-0.024089496582746506,0.0019080324564129114
1733703426772516900,9.930516845703124,0.001760261133313179,-0.02121160924434662,0.0019563324749469757
1733703426782483200,9.940483154296874,0.000894467462785542,-0.018784672021865845,0.0012322189286351204
1733703426792450000,9.950449951171874,0.001480061444453895,-0.012359238229691982,0.0038355132564902306
1733703426802416000,9.960416015625,0.0019362609600648284,-0.0027809124439954758,0.00347145926207304
1733703426812383000,9.970383056640625,0.0003899033472407609,0.006719016470015049,0.0011670731473714113
1733703426822349000,9.98034912109375,-0.0010138489305973053,0.010986465960741043,0.0007694632513448596
1733703426832316000,9.99031591796875,-0.002374015748500824,0.010446786880493164,-0.0008864987175911665
1733703426842283000,10.000282958984375,0.0008713124552741647,0.010871294885873795,-0.005583515856415033
1733703426852249000,10.0102490234375,0.0018701683729887009,0.010678386315703392,-0.0050693415105342865
1733703426862216000,10.0202158203125,0.007607682608067989,0.011709296144545078,-0.004432579502463341
1733703426872182000,10.03018212890625,0.013004926033318043,0.015797540545463562,-0.003032300854101777
1733703426882148900,10.04014892578125,0.01334900688380003,0.02396518923342228,-0.003858946030959487
1733703426892115200,10.050115234375,0.012851353734731674,0.03357852250337601,-0.006047259084880352
1733703426902082000,10.06008203125,0.010723487474024296,0.04074695333838463,-0.007697087712585926
1733703426912048000,10.070048095703125,0.008071043528616428,0.04853308945894241,-0.011050940491259098
1733703426922015000,10.080014892578125,0.005866745486855507,0.056608591228723526,-0.013313029892742634
1733703426931982000,10.089982177734376,0.00840966496616602,0.06073935329914093,-0.013838228769600391
1733703426941948000,10.099947998046876,0.00793508905917406,0.0670800730586052,-0.01316071953624487
1733703426951915000,10.1099150390625,0.007891841232776642,0.07137608528137207,-0.013056427240371704
1733703426961880800,10.119880859375,0.007644168101251125,0.07208715379238129,-0.011207660660147667
1733703426971848000,10.129847900390626,0.008109109476208687,0.06938439607620239,-0.01070565078407526
1733703426981814300,10.139814208984374,0.008663846179842949,0.07057296484708786,-0.011469711549580097
1733703426991781000,10.149781005859374,0.006433506030589342,0.06557127088308334,-0.01183340698480606
1733703427001747200,10.159747314453124,0.0030614116694778204,0.05728910490870476,-0.013965534046292305
1733703427011714000,10.169714111328124,-0.000010902411304414272,0.043608590960502625,-0.012642215937376022
1733703427021681200,10.17968115234375,-0.000008239236194640398,0.026866894215345383,-0.010850707069039345
1733703427031647000,10.18964697265625,-0.0014740214683115482,0.009051051922142506,-0.007993284612894058
1733703427041614000,10.199614013671875,-0.0014327424578368664,-0.003603224642574787,-0.0039636557921767235
1733703427051580000,10.209579833984375,0.0004052447620779276,-0.014576609246432781,0.00035523995757102966
1733703427061547000,10.219547119140625,-0.0013095646863803267,-0.026073209941387177,0.0021779073867946863
1733703427071512800,10.229512939453125,-0.0069267041981220245,-0.03559640794992447,0.004922294989228249
1733703427081480000,10.23947998046875,-0.010335549712181091,-0.04154244810342789,0.006867201067507267
1733703427091446000,10.249446044921875,-0.01081343088299036,-0.043402429670095444,0.007457230240106583
1733703427101413000,10.2594130859375,-0.011037669144570827,-0.04500085860490799,0.011307361535727978
1733703427111380200,10.269380126953125,-0.015408143401145935,-0.048696182668209076,0.013169948011636734
1733703427121346000,10.279345947265625,-0.01777942292392254,-0.054699480533599854,0.013672752305865288
1733703427131313200,10.289313232421875,-0.01569196581840515,-0.06387757509946823,0.014973863027989864
1733703427141279000,10.299279052734375,-0.009178939275443554,-0.0763600766658783,0.012253178283572197
1733703427151246000,10.30924609375,-0.00836316030472517,-0.08377225697040558,0.013321109116077423
1733703427161212000,10.3192119140625,-0.004538328852504492,-0.08576563745737076,0.010871533304452896
1733703427171179000,10.329178955078126,-0.002275141654536128,-0.08121447265148163,0.009876556694507599
1733703427181144800,10.339144775390626,-0.0037105856463313103,-0.06731916964054108,0.01075406838208437
1733703427191112000,10.34911181640625,-0.0029052612371742725,-0.05071974918246269,0.007537941914051771
1733703427201079000,10.3590791015625,-0.002914315788075328,-0.032318904995918274,0.005969606339931488
1733703427211045000,10.369045166015624,-0.00372632616199553,-0.0179086122661829,0.0060318284668028355
1733703427221012200,10.37901220703125,-0.003776926314458251,-0.007594190537929535,0.007195896469056606
1733703427230978000,10.38897802734375,-0.002914832904934883,0.003909209277480841,0.005541196092963219
1733703427240945200,10.398945068359374,-0.004861071240156889,0.005904715973883867,0.001832478097639978
1733703427250911000,10.408910888671874,-0.002427699277177453,0.007457416504621506,-0.001101823290809989
1733703427260878000,10.418878173828125,0.002814200706779957,0.01069981511682272,-0.00055161421187222
1733703427270844000,10.428843994140625,0.0050596510991454124,0.013380722142755985,0.00028679671231657267
1733703427280811000,10.43881103515625,0.004394926130771637,0.013302691280841827,0.0012793568894267082
1733703427290777900,10.44877783203125,0.006652431562542915,0.01425062958151102,0.003810361959040165
1733703427300744000,10.458743896484375,0.006899307481944561,0.016730299219489098,0.004029007628560066
1733703427310711000,10.4687109375,0.01012390572577715,0.022321145981550217,-0.0019330449867993593
1733703427320677000,10.478677001953125,0.0078114839270710945,0.026937469840049744,-0.008125427179038525
1733703427330644200,10.488644287109375,0.010429752059280872,0.028950447216629982,-0.01306089386343956
1733703427340610000,10.498610107421875,0.009724547155201435,0.033549193292856216,-0.011533571407198906
1733703427350577200,10.5085771484375,0.008885366842150688,0.03406551480293274,-0.009057453833520412
1733703427360543500,10.51854345703125,0.0036378747317939997,0.030370909720659256,-0.004032867960631847
1733703427370510600,10.528510498046876,0.0026357274036854506,0.029839344322681427,0.000060943420976400375
1733703427380477700,10.538477783203126,0.0008892262121662498,0.02653675712645054,0.002520372625440359
1733703427390443500,10.548443603515626,0.002271749312058091,0.028875332325696945,-0.0027663535438477993
1733703427400410600,10.55841064453125,0.005621473304927349,0.032306015491485596,-0.007891341112554073
1733703427410376400,10.56837646484375,0.0076993731781840324,0.035835858434438705,-0.01102847047150135
1733703427420343600,10.578343505859374,0.011345506645739079,0.03535968437790871,-0.01192781887948513
1733703427430309600,10.5883095703125,0.009644528850913048,0.026710204780101776,-0.011598743498325348
1733703427440276700,10.59827685546875,0.010128958150744438,0.021548733115196228,-0.009731600061058998
1733703427450242600,10.60824267578125,0.011698715388774872,0.02077201008796692,-0.0070583107881248
1733703427460209700,10.618209716796875,0.009148472920060158,0.023956086486577988,-0.008772853761911392
1733703427470176500,10.628176513671875,0.007081643678247929,0.03443513810634613,-0.00909292884171009
1733703427480142600,10.638142578125,0.0076435706578195095,0.04140729457139969,-0.008880408480763435
1733703427490109700,10.648109619140625,0.007277049124240875,0.04627639800310135,-0.009881647303700447
1733703427500075500,10.658075439453125,0.0069476161152124405,0.04586068168282509,-0.012370903976261616
1733703427510042600,10.668042724609375,0.007164965383708477,0.037479154765605927,-0.013622111640870571
1733703427520008400,10.678008544921875,0.0046187168918550014,0.03131873160600662,-0.013205060735344887
1733703427529975600,10.6879755859375,0.004778311587870121,0.02316461317241192,-0.012071197852492332
1733703427539941600,10.697941650390625,0.0035937372595071793,0.009791017509996891,-0.006105449981987476
1733703427549908700,10.70790869140625,0.004180289804935455,-0.0048528071492910385,-0.003013832028955221
1733703427559875600,10.71787548828125,-0.0005340377101674676,-0.02007357031106949,-0.0014135383535176516
1733703427569841700,10.727841552734375,-0.0030790790915489197,-0.03431199491024017,0.0021958891302347183
1733703427579808500,10.73780859375,-0.007139068096876144,-0.046830449253320694,0.0033367874566465616
1733703427589774600,10.747774658203125,-0.010650251060724258,-0.053141023963689804,0.004455691669136286
1733703427599741400,10.757741455078126,-0.014318489469587803,-0.05169040337204933,0.010447272099554539
1733703427609707500,10.76770751953125,-0.018525784835219383,-0.05215749517083168,0.013251901604235172
1733703427619674600,10.777674560546876,-0.01934976689517498,-0.05882285535335541,0.016604021191596985
1733703427629640700,10.787640625,-0.01832008734345436,-0.06537667661905289,0.017174499109387398
1733703427639607600,10.797607666015624,-0.013178324326872826,-0.06540250778198242,0.01629246026277542
1733703427649574400,10.807574462890624,-0.010345935821533203,-0.0610615573823452,0.015629000961780548
1733703427659540700,10.817540771484374,-0.006939221173524857,-0.0585390068590641,0.010106404311954975
1733703427669507600,10.827507568359374,-0.0035926764830946922,-0.049510933458805084,0.006731705740094185
1733703427679473700,10.8374736328125,-0.0015367161249741912,-0.039284929633140564,0.0026333671994507313
1733703427689440500,10.8474404296875,0.0010962248779833317,-0.025940880179405212,0.0012874850071966648
1733703427699406600,10.857406494140625,0.0033812171313911676,-0.015148154459893703,-0.002157313982024789
1733703427709373400,10.86737353515625,0.004851406440138817,-0.012548544444143772,-0.003577623050659895
1733703427719339500,10.877339599609375,0.0055203926749527454,-0.013884917832911015,-0.005552623420953751
1733703427729306400,10.887306396484375,0.005392329767346382,-0.012669741176068783,-0.0015579371247440577
1733703427739272700,10.897272705078125,0.006834964267909527,-0.012787719257175922,0.000280176755040884
1733703427749239800,10.90723974609375,0.007466974202543497,-0.013258489780128002,0.0008194355759769678
1733703427759206700,10.91720654296875,0.003889283863827586,-0.01995048299431801,-0.0006538252346217632
1733703427769172700,10.9271728515625,0.0009135862346738577,-0.02212122455239296,-0.002299728337675333
1733703427779139600,10.9371396484375,0.0026539620012044907,-0.023577440530061722,-0.004525065887719393
1733703427789105700,10.947105712890625,0.004194546490907669,-0.023901164531707764,-0.006470835767686367
1733703427799072500,10.957072509765625,0.004176170565187931,-0.021737080067396164,-0.007584569975733757
1733703427809038600,10.96703857421875,0.007874858565628529,-0.014381838031113148,-0.0067344787530601025
1733703427819005400,10.97700537109375,0.009469293057918549,-0.007025654427707195,-0.007139279972761869
1733703427828971500,10.986971435546875,0.009708589874207973,-0.0001120343804359436,-0.008772321045398712
1733703427838938400,10.9969384765625,0.010214856825768948,0.004555155523121357,-0.009102020412683487
1733703427848905500,11.006905517578126,0.0055748820304870605,-0.0019245874136686325,-0.013244199566543102
1733703427858871600,11.01687158203125,0.004976735915988684,-0.004564045928418636,-0.015385647304356098
1733703427868838700,11.026838623046874,0.002522542839869857,-0.0007992591708898544,-0.01166149228811264
1733703427878804700,11.0368046875,0.00009826739551499486,0.005381138529628515,-0.015265547670423985
1733703427888771600,11.046771484375,0.001995558151975274,0.022268392145633698,-0.017552873119711876
1733703427898737700,11.056737548828124,-0.0019864002242684364,0.04032515734434128,-0.017072971910238266
1733703427908704500,11.06670458984375,-0.010721616446971893,0.06365892291069031,-0.008473132736980915
1733703427918670600,11.076670654296874,-0.018561962991952896,0.0767611488699913,-0.005301307886838913
1733703427928637400,11.086637451171875,-0.022269781678915024,0.08808313310146332,-0.003852471709251404
1733703427938604500,11.0966044921875,-0.024443188682198524,0.08407081663608551,0.000643210718408227
1733703427948570400,11.1065703125,-0.02317110262811184,0.07805560529232025,0.002695875009521842
1733703427958537500,11.116537353515625,-0.01775876060128212,0.07467392086982727,0.004575533792376518
1733703427968503600,11.126503662109375,-0.012927520088851452,0.06808499991893768,0.01017775945365429
1733703427978470700,11.136470703125,-0.0074278791435062885,0.0541679710149765,0.017047317698597908
1733703427988436500,11.1464365234375,-0.007931052707135677,0.033027444034814835,0.02025182545185089
1733703427998403600,11.156403564453125,-0.007866604253649712,0.01754116080701351,0.024139240384101868
1733703428008369700,11.16636962890625,-0.007535860873758793,0.009282153099775314,0.022624019533395767
1733703428018336500,11.17633642578125,-0.010678390972316265,-0.000024262815713882446,0.018743794411420822
1733703428028303600,11.1863037109375,-0.013210452161729336,-0.010407446883618832,0.016437385231256485
1733703428038269400,11.19626953125,-0.011782731860876083,-0.0197514146566391,0.017744731158018112
1733703428048236500,11.206236572265626,-0.015084785409271717,-0.02631477639079094,0.014531360939145088
1733703428058202600,11.21620263671875,-0.016245655715465546,-0.03180621191859245,0.015784645453095436
1733703428068169500,11.22616943359375,-0.016144877299666405,-0.03660668805241585,0.013767192140221596
1733703428078135600,11.236135498046876,-0.013690508902072906,-0.041521817445755005,0.013795421458780766
1733703428088102700,11.2461025390625,-0.014472595416009426,-0.04457378014922142,0.012925086542963982
1733703428098068500,11.256068359375,-0.013098671101033688,-0.04723161458969116,0.012052901089191437
1733703428108035600,11.26603564453125,-0.010161267593502998,-0.04736388474702835,0.008847824297845364
1733703428118001400,11.27600146484375,-0.009665120393037796,-0.04572124779224396,0.006227539852261543
1733703428127968500,11.285968505859374,-0.008676385506987572,-0.0396515354514122,0.006530138663947582
1733703428137935600,11.295935546875,-0.0051900423131883144,-0.03475238382816315,0.006912568584084511
1733703428147901400,11.3059013671875,0.0018751483876258135,-0.03191759064793587,0.00912379939109087
1733703428157868500,11.31586865234375,0.007541023660451174,-0.025280460715293884,0.009081721305847168
1733703428167834600,11.325834716796875,0.007799134589731693,-0.02093653380870819,0.0025117401964962482
1733703428177801700,11.3358017578125,0.013565145432949066,-0.015444031916558743,-0.0013069664128124714
1733703428187767600,11.345767578125,0.011485641822218895,-0.010998343117535114,-0.0016186570283025503
1733703428197734700,11.355734619140625,0.0055995238944888115,-0.01648551970720291,0.0005403675604611635
1733703428207700500,11.365700439453125,-0.0015539510641247034,-0.02452605962753296,0.00714497547596693
1733703428217667600,11.37566748046875,-0.0029374633450061083,-0.02975304424762726,0.008848333731293678
1733703428227634700,11.385634765625,-0.0025863400660455227,-0.03331609070301056,0.013883236795663834
1733703428237600500,11.3956005859375,-0.0031831543892621994,-0.027972456067800522,0.012221423909068108
1733703428247567600,11.405567626953125,-0.0028459460008889437,-0.0202186219394207,0.009089581668376923
1733703428257533400,11.415533447265625,0.00019565026741474867,-0.013174561783671379,0.007010185159742832
1733703428267500500,11.42550048828125,-0.0003450779477134347,-0.0137452008202672,0.0021490175276994705
1733703428277466600,11.435466552734376,-0.0028758798725903034,-0.016940727829933167,0.0009641771903261542
1733703428287433700,11.445433837890626,-0.003094931598752737,-0.0228353813290596,0.0014439993537962437
1733703428297399600,11.455399658203126,-0.0008991553913801908,-0.02384764701128006,0.0009430587524548173
1733703428307366700,11.46536669921875,-0.0011482685804367065,-0.0224001407623291,-0.0005010061431676149
1733703428317333500,11.47533349609375,0.0003412372898310423,-0.015516137704253197,-0.000043741194531321526
1733703428327299600,11.485299560546874,0.0028258063830435276,-0.007849129848182201,-0.0013773192185908556
1733703428337266700,11.4952666015625,0.005927323829382658,0.0006394293159246445,-0.0071425302885472775
1733703428347232500,11.505232421875,0.008827400393784046,0.01190776377916336,-0.012727578170597553
1733703428357198800,11.51519873046875,0.012014404870569706,0.022390231490135193,-0.014652512036263943
1733703428367165200,11.525165283203124,0.015010748989880085,0.0328245609998703,-0.014904094859957695
1733703428377132000,11.535132080078125,0.019658764824271202,0.03926941007375717,-0.016427423804998398
1733703428387098000,11.54509814453125,0.02238360606133938,0.04545702040195465,-0.016136378049850464
1733703428397065000,11.55506494140625,0.02125522494316101,0.0488823801279068,-0.01640748791396618
1733703428407031000,11.565031005859375,0.01744183897972107,0.05325065925717354,-0.014387770555913448
1733703428416998100,11.574998046875,0.014111287891864777,0.052989937365055084,-0.015546510927379131
1733703428426965000,11.584965087890625,0.011342576704919338,0.05499889701604843,-0.018103955313563347
1733703428436931000,11.59493115234375,0.011104490607976913,0.056178413331508636,-0.015799788758158684
1733703428446898000,11.60489794921875,0.007966169156134129,0.0593310222029686,-0.013848526403307915
1733703428456864000,11.614864013671875,0.007717164233326912,0.059194669127464294,-0.01351749524474144
1733703428466830800,11.624830810546875,0.005702907685190439,0.05727236717939377,-0.008872007951140404
1733703428476797200,11.634797119140625,0.0029835542663931847,0.053535155951976776,-0.00748290354385972
1733703428486764000,11.644763916015625,0.00036916491808369756,0.04757604002952576,-0.005849376320838928
1733703428496730000,11.654730224609375,-0.0001751852105371654,0.04409342259168625,-0.0027148358058184385
1733703428506697000,11.664697021484375,-0.005465890280902386,0.031576722860336304,0.0005138546694070101
1733703428516664000,11.6746640625,-0.010890749283134937,0.020563218742609024,0.0007985465927049518
1733703428526630000,11.6846298828125,-0.01561111118644476,0.008743749931454659,0.004802287556231022
1733703428536597000,11.694596923828126,-0.01708037778735161,-0.004581908695399761,0.009571210481226444
1733703428546563000,11.70456298828125,-0.018968012183904648,-0.017911650240421295,0.01232877280563116
1733703428556530000,11.714530029296874,-0.01969585381448269,-0.03070467710494995,0.013879531063139439
1733703428566496300,11.724496337890624,-0.019243843853473663,-0.03775012120604515,0.01689251884818077
1733703428576463000,11.734463134765624,-0.016059234738349915,-0.04721473157405853,0.015526051633059978
1733703428586429200,11.74442919921875,-0.01278846338391304,-0.05345169082283974,0.013816611841320992
1733703428596396000,11.75439599609375,-0.008621148765087128,-0.055246125906705856,0.01194094680249691
1733703428606362000,11.764362060546874,-0.006971465889364481,-0.053499411791563034,0.008528096601366997
1733703428616329000,11.774328857421875,-0.0041895280592143536,-0.055004898458719254,0.0019567469134926796
1733703428626296000,11.784296142578125,-0.0028116977773606777,-0.05718482285737991,0.0015743074472993612
1733703428636262000,11.794261962890625,-0.0016950343269854784,-0.05429396033287048,0.0034582274965941906
1733703428646229000,11.80422900390625,0.00026997231179848313,-0.05296052619814873,0.006709601264446974
1733703428656194800,11.81419482421875,-0.0005790434079244733,-0.05117061734199524,0.007200954481959343
