time,seconds_elapsed,z,y,x
1733703625303824400,0.024824462890625,0.0026809319388121367,-0.002475832588970661,0.011973989196121693
1733703625313790200,0.034790283203125,0.008858665823936462,0.003964490257203579,0.011311394162476063
1733703625323757300,0.04475732421875,0.007375976070761681,0.003933730535209179,0.0038340752944350243
1733703625333723400,0.054723388671875,-0.000897400313988328,0.006082102656364441,-0.00011139782145619392
1733703625343689200,0.064689208984375,0.001438734820112586,0.0028276294469833374,0.0012896517291665077
1733703625353656300,0.07465625,0.003693633247166872,-0.0014818981289863586,-0.003805774264037609
1733703625363622400,0.084622314453125,0.0060209245420992374,-0.005050002597272396,-0.003386672120541334
1733703625373588200,0.094588134765625,0.007610831875354052,-0.00040225405246019363,-0.006937731057405472
1733703625383555300,0.104555419921875,0.004171040840446949,0.004863125272095203,-0.007002104073762894
1733703625393521400,0.114521484375,0.0033856749068945646,0.006353164091706276,-0.008036209270358086
1733703625403487200,0.1244873046875,0.001082566101104021,0.004905249923467636,-0.004527871962636709
1733703625413454300,0.134454345703125,-0.00024874816881492734,-0.0025952765718102455,0.00009644066449254751
1733703625423420400,0.14442041015625,-0.00238183606415987,-0.007187453098595142,0.0034436164423823357
1733703625433387300,0.15438720703125,-0.003120064502581954,-0.014893843792378902,0.006082276348024607
1733703625443353300,0.164353271484375,-0.00046075053978711367,-0.021045787259936333,0.005713772028684616
1733703625453319400,0.1743193359375,-0.0008663500193506479,-0.023584315553307533,0.00784296914935112
1733703625463286300,0.184286376953125,-0.0032394113950431347,-0.020066019147634506,0.004760047420859337
1733703625473252400,0.19425244140625,-0.0013717362890020013,-0.01319293212145567,0.0033504364546388388
1733703625483218400,0.204218505859375,-0.0007679018890485168,-0.003652997314929962,-0.0014451121678575873
1733703625493185300,0.214185302734375,-0.000947132590226829,0.00385312270373106,-0.003559928387403488
1733703625503151400,0.2241513671875,0.0016865129582583904,0.00929982215166092,-0.0028479862958192825
1733703625513117400,0.234117431640625,0.0027099656872451305,0.012593086808919907,-0.0028663622215390205
1733703625523084300,0.244084228515625,0.0007939733332023025,0.011982602067291737,0.001567192724905908
1733703625533050400,0.25405029296875,0.0013068981934338808,0.013991424813866615,0.0014710526447743177
1733703625543020000,0.26402001953125,-0.0007302476442418993,0.010878986679017544,-0.00006894173566251993
1733703625552987000,0.27398681640625,0.0005659128073602915,0.01028217189013958,0.001070624915882945
1733703625562953000,0.283952880859375,0.00043863794417120516,0.00631445087492466,0.00045176921412348747
1733703625572918800,0.293918701171875,-0.0005906738224439323,0.006114979740232229,0.0012382006971165538
1733703625582886000,0.303885986328125,-0.0016544845420867205,0.0037493943236768246,0.0004973247414454818
1733703625592852000,0.31385205078125,-0.0004984062979929149,0.005666870158165693,0.001265380415134132
1733703625602818000,0.323818115234375,-0.0026001110672950745,0.005911748856306076,0.00014434114564210176
1733703625612785000,0.333784912109375,-0.0010938271880149841,0.006318946368992329,0.00048815528862178326
1733703625622751000,0.3437509765625,-0.002649580594152212,0.007926293648779392,0.0008116102544590831
1733703625632716800,0.353716796875,0.0010253152577206492,0.008942555636167526,0.00008163775783032179
1733703625642684000,0.363683837890625,0.0006823806324973702,0.009674790315330029,-0.002885311609134078
1733703625652650000,0.37364990234375,0.00022271904163062572,0.008280625566840172,-0.0003073718398809433
1733703625662616000,0.383615966796875,0.0009778980165719986,0.008330387063324451,-0.0028882762417197227
1733703625672583000,0.3935830078125,-0.0009587526437826455,0.007340756244957447,-0.0038925539702177048
1733703625682549000,0.403549072265625,0.0019389940425753593,0.006427510175853968,-0.00009352283086627722
1733703625692514800,0.413514892578125,-0.00013693998334929347,0.0018239701166749,-0.0002458555391058326
1733703625702482000,0.42348193359375,-0.0017648003995418549,-0.005583582445979118,0.0005050650797784328
1733703625712448000,0.433447998046875,-0.0007900834316387773,-0.005950566381216049,0.001439834595657885
1733703625722414000,0.4434140625,0.00022651598555967212,-0.007149148732423782,0.002646456705406308
1733703625732381000,0.453380859375,0.0003543477214407176,-0.006077492609620094,0.002133531728759408
1733703625742347000,0.463346923828125,0.0018179237376898527,-0.00615787785500288,0.0007092696614563465
1733703625752312800,0.473312744140625,0.00088741525541991,-0.0046238973736763,0.0020741396583616734
1733703625762280000,0.483280029296875,-0.002217895118519664,-0.003003227524459362,0.001820991514250636
1733703625772245800,0.493245849609375,-0.001388853183016181,0.0013153543695807457,0.0009059293661266565
1733703625782212000,0.503212158203125,0.0008680056780576706,0.0033569317311048508,-0.0003991342382505536
1733703625792179000,0.513178955078125,-0.00013414188288152218,0.0032759718596935272,-0.0005306944949552417
1733703625802145000,0.52314501953125,-0.0008121791761368513,0.0008633723482489586,0.00025798275601118803
1733703625812112000,0.53311181640625,-0.0008023254340514541,-0.0013009784743189812,0.0002483953721821308
1733703625822078000,0.543077880859375,-0.0014869750011712313,-0.002198999747633934,0.0019121466903015971
1733703625832043800,0.553043701171875,-0.00021558196749538183,0.0009994572028517723,0.002289250260218978
1733703625842011000,0.563010986328125,-0.0002763344091363251,0.003505358472466469,-0.0009672656888142228
1733703625851977000,0.57297705078125,0.0017564564477652311,0.00637251790612936,-0.003860257565975189
1733703625861943000,0.582943115234375,-0.00040368520421907306,0.010290870442986488,-0.002647644840180874
1733703625871910000,0.592909912109375,-0.0006753276684321463,0.007525710389018059,-0.0014252540422603488
1733703625881876000,0.6028759765625,-0.0019667071755975485,0.0038567641749978065,0.0010632462799549103
1733703625891841800,0.612841796875,-0.0003680115914903581,0.001633823849260807,0.0005282171769067645
1733703625901809000,0.622808837890625,-0.00016757979756221175,0.0016435002908110619,0.003641604445874691
1733703625911775000,0.63277490234375,-0.0028179576620459557,-0.0003805020824074745,0.0038290908560156822
1733703625921741000,0.642740966796875,-0.0009709452278912067,0.0002545267343521118,0.004258086904883385
1733703625931708000,0.6527080078125,-0.0011576329125091434,0.002425269689410925,-0.0034083551727235317
1733703625941674000,0.662674072265625,0.001271443092264235,0.005595717113465071,-0.0039051896892488003
1733703625951639800,0.672639892578125,0.0013854263816028833,0.0027802232652902603,-0.003666037693619728
1733703625961607000,0.68260693359375,-0.000013811106327921152,-0.0036405669525265694,-0.0019501204369589686
1733703625971573000,0.692572998046875,-0.0015254213940352201,-0.004988659173250198,0.0018693851307034492
1733703625981539000,0.7025390625,0.0003096858854405582,-0.002410219982266426,0.005111553706228733
1733703625991506000,0.712505859375,-0.0016141815576702356,0.004215725231915712,0.0033874232321977615
1733703626001472000,0.722471923828125,-0.00022543978411704302,0.008215561509132385,-0.0006666667759418488
1733703626011437800,0.732437744140625,0.00025605972041375935,0.014095820486545563,-0.0020544398576021194
1733703626021405000,0.742405029296875,-0.002039173385128379,0.01896744966506958,-0.001356997643597424
1733703626031370800,0.752370849609375,-0.003344122087582946,0.020688917487859726,-0.003956242930144072
1733703626041337000,0.762337158203125,-0.006761888973414898,0.015307901427149773,-0.0023664627224206924
1733703626051304000,0.772303955078125,-0.006749904714524746,0.00494181364774704,-0.00018000754062086344
1733703626061270000,0.78227001953125,-0.006245200522243977,-0.003198171965777874,0.0038481110241264105
1733703626071235800,0.79223583984375,-0.0025964034721255302,-0.013523247092962265,0.004104041028767824
1733703626081203000,0.802202880859375,-0.0005179786821827292,-0.02042238973081112,0.003208229085430503
1733703626091168800,0.812168701171875,0.0008756535244174302,-0.022368362173438072,0.0037509812973439693
1733703626101135000,0.822135009765625,0.001612954307347536,-0.019337037578225136,0.0036044835578650236
1733703626111102000,0.83210205078125,0.0039474815130233765,-0.014521509408950806,0.003435905557125807
1733703626121068000,0.842068115234375,0.004536094143986702,-0.00776105560362339,0.0017166321631520987
1733703626131033900,0.852033935546875,0.0044966796413064,0.0007299017161130905,-0.0009694321779534221
1733703626141001000,0.8620009765625,0.0056725312024354935,0.0047724428586661816,-0.00204253988340497
1733703626150966800,0.871966796875,0.001684980234131217,0.005254474934190512,-0.0038558864034712315
1733703626160933000,0.88193310546875,0.0009760982939042151,0.004143360536545515,-0.004692194052040577
1733703626170900000,0.89189990234375,0.0012107228394597769,0.0015851277858018875,-0.0027451571077108383
1733703626180866000,0.901865966796875,0.000048313173465430737,0.002838586922734976,0.0004972758470103145
1733703626190831900,0.911831787109375,-0.002717912197113037,0.004621306899935007,0.0004653178621083498
1733703626200799000,0.921799072265625,-0.003523105289787054,0.005084612872451544,0.002060482045635581
1733703626210764800,0.931764892578125,-0.0036858245730400085,0.007067868951708078,0.001429845578968525
1733703626220732000,0.94173193359375,-0.0031219811644405127,0.005203611683100462,0.0016505462117493153
1733703626230698000,0.951697998046875,-0.003931049257516861,0.0009004762396216393,0.0010441443882882595
1733703626240664000,0.9616640625,-0.0012096756836399436,-0.002968430519104004,0.0027243723161518574
1733703626250631000,0.971630859375,-0.00138278107624501,-0.005793778225779533,0.0040162717923521996
1733703626260597000,0.981596923828125,0.000901412102393806,-0.004516259767115116,0.0016599068185314536
1733703626270562800,0.991562744140625,0.0011402976233512163,0.0009978152811527252,0.0007211425108835101
1733703626280530000,1.001530029296875,0.002915412187576294,0.00706191873177886,-0.0021763057447969913
1733703626290496000,1.01149609375,0.0003435975522734225,0.015458332374691963,-0.005454124417155981
1733703626300462000,1.021462158203125,0.00003137200837954879,0.01889948919415474,-0.005364225711673498
1733703626310429000,1.031428955078125,-0.0018517491407692432,0.01626615598797798,-0.0018800118705257773
1733703626320395000,1.04139501953125,-0.0017745380755513906,0.012945599853992462,-0.001481137820519507
1733703626330360800,1.05136083984375,-0.0009201960056088865,0.00448234099894762,0.0016648543532937765
1733703626340328000,1.061327880859375,-0.001558096380904317,-0.005007934756577015,0.00282019330188632
1733703626350293800,1.071293701171875,-0.0023442613892257214,-0.009736111387610435,0.0019799659494310617
1733703626360260000,1.081260009765625,-0.0007723098387941718,-0.009499752894043922,0.0031555267050862312
1733703626370227000,1.09122705078125,-0.002289779018610716,-0.0077527184039354324,0.0022460573818534613
1733703626380193000,1.101193115234375,-0.0038449105340987444,-0.004663050174713135,0.0021371752955019474
1733703626390158800,1.111158935546875,-0.0032592813950031996,0.00024009589105844498,0.0009768360760062933
1733703626400126000,1.1211259765625,-0.0008957168902270496,0.005607647821307182,0.0003977071028202772
1733703626410091800,1.131091796875,-0.0007409873069263995,0.006548808887600899,-0.002810336882248521
1733703626420058000,1.14105810546875,-0.0005919709801673889,0.0038086012937128544,-0.0005033080233260989
1733703626430025000,1.15102490234375,0.0021135343704372644,0.00199152622371912,-0.0022519398480653763
1733703626439991000,1.160990966796875,0.005112623795866966,-0.002935941331088543,-0.002923739142715931
1733703626449956900,1.170956787109375,0.003577843774110079,-0.00806865282356739,-0.0004954693140462041
1733703626459924000,1.180924072265625,0.0037571138236671686,-0.006978572346270084,0.0009388766484335065
1733703626469889800,1.190889892578125,0.0004742351302411407,-0.006223299540579319,0.002227313816547394
1733703626479856000,1.200856201171875,-0.0011502208653837442,-0.006489266641438007,0.00021022814325988293
1733703626489823000,1.210822998046875,-0.003590209176763892,-0.005952638573944569,-0.0008553026709705591
1733703626499789000,1.2207890625,0.0002028199378401041,-0.0031332820653915405,-0.0017341055208817124
1733703626509755000,1.2307548828125,0.00024596310686320066,-0.003546871244907379,-0.0003537890734151006
1733703626519722000,1.240721923828125,-0.0005382408271543682,-0.002873132936656475,0.001615356421098113
1733703626529687800,1.250687744140625,0.0011296969605609775,-0.00534055195748806,0.000823332229629159
1733703626539650600,1.260650634765625,0.0018488247878849506,-0.005670969374477863,0.0012955002021044493
1733703626549617400,1.270617431640625,-0.0015123507473617792,-0.001512177288532257,-0.0004158469382673502
1733703626559583700,1.280583740234375,-0.0006107413792051375,-0.000200783833861351,-0.00003408989869058132
1733703626569549600,1.290549560546875,-0.001611823681741953,0.004270929377526045,-0.0002298322506248951
1733703626579516700,1.3005166015625,-0.0030497731640934944,0.005051902495324612,0.0016003298806026578
1733703626589482500,1.310482421875,-0.0012196488678455353,0.005512895528227091,-0.0016671024495735765
1733703626599448600,1.320448486328125,-0.0005780408391728997,0.0014131804928183556,-0.002794494852423668
1733703626609415400,1.33041552734375,0.000596413214225322,-0.0034667951986193657,-0.000706310267560184
1733703626619381800,1.3403818359375,0.0021711622830480337,-0.011276163160800934,0.00034582335501909256
1733703626629348600,1.3503486328125,0.002252122387290001,-0.01979348435997963,0.003107787575572729
1733703626639314700,1.360314697265625,0.00008973910007625818,-0.0191821102052927,0.0050019435584545135
1733703626649280500,1.370280517578125,-0.0005355710745789111,-0.015007605776190758,0.003488735295832157
1733703626659247600,1.38024755859375,-0.0010683068539947271,-0.00577620230615139,0.0015021678991615772
1733703626669213400,1.39021337890625,-0.0011828227434307337,0.0024098213762044907,-0.00006297195795923471
1733703626679179800,1.4001796875,-0.00007841706974431872,0.008518360555171967,-0.004320678301155567
1733703626689146600,1.410146728515625,0.0027088471688330173,0.011562886647880077,-0.006436559371650219
1733703626699112700,1.42011279296875,0.004331045784056187,0.01042131707072258,-0.005174076184630394
1733703626709078500,1.43007861328125,0.003403200302273035,0.0024358280934393406,-0.003611333202570677
1733703626719045600,1.440045654296875,0.004126650746911764,-0.0025727711617946625,-0.0001226209569722414
1733703626729011500,1.450011474609375,0.0024683005176484585,-0.0044204723089933395,0.0013058986514806747
1733703626738977800,1.459977783203125,0.0012518391013145447,-0.0026688268408179283,0.00041080452501773834
1733703626748944600,1.469944580078125,0.00237382878549397,0.0038830824196338654,0.00015247787814587355
1733703626758910700,1.47991064453125,0.0017730067484080791,0.005425144452601671,-0.002329545095562935
1733703626768876500,1.48987646484375,-0.0012283758260309696,0.008358616381883621,-0.0016243400750681758
1733703626778843600,1.49984375,-0.006440324243158102,0.010205024853348732,0.001876301714219153
1733703626788809500,1.5098095703125,-0.00654711714014411,0.0053620669059455395,0.004363694228231907
1733703626798775600,1.519775634765625,-0.008462788537144661,-0.000886150635778904,0.0037407460622489452
1733703626808742400,1.529742431640625,-0.008318179287016392,-0.0062763886526227,0.002997723873704672
1733703626818708700,1.539708740234375,-0.00545709952712059,-0.01138619426637888,0.0020763494540005922
1733703626828674600,1.549674560546875,-0.00471860496327281,-0.013082095421850681,0.001293380162678659
1733703626838641700,1.5596416015625,-0.0010378498118370771,-0.015763897448778152,0.0010244009317830205
1733703626848607500,1.569607421875,0.00035125494468957186,-0.015966031700372696,-0.0001372698461636901
1733703626858573600,1.579573486328125,0.0033343203831464052,-0.016564002260565758,0.0009858212433755398
1733703626868540400,1.58954052734375,0.006149015389382839,-0.012199347838759422,0.0005626449128612876
1733703626878506800,1.5995068359375,0.005865336395800114,-0.005824759602546692,-0.0006631327560171485
1733703626888472600,1.60947265625,0.0037854076363146305,-0.0003809928894042969,-0.0015816568629816175
1733703626898439700,1.619439697265625,0.003081265604123473,0.003376786597073078,-0.004819448105990887
1733703626908405500,1.629405517578125,0.0016335712280124426,0.0029608006589114666,-0.0045954762026667595
1733703626918371600,1.63937158203125,0.0005412948084995151,0.001528141088783741,-0.005110683850944042
1733703626928338400,1.64933837890625,0.0002664565690793097,0.0017768805846571922,-0.00359481293708086
1733703626938304800,1.6593046875,0.00044260136201046407,0.0003295848146080971,-0.0003378059482201934
1733703626948270600,1.6692705078125,-0.0018234823364764452,-0.003937331959605217,-0.00031809869688004255
1733703626958237700,1.67923779296875,-0.002227847231552005,-0.005810290575027466,0.002542132278904319
1733703626968203500,1.68920361328125,-0.0008123770239762962,-0.008794097229838371,0.002186067635193467
1733703626978169600,1.699169677734375,0.0008584901806898415,-0.007603930309414864,0.0009021577425301075
1733703626988136400,1.709136474609375,-0.0010312888771295547,-0.008138161152601242,0.0015290658921003342
1733703626998102800,1.719102783203125,-0.0005488276947289705,-0.008583353832364082,0.0013688942417502403
1733703627008069600,1.729069580078125,0.0009928762447088957,-0.009844627231359482,-0.00009238219354301691
1733703627018035700,1.73903564453125,-0.0016167373396456242,-0.008483849465847015,-0.0009454418905079365
1733703627028001500,1.74900146484375,0.0010900995694100857,-0.005306964740157127,-0.0005265267100185156
1733703627037968600,1.75896875,0.0012612051796168089,-0.002717294730246067,-0.0037945136427879333
1733703627047934500,1.7689345703125,0.0019285932648926973,0.0012774476781487465,-0.0007997887441888452
1733703627057900500,1.778900634765625,0.0016352753154933453,0.006348195485770702,-0.00009975896682590246
1733703627067867400,1.788867431640625,-0.0008095066878013313,0.006832091603428125,-0.00005049037281423807
1733703627077833700,1.798833740234375,-0.0005424181581474841,0.009155331179499626,-0.0004506264813244343
1733703627087799600,1.808799560546875,-0.0017256606370210648,0.007045574951916933,-0.0012628906406462193
1733703627097766700,1.8187666015625,0.00009874207898974419,0.006428753957152367,-0.0001882155193015933
1733703627107732500,1.828732421875,-0.001707680057734251,0.004726195242255926,-0.001508877263404429
1733703627117698600,1.838698486328125,0.00009881018195301294,0.004831782076507807,-0.0016054062871262431
1733703627127665400,1.84866552734375,-0.00007829000242054462,0.0033846204169094563,0.00005640625022351742
1733703627137631700,1.8586318359375,-0.0005061355186626315,0.005895014386624098,-0.0008695620344951749
1733703627147597600,1.86859765625,0.0016670039622113109,0.005724039860069752,-0.002509270329028368
1733703627157564700,1.878564697265625,0.0032895435579121113,0.00889896135777235,-0.0027138139121234417
1733703627167530500,1.888530517578125,0.0029827472753822803,0.007913325913250446,-0.00258465064689517
1733703627177496600,1.89849658203125,0.002114424016326666,0.003963601775467396,-0.0018347298027947545
1733703627187463400,1.90846337890625,0.0008528846083208919,0.00017312448471784592,-0.0011558899423107505
1733703627197429800,1.9184296875,0.0026286861393600702,-0.0053825415670871735,-0.000032988958992064
1733703627207395600,1.9283955078125,-0.0002043845597654581,-0.00680333748459816,-0.000051897368393838406
1733703627217362700,1.93836279296875,-0.0004875366576015949,-0.006085791625082493,-0.0006442208541557193
1733703627227328500,1.94832861328125,-0.0014707756927236915,-0.006593124009668827,0.0006913543911650777
1733703627237294600,1.958294677734375,0.0012548029189929366,-0.006478387862443924,0.00026711355894804
1733703627247261400,1.968261474609375,-0.0014776003081351519,-0.003373141400516033,-0.00012809946201741695
1733703627257227800,1.978227783203125,0.0014661644818261266,-0.0028146766126155853,-0.0003351824125275016
1733703627267193600,1.988193603515625,0.0012491168454289436,-0.0030327895656228065,-0.0013346666237339377
1733703627277160700,1.99816064453125,0.0018800270045176148,-0.003518863581120968,0.000794108840636909
1733703627287126500,2.00812646484375,-0.000294177676551044,-0.0059652430936694145,0.0021853442303836346
1733703627297092600,2.018092529296875,0.0019787712953984737,-0.005070331506431103,0.0005977986147627234
1733703627307059500,2.0280595703125,0.0004652968782465905,-0.004189623519778252,0.000024952692911028862
1733703627317025500,2.038025634765625,0.00034640933154150844,-0.0002464139834046364,-0.00010833749547600746
1733703627326991600,2.04799169921875,-0.00012177438475191593,0.005222387611865997,-0.00171049521304667
1733703627336958700,2.057958740234375,0.0013526692055165768,0.009836399927735329,-0.003119323868304491
1733703627346924500,2.067924560546875,0.0008535928791388869,0.011415654793381691,-0.0029643280431628227
1733703627356890600,2.077890625,0.00003530707908794284,0.011260038241744041,-0.000991116976365447
1733703627366857500,2.087857421875,-0.000006504531484097242,0.006500170566141605,-0.00014263391494750977
1733703627376823600,2.097823486328125,-0.0011679432354867458,0.0033511947840452194,0.0024166563525795937
1733703627386790400,2.107790283203125,0.0007910780259408057,-0.0006009358912706375,0.0015205026138573885
1733703627396756700,2.1177568359375,0.0002877095539588481,-0.0019538970664143562,0.0007426927331835032
1733703627406722600,2.12772265625,0.001964169554412365,-0.004725981503725052,-0.00202326662838459
1733703627416689700,2.137689697265625,0.0017638099379837513,-0.0064791468903422356,-0.0017583713633939624
1733703627426655500,2.147655517578125,0.0014245231868699193,-0.008038160391151905,-0.00028990430291742086
1733703627436621600,2.15762158203125,0.0008139953715726733,-0.011107894591987133,0.0007168831070885062
1733703627446588400,2.16758837890625,-0.0021655492018908262,-0.007812499068677425,0.0019765582401305437
1733703627456554800,2.1775546875,-0.0020843767561018467,-0.006019442342221737,0.0033112973906099796
1733703627466520600,2.1875205078125,-0.0008129837224259973,-0.0015269555151462555,0.003054036060348153
1733703627476487700,2.19748779296875,-0.0007645856821909547,0.001713363453745842,0.0012912809615954757
1733703627486453500,2.20745361328125,-0.000051923736464232206,0.005952849984169006,-0.003586298320442438
1733703627496419600,2.217419677734375,0.0033059048000723124,0.008912766352295876,-0.0045993695966899395
1733703627506386400,2.227386474609375,0.0031897909939289093,0.01007763296365738,-0.004646507557481527
1733703627516352800,2.237352783203125,0.004284965805709362,0.009675588458776474,-0.004127024672925472
1733703627526318600,2.247318603515625,0.0031765582971274853,0.007973562926054,-0.0009352259803563356
1733703627536285700,2.25728564453125,0.002520775655284524,0.006794172339141369,-0.0004888145485892892
1733703627546252000,2.267251953125,0.0028824328910559416,0.009852812625467777,-0.00036204804200679064
1733703627556218000,2.277218017578125,0.0012494532857090235,0.007527222391217947,-0.0006030537188053131
1733703627566185000,2.28718505859375,0.0003658164059743285,0.00927265826612711,-0.0016313001979142427
1733703627576151000,2.297151123046875,-0.0030849736649543047,0.008554887026548386,0.002301811007782817
1733703627586117000,2.3071171875,-0.004816294647753239,0.00803929939866066,0.0038733421824872494
1733703627596084200,2.317084228515625,-0.007443722803145647,0.0024113059043884277,0.0013820219319313765
1733703627606050000,2.327050048828125,-0.006099891848862171,-0.0024404404684901237,0.0014776292955502868
1733703627616016100,2.33701611328125,-0.00514182960614562,-0.008360627107322216,0.0017621610313653946
1733703627625983000,2.34698291015625,-0.0032925307750701904,-0.009434147737920284,0.0022497859317809343
1733703627635949000,2.356948974609375,-0.0025879251770675182,-0.011333107948303223,0.0011549058835953474
1733703627645915100,2.3669150390625,-0.0004989415174350142,-0.013534476980566978,0.002751204650849104
1733703627655882200,2.37688232421875,0.0026113714557141066,-0.010375749319791794,0.00011238909792155027
1733703627665848000,2.38684814453125,0.004626052919775248,-0.007202325388789177,0.0005661917384713888
1733703627675814100,2.396814208984375,0.005320702213793993,-0.005185022950172424,-0.0014775139279663563
1733703627685781000,2.406781005859375,0.007464014459401369,-0.0010179746896028519,-0.003848260035738349
1733703627695747000,2.4167470703125,0.0065285563468933105,-0.0008689714595675468,-0.004401171579957008
1733703627705713200,2.426713134765625,0.004770869854837656,-0.0009139785543084145,-0.001991277327761054
1733703627715680000,2.436679931640625,0.00428441958501935,0.0009576138108968735,-0.0008018705993890762
1733703627725646000,2.44664599609375,0.0007448122487403452,-0.0005358867347240448,-0.0019736613612622023
1733703627735613200,2.45661328125,0.0009593019494786859,-0.0005618659779429436,-0.0012753438204526901
1733703627745579000,2.4665791015625,-0.00222450727596879,0.001710609532892704,0.001949744182638824
1733703627755545000,2.476545166015625,-0.0027164448983967304,0.0030603441409766674,0.0028132162988185883
1733703627765512000,2.486511962890625,-0.004356951918452978,0.0031327824108302593,0.0024899085983633995
1733703627775478000,2.49647802734375,-0.0034609539434313774,0.0029076100327074528,0.001962562557309866
1733703627785444000,2.506444091796875,-0.0018220446072518826,-0.001944669522345066,0.003968721721321344
1733703627795411200,2.5164111328125,-0.0021633582655340433,-0.0028744665905833244,0.0034929304383695126
1733703627805377000,2.526376953125,-0.0005345689132809639,-0.002245694398880005,0.0020140772685408592
1733703627815343000,2.536343017578125,-0.0005223430343903601,0.0005651684477925301,0.0031327393371611834
1733703627825310000,2.54631005859375,0.0014899414964020252,0.004351384472101927,0.00005998415872454643
1733703627835276000,2.556276123046875,0.000884512672200799,0.00564836198464036,-0.0006659338250756264
1733703627845242000,2.5662421875,0.0009843811858445406,0.008568251505494118,-0.0012065554037690163
1733703627855209200,2.576209228515625,-0.0009494115365669131,0.01154423039406538,0.0004928647540509701
1733703627865175000,2.586175048828125,-0.0028373263776302338,0.014830304309725761,0.0010454707080498338
1733703627875141000,2.59614111328125,-0.00262651639059186,0.013891676440834999,0.002002919092774391
1733703627885108000,2.60610791015625,-0.0029972284100949764,0.012548111379146576,0.0032684532925486565
1733703627895074000,2.616073974609375,-0.003089826786890626,0.005958441644906998,0.001369937788695097
1733703627905040100,2.6260400390625,-0.0009664885001257062,0.002083808183670044,0.000513731618411839
1733703627915007200,2.63600732421875,-0.0031939418986439705,-0.0031840167939662933,0.005283142440021038
1733703627924973000,2.64597314453125,-0.003571311943233013,-0.004702284932136536,0.0038258605636656284
1733703627934939100,2.655939208984375,-0.0031243893317878246,-0.004506540484726429,0.001863457728177309
1733703627944906000,2.665906005859375,-0.0024985463824123144,-0.003896676003932953,0.0013004655484110117
1733703627954872000,2.6758720703125,-0.003622984979301691,-0.004818085581064224,-0.000007071066647768021
1733703627964838100,2.685838134765625,0.0001805415959097445,-0.002919783815741539,0.0006315548671409488
1733703627974805000,2.695804931640625,-0.00081154442159459,-0.006844928488135338,0.0012770692119374871
1733703627984771000,2.70577099609375,-0.0017612276133149862,-0.010874290019273758,0.0031117210164666176
1733703627994737200,2.715737060546875,-0.0031621388625353575,-0.01445065438747406,0.004256985150277615
1733703628004704000,2.7257041015625,-0.002809536410495639,-0.015425637364387512,0.0046183764934539795
1733703628014670000,2.735670166015625,-0.001084105228073895,-0.010808287188410759,0.0028750437777489424
1733703628024636000,2.745635986328125,-0.00305005069822073,-0.0084037184715271,0.0011133626103401184
1733703628034603000,2.75560302734375,-0.003204706124961376,-0.004671523347496986,0.0022762075532227755
1733703628044569000,2.765569091796875,-0.0041842167265713215,-0.003967383876442909,0.0018205406377092004
1733703628054535200,2.77553515625,-0.001959372777491808,-0.003179307095706463,0.0017739025643095374
1733703628064502000,2.785501953125,-0.001040315837599337,-0.005219820886850357,0.002584568690508604
1733703628074468000,2.795468017578125,-0.00048739119665697217,-0.010956846177577972,0.00312325032427907
1733703628084435000,2.80543505859375,-0.0002743383520282805,-0.015735622495412827,0.004341912921518087
1733703628094401000,2.815401123046875,0.0007593142800033092,-0.013440209440886974,0.004663192201405764
1733703628104367000,2.8253671875,-0.00169638660736382,-0.009415906853973866,0.004034952726215124
1733703628114334200,2.835334228515625,-0.0031334368977695704,-0.004464508965611458,0.0011354598682373762
1733703628124300000,2.845300048828125,-0.002581097185611725,-0.00034007150679826736,-0.00008719740435481071
1733703628134266000,2.85526611328125,-0.0031449540983885527,0.003231098409742117,-0.0003446051850914955
1733703628144233000,2.86523291015625,-0.002138013020157814,0.007659935392439365,0.0010508911218494177
1733703628154199000,2.875198974609375,-0.003339312970638275,0.008827953599393368,0.0017027573194354773
1733703628164165000,2.8851650390625,-0.003129189368337393,0.006606078706681728,0.0022207421716302633
1733703628174132200,2.89513232421875,-0.0011531617492437363,0.006811625324189663,0.0029893615283071995
1733703628184098000,2.90509814453125,-0.0008583498420193791,0.003869098611176014,0.001173618482425809
1733703628194064100,2.915064208984375,-0.001676902174949646,0.00455903634428978,0.0007710643112659454
1733703628204031000,2.925031005859375,0.00014416739577427506,0.005106315948069096,0.00010767090134322643
1733703628213997000,2.9349970703125,-0.0005254032439552248,0.003392881713807583,0.001953316619619727
1733703628223963100,2.944963134765625,-0.00017146911704912782,0.00014249328523874283,0.0019461261108517647
1733703628233930000,2.954929931640625,-0.0016522055957466364,0.00041054561734199524,0.003030230291187763
1733703628243896000,2.96489599609375,-0.001094539649784565,-0.0009633796289563179,0.00522068003192544
1733703628253862100,2.974862060546875,-0.00506925955414772,-0.003507230430841446,0.00836994405835867
1733703628263829000,2.9848291015625,-0.0074562509544193745,-0.0033666156232357025,0.006431162357330322
1733703628273795000,2.994795166015625,-0.009632524102926254,-0.0003608390688896179,0.0036549691576510668
1733703628283761200,3.00476123046875,-0.009678331203758717,0.0035058045759797096,0.001210453687235713
1733703628293728000,3.01472802734375,-0.010254144668579102,0.0007560420781373978,0.002087198430672288
1733703628303694000,3.024694091796875,-0.008508176542818546,-0.004388386383652687,0.0046877749264240265
1733703628313660200,3.03466015625,-0.00569883082062006,-0.007994923740625381,0.006701318547129631
1733703628323627000,3.044626953125,-0.0013360403245314956,-0.011685531586408615,0.006105569191277027
1733703628333593000,3.054593017578125,0.0037465218920260668,-0.01658131554722786,0.0008080620318651199
1733703628343559000,3.064558837890625,0.01094904076308012,-0.018833018839359283,0.00016730546485632658
1733703628353526000,3.074526123046875,0.014708565548062325,-0.01966569572687149,-0.00027084769681096077
1733703628363492000,3.0844921875,0.014742654748260975,-0.017353009432554245,-0.0017683431506156921
1733703628373458200,3.094458251953125,0.011328592896461487,-0.015180801972746849,-0.004675255157053471
1733703628383425000,3.104425048828125,0.00836822297424078,-0.015768561512231827,-0.00858157966285944
1733703628393391000,3.11439111328125,0.003933774773031473,-0.016661914065480232,-0.0065864091739058495
1733703628403357000,3.12435693359375,0.00549491960555315,-0.018710151314735413,-0.004583978094160557
1733703628413324000,3.134323974609375,0.004637615755200386,-0.021836798638105392,-0.003869839943945408
1733703628423290000,3.1442900390625,0.001852215500548482,-0.02572794258594513,-0.0037348177284002304
1733703628433256200,3.154256103515625,0.001798256766051054,-0.030743557959794998,-0.002820971654728055
1733703628443223000,3.16422314453125,0.0023854838218539953,-0.02882874757051468,-0.0008531617932021618
1733703628453189000,3.174189208984375,0.0009440260473638773,-0.02430710196495056,0.0036584585905075073
1733703628463155000,3.184155029296875,-0.0027069016359746456,-0.014667524956166744,0.005696576088666916
1733703628473122000,3.1941220703125,-0.003756804158911109,0.00032878387719392776,0.0049425652250647545
1733703628483088100,3.204088134765625,-0.009621084667742252,0.016578592360019684,0.0020162840373814106
1733703628493054200,3.21405419921875,-0.007967451587319374,0.029405176639556885,0.001300385920330882
1733703628503021000,3.22402099609375,-0.008611137978732586,0.0371837355196476,-0.0004602298140525818
1733703628512987100,3.233987060546875,-0.008022157475352287,0.04170006141066551,-0.0018847149331122637
1733703628522954000,3.2439541015625,-0.004850332159548998,0.03822916001081467,-0.002543314592912793
1733703628532920000,3.253920166015625,-0.006565518211573362,0.029717832803726196,-0.0016503171063959599
1733703628542886000,3.263885986328125,-0.004583061207085848,0.021448452025651932,-0.0016375340055674314
1733703628552852700,3.273852783203125,-0.0031797238625586033,0.014716332778334618,-0.0015367951709777117
1733703628562818800,3.28381884765625,-0.00030111317755654454,0.0028032143600285053,-0.001987668452784419
1733703628572784600,3.29378466796875,-0.0012833303771913052,-0.009166634641587734,0.0018336196662858129
1733703628582751700,3.303751708984375,-0.00132780522108078,-0.015361414290964603,0.0013774202670902014
1733703628592717600,3.313717529296875,-0.0036343776155263186,-0.02246268279850483,0.0034804092720150948
1733703628602684000,3.323683837890625,-0.00011447747237980366,-0.022011278197169304,0.0019498905166983604
1733703628612650800,3.333650634765625,-0.0005240852478891611,-0.018963197246193886,-0.0006799369584769011
1733703628622616800,3.343616943359375,0.00042559794383123517,-0.009619230404496193,-0.0017169718630611897
1733703628632582700,3.353582763671875,0.003226672997698188,-0.005098829977214336,-0.002296444494277239
1733703628642549800,3.3635498046875,0.000534749764483422,-0.0010028881952166557,-0.0024327985011041164
1733703628652515600,3.373515625,0.0041689081117510796,0.00509010860696435,-0.0015597052406519651
1733703628662481700,3.383481689453125,0.0036772883031517267,0.011461988091468811,-0.0016728895716369152
1733703628672448500,3.393448486328125,0.004275026265531778,0.019188448786735535,0.0013655235525220633
1733703628682414800,3.403414794921875,0.0039756870828568935,0.02487296611070633,0.0001982600660994649
1733703628692380700,3.413380615234375,0.0019614375196397305,0.02637183852493763,-0.00026166741736233234
1733703628702347800,3.42334765625,-0.00047562114195898175,0.030306126922369003,-0.0019834008999168873
1733703628712313600,3.433313720703125,-0.0015401997370645404,0.027152054011821747,-0.0008577597327530384
1733703628722279700,3.44327978515625,-0.0014214228140190244,0.021236641332507133,-0.0027866873424500227
1733703628732246500,3.45324658203125,-0.004078437574207783,0.009251704439520836,-0.001088203163817525
1733703628742212900,3.463212890625,-0.0031942680943757296,-0.002402820624411106,0.0017414054600521922
1733703628752178700,3.4731787109375,-0.002204026561230421,-0.01343009527772665,0.0028103834483772516
1733703628762145800,3.483145751953125,-0.0003792287316173315,-0.022623058408498764,0.002410376677289605
1733703628772111600,3.493111572265625,0.0023511566687375307,-0.02427142672240734,0.00303404638543725
1733703628782077700,3.50307763671875,0.0016741810832172632,-0.023156361654400826,-0.0001835847506299615
1733703628792044500,3.51304443359375,0.001511300215497613,-0.018584277480840683,-0.0012824606383219361
1733703628802011000,3.523010986328125,0.0006151465349830687,-0.011000661179423332,-0.0006630093557760119
1733703628811976700,3.532976806640625,-0.000901198829524219,-0.0010078102350234985,-0.0020724651403725147
1733703628821943800,3.54294384765625,-0.002482850104570389,0.004695881623774767,-0.0012420910643413663
1733703628831909600,3.55290966796875,-0.002718893578276038,0.009109226055443287,-0.0015297553036361933
1733703628841875700,3.562875732421875,-0.0030999919399619102,0.011941763572394848,0.0002841237001121044
1733703628851842600,3.572842529296875,-0.0013449755497276783,0.014871552586555481,0.001581238117069006
1733703628861809000,3.582808837890625,0.0011538683902472258,0.01348724216222763,-0.0007591478060930967
1733703628871774700,3.592774658203125,0.004531510639935732,0.015502453781664371,-0.0006660169456154108
1733703628881741800,3.602741943359375,0.0062018451280891895,0.014220674522221088,-0.0013395303394645452
1733703628891707600,3.612707763671875,0.010666459798812866,0.016950152814388275,-0.0023660215083509684
1733703628901673700,3.622673828125,0.013630824163556099,0.01975312829017639,-0.00688114482909441
1733703628911640600,3.632640625,0.016391828656196594,0.022576257586479187,-0.006532422732561827
1733703628921606700,3.642606689453125,0.018278146162629128,0.02320103533565998,-0.0060685002245008945
1733703628931572700,3.65257275390625,0.017796775326132774,0.017170298844575882,-0.0056721922010183334
1733703628941539800,3.662539794921875,0.011375362053513527,0.00742739113047719,-0.007074879016727209
1733703628951505700,3.672505615234375,0.007437027525156736,0.0005311788991093636,-0.006065999157726765
1733703628961471700,3.6824716796875,0.0010765996994450688,-0.00817948766052723,-0.005869457498192787
1733703628971438600,3.6924384765625,-0.000778832589276135,-0.01689942739903927,-0.0017009214498102665
1733703628981404700,3.70240478515625,-0.000983629608526826,-0.027592018246650696,0.0017063268460333347
1733703628991371500,3.71237158203125,-0.001004375284537673,-0.037825629115104675,0.004211888182908297
1733703629001337900,3.722337890625,-0.0017284885980188847,-0.04292158782482147,0.0037479654420167208
1733703629011303700,3.7323037109375,0.00045431454782374203,-0.045791082084178925,0.0040170010179281235
1733703629021270800,3.742270751953125,0.0023307777009904385,-0.0459388867020607,0.004843380302190781
1733703629031236600,3.752236572265625,0.0021526524797081947,-0.03958001360297203,0.002601230749860406
1733703629041202700,3.76220263671875,0.0002985598111990839,-0.029369186609983444,0.0038672976661473513
1733703629051169500,3.77216943359375,-0.000862085958942771,-0.013543931767344475,0.005275078117847443
1733703629061136000,3.782135986328125,-0.0040544169023633,0.0070321825332939625,0.004880663938820362
1733703629071101700,3.792101806640625,-0.002186794066801667,0.02914099022746086,-0.0020450768060982227
1733703629081068800,3.80206884765625,-0.002230736194178462,0.04706406220793724,-0.006354604382067919
1733703629091034600,3.81203466796875,0.0007114133331924677,0.058254536241292953,-0.012158391997218132
1733703629101000700,3.822000732421875,-0.001010586624033749,0.056152768433094025,-0.01353338174521923
1733703629110967600,3.831967529296875,-0.0020283875055611134,0.045945312827825546,-0.009840074926614761
1733703629120934000,3.841933837890625,-0.0034244167618453503,0.031853727996349335,-0.006714056245982647
1733703629130899700,3.851899658203125,-0.006262721959501505,0.017111806198954582,-0.0027753489557653666
1733703629140866800,3.86186669921875,-0.005502922460436821,0.0071148318238556385,-0.001106079900637269
1733703629150832600,3.87183251953125,-0.005142266396433115,-0.00007290951907634735,0.0004056792240589857
1733703629160798700,3.881798828125,-0.004692192189395428,-0.004459667950868607,0.00404728576540947
1733703629170765600,3.891765625,-0.0024405058939009905,-0.005553293041884899,0.0032218992710113525
1733703629180731600,3.901731689453125,-0.0008892145706340671,-0.013158482499420643,-0.00022529636044055223
1733703629190697700,3.91169775390625,0.0004017917672172189,-0.020105605944991112,-0.002655052114278078
1733703629200664800,3.921664794921875,-0.0016168842557817698,-0.024469196796417236,-0.002676890231668949
1733703629210630700,3.931630615234375,-0.0004100592341274023,-0.027140388265252113,-0.0008943586144596338
1733703629220596700,3.9415966796875,0.0004059333587065339,-0.025996828451752663,0.0007844981737434864
1733703629230563600,3.9515634765625,0.0016103759407997131,-0.02257137931883335,0.002932489849627018
1733703629240529700,3.96152978515625,0.0024215748999267817,-0.017780885100364685,0.002926098182797432
1733703629250495700,3.971495849609375,0.00023288943339139223,-0.009357529692351818,0.0005367097910493612
1733703629260462800,3.981462890625,0.0029336009174585342,-0.002817339263856411,-0.0006582506466656923
1733703629270428700,3.9914287109375,0.0026081104297190905,0.0080417450517416,0.00006354192737489939
1733703629280394800,4.001394775390625,0.004241426941007376,0.01478087343275547,-0.0002962511498481035
1733703629290361600,4.011361572265625,0.0037140592467039824,0.021525196731090546,-0.0003384806914255023
1733703629300327700,4.02132763671875,0.0017787402030080557,0.02040506899356842,-0.004312449600547552
1733703629310293800,4.031293701171875,-0.00043321942212060094,0.021553559228777885,-0.00453813374042511
1733703629320260900,4.0412607421875,-0.003460966981947422,0.014498578384518623,-0.003961825743317604
1733703629330226700,4.051226806640625,-0.004967289511114359,0.005578271578997374,-0.0025069094263017178
1733703629340192800,4.06119287109375,-0.004375002346932888,-0.002581654116511345,0.0016971564618870616
1733703629350159600,4.07115966796875,-0.007014964707195759,-0.007362689822912216,0.0013240545522421598
1733703629360125700,4.081125732421875,-0.0060317255556583405,-0.01026873104274273,0.0003232386661693454
1733703629370091800,4.091091796875,-0.0002978139091283083,-0.016026221215724945,0.004604303278028965
1733703629380059000,4.101058837890625,0.0033102366141974926,-0.01684301346540451,0.005688210017979145
1733703629390024700,4.111024658203125,0.003370721824467182,-0.019006162881851196,0.0034951006527990103
1733703629399990800,4.12099072265625,0.004762756638228893,-0.017488162964582443,0.0009890662040561438
1733703629409957600,4.13095751953125,0.005846085958182812,-0.015747297555208206,-0.002925741719081998
1733703629419923700,4.140923828125,0.006794437766075134,-0.007428647018969059,-0.0062027620151638985
1733703629429889800,4.150889892578125,0.00401739776134491,0.002354120835661888,-0.004557345993816853
1733703629439856600,4.160856689453125,0.0028437429573386908,0.012739915400743484,-0.004732315428555012
1733703629449822700,4.17082275390625,-0.0006494681001640856,0.024205002933740616,-0.002811074024066329
1733703629459788800,4.180788818359375,-0.002789584221318364,0.03251432999968529,-0.0027420984115451574
1733703629469755600,4.190755615234375,-0.005461272783577442,0.03685373067855835,-0.0016252818750217557
1733703629479721700,4.2007216796875,-0.003726489841938019,0.03680526092648506,-0.0015328702284023166
1733703629489687800,4.210687744140625,-0.002005082555115223,0.03628021478652954,0.00021081394515931606
1733703629499654700,4.220654541015625,-0.002962755039334297,0.031156025826931,-0.0013790932716801763
1733703629509620700,4.230620849609375,-0.0027648168615996838,0.026066020131111145,0.000019866041839122772
1733703629519586800,4.2405869140625,-0.002403425984084606,0.019503990188241005,0.0022236318327486515
1733703629529553700,4.2505537109375,-0.004419129341840744,0.01585523784160614,0.0022374424152076244
1733703629539519000,4.26051904296875,-0.003218576544895768,0.01055368222296238,0.0010358241852372885
1733703629549485000,4.270485107421875,-0.0033922146540135145,0.004968234337866306,0.0003511254908517003
1733703629559452200,4.2804521484375,-0.0012230698484927416,-0.0023040594533085823,0.00177778082434088
1733703629569418000,4.29041796875,-0.00013414642307907343,-0.01003818865865469,0.001704848138615489
1733703629579384000,4.300384033203125,-0.00011470535537227988,-0.0163930244743824,0.002632160671055317
1733703629589351200,4.31035107421875,0.002473874483257532,-0.021857965737581253,0.0013044977094978094
1733703629599317000,4.32031689453125,0.003336472436785698,-0.02382338047027588,0.0023290158715099096
1733703629609283000,4.330282958984375,0.0018046749755740166,-0.024394672363996506,0.0016303920419886708
1733703629619250200,4.340250244140625,-0.0011519663967192173,-0.019585002213716507,0.0007219878025352955
1733703629629216000,4.350216064453125,0.00011784088565036654,-0.017434097826480865,-0.0006475979462265968
1733703629639182000,4.36018212890625,-0.0018337235087528825,-0.013208727352321148,-0.0024239264894276857
1733703629649149200,4.370149169921875,0.0003375516680534929,-0.008006774820387363,-0.0016271085478365421
1733703629659115000,4.380114990234375,0.0006390215130522847,-0.0050219036638736725,-0.0024079473223537207
1733703629669082000,4.39008203125,-0.00014021946117281914,-0.0059260474517941475,0.001481599290855229
1733703629679048000,4.4000478515625,0.0005514035001397133,-0.0040298765525221825,0.0017164901364594698
1733703629689014000,4.410013916015625,0.0002559492422733456,-0.0015261052176356316,0.0013988135615363717
1733703629698981000,4.419981201171875,0.00444137305021286,0.0037440243177115917,-0.0005823120009154081
1733703629708947200,4.429947265625,0.003118738066405058,0.008455288596451283,-0.00032527896109968424
1733703629718913000,4.4399130859375,0.0006952614639885724,0.014563513919711113,-0.001716780592687428
1733703629728880000,4.449880126953125,-0.0002536267274990678,0.01634521409869194,-0.0019970599096268415
1733703629738846000,4.459845947265625,-0.0009905233746394515,0.016897551715373993,-0.002716646296903491
1733703629748812000,4.46981201171875,-0.001747859874740243,0.015321849845349789,-0.0034644624684005976
1733703629758779100,4.479779052734375,-0.0008429178269580007,0.010151056572794914,-0.0037837757263332605
1733703629768745200,4.4897451171875,-0.0006959692109376192,0.004528413526713848,-0.002647175220772624
1733703629778711000,4.4997109375,-0.0022882730700075626,-0.0030043376609683037,0.0001669870689511299
1733703629788678100,4.50967822265625,0.0012405773159116507,-0.004502542316913605,0.001415895065292716
1733703629798644000,4.51964404296875,-0.002051356015726924,-0.008218185044825077,0.001960245193913579
1733703629808610000,4.529610107421875,0.000538944557774812,-0.009255355224013329,-0.001096037682145834
1733703629818577200,4.5395771484375,0.0029957108199596405,-0.007888620719313622,-0.0013506358955055475
1733703629828543200,4.549543212890625,0.0013511980650946498,-0.008567903190851212,-0.0024331710301339626
1733703629838509000,4.559509033203125,0.001702735316939652,-0.011977283284068108,-0.0006017150590196252
1733703629848476200,4.56947607421875,-0.0017713475972414017,-0.01040877029299736,0.0007079875795170665
1733703629858442000,4.57944189453125,-0.0020334026776254177,-0.00799541361629963,0.0003063828917220235
1733703629868408000,4.589407958984375,-0.0035848096013069153,-0.00589373242110014,0.0009579844190739095
1733703629878375200,4.599375244140625,-0.0037496592849493027,-0.006205323152244091,0.0007103104144334793
1733703629888341200,4.60934130859375,-0.003196530044078827,-0.004789726808667183,-0.0005896594375371933
1733703629898307000,4.61930712890625,-0.0003639918868429959,-0.005779623053967953,-0.0026224502362310886
1733703629908274200,4.629274169921875,-0.00014369055861607194,-0.0038886405527591705,-0.004620996303856373
1733703629918240000,4.639239990234375,0.0027138812001794577,-0.0023290934041142464,-0.001616417896002531
1733703629928206000,4.6492060546875,0.0027012068312615156,-0.0006524994969367981,-0.0003732918994501233
1733703629938173000,4.6591728515625,0.003924396820366383,0.0030612791888415813,-0.00019778951536864042
1733703629948139000,4.669138916015625,0.003593168221414089,0.008612724021077156,-0.003300109412521124
1733703629958105000,4.67910498046875,0.0049079712480306625,0.011851927265524864,-0.00655422592535615
1733703629968072200,4.689072265625,0.004756364971399307,0.009695255197584629,-0.006866193376481533
1733703629978038000,4.6990380859375,0.004283120855689049,0.008719739504158497,-0.00362113188020885
1733703629988004000,4.709004150390625,0.0009400059934705496,0.007865930907428265,0.0011128280311822891
1733703629997971000,4.718970947265625,-0.0013199524255469441,0.00568373640999198,0.0028883577324450016
1733703630007937000,4.72893701171875,-0.004153179936110973,0.0027962052263319492,0.0019942964427173138
1733703630017903000,4.738903076171875,-0.006581183988600969,0.001798585057258606,0.0018305119592696428
1733703630027870200,4.7488701171875,-0.005762638058513403,0.00371486134827137,0.0007732750382274389
1733703630037836000,4.7588359375,-0.0061298878863453865,0.0031316294334828854,0.0005090894410386682
1733703630047801900,4.7688017578125,-0.004831596743315458,0.003450143150985241,-0.0010664366418495774
1733703630057769000,4.77876904296875,-0.0021926704794168472,-0.0027318522334098816,-0.0019918852485716343
1733703630067735000,4.788735107421875,-0.00044292473467066884,-0.0072286007925868034,0.0015384762082248926
1733703630077701000,4.798701171875,0.0019890740513801575,-0.011488859541714191,0.003435445949435234
1733703630087668200,4.808668212890625,0.0018348197918385267,-0.013283171691000462,0.0021929237991571426
1733703630097634000,4.818634033203125,0.005584018304944038,-0.011035730130970478,0.00024029414635151625
1733703630107600000,4.828599853515625,0.006621864624321461,-0.0060576507821679115,-0.0010356963612139225
1733703630117567000,4.83856689453125,0.004726493265479803,0.0009571146219968796,-0.004019502550363541
1733703630127533000,4.848532958984375,0.004681638441979885,0.004282249137759209,-0.0036432736087590456
1733703630137499100,4.8584990234375,0.00041205863817594945,0.0037352358922362328,-0.004489892162382603
1733703630147466200,4.86846630859375,0.0007296931580640376,0.00304964417591691,-0.0021827276796102524
1733703630157432000,4.87843212890625,-0.0006381063722074032,-0.00021166261285543442,-0.0003736423095688224
1733703630167398000,4.88839794921875,-0.0027918126434087753,-0.00265586469322443,0.002272896934300661
1733703630177365000,4.898364990234375,-0.0007148131262511015,-0.0041754646226763725,0.0025946067180484533
1733703630187331000,4.9083310546875,0.00018281297525390983,-0.001628948375582695,-0.0014228061772882938
1733703630197297200,4.918297119140625,0.001272312132641673,-0.0005053607746958733,-0.0026361423078924417
1733703630207264300,4.92826416015625,0.0029820615891367197,-0.0001200009137392044,-0.0015264030080288649
1733703630217230000,4.93822998046875,0.004083811305463314,0.00422601168975234,-0.0006752568297088146
1733703630227196000,4.94819580078125,0.0030716571491211653,0.005407479126006365,-0.004110392183065414
1733703630237163000,4.9581630859375,0.0012457940028980374,0.0082464087754488,-0.006616692058742046
1733703630247129000,4.968129150390625,0.001663415809161961,0.007741236127912998,-0.00435192184522748
1733703630257095200,4.97809521484375,0.0021592965349555016,0.005219755228608847,-0.001080494956113398
1733703630267062300,4.988062255859375,-0.0002959230332635343,0.00247954111546278,0.001211353112012148
1733703630277028000,4.998028076171875,0.0017954574432224035,0.0022124256938695908,0.0023080429527908564
1733703630286994000,5.007993896484375,-0.002382016507908702,0.004709774628281593,0.0022607643622905016
1733703630296961000,5.0179609375,-0.0036914926022291183,0.006121250335127115,0.003463447792455554
1733703630306926800,5.0279267578125,-0.0022504162043333054,0.007921405136585236,0.00047484191600233316
1733703630316893200,5.03789306640625,-0.003339116694405675,0.007369598373770714,0.0011630028020590544
1733703630326860300,5.0478603515625,-0.0012133634882047772,0.011695423163473606,0.0009798207320272923
1733703630336826000,5.057826171875,-0.0030115297995507717,0.011472516693174839,-0.0011624260805547237
1733703630346792000,5.0677919921875,-0.003570432309061289,0.013112225569784641,-0.00034468225203454494
1733703630356759000,5.077759033203125,-0.0010737188858911395,0.013772423379123211,-0.0020128863397985697
1733703630366724900,5.087724853515625,0.0029986342415213585,0.013642283156514168,-0.0017688646912574768
1733703630376691200,5.097691162109375,0.0007301535806618631,0.013157853856682777,-0.002404295140877366
1733703630386658000,5.107657958984375,0.0031310326885432005,0.00877232477068901,-0.0017759146867319942
1733703630396624100,5.1176240234375,0.002650332171469927,0.004629777278751135,-0.0011950790649279952
1733703630406590000,5.12758984375,0.00036598596489056945,0.002584217581897974,-0.0023311341647058725
1733703630416557000,5.13755712890625,0.0010789141524583101,0.0019173622131347656,0.0010548089630901814
1733703630426523000,5.14752294921875,-0.0013843383640050888,0.0009493017569184303,0.0010658407118171453
1733703630436489200,5.1574892578125,-0.002723375800997019,-0.000021686777472496033,0.0014714401913806796
1733703630446456000,5.1674560546875,-0.0019448389066383243,0.0007759314030408859,0.0015549506060779095
1733703630456422100,5.177422119140625,0.0001894183806143701,0.0009176116436719894,0.0013237881939858198
1733703630466388000,5.187387939453125,0.00014169176574796438,0.003987790085375309,0.0004038931801915169
1733703630476355000,5.19735498046875,0.0035731750540435314,0.006224312353879213,-0.0012328856391832232
1733703630486321000,5.20732080078125,0.0023299723397940397,0.0049379183910787106,-0.002082281978800893
1733703630496287200,5.217287353515625,0.00366394966840744,0.003928047604858875,-0.0013999801594763994
1733703630506254000,5.227254150390625,-0.0002247031661681831,0.0013319989666342735,-0.00004321231972426176
1733703630516220200,5.23722021484375,0.0009492182289250195,0.0014334656298160553,0.001860148855485022
1733703630526186000,5.24718603515625,0.0004740542790386826,0.0028287824243307114,0.0014561080606654286
1733703630536153000,5.257153076171875,0.00017578026745468378,0.00203729048371315,0.0010550359729677439
1733703630546119000,5.267118896484375,-0.002647225745022297,0.0016490882262587547,0.0012302319519221783
1733703630556085000,5.2770849609375,-0.0018229774432256818,-0.0020415205508470535,0.002422262914478779
1733703630566051800,5.2870517578125,-0.0020531800109893084,-0.00200547743588686,0.0020642210729420185
1733703630576018200,5.29701806640625,-0.002361574210226536,-0.0020408974960446358,0.0029268190264701843
1733703630585984000,5.30698388671875,-0.0014213141985237598,-0.001203286461532116,0.0033566553611308336
1733703630595951000,5.316951171875,0.001699644373729825,0.0007645236328244209,0.00338754802942276
1733703630605917000,5.3269169921875,0.004015844780951738,-0.0006938260048627853,-0.0010800966992974281
1733703630615883000,5.336883056640625,-0.0002396201598457992,0.0029634935781359673,-0.001213520998135209
1733703630625849900,5.346849853515625,-0.0007254825322888792,0.004779550712555647,-0.001892358879558742
1733703630635816200,5.356816162109375,-0.0025111320428550243,0.006077841389924288,-0.0017054051859304309
1733703630645782000,5.366781982421875,-0.00008068460738286376,0.009474208578467369,-0.0006481721065938473
1733703630655749000,5.3767490234375,0.0011784579837694764,0.007639024406671524,0.00038779759779572487
1733703630665715000,5.38671484375,-0.00003929465310648084,0.004770628176629543,0.001685635419562459
1733703630675681000,5.396680908203125,0.0018816434312611818,0.0006893333047628403,0.0012169191613793373
1733703630685648000,5.40664794921875,0.0036854634527117014,0.00023566465824842453,-0.0009142563212662935
1733703630695614200,5.4166142578125,0.0010550592560321093,-0.002482358366250992,-0.002884196350350976
1733703630705580000,5.426580078125,0.0004964248510077596,-0.003955886699259281,-0.003184716682881117
1733703630715547100,5.436547119140625,0.0012197394389659166,-0.004017938859760761,-0.00021635706070810556
1733703630725513000,5.446512939453125,-0.0012918318388983607,0.00047206413000822067,0.0009746478172019124
1733703630735479000,5.45647900390625,-0.0016881102928891778,0.008510815910995007,-0.0006078025326132774
1733703630745446000,5.46644580078125,0.00026750151300802827,0.011477000080049038,0.0002456642687320709
1733703630755412200,5.476412109375,0.0011370235588401556,0.014867204241454601,-0.00008776341564953327
1733703630765378000,5.4863779296875,0.0006702766404487193,0.017118284478783607,-0.0014394705649465322
1733703630775345200,5.49634521484375,0.0007946462137624621,0.017964636906981468,-0.0007430538535118103
1733703630785311000,5.50631103515625,-0.0038655472453683615,0.015052780508995056,0.00020168116316199303
1733703630795277000,5.516277099609375,-0.0041427817195653915,0.007273420225828886,0.0040946900844573975
1733703630805244000,5.526243896484375,-0.0047963447868824005,-0.0005679987370967865,0.002299829153344035
1733703630815210000,5.5362099609375,-0.004302594810724258,-0.006401119753718376,0.0003264268161728978
1733703630825176000,5.546176025390625,-0.004932478070259094,-0.012684393674135208,0.0014443155378103256
1733703630835143200,5.55614306640625,-0.004179069772362709,-0.01660430058836937,0.003432098776102066
1733703630845109000,5.56610888671875,-0.0016563570825383067,-0.017665792256593704,0.0042090085335075855
1733703630855075000,5.576074951171875,0.00020306202350184321,-0.02028634399175644,0.0021629021503031254
1733703630865042000,5.5860419921875,0.0032212804071605206,-0.016228308901190758,0.003532707691192627
1733703630875008000,5.596008056640625,0.0031491087283939123,-0.010513165965676308,0.002822709036991
1733703630884974000,5.60597412109375,0.0038826994132250547,-0.0032990602776408195,0.0013359972508624196
1733703630894941200,5.615941162109375,0.006371423602104187,0.0020320555195212364,-0.0023247841745615005
1733703630904907000,5.625906982421875,0.004624489229172468,0.010256384499371052,-0.00611007260158658
1733703630914873000,5.635873046875,0.003314746543765068,0.010827632620930672,-0.0053449468687176704
1733703630924840000,5.64583984375,0.0031497355084866285,0.012462192215025425,-0.004367452580481768
1733703630934806000,5.655805908203125,0.0019009793177247047,0.010334325954318047,-0.0027269450947642326
1733703630944772000,5.665772216796875,-0.00022965436801314354,0.00619772681966424,-0.0020213215611875057
1733703630954739200,5.6757392578125,-0.0011308680986985564,0.003238155972212553,0.0024352120235562325
1733703630964705000,5.685705078125,-0.002747240010648966,0.0010165926069021225,0.0036248452961444855
1733703630974671000,5.695671142578125,-0.0007298956043086946,0.00012283585965633392,0.0036852993071079254
1733703630984638000,5.705637939453125,-0.0019010624382644892,-0.002090170979499817,0.004616525024175644
1733703630994604000,5.71560400390625,-0.00220785872079432,-0.0028531672433018684,0.004423446021974087
1733703631004570000,5.725570068359375,-0.003188640344887972,-0.0005837893113493919,0.0044940258376300335
1733703631014537200,5.735537109375,-0.0027524144388735294,0.0035875197499990463,0.0014713379787281156
1733703631024503000,5.7455029296875,0.00021622137865051627,0.008067665621638298,-0.0008983822772279382
1733703631034469000,5.75546923828125,0.000519022811204195,0.008670604787766933,-0.0018043896416202188
1733703631044436000,5.76543603515625,0.0008096685633063316,0.010838951915502548,-0.0020801397040486336
1733703631054402000,5.775402099609375,0.0005428198492154479,0.008015734143555164,0.000233348342590034
1733703631064368000,5.7853681640625,-0.0003155203303322196,0.008582230657339096,0.0016087552066892385
1733703631074335000,5.7953349609375,-0.0001352242543362081,0.011208640411496162,0.0017674796981737018
1733703631084301000,5.805301025390625,0.0003634277090895921,0.010691855102777481,0.001728826784528792
1733703631094267100,5.81526708984375,-0.0011846678098663688,0.013117196038365364,0.0006680898368358612
1733703631104234000,5.82523388671875,-0.00016904639778658748,0.012752740643918514,0.0009770534234121442
1733703631114200000,5.835199951171875,-0.0033906721509993076,0.011465635150671005,0.0001301682787016034
1733703631124166000,5.845165771484375,-0.002052369061857462,0.01121112797409296,0.00014028954319655895
1733703631134133000,5.855133056640625,-0.0003327659796923399,0.009487796574831009,-0.0001910076243802905
1733703631144099000,5.86509912109375,-0.0005784269887953997,0.008523685857653618,0.0017742139752954245
1733703631154065200,5.875065185546875,0.00006952014518901706,0.008088791742920876,0.00016806158237159252
1733703631164032000,5.885031982421875,0.0016304021701216698,0.004800543654710054,-0.0004121256060898304
1733703631173998000,5.894998046875,-0.00045165722258388996,0.0058484976179897785,-0.00039907614700496197
1733703631183964000,5.9049638671875,0.000037361111026257277,0.0052582090720534325,-0.0024418355897068977
1733703631193931000,5.914930908203125,-0.0014169909991323948,0.004247539676725864,-0.0012817626120522618
1733703631203897000,5.92489697265625,0.0004515349573921412,0.003687432035803795,-0.0001675718231126666
1733703631213863200,5.93486328125,0.0013628687011078,0.0059212916530668736,-0.0002464015269652009
1733703631223830000,5.944830078125,-0.0008605571929365396,0.004748167935758829,0.000503621413372457
1733703631233796000,5.954796142578125,-0.002272831741720438,0.0018298765644431114,0.0007345174672082067
1733703631243762000,5.964761962890625,0.000999979441985488,0.003085247240960598,0.0007706602336838841
1733703631253729000,5.97472900390625,0.0009954521665349603,0.0030311853624880314,0.0017080929828807712
1733703631263695000,5.984695068359375,0.0013133747270330787,0.0012858780100941658,-0.0013807961950078607
1733703631273661200,5.9946611328125,-0.001512771937996149,-0.0001588873565196991,0.0010440119076520205
1733703631283628000,6.0046279296875,-0.001762043684720993,-0.001186867244541645,-0.0003003518795594573
1733703631293594000,6.014593994140625,-0.0017234280239790678,-0.0024148505181074142,0.001882108743302524
1733703631303560000,6.024559814453125,-0.001399052212946117,-0.0011514890938997269,0.0030404336284846067
1733703631313527000,6.034527099609375,-0.0030779088847339153,-0.0049949632957577705,0.0025378952268511057
1733703631323493000,6.0444931640625,-0.0038093707989901304,-0.006894993595778942,0.003952795639634132
1733703631333459200,6.054459228515625,-0.003192050149664283,-0.00658553559333086,0.002251035301014781
1733703631343426000,6.064426025390625,-0.0005038058152422309,-0.004470454528927803,0.002077205339446664
1733703631353392000,6.07439208984375,0.0017817190382629633,-0.003766048699617386,0.00000899436417967081
1733703631363358000,6.08435791015625,-0.00006810930790379643,-0.0053354911506175995,-0.0006122052436694503
1733703631373325000,6.094324951171875,0.0009401635034009814,-0.0023397011682391167,0.0006613183068111539
1733703631383291000,6.104290771484375,0.00045392668107524514,0.0003590583801269531,-0.002258799271658063
1733703631393257200,6.11425732421875,0.00040252768667414784,0.004075765609741211,-0.0005258806049823761
1733703631403224000,6.12422412109375,-0.001595779089257121,0.004993485286831856,-0.0005615369882434607
1733703631413190100,6.134190185546875,0.004382750950753689,0.005158601328730583,0.00022249773610383272
1733703631423156000,6.144156005859375,0.003619464812800288,0.004775023087859154,-0.0029497758951038122
1733703631433123000,6.154123046875,0.002866855589672923,0.0012460686266422272,-0.003925291821360588
1733703631443089000,6.1640888671875,0.004759133327752352,-0.0009622722864151001,-0.002333521842956543
1733703631453055200,6.17405517578125,0.0032129017636179924,-0.003943414427340031,-0.0008932846831157804
1733703631463022000,6.18402197265625,-0.001325393095612526,0.0002098260447382927,-0.0007088443962857127
1733703631472988200,6.19398828125,-0.001291837077587843,0.007446433417499065,-0.0011067207669839263
1733703631482954000,6.2039541015625,-0.0013649942120537162,0.014581000432372093,-0.0027868342585861683
1733703631492921000,6.213921142578125,0.001720011467114091,0.01455729827284813,-0.005571701563894749
1733703631502887000,6.223886962890625,0.00011777604231610894,0.01513307448476553,-0.0035681636072695255
1733703631512853200,6.233853271484375,-0.0008406956912949681,0.009140695445239544,-0.0007875569863244891
1733703631522820000,6.243820068359375,-0.0032294392585754395,0.006098124198615551,0.0008791270665824413
1733703631532786200,6.2537861328125,-0.005496321711689234,0.0006330516189336777,0.002984089544042945
1733703631542753000,6.2637529296875,-0.006442276760935783,-0.0025563500821590424,0.0038964885752648115
1733703631552720100,6.27372021484375,-0.006815385539084673,-0.004573161713778973,0.0015241446672007442
1733703631562686000,6.28368603515625,-0.006162919104099274,-0.006326994858682156,0.0001461427891626954
1733703631572652000,6.293652099609375,-0.003550891065970063,-0.011200313456356525,-0.00020805769599974155
1733703631582619000,6.303618896484375,-0.0004994938499294221,-0.013954774476587772,-0.00017708807718008757
1733703631592585000,6.3135849609375,0.0030518313869833946,-0.016998767852783203,0.0009568859823048115
1733703631602551000,6.323551025390625,0.0046585253439843655,-0.016316059976816177,0.0021394086070358753
1733703631612518100,6.33351806640625,0.006434055045247078,-0.0117886858060956,0.0006642837543040514
1733703631622484000,6.34348388671875,0.0055699218064546585,-0.0030858758836984634,-0.0018728526774793863
1733703631632450000,6.353449951171875,0.0034654922783374786,0.0039182379841804504,-0.0033245417289435863
1733703631642417000,6.3634169921875,0.002018215134739876,0.010361669585108757,-0.0070629483088850975
1733703631652383000,6.373383056640625,-0.00006730639142915606,0.013261052779853344,-0.00997112039476633
1733703631662349000,6.38334912109375,-0.00048665329813957214,0.014073536731302738,-0.007521279156208038
1733703631672316200,6.393316162109375,-0.00005042750854045153,0.012710796669125557,-0.006207807920873165
1733703631682282000,6.403281982421875,-0.000890759751200676,0.008737717755138874,-0.0031908266246318817
1733703631692248000,6.413248046875,-0.004386425018310547,-0.0014424817636609077,-0.0011886621359735727
1733703631702215000,6.42321484375,-0.0055917780846357346,-0.006342308595776558,0.0015428576152771711
1733703631712181000,6.433180908203125,-0.006791265681385994,-0.012753870338201523,0.003523983061313629
1733703631722147000,6.44314697265625,-0.0018764438573271036,-0.017773251980543137,0.006540554575622082
1733703631732114200,6.4531142578125,-0.0020562070421874523,-0.02327214553952217,0.006450273096561432
1733703631742080000,6.463080078125,-0.0009881226578727365,-0.020861588418483734,0.005766677670180798
1733703631752046000,6.473046142578125,-0.0023681726306676865,-0.014018328860402107,0.0031921998597681522
1733703631762013000,6.483012939453125,-0.003828019369393587,-0.006702058017253876,-0.0003665520343929529
1733703631771979000,6.49297900390625,-0.0029052342288196087,0.0014064684510231018,-0.0056883469223976135
1733703631781945000,6.502945068359375,0.00013295933604240417,0.006470302119851112,-0.00628169160336256
1733703631791912200,6.512912109375,-0.00010699144331738353,0.00865515973418951,-0.005471824202686548
1733703631801878000,6.5228779296875,-0.0017840723739936948,0.009606660343706608,-0.0015335835050791502
1733703631811844000,6.532843994140625,0.001184819615446031,0.008342191576957703,0.0001820249017328024
1733703631821811000,6.54281103515625,0.000521454552654177,0.007108601741492748,0.0018416219390928745
1733703631831777000,6.552777099609375,0.0006660642102360725,0.005426815710961819,0.002211801242083311
1733703631841743000,6.5627431640625,0.0007330172811634839,0.0057359556667506695,0.0014434701297432184
1733703631851710200,6.572710205078125,0.0005628413055092096,0.00581425242125988,-0.0006425839383155107
1733703631861676000,6.582676025390625,-0.0015258147614076734,0.0015960503369569778,-0.002635861746966839
1733703631871642000,6.59264208984375,-0.0013021092163398862,-0.0011073239147663116,-0.0008131942013278604
1733703631881609000,6.60260888671875,-0.0015864861197769642,-0.002995772287249565,0.0012644126545637846
1733703631891575000,6.612574951171875,-0.00150792277418077,-0.0029028281569480896,0.002931551542133093
1733703631901541000,6.622541015625,0.0020558179821819067,-0.003462844528257847,-0.0006935420678928494
1733703631911508000,6.632508056640625,0.0020701992325484753,0.0010765139013528824,-0.0008450759341940284
1733703631921474000,6.64247412109375,0.00525415875017643,0.0025974344462156296,-0.003399093635380268
1733703631931440000,6.652440185546875,0.003917251713573933,-0.0010385792702436447,-0.004000967834144831
1733703631941407000,6.662406982421875,0.004031077492982149,-0.0018494157120585442,-0.004177187569439411
1733703631951373000,6.672373046875,0.0032505053095519543,-0.0026219990104436874,0.00039892212953418493
1733703631961339000,6.6823388671875,0.000513253384269774,-0.004661894403398037,-0.0010418882593512535
1733703631971306000,6.692305908203125,0.0007982116076163948,-0.00756633747369051,-0.000791018595919013
1733703631981272000,6.70227197265625,-0.0006254996987991035,-0.006405637599527836,0.0016635447973385453
1733703631991238100,6.712238037109375,-0.00018687703413888812,-0.006318018771708012,0.0019311924697831273
1733703632001205000,6.722205078125,0.0004460910859052092,-0.003508209250867367,0.00165661983191967
1733703632011171000,6.732171142578125,-0.00020158966071903706,-0.001139061525464058,0.0012912341626361012
1733703632021137000,6.742136962890625,0.0022300982382148504,-0.0032973289489746094,-0.0010488461703062057
1733703632031104000,6.75210400390625,0.0030668633989989758,-0.0032842792570590973,-0.002347403671592474
1733703632041070000,6.762070068359375,0.0005271038971841335,-0.0022411225363612175,-0.0013419096358120441
1733703632051036200,6.7720361328125,-0.000685433391481638,-0.0020906534045934677,0.0003049891674891114
1733703632061003000,6.7820029296875,-0.003237772500142455,-0.0005335081368684769,0.0006452178349718451
1733703632070969000,6.791968994140625,-0.0018023287411779165,0.00009872671216726303,0.0005919546820223331
1733703632080935000,6.801934814453125,-0.002681633224710822,0.001412111334502697,-0.0009979824535548687
1733703632090902000,6.811902099609375,0.000986871193163097,0.005478758830577135,-0.0015487242490053177
1733703632100868000,6.8218681640625,0.0018673648592084646,0.003432873636484146,-0.003275328315794468
1733703632110834200,6.831834228515625,0.0015611012931913137,-0.0012311199679970741,-0.0019296329701319337
1733703632120801000,6.841801025390625,0.0007088435813784599,-0.006224054843187332,0.0014939021784812212
1733703632130767000,6.85176708984375,-0.001412364304997027,-0.008516505360603333,0.003347195917740464
1733703632140733000,6.86173291015625,-0.001368109486065805,-0.007967852056026459,0.001579880714416504
1733703632150700000,6.871699951171875,-0.0013726368779316545,-0.005417343229055405,0.0018547188956290483
1733703632160666000,6.881666015625,0.0002934078511316329,-0.0026875128969550133,-0.00031724246218800545
1733703632170632200,6.891632080078125,0.0018367096781730652,0.0009647468104958534,-0.00272820214740932
1733703632180598000,6.901597900390625,0.003906336147338152,0.0027475557290017605,-0.004086753353476524
1733703632190565000,6.911565185546875,0.0037564001977443695,0.0013752290979027748,-0.004232694394886494
1733703632200531000,6.921531005859375,0.0035136849619448185,-0.0007685702294111252,-0.0019327871268615127
1733703632210497000,6.9314970703125,0.000702984631061554,-0.0031523657962679863,-0.00158577726688236
1733703632220463900,6.9414638671875,0.000907240086235106,0.00043800752609968185,-0.001972669269889593
1733703632230430200,6.95143017578125,0.004718489944934845,0.0034745438024401665,-0.0023247390054166317
1733703632240396000,6.96139599609375,0.005898590199649334,0.007844439707696438,-0.004712487570941448
1733703632250363100,6.971363037109375,0.004841048736125231,0.009259377606213093,-0.004177192226052284
1733703632260329000,6.981328857421875,0.0017766556702554226,0.00899327639490366,-0.00006794184446334839
1733703632270295000,6.991294921875,-0.003974973224103451,0.007990863174200058,0.00044977664947509766
1733703632280262000,7.001261962890625,-0.0046767620369791985,0.007176083512604237,0.0004663023864850402
1733703632290228200,7.011228271484375,-0.006736717186868191,0.0031789452768862247,0.003154230769723654
1733703632300194000,7.021194091796875,-0.0073056770488619804,0.0007880916818976402,0.0026147118769586086
1733703632310161200,7.0311611328125,-0.006857200991362333,-0.0007410962134599686,0.002359580947086215
1733703632320127000,7.041126953125,-0.003995104227215052,-0.0015581119805574417,0.0017424102406948805
1733703632330093000,7.051093017578125,-0.003196688834577799,0.0009575104340910912,-0.0006112914998084307
1733703632340060000,7.061059814453125,0.0010374686680734158,0.0001820772886276245,-0.0004280357388779521
1733703632350026200,7.071026123046875,0.003421264234930277,-0.0015132902190089226,0.0005216475110501051
1733703632359992000,7.080991943359375,0.0041752764955163,-0.0035506412386894226,-0.0006404707673937082
1733703632369959200,7.090959228515625,0.0057358890771865845,-0.005347742699086666,-0.0012929453514516354
1733703632379925000,7.100925048828125,0.006368853151798248,-0.011687710881233215,-0.0024821620900183916
1733703632389891000,7.11089111328125,0.006259397603571415,-0.010656269267201424,-0.0011636312119662762
1733703632399858000,7.12085791015625,0.006504463963210583,-0.0055428193882107735,-0.0005111168138682842
1733703632409824300,7.13082421875,0.00384582974947989,-0.003392583690583706,-0.0020112753845751286
1733703632419790000,7.1407900390625,0.0026108119636774063,0.0021871784701943398,-0.0042060669511556625
1733703632429757200,7.150757080078125,-0.0009801944252103567,0.006636787671595812,-0.003350126789882779
1733703632439723000,7.160722900390625,-0.0009878516430035233,0.007750572171062231,-0.0015209487173706293
1733703632449689000,7.170689208984375,-0.004410013556480408,0.006910877302289009,0.00041064200922846794
1733703632459656000,7.180656005859375,-0.0022308100014925003,0.005371703300625086,-0.0005181545857340097
1733703632469622000,7.1906220703125,-0.0008526240126229823,0.002119717188179493,0.0027554030530154705
1733703632479588000,7.200588134765625,0.00018250953871756792,-0.0012705754488706589,0.004076480865478516
1733703632489555200,7.21055517578125,0.0017050387104973197,-0.005946021527051926,0.0026548851747065783
1733703632499521000,7.22052099609375,-0.00041724572656676173,-0.004147765226662159,0.0019515855237841606
1733703632509487000,7.230487060546875,0.00007756956620141864,0.000056034885346889496,-0.0002628328511491418
1733703632519454000,7.240453857421875,0.0009648359846323729,0.005548581015318632,-0.002198686357587576
1733703632529420000,7.250419921875,0.0007136998465284705,0.008689779788255692,-0.0014468759763985872
1733703632539386000,7.26038623046875,0.00031761694117449224,0.009302832186222076,-0.002466567326337099
1733703632549352700,7.270352783203125,-0.0007029063999652863,0.005997848697006702,0.001152668846771121
1733703632559318800,7.28031884765625,-0.0012045386247336864,0.004806752782315016,0.002255980856716633
1733703632569284600,7.29028466796875,-0.0009374234941788018,0.0021838052198290825,0.0033561326563358307
1733703632579251700,7.300251708984375,-0.0011538646649569273,0.0023531876504421234,0.0025699303951114416
1733703632589217500,7.310217529296875,-0.0007839516038075089,0.005837667267769575,0.0020399612840265036
1733703632599184000,7.320183837890625,-0.0013588909059762955,0.006721393205225468,-0.0006134957075119019
1733703632609150700,7.330150634765625,-0.000730118656065315,0.009230623953044415,-0.0014936705119907856
1733703632619116800,7.34011669921875,-0.0007221883861348033,0.006935679353773594,-0.00024119403678923845
1733703632629082600,7.35008251953125,-0.0005791765870526433,0.007696011569350958,-0.0013493354199454188
1733703632639049700,7.3600498046875,0.0019923225045204163,0.007085046265274286,-0.0008281093323603272
1733703632649015600,7.370015625,0.0021411930210888386,0.006249346304684877,-0.0007809713715687394
1733703632658982000,7.37998193359375,0.002757077105343342,0.006318944506347179,-0.0015331616159528494
1733703632668948700,7.38994873046875,0.0008278830209746957,0.003760978113859892,-0.0015065299812704325
1733703632678914800,7.399914794921875,0.0019064632942900062,0.0037961318157613277,-0.002052478026598692
1733703632688880600,7.409880615234375,-0.0007441809866577387,0.0028634928166866302,-0.0008556535467505455
1733703632698847700,7.41984765625,-0.0019014292629435658,-0.0004965271800756454,0.0005660946480929852
1733703632708813600,7.4298134765625,-0.0010409620590507984,-0.0037157563492655754,0.0012137754820287228
1733703632718780000,7.43977978515625,-0.0020178575068712234,-0.006174920126795769,0.002694417256861925
1733703632728746800,7.449746826171875,-0.0025632730685174465,-0.007448974996805191,0.00376261118799448
1733703632738712800,7.459712890625,-0.000019534840248525143,-0.00613506231456995,0.004459749907255173
1733703632748678700,7.4696787109375,-0.00006108015077188611,-0.004655143246054649,0.0018682277295738459
1733703632758645800,7.479645751953125,-0.00003562204074114561,-0.004577247425913811,0.002921544946730137
1733703632768611600,7.489611572265625,0.0006386903114616871,-0.001539645716547966,0.0029505733400583267
1733703632778578000,7.499577880859375,0.000025734480004757643,-0.0017162635922431946,-0.001290515181608498
1733703632788544800,7.509544677734375,-0.0018195698503404856,-0.004391674883663654,-0.0006827817996963859
1733703632798510800,7.5195107421875,-0.002626933855935931,-0.00606130063533783,0.0004955133190378547
1733703632808476700,7.5294765625,-0.0006410148344002664,-0.004253813996911049,0.0006206817924976349
1733703632818443800,7.53944384765625,-0.0017547942698001862,-0.002263179048895836,0.004754334222525358
1733703632828409600,7.54940966796875,-0.0005411918391473591,0.0016202423721551895,0.0027013032231479883
1733703632838375700,7.559375732421875,-0.0017861740197986364,0.005191086791455746,-0.0012512539979070425
1733703632848342800,7.5693427734375,0.00017604301683604717,0.010139772668480873,-0.0018411441706120968
1733703632858308900,7.579308837890625,0.0005156127735972404,0.011565683409571648,-0.00391028169542551
1733703632868274700,7.589274658203125,0.0007848583627492189,0.007239910773932934,-0.0020330194383859634
1733703632878241800,7.59924169921875,-0.001084052724763751,-0.0008872579783201218,0.0007353526307269931
1733703632888207600,7.60920751953125,-0.001786062028259039,-0.002422303892672062,0.0024669398553669453
1733703632898173700,7.619173583984375,-0.0015248643467202783,-0.005063915625214577,0.0024620648473501205
1733703632908140500,7.629140625,-0.00031925132498145103,-0.0037387264892458916,0.0029291831888258457
1733703632918107000,7.63910693359375,0.0001817950396798551,-0.0024017207324504852,0.003231945913285017
1733703632928072700,7.64907275390625,-0.00042913417564705014,0.001400207169353962,-0.0011007506400346756
1733703632938039800,7.659039794921875,0.0007058528135530651,0.005735840182751417,-0.0038048371206969023
1733703632948005600,7.669005615234375,-0.00021347036818042397,0.006889522075653076,-0.003857034957036376
1733703632957971700,7.6789716796875,0.0007679094560444355,0.0023386292159557343,-0.0021736840717494488
1733703632967938600,7.6889384765625,-0.0008803208475001156,0.00034392159432172775,-0.00012784358114004135
1733703632977905000,7.69890478515625,0.0026631152722984552,0.0037456080317497253,0.00009588862303644419
1733703632987870700,7.70887060546875,0.0022106440737843513,0.010261031799018383,0.0010421096812933683
1733703632997837800,7.718837890625,0.002002837136387825,0.015197183936834335,-0.0013862912310287356
1733703633007803600,7.7288037109375,0.0008851084276102483,0.01648162677884102,-0.0046180374920368195
1733703633017769700,7.738769775390625,-0.0012818326940760016,0.01806059665977955,-0.0019437794107943773
1733703633027736600,7.748736572265625,-0.002432052046060562,0.017083749175071716,0.0003425444010645151
1733703633037703000,7.758702880859375,-0.004623642656952143,0.013888886198401451,0.0010621667606756091
1733703633047668700,7.768668701171875,-0.007321691140532494,0.0023307669907808304,0.0022893513087183237
1733703633057635800,7.7786357421875,-0.006806518416851759,-0.0068095652386546135,0.0028282918501645327
1733703633067601700,7.7886015625,-0.005065609700977802,-0.013376121409237385,0.001243444625288248
1733703633077567700,7.798567626953125,-0.004476616159081459,-0.0154983876273036,0.0025896020233631134
1733703633087534600,7.80853466796875,-0.0013575219782069325,-0.01703556627035141,0.002228477504104376
1733703633097501000,7.8185009765625,0.002040928229689598,-0.01649787276983261,0.00213446794077754
1733703633107466800,7.828466796875,0.0040622674860060215,-0.015050976537168026,0.0016854589339345694
1733703633117433900,7.838433837890625,0.006437016651034355,-0.011720286682248116,0.0021252292208373547
1733703633127399700,7.848399658203125,0.004358152858912945,-0.005306330509483814,0.0006692790193483233
1733703633137365800,7.85836572265625,0.004514690488576889,0.00011409074068069458,-0.0003342386335134506
1733703633147331800,7.868331787109375,0.0020142486318945885,0.001092802733182907,-0.0017704814672470093
1733703633157298700,7.878298583984375,0.0016356080304831266,0.0007624374702572823,-0.003491530194878578
1733703633167264800,7.8882646484375,0.001832681940868497,-0.000994715839624405,-0.002490980550646782
1733703633177230800,7.89823095703125,0.0017593810334801674,-0.0022659339010715485,-0.001324784243479371
1733703633187197700,7.90819775390625,-0.001234810915775597,-0.003334927372634411,0.0017093552742153406
1733703633197163800,7.918163818359375,-0.0019098104676231742,-0.0055465903133153915,0.0025699010584503412
1733703633207129600,7.928129638671875,-0.0028347265906631947,-0.005146849900484085,0.0039297109469771385
1733703633217096700,7.9380966796875,-0.0036137488204985857,-0.0016128355637192726,0.0029708966612815857
1733703633227062800,7.948062744140625,-0.0008541811839677393,0.001530759036540985,0.0016662140842527151
1733703633237028900,7.95802880859375,-0.0007591583416797221,0.002805126830935478,0.0009373827488161623
1733703633246995700,7.96799560546875,-0.001496587647125125,0.005448313895612955,0.0008857174543663859
1733703633256961800,7.9779619140625,-0.000527638359926641,0.006438596174120903,0.000803224160335958
1733703633266927600,7.987927734375,-0.00018355791689828038,0.007944347336888313,-0.0025180038064718246
1733703633276894700,7.997894775390625,0.0022269864566624165,0.00791395828127861,-0.00287923077121377
1733703633286860800,8.00786083984375,0.0013449476100504398,0.0043075052089989185,-0.0017327399691566825
1733703633296827000,8.017826904296875,0.0009238946950063109,0.003837010357528925,0.0017033065669238567
1733703633306793700,8.027793701171875,0.00012254947796463966,0.0020076846703886986,0.0013155502965673804
1733703633316759800,8.037759765625,-0.00016256689559668303,0.005045154131948948,0.003109152428805828
1733703633326725600,8.0477255859375,-0.002498691901564598,0.006961831357330084,0.001016706693917513
1733703633336692700,8.057692626953125,-0.001369247678667307,0.007532588671892881,0.0002895474899560213
1733703633346658800,8.067658935546875,-0.0028435736894607544,0.007975738495588303,-0.00015120580792427063
1733703633356625000,8.077625,-0.004779374692589045,0.005154153797775507,-0.00045272253919392824
1733703633366591700,8.087591796875,-0.0029351357370615005,0.003585285507142544,0.00023543823044747114
1733703633376557800,8.097557861328125,-0.00314519414678216,0.0008582230657339096,0.0010715138632804155
1733703633386523600,8.107523681640625,-0.00164556794334203,-0.0017122598364949226,0.000983629608526826
1733703633396490800,8.11749072265625,0.0005648984224535525,-0.0014690309762954712,0.0010890531120821834
1733703633406456800,8.127456787109375,0.0012756960932165384,-0.00003252178430557251,0.0005841177189722657
1733703633416423000,8.1374228515625,0.0002577817940618843,0.0015918249264359474,0.00023052562028169632
1733703633426389800,8.1473896484375,0.0003430029610171914,0.0031348601914942265,-0.001633154577575624
1733703633436355800,8.15735595703125,-0.0013537508202716708,0.0020505059510469437,-0.0032871118746697903
1733703633446321700,8.16732177734375,0.0005871609319001436,0.0009319782257080078,-0.0024929572828114033
1733703633456288800,8.177288818359376,0.0008701486513018608,0.00020905956625938416,0.00007243582513183355
1733703633466254600,8.187254638671876,-0.0014758299803361297,0.0030056447722017765,-0.0007704547606408596
1733703633476221000,8.197220947265626,0.00159650098066777,-0.00019020214676856995,-0.0013694844674319029
1733703633486187800,8.207187744140626,0.0011869068257510662,-0.0024509597569704056,-0.0003460317384451628
1733703633496153900,8.21715380859375,-0.000036923971492797136,-0.004037351347506046,0.0014672863762825727
1733703633506119700,8.22711962890625,0.001581745338626206,-0.006123671308159828,0.0016342665767297149
1733703633516086800,8.237086669921876,0.002532560843974352,-0.0067450134083628654,0.001988282660022378
1733703633526052600,8.247052490234376,-0.0003290058230049908,-0.006286683492362499,0.0022905515506863594
1733703633536019000,8.25701904296875,-0.0014376884792000055,-0.006586202420294285,-0.0007518542697653174
1733703633545985000,8.266985107421876,-0.001941558439284563,-0.006545188836753368,0.0010079627390950918
1733703633555950800,8.276950927734376,-0.0030846428126096725,-0.005173306912183762,0.0026003625243902206
1733703633565917000,8.2869169921875,-0.0035887788981199265,-0.003911235369741917,0.0021313796751201153
1733703633575884000,8.296884033203124,-0.0040873754769563675,-0.0013449685648083687,0.0024726882111281157
1733703633585850000,8.30685009765625,-0.001108097261749208,0.0002755653113126755,-0.0004791595274582505
1733703633595816000,8.31681591796875,-0.0002820948138833046,0.001439576968550682,-0.0018103367183357477
1733703633605783000,8.326782958984374,-0.0004844950744882226,-0.001582845114171505,-0.0035294073168188334
1733703633615748900,8.336748779296874,0.0015611869748681784,-0.007172989659011364,0.0008990087080746889
1733703633625715000,8.34671484375,-0.0009885234758257866,-0.012670553289353848,-0.000004335539415478706
1733703633635682000,8.35668212890625,-0.0009455411927774549,-0.016671698540449142,0.003625720040872693
1733703633645648100,8.366648193359374,-0.0007322219898924232,-0.011738193221390247,0.005176478996872902
1733703633655614000,8.376614013671874,-0.0008974939701147377,-0.009037463925778866,0.005152542144060135
1733703633665581000,8.3865810546875,-0.001121199456974864,-0.006569246761500835,0.0029197477269917727
1733703633675547000,8.396546875,-0.001870510634034872,-0.002991831861436367,-0.0019685395527631044
1733703633685513000,8.406512939453124,0.0028523392975330353,-0.000283130444586277,-0.004684697836637497
1733703633695479800,8.416479736328125,0.0043913270346820354,0.0017395857721567154,-0.003865431994199753
1733703633705446000,8.42644580078125,0.0010804851772263646,-0.0013092011213302612,-0.0033727469854056835
1733703633715412000,8.436411865234374,0.003999152220785618,-0.0004936465993523598,0.00027852843049913645
1733703633725379000,8.446379150390625,0.0016289390623569489,0.0024488805793225765,0.0004934455500915647
1733703633735345000,8.456344970703125,0.0017173951491713524,0.007808623369783163,-0.0014612784143537283
1733703633745311000,8.46631103515625,0.0021669368725270033,0.010604675859212875,-0.0030053791124373674
1733703633755276800,8.47627685546875,0.0023137277457863092,0.01249969843775034,-0.0030115381814539433
1733703633765244000,8.486243896484375,-0.00027087004855275154,0.014886423945426941,-0.0030147340148687363
1733703633775210000,8.4962099609375,-0.0038781913463026285,0.013525370508432388,0.00019578274805098772
1733703633785177000,8.506177001953125,-0.006383160129189491,0.005654930602759123,0.002353742253035307
1733703633795143000,8.516142822265625,-0.007226930465549231,-0.004754610359668732,0.00493799801915884
1733703633805109000,8.52610888671875,-0.005219706334173679,-0.013281786814332008,0.00448259711265564
1733703633815074800,8.53607470703125,-0.004258344415575266,-0.016275227069854736,0.004918057471513748
1733703633825042000,8.5460419921875,-0.00319920526817441,-0.01719428226351738,0.003421361092478037
1733703633835008000,8.556008056640625,-0.0024967952631413937,-0.012966961599886417,0.0017219979781657457
1733703633844974000,8.56597412109375,0.0005557198892347515,-0.011431383900344372,0.0002492700004950166
1733703633854941000,8.57594091796875,0.004709352273494005,-0.0068763066083192825,-0.0015229448908939958
1733703633864907000,8.585906982421875,0.004983924329280853,-0.0025132494047284126,-0.0030755680054426193
1733703633874872800,8.595872802734375,0.007996807806193829,0.0004039742052555084,-0.004720261320471764
1733703633884840000,8.60583984375,0.008663397282361984,0.0009299479424953461,-0.007173298858106136
1733703633894806000,8.615805908203125,0.007156100124120712,-0.0009657340124249458,-0.004009007476270199
1733703633904772000,8.625772216796875,0.006879664026200771,-0.004412131384015083,-0.0032430824358016253
1733703633914739000,8.635739013671875,0.0036374239716678858,-0.0028274189680814743,-0.0015564662171527743
1733703633924705000,8.645705078125,0.0014235381968319416,-0.0036026649177074432,-0.0022590081207454205
1733703633934670800,8.6556708984375,-0.0010816915892064571,-0.0003605745732784271,-0.002301544416695833
1733703633944638000,8.665637939453125,-0.002968008629977703,0.003411527257412672,0.000015671830624341965
1733703633954604000,8.67560400390625,-0.005830328445881605,0.004643008578568697,0.0011224792106077075
1733703633964570000,8.685570068359375,-0.005421532783657312,0.006313343066722155,-0.0022307070903480053
1733703633974537000,8.695536865234375,-0.0007558848010376096,0.0002992674708366394,0.00012208777479827404
1733703633984503000,8.7055029296875,-0.00039822235703468323,-0.0055037615820765495,0.0022925641387701035
1733703633994468900,8.71546875,-0.0026412997394800186,-0.012234112247824669,0.004365179222077131
1733703634004436000,8.72543603515625,-0.00021942105377092957,-0.010290004312992096,0.00408980855718255
1733703634014401800,8.73540185546875,0.0019047169480472803,-0.005227641202509403,0.00018306972924619913
1733703634024368000,8.7453681640625,0.0009925842750817537,-0.0012198500335216522,-0.004836456384509802
1733703634034335000,8.7553349609375,0.0002965412859339267,0.004473058972507715,-0.0032545740250498056
1733703634044301000,8.765301025390626,0.004243878647685051,0.00827552005648613,-0.0027935809921473265
1733703634054267000,8.775266845703126,0.0017829039134085178,0.006524296943098307,-0.0008608276257291436
1733703634064234000,8.78523388671875,-0.001030992018058896,0.005644122138619423,-0.0014677619328722358
1733703634074199800,8.79519970703125,-0.00039167236536741257,0.004097598604857922,0.002241734182462096
1733703634084166100,8.805166259765626,0.0002693241694942117,0.004513584543019533,0.0020667645148932934
1733703634094133000,8.815133056640626,-0.0016595481429249048,0.00748265627771616,-0.0003377635730430484
1733703634104099000,8.82509912109375,-0.001874198904260993,0.007885592058300972,-0.0015492356615141034
1733703634114065000,8.83506494140625,-0.00017137033864855766,0.007267962675541639,-0.001562702120281756
1733703634124032000,8.845031982421874,-0.0010475503513589501,0.006000830326229334,0.00046715920325368643
1733703634133997800,8.854997802734376,-0.0008573013474233449,0.0035896762274205685,-0.0013329627690836787
1733703634143964200,8.864964111328124,0.0013179685920476913,0.0033388063311576843,-0.0012091257376596332
1733703634153931000,8.874930908203124,0.0033868204336613417,0.002431259024888277,-0.0013071944704279304
1733703634163897000,8.88489697265625,0.002701056655496359,0.0027412506751716137,-0.0009247643174603581
1733703634173863000,8.89486279296875,0.0014856427442282438,0.0025270869955420494,-0.0012747803702950478
1733703634183830000,8.904830078125,0.0011002833489328623,0.002397657372057438,-0.0015584069769829512
1733703634193795800,8.9147958984375,0.000014570949133485556,0.0014337319880723953,-0.004672817885875702
1733703634203762200,8.92476220703125,-0.00040780636481940746,0.0009660804644227028,-0.0018967387732118368
1733703634213729000,8.93472900390625,-0.001823868602514267,-0.0026966631412506104,-0.0008091113995760679
1733703634223695000,8.944695068359374,-0.002148508094251156,-0.0029275594279170036,0.003007730934768915
1733703634233661000,8.954660888671874,-0.0009643595549277961,-0.006337334401905537,0.0012052679667249322
1733703634243628000,8.9646279296875,-0.0018754268530756235,-0.006219889037311077,0.0005988661432638764
1733703634253593900,8.97459375,-0.0000670303707011044,-0.005956674925982952,0.0022700801491737366
1733703634263560000,8.984559814453124,0.0013300639111548662,-0.006681588478386402,-0.000257792416960001
1733703634273526800,8.99452685546875,0.0011496101506054401,-0.006213800981640816,0.0009038413409143686
1733703634283493000,9.0044931640625,0.00015145743964239955,-0.007601307705044746,-0.0008714217692613602
1733703634293459000,9.014458984375,0.001346677541732788,-0.005410469137132168,0.00011918949894607067
1733703634303426000,9.024426025390625,0.00028594041941687465,-0.0056818462908267975,-0.0011599267600104213
1733703634313391900,9.034391845703125,0.0017883412074297667,-0.0017184754833579063,-0.00010085571557283401
1733703634323358000,9.04435791015625,0.0006335945217870176,0.0005065947771072388,-0.00044546881690621376
1733703634333324000,9.054323974609375,0.0009854460367932916,0.0036507993936538696,-0.0015527080977335572
1733703634343291100,9.064291015625,-0.00006037729326635599,0.006317955441772938,-0.002932491712272167
1733703634353257000,9.074257080078125,0.0007438994944095612,0.006751438602805138,-0.0024140039458870888
1733703634363223000,9.08422314453125,-0.002133379690349102,0.005025710444897413,-0.00015804043505340815
1733703634373190000,9.09418994140625,-0.0024863039143383503,0.0037230164743959904,0.00036564411129802465
1733703634383156000,9.104156005859375,0.00043411864317022264,0.0007466673851013184,-0.0009033522801473737
1733703634393122000,9.1141220703125,0.002395486459136009,0.00003503728657960892,-0.0006801330018788576
1733703634403089200,9.124089111328125,0.0031912389677017927,-0.0007567210122942924,-0.0005954443477094173
1733703634413055000,9.134054931640625,0.004198075272142887,-0.005202015861868858,-0.002069271169602871
1733703634423021000,9.14402099609375,0.002973021473735571,-0.004613989964127541,-0.00005858438089489937
1733703634432988000,9.15398779296875,0.0013066316023468971,-0.005011561326682568,-0.0007431713165715337
1733703634442954000,9.1639541015625,-0.0017304373905062675,-0.0026392173022031784,0.00021024025045335293
1733703634452920000,9.173920166015625,-0.0012997048906981945,0.001727944239974022,0.00015996210277080536
1733703634462887200,9.18388720703125,-0.00039849127642810345,0.0012123556807637215,0.0003458507126197219
1733703634472853000,9.19385302734375,-0.00041073921602219343,0.0002486668527126312,-0.00252003432251513
1733703634482819000,9.203819091796875,-0.0002437590155750513,-0.0008248528465628624,-0.0033786373678594828
1733703634492786000,9.213785888671875,0.0038547376170754433,-0.0018450906500220299,0.0007877660682424903
1733703634502752000,9.223751953125,0.0025708279572427273,0.0012255338951945305,0.00017683685291558504
1733703634512718000,9.233718017578125,0.004106142558157444,0.0010926788672804832,-0.0011348193511366844
1733703634522685000,9.243684814453125,0.006089664995670319,0.006082643289119005,-0.0008839496877044439
1733703634532651000,9.253651123046875,0.006182979326695204,0.009521035477519035,-0.004710874520242214
1733703634542617000,9.2636171875,0.0038868016563355923,0.010256068781018257,-0.0051819877699017525
1733703634552584400,9.27358447265625,0.003279662923887372,0.00954856164753437,-0.0022859452292323112
1733703634562550500,9.283550537109376,-0.000876998936291784,0.00624863849952817,0.0007292857626453042
1733703634572516400,9.293516357421876,-0.005578971467912197,0.0051350826397538185,0.003505406901240349
1733703634582483500,9.3034833984375,-0.007828010246157646,0.0025081406347453594,0.003691295627504587
1733703634592449500,9.313449462890626,-0.006400617770850658,0.0006574904546141624,0.0064079188741743565
1733703634602415600,9.32341552734375,-0.006452016998082399,-0.0004232209175825119,0.005220947787165642
1733703634612382500,9.333382568359376,-0.0048526255413889885,-0.005288843996822834,0.0016001448966562748
1733703634622348500,9.3433486328125,-0.005142644047737122,-0.009063874371349812,0.001080295885913074
1733703634632314400,9.353314453125,-0.003043592907488346,-0.011245758272707462,0.0033656307496130466
1733703634642281500,9.363281494140624,-0.0005463467678055167,-0.012577072717249393,0.002507294062525034
1733703634652247600,9.37324755859375,0.002107920590788126,-0.012419589795172215,0.003300270065665245
1733703634662213600,9.383213623046874,0.003029640531167388,-0.008746025152504444,0.0036289039999246597
1733703634672180500,9.393180419921874,0.005062959156930447,-0.004796967841684818,-0.0002130581997334957
1733703634682146600,9.403146484375,0.005208633840084076,-0.0002837087959051132,-0.003694608574733138
1733703634692112400,9.4131123046875,0.0052994475699961185,0.003356033004820347,-0.00410260446369648
1733703634702079500,9.42307958984375,0.0032344325445592403,0.005230632144957781,-0.0045470865443348885
1733703634712045300,9.43304541015625,0.002615789184346795,0.0027997992001473904,-0.003256051568314433
1733703634722011400,9.443011474609374,0.0014602435985580087,0.003956676460802555,-0.002751648658886552
1733703634731978500,9.452978515625,-0.00006048358045518398,0.001875133253633976,-0.0005798179190605879
1733703634741944600,9.462944580078124,-0.0004074934986419976,-0.0018221335485577583,0.0028434093110263348
1733703634751910400,9.472910400390624,-0.002379617653787136,-0.004888184368610382,0.003822198137640953
1733703634761877500,9.48287744140625,-0.0018808075692504644,-0.004070061258971691,0.001837344141677022
1733703634771843300,9.49284326171875,-0.0008688588277436793,-0.006815697066485882,0.00034646340645849705
1733703634781809400,9.502809326171874,0.0006408871849998832,-0.009017598815262318,0.0036652947310358286
1733703634791776500,9.512776611328125,-0.0030323041137307882,-0.0085813133046031,0.004332087934017181
1733703634801742600,9.52274267578125,-0.0009049709769897163,-0.0016411161050200462,0.003608773462474346
1733703634811708400,9.53270849609375,-0.002161930548027158,-0.001993420533835888,0.0004094688920304179
1733703634821674200,9.54267431640625,-0.003159284358844161,0.00232596043497324,-0.0011125275632366538
1733703634831641300,9.552641357421875,-0.002191059058532119,0.0024646413512527943,-0.00022666773293167353
1733703634841607400,9.562607421875,-0.0005076748784631491,-0.00025710929185152054,0.0005099625559523702
1733703634851573500,9.572573486328125,-0.0008435049676336348,-0.0003787325695157051,0.004047206602990627
1733703634861540600,9.58254052734375,0.001435362035408616,-0.0013406667858362198,0.005244563799351454
1733703634871506400,9.59250634765625,-0.002027277834713459,0.0011043408885598183,0.003994592931121588
1733703634881472300,9.60247216796875,-0.0009822535794228315,0.0026037003844976425,0.003076601307839155
1733703634891439400,9.612439453125,-0.002131890272721648,0.003721236251294613,0.0009861206635832787
1733703634901405400,9.622405517578125,-0.005869370419532061,0.005531919654458761,0.0014282054034993052
1733703634911371500,9.63237158203125,-0.005631708074361086,0.006191796623170376,0.0016907830722630024
1733703634921338600,9.642338623046875,-0.004154186230152845,0.0067848823964595795,0.0004987522261217237
1733703634931304400,9.652304443359375,-0.0014460200909525156,0.007008512504398823,-0.0006006252951920033
1733703634941270300,9.662270263671875,0.00013003870844841003,0.0073621803894639015,-0.002103180857375264
1733703634951237400,9.6722373046875,0.0022315389942377806,0.0025605009868741035,-0.0009042257443070412
1733703634961203500,9.682203369140625,0.003016372676938772,0.0023434534668922424,0.00014266290236264467
1733703634971169500,9.69216943359375,0.004595574457198381,0.002385881729424,-0.001503213425166905
1733703634981136600,9.70213671875,0.003504743566736579,0.0008585583418607712,0.0009279863443225622
1733703634991102500,9.7121025390625,0.0003048488579224795,0.000007731840014457703,-0.0010275649838149548
1733703635001068300,9.722068359375,-0.0007084839744493365,-0.0017520850524306297,0.000706419232301414
1733703635011035400,9.732035400390625,-0.0008447262225672603,-0.004230103455483913,0.0016714805969968438
1733703635021001200,9.742001220703125,-0.000989335821941495,-0.004008527845144272,0.002495995257049799
1733703635030967600,9.751967529296875,-0.002325446344912052,-0.001150648109614849,0.0031829746440052986
1733703635040934700,9.7619345703125,-0.0026948265731334686,0.0023546041920781136,0.003487107576802373
1733703635050900500,9.771900390625,-0.00009674916509538889,0.0038340389728546143,0.00010782515164464712
1733703635060866300,9.7818662109375,-0.0005359044298529625,0.005279602948576212,0.001496930024586618
1733703635070833400,9.79183349609375,0.0014132577925920486,0.005487944930791855,-0.0000018634600564837456
1733703635080799200,9.80179931640625,0.0005461325054056942,0.0031922999769449234,-0.00041172385681420565
1733703635090765600,9.811765625,0.0030925930477678776,0.0019329758360981941,0.0006843919400125742
1733703635100732400,9.821732421875,0.0025809998624026775,0.004852333106100559,0.0002561556175351143
1733703635110698500,9.831698486328126,0.002192178275436163,0.00541452644392848,-0.0017960761906579137
1733703635120664300,9.841664306640626,0.0015815154183655977,0.008263575844466686,-0.0004831379046663642
1733703635130631400,9.85163134765625,0.0010008944664150476,0.011102399788796902,-0.0002754287561401725
1733703635140597200,9.86159716796875,-0.0018651994178071618,0.008436841890215874,0.0012694710167124867
1733703635150563600,9.8715634765625,-0.0026383090298622847,0.007564950734376907,0.000344732659868896
1733703635160530400,9.881530517578126,-0.001291015651077032,0.006490897852927446,-0.0011109511833637953
1733703635170496500,9.89149658203125,0.0005892778281122446,0.003500120248645544,0.001550077460706234
1733703635180462300,9.90146240234375,-0.0010139450896531343,0.0004132501780986786,-0.00032265728805214167
1733703635190429400,9.911429443359374,0.00254334369674325,-0.0021763425320386887,0.0013470468111336231
1733703635200395300,9.921395263671876,0.0009587628301233053,-0.0030402718111872673,0.0021217602770775557
1733703635210361600,9.931361572265626,0.0005925774457864463,-0.004420436918735504,0.0025026858784258366
1733703635220328400,9.941328369140624,-0.00005989702185615897,-0.0007759016007184982,0.0013636518269777298
1733703635230294500,9.95129443359375,-0.0010100062936544418,0.004234822932630777,0.00228870683349669
1733703635240260400,9.96126025390625,-0.0027668937109410763,0.005332844331860542,0.001378704677335918
1733703635250227500,9.9712275390625,-0.0011327771935611963,0.00719347782433033,-0.0007474716985598207
1733703635260193300,9.981193359375,-0.0003037351998500526,0.004722597077488899,-0.0018534824484959245
1733703635270159400,9.991159423828124,0.0017677764408290386,0.00343388132750988,-0.005822516977787018
1733703635280125400,10.00112548828125,0.002539826789870858,-0.0013654017820954323,-0.004193993750959635
1733703635290092500,10.011092529296874,0.0015956864226609468,-0.006777283735573292,0.001062452676706016
1733703635300058400,10.021058349609374,0.0017384318634867668,-0.009570674039423466,0.0034284049179404974
1733703635310024400,10.0310244140625,0.002607000758871436,-0.005422709509730339,0.0031014466658234596
1733703635319991300,10.0409912109375,0.0014439983060583472,-0.0014426158741116524,0.0021797267254441977
1733703635329957400,10.050957275390624,0.001340285874903202,0.0002828361466526985,0.001785018015652895
1733703635339923500,10.06092333984375,0.0008734337752684951,0.006319690030068159,-0.00008425465784966946
1733703635349890600,10.070890625,-0.0029030272271484137,0.01513685006648302,0.0016963048838078976
1733703635359856400,10.0808564453125,-0.0051930793561041355,0.01852625608444214,0.00191734719555825
1733703635369822500,10.090822509765625,-0.007404683157801628,0.014826047234237194,0.0011202374007552862
1733703635379789300,10.100789306640625,-0.007127714343369007,0.009031275287270546,0.0012531292159110308
1733703635389755400,10.11075537109375,-0.006110969465225935,0.003831417765468359,-0.0004144362173974514
1733703635399721500,10.120721435546875,-0.004712010733783245,-0.0016759997233748436,0.0011672150576487184
1733703635409688600,10.1306884765625,-0.003166048787534237,-0.006400898098945618,-0.0012635268503800035
1733703635419654400,10.140654296875,-0.001233126618899405,-0.011701388284564018,-0.0003862815210595727
1733703635429620500,10.150620361328125,0.0037144972011446953,-0.01410763617604971,0.0001337046269327402
1733703635439587300,10.16058740234375,0.0052660549990832806,-0.013471673242747784,0.0016967138508334756
1733703635449553400,10.170553466796875,0.005184773355722427,-0.008319701068103313,0.0009570079273544252
1733703635459519500,10.18051953125,0.0059379152953624725,-0.00243225134909153,0.0019002995686605573
1733703635469486600,10.190486572265625,0.005747710820287466,0.0039259037002921104,-0.0022139798384159803
1733703635479452400,10.200452392578125,0.0034954752773046494,0.008706011809408665,-0.004501368850469589
1733703635489418500,10.21041845703125,0.0015425814781337976,0.013326250948011875,-0.0039863260462880135
1733703635499385300,10.22038525390625,-0.0005458694649860263,0.011130208149552345,-0.00550033338367939
1733703635509351400,10.230351318359375,0.0003373925865162164,0.010777509771287441,-0.003701450303196907
1733703635519317500,10.2403173828125,-0.0012221545912325382,0.007223521359264851,-0.0021890411153435707
1733703635529284400,10.250284423828125,-0.001570975175127387,0.002279621548950672,-0.00016789918299764395
1733703635539250400,10.26025048828125,-0.0026934975758194923,-0.0019484134390950203,0.002226548967882991
1733703635549216800,10.270216796875,-0.0020263721235096455,-0.007917815819382668,0.0019623860716819763
1733703635559184000,10.280183837890625,-0.001993082696571946,-0.010376445949077606,0.0018382826820015907
1733703635569150000,10.29014990234375,-0.0031468714587390423,-0.014102380722761154,0.006520275492221117
1733703635579115800,10.30011572265625,-0.002208639867603779,-0.011811530217528343,0.0058161355555057526
1733703635589083000,10.310082763671875,-0.0047547295689582825,-0.009645644575357437,0.0031951535493135452
1733703635599049000,10.320049072265626,-0.004003184847533703,-0.0036250362172722816,-0.0002171546220779419
1733703635609014800,10.330014892578125,-0.0017023750115185976,0.0010613547638058662,-0.003955945372581482
1733703635618982000,10.33998193359375,0.0014089960604906082,0.005332532338798046,-0.0035266438499093056
1733703635628948000,10.349947998046876,0.0015397579409182072,0.008624882437288761,-0.0022929757833480835
1733703635638913800,10.359913818359376,0.0038340711034834385,0.006381435319781303,-0.0008708477253094316
1733703635648881000,10.369880859375,0.0017777385655790567,0.005891770124435425,0.00017246592324227095
1733703635658847000,10.379846923828126,0.002040060004219413,0.00533623481169343,-0.000309299910441041
1733703635668812800,10.389812744140626,-0.0004318876308389008,0.008632203564047813,-0.00021008157636970282
1733703635678779000,10.39977880859375,-0.002030050614848733,0.009170960634946823,-0.0017121044220402837
1733703635688746000,10.40974609375,-0.003198752412572503,0.010974088683724403,-0.0014535959344357252
1733703635698711800,10.4197119140625,-0.003442964283749461,0.011117367073893547,-0.0010088479612022638
1733703635708678000,10.429677978515626,-0.003869176609441638,0.0079879779368639,0.001184419495984912
1733703635718644700,10.439644775390626,-0.002456636168062687,0.0063045937567949295,0.0005577778210863471
1733703635728610800,10.44961083984375,0.00005254073766991496,0.0056100869551301,-0.001115409191697836
1733703635738577000,10.459576904296876,0.001319672679528594,0.0013636769726872444,-0.0004546788986772299
1733703635748544000,10.4695439453125,0.003964512143284082,-0.0012588230893015862,-0.002769722603261471
1733703635758509800,10.479509765625,0.0035136386286467314,-0.0075982119888067245,-0.0010264174779877067
1733703635768475600,10.4894755859375,0.0036410449538379908,-0.008724058978259563,-0.0001217772951349616
1733703635778442800,10.49944287109375,0.001830361783504486,-0.008472123183310032,-0.00022191216703504324
1733703635788408800,10.509408935546874,-0.0008131461217999458,-0.008241409435868263,-0.0007061162032186985
1733703635798375000,10.519375,-0.0030882847495377064,-0.00545600987970829,-0.002308806637302041
1733703635808342000,10.529342041015624,-0.0027769068256020546,-0.0033335546031594276,-0.00003229512367397547
1733703635818307800,10.539307861328124,-0.00307305040769279,-0.002734876237809658,0.0012588053941726685
1733703635828273700,10.549273681640624,-0.0009709636215120554,-0.0013632792979478836,0.0001867127139121294
1733703635838240800,10.55924072265625,-0.0004258145345374942,-0.004149744287133217,0.0005992363439872861
1733703635848206800,10.569206787109374,0.0018862338038161397,-0.0033928193151950836,0.00017660215962678194
1733703635858173000,10.5791728515625,0.002365869004279375,-0.006712982431054115,0.0010080409701913595
1733703635868139800,10.589139892578125,0.0018571526743471622,-0.005711361765861511,0.001340600079856813
1733703635878105900,10.59910595703125,0.0006542027113027871,-0.004474589601159096,-0.0002975104143843055
1733703635888071700,10.60907177734375,0.00022618088405579329,0.0013443110510706902,-0.0022650710307061672
1733703635898038800,10.619038818359375,-0.0018436278915032744,0.004852759186178446,-0.0016666589071974158
1733703635908004900,10.6290048828125,-0.0036235267762094736,0.005211807321757078,0.00015308917500078678
1733703635917971000,10.638970947265625,-0.0049039744772017,0.004165451508015394,-0.0013598527293652296
1733703635927937800,10.648937744140625,-0.0025242259725928307,-0.0005837958306074142,0.0019172156462445855
1733703635937903900,10.65890380859375,-0.0011439095251262188,-0.0004913844168186188,0.001838386058807373
1733703635947869700,10.66886962890625,0.0012410578783601522,-0.0014756647869944572,0.00023891066666692495
1733703635957836800,10.6788369140625,0.0030442841816693544,-0.0019073635339736938,-0.0005720219342038035
1733703635967803000,10.688802978515625,0.004299972206354141,-0.0013187788426876068,-0.0019681414123624563
1733703635977769000,10.69876904296875,0.003550292458385229,-0.0007139751687645912,-0.0011782478541135788
1733703635987735800,10.70873583984375,0.0028541332576423883,0.004665547516196966,-0.0011655193520709872
1733703635997702000,10.718701904296875,0.002445870777592063,0.009940736927092075,-0.0016946893883869052
1733703636007667700,10.728667724609375,-0.00015609106048941612,0.011687017045915127,-0.002459472045302391
1733703636017634800,10.738634765625,-0.0003321259864605963,0.009466207586228848,-0.0005771496798843145
1733703636027600600,10.7486005859375,-0.0018010718049481511,0.004902490880340338,-0.0018166899681091309
1733703636037567000,10.75856689453125,-0.002390163019299507,-0.00442682858556509,-0.0021621016785502434
1733703636047533800,10.768533935546875,-0.00036674708826467395,-0.011290470138192177,-0.0006362718995660543
1733703636057500000,10.7785,-0.0016754243988543749,-0.016812002286314964,0.0009294005576521158
1733703636067465700,10.7884658203125,-0.0003435717080719769,-0.01814107969403267,0.0038047542329877615
1733703636077431800,10.798431884765625,-0.0010849956888705492,-0.012467481195926666,0.00333657069131732
1733703636087398700,10.808398681640625,-0.0005408644792623818,-0.005872047506272793,-0.0010494055459275842
1733703636097365000,10.818364990234375,0.0011619607685133815,-0.0008469298481941223,-0.00201240461319685
1733703636107330800,10.828330810546875,0.0002826919953804463,0.005499558057636023,-0.003223137930035591
1733703636117298000,10.8382978515625,0.0011189245851710439,0.010304966010153294,-0.0011029952438548207
1733703636127263700,10.848263671875,-0.0031603428069502115,0.012996289879083633,-0.00021174957510083914
1733703636137229800,10.858229736328125,-0.003385113552212715,0.012153132818639278,0.0005906608421355486
1733703636147196700,10.86819677734375,-0.005282246042042971,0.010551149956882,0.003348620142787695
1733703636157163000,10.8781630859375,-0.006574944593012333,0.009101059287786484,0.0029515428468585014
1733703636167128800,10.88812890625,-0.00632961792871356,0.007696050684899092,0.0006113488925620914
1733703636177096000,10.898095947265626,-0.00339587964117527,0.006464072503149509,0.00041347602382302284
1733703636187061800,10.908061767578126,-0.0035237115807831287,0.004929026123136282,-0.0003909174120053649
1733703636197027800,10.91802783203125,-0.0020613698288798332,0.003061617724597454,0.0002114896196871996
1733703636206994700,10.92799462890625,-0.0018612600397318602,0.0032838615588843822,0.0034625353291630745
1733703636216961000,10.9379609375,0.0017017833888530731,0.004556586034595966,0.00515177845954895
1733703636226926800,10.9479267578125,0.0031929940450936556,0.00691947853192687,0.0036833416670560837
1733703636236894000,10.95789404296875,0.0025144207756966352,0.010102222673594952,0.0008571951184421778
1733703636246859800,10.96785986328125,0.002992406487464905,0.014145327731966972,-0.0012328533921390772
1733703636256825900,10.977825927734376,0.0011396451154723763,0.016078248620033264,-0.0037934829015284777
1733703636266792700,10.987792724609376,0.0007040573982521892,0.01555054821074009,-0.005302950739860535
1733703636276758800,10.9977587890625,0.00005903979763388634,0.014095664024353027,-0.006848649587482214
1733703636286724900,11.007724853515626,-0.0002908471506088972,0.006927910260856152,-0.00604421179741621
1733703636296692000,11.01769189453125,-0.00129219563677907,-0.0006754146888852119,-0.0011719586327672005
1733703636306657800,11.02765771484375,0.0005318592302501202,-0.007901495322585106,0.0016503522638231516
1733703636316624000,11.037623779296876,-0.0006380674312822521,-0.010652806609869003,0.001116122119128704
1733703636326590700,11.0475908203125,0.0007942317170090973,-0.014054200612008572,0.00013668369501829147
1733703636336556800,11.057556884765624,0.0037508730310946703,-0.016433201730251312,0.002663490828126669
1733703636346523000,11.06752294921875,0.0023264018818736076,-0.018673688173294067,0.002669831970706582
1733703636356490000,11.077489990234374,0.0009934896370396018,-0.013558288104832172,0.0019822039175778627
1733703636366455800,11.087455810546874,-0.0006973519921302795,-0.010514866560697556,-0.0020603544544428587
1733703636376422000,11.097421875,0.0011894976487383246,-0.003944581374526024,-0.0026505107525736094
1733703636386388700,11.107388671875,0.0017214921535924077,0.0008538020774722099,-0.0037864355836063623
1733703636396354800,11.117354736328124,0.003367858473211527,0.008188414387404919,-0.005289257504045963
1733703636406321000,11.12732080078125,0.00332162668928504,0.012379338964819908,-0.0022547408007085323
1733703636416287000,11.137286865234374,0.002223072573542595,0.012866165488958359,-0.0015396821545436978
1733703636426253800,11.14725390625,0.0011116319801658392,0.013097754679620266,-0.0000329155009239912
1733703636436220000,11.157219970703125,-0.0001291348016820848,0.009521394968032837,-0.0009572987910360098
1733703636446185700,11.167185791015624,-0.00036157877184450626,0.006191796623170376,0.00035070732701569796
1733703636456152800,11.17715283203125,0.0010219333926215768,0.002723562065511942,-0.0008085665758699179
1733703636466119000,11.187118896484375,-0.0008707231027074158,-0.00013009831309318542,0.0002554102102294564
1733703636476085000,11.1970849609375,-0.0001604580320417881,-0.000981510616838932,0.0015284011606127024
1733703636486051800,11.2070517578125,-0.002161076758056879,-0.0018794452771544456,0.0020745715592056513
1733703636496018000,11.217017822265625,0.0008829163853079081,-0.0008107190951704979,-0.000001628883183002472
1733703636505983700,11.226983642578125,0.0022975392639636993,0.003492000512778759,-0.0020140819251537323
1733703636515950800,11.236950927734375,0.003218726720660925,0.002422208432108164,-0.004257262218743563
1733703636525917000,11.2469169921875,0.005479798652231693,0.00010285712778568268,-0.004116266965866089
1733703636535883000,11.256883056640625,0.006605517119169235,0.000010712072253227234,-0.0024890759959816933
1733703636545849300,11.266849365234375,0.002457748167216778,-0.0012492407113313675,-0.0012159431353211403
1733703636555815200,11.276815185546875,0.0050010671839118,0.00017661508172750473,-0.003334221662953496
1733703636565781200,11.28678125,0.002417909912765026,0.001178552396595478,-0.002303643152117729
1733703636575748000,11.296748046875,-0.0008417992503382266,0.0008411305025219917,0.0014426257694140077
1733703636585714400,11.30671435546875,-0.0024232370778918266,0.002678949385881424,0.0015174713917076588
1733703636595680300,11.31668017578125,-0.004621143918484449,0.0009622760117053986,0.0032352101989090443
1733703636605647400,11.3266474609375,-0.002794964239001274,0.0006180368363857269,0.0009651512373238802
1733703636615613200,11.33661328125,-0.0016029332764446735,-0.0010246001183986664,0.0012868610210716724
1733703636625579000,11.3465791015625,-0.000821772962808609,-0.0025939717888832092,0.0019613872282207012
1733703636635546000,11.356546142578125,-0.0008705088403075933,-0.005897089838981628,0.0017664437182247639
1733703636645512400,11.366512451171875,0.00036780742811970413,-0.00398862361907959,0.0029665417969226837
1733703636655478300,11.376478271484375,0.0019707640167325735,-0.002020813524723053,0.001834165770560503
1733703636665445400,11.3864453125,0.0010871293488889933,-0.0008567096665501595,0.0005450733006000519
1733703636675411200,11.3964111328125,0.0009659555507823825,0.002739889081567526,-0.00012231478467583656
1733703636685377000,11.406376953125,0.0006717302021570504,0.00407967995852232,-0.001970626413822174
1733703636695344000,11.41634423828125,0.0006506912759505212,0.006100752856582403,-0.00013091473374515772
1733703636705310500,11.426310546875,-0.0004295968101359904,0.008370505645871162,-0.0019247157033532858
1733703636715276300,11.4362763671875,0.0010090428404510021,0.004663918167352676,-0.0017883619293570518
1733703636725242000,11.4462421875,0.0013859900645911694,0.003723615314811468,-0.00020628224592655897
1733703636735209200,11.456209228515625,0.0015702807577326894,0.0008711032569408417,0.0001796097494661808
1733703636745175000,11.466175048828125,0.002135292626917362,-0.00029720738530158997,0.0015278344508260489
1733703636755141400,11.476141357421875,-0.0001901795039884746,-0.0039361510425806046,0.0008782895747572184
1733703636765108200,11.486108154296875,-0.0007742641028016806,-0.007804878056049347,0.0005446725990623236
1733703636775074300,11.49607421875,0.001128830830566585,-0.007664795964956284,-0.0005275160074234009
1733703636785040100,11.5060400390625,0.0002816793567035347,-0.007833946496248245,0.00002014951314777136
1733703636795007200,11.51600732421875,-0.000245626550167799,-0.010131720453500748,0.0020665223710238934
1733703636804973000,11.52597314453125,-0.0000584591762162745,-0.007494879886507988,0.002156880684196949
1733703636814939100,11.535939208984376,-0.0013716639950871468,-0.003153395839035511,-0.0014085595030337572
1733703636824906200,11.54590625,0.00010516506154090166,0.0018767304718494415,-0.0001281191362068057
1733703636834872300,11.555872314453126,-0.0015683653764426708,0.0025268085300922394,0.002191494219005108
1733703636844838100,11.565838134765626,0.0005382484523579478,0.0004953034222126007,0.00011068908497691154
1733703636854805200,11.57580517578125,-0.00013047130778431892,-0.001126028597354889,-0.00280999974347651
1733703636864771000,11.58577099609375,0.002429785206913948,0.000015455298125743866,-0.0032414239831268787
1733703636874737200,11.595737060546876,0.0018324380507692695,-0.0010503418743610382,-0.0014517797389999032
