time,seconds_elapsed,z,y,x
1733699164171226000,0.01622607421875,0.032182492315769196,-0.06638096272945404,0.006018168292939663
1733699164181182000,0.026181884765625,0.01969892531633377,-0.06353404372930527,-0.002796095795929432
1733699164191136800,0.03613671875,-0.000924338586628437,-0.053421199321746826,-0.012707131914794445
1733699164201092900,0.0460927734375,-0.01267207507044077,-0.03274228796362877,-0.016953542828559875
1733699164211048000,0.0560478515625,-0.01588458940386772,-0.008606420829892159,-0.014810650609433651
1733699164221004000,0.066004150390625,-0.012125270441174507,0.009391487576067448,-0.007893621921539307
1733699164230958800,0.075958740234375,-0.0032901696395128965,0.01884482614696026,-0.0015243254601955414
1733699164240915000,0.0859150390625,0.005272425711154938,0.019919944927096367,-0.00006225006654858589
1733699164250870000,0.0958701171875,0.00865207426249981,0.010539215058088303,0.0007058506598696113
1733699164260824800,0.105824951171875,0.01211551483720541,0.002780095674097538,-0.0007016300223767757
1733699164270781000,0.115781005859375,0.011369890533387661,-0.005327588878571987,-0.002073061652481556
1733699164280736000,0.125736083984375,0.00804919470101595,-0.009475728496909142,-0.0005321567878127098
1733699164290691800,0.13569189453125,0.0026335101574659348,-0.011963176541030407,-0.002734384499490261
1733699164300647000,0.14564697265625,-0.0007590906461700797,-0.009438233450055122,-0.004976233467459679
1733699164310603000,0.15560302734375,-0.003622218267992139,-0.006052609998732805,-0.004429272376000881
1733699164320557800,0.165557861328125,-0.003419817890971899,-0.0035337922163307667,-0.004829811863601208
1733699164330514000,0.175513916015625,-0.002950423862785101,-0.0017125415615737438,-0.0034118706826120615
1733699164340469000,0.185468994140625,0.00124112528283149,0.000922656268812716,-0.0021082533057779074
1733699164350425000,0.195425048828125,0.0030155901331454515,0.0024157660081982613,0.00011733733117580414
1733699164360380000,0.2053798828125,0.005057968199253082,0.005531664472073317,0.0005255999276414514
1733699164370335700,0.215335693359375,0.0064451126381754875,0.008562350645661354,0.0027253255248069763
1733699164380291000,0.225291015625,0.006720216944813728,0.010049194097518921,0.001954340608790517
1733699164390247000,0.235246826171875,0.005727729294449091,0.006816668435931206,0.0023744977079331875
1733699164400202000,0.245201904296875,0.002498114015907049,0.007446772418916225,0.0016370684606954455
1733699164410157800,0.25515771484375,0.0015841168351471424,0.008562371134757996,-0.00011209561489522457
1733699164420113000,0.26511279296875,-0.003396793268620968,0.007499502971768379,-0.002946231747046113
1733699164430069000,0.275069091796875,-0.009774181060492992,0.008659182116389275,-0.003737212624400854
1733699164440023800,0.28502392578125,-0.006831387989223003,0.007863429374992847,-0.005451755598187447
1733699164449980000,0.29497998046875,-0.009541336447000504,0.0021297819912433624,-0.008006814867258072
1733699164459935000,0.30493505859375,-0.003993439022451639,-0.009447244927287102,-0.007925321348011494
1733699164469890800,0.314890869140625,0.0020709428936243057,-0.025542601943016052,-0.003469542833045125
1733699164479846000,0.324845947265625,0.006528275087475777,-0.0374557226896286,-0.005331092514097691
1733699164489802000,0.334802001953125,0.008986269123852253,-0.0429195873439312,-0.005452292971313
1733699164499756800,0.3447568359375,0.014061189256608486,-0.04694415628910065,-0.005534318275749683
1733699164509713000,0.354712890625,0.012775869108736515,-0.04791248217225075,-0.00326183857396245
1733699164519668000,0.36466796875,0.014552729204297066,-0.0515008270740509,-0.0036637093871831894
1733699164529623000,0.374623046875,0.01932797208428383,-0.05645619332790375,-0.007203494198620319
1733699164539579000,0.384578857421875,0.022359183058142662,-0.06401077657938004,-0.009538553655147552
1733699164549534000,0.394533935546875,0.026685558259487152,-0.07167454063892365,-0.011663312092423439
1733699164559490000,0.404489990234375,0.026997415348887444,-0.0755225419998169,-0.012375975027680397
1733699164569444900,0.41444482421875,0.028850818052887917,-0.07843193411827087,-0.012491976842284203
1733699164579401000,0.42440087890625,0.02640656940639019,-0.08137765526771545,-0.013838204555213451
1733699164589356000,0.43435595703125,0.017831698060035706,-0.08836309611797333,-0.016164610162377357
1733699164599312000,0.444311767578125,0.010124510154128075,-0.10651280730962753,-0.023568464443087578
1733699164609267000,0.454266845703125,0.0015534164849668741,-0.1307370960712433,-0.032559413462877274
1733699164619222800,0.464222900390625,0.004288482945412397,-0.15719905495643616,-0.04067779332399368
1733699164629178000,0.47417822265625,0.016084035858511925,-0.18131473660469055,-0.04498086869716644
1733699164639134000,0.484134033203125,0.03378766402602196,-0.2070496529340744,-0.05057350918650627
1733699164649088800,0.4940888671875,0.04792114719748497,-0.23107574880123138,-0.05739761143922806
1733699164659044900,0.504044921875,0.06326095014810562,-0.24247248470783234,-0.06613971292972565
1733699164669000000,0.514,0.08385319262742996,-0.24016733467578888,-0.07052399963140488
1733699164678956000,0.5239560546875,0.10089769214391708,-0.23114721477031708,-0.07470409572124481
1733699164688910800,0.533910888671875,0.10410493612289429,-0.21565334498882294,-0.06519046425819397
1733699164698867000,0.543866943359375,0.10684213042259216,-0.18563473224639893,-0.05029807239770889
1733699164708822000,0.553822021484375,0.09484703838825226,-0.1516692340373993,-0.03874659538269043
1733699164718777900,0.56377783203125,0.06781701743602753,-0.12006524205207825,-0.026907779276371002
1733699164728733000,0.57373291015625,0.02642928808927536,-0.09543514996767044,-0.019337905570864677
1733699164738689000,0.58368896484375,-0.0057590072974562645,-0.061597563326358795,-0.007802423555403948
1733699164748643800,0.593643798828125,-0.029362831264734268,-0.009186998941004276,-0.004393377806991339
1733699164758600000,0.603599853515625,-0.044453367590904236,0.040800534188747406,-0.004566749557852745
1733699164768555000,0.613554931640625,-0.050867918878793716,0.08476235717535019,-0.009244954213500023
1733699164778509800,0.623509765625,-0.04786680266261101,0.11855360865592957,-0.00941193476319313
1733699164788466000,0.6334658203125,-0.03519860655069351,0.1387297362089157,-0.0024694297462701797
1733699164798421000,0.6434208984375,-0.018548522144556046,0.14837303757667542,0.0038704914040863514
1733699164808377000,0.653377197265625,-0.006327531300485134,0.13426679372787476,0.007694606203585863
1733699164818332000,0.663331787109375,0.005588250234723091,0.10695873200893402,0.006956910714507103
1733699164828287700,0.673287841796875,0.008336004801094532,0.07082618027925491,0.0031456011347472668
1733699164838243000,0.6832431640625,0.008510707877576351,0.03590681403875351,0.0006456918781623244
1733699164848199000,0.693198974609375,0.008077992126345634,-0.0018462322186678648,-0.0000741307158023119
1733699164858153700,0.70315380859375,0.00892141554504633,-0.02999211475253105,-0.00003684661351144314
1733699164868109800,0.71310986328125,0.006625807844102383,-0.037431709468364716,0.002897106111049652
1733699164878065000,0.72306494140625,0.0012600708287209272,-0.026959894225001335,0.0016547414707019925
1733699164888021000,0.73302099609375,-0.002462472300976515,-0.00896561797708273,0.007749001029878855
1733699164897975800,0.742975830078125,-0.005949881859123707,0.008924166671931744,0.011028684675693512
1733699164907932200,0.75293212890625,-0.009742658585309982,0.022293491289019585,0.010469730943441391
1733699164917887000,0.762886962890625,-0.006204382516443729,0.030345292761921883,0.010332311503589153
1733699164927842800,0.7728427734375,-0.0032921917736530304,0.03738678619265556,0.013409209437668324
1733699164937798100,0.782798095703125,0.004088493064045906,0.030244985595345497,0.01672218181192875
1733699164947754000,0.79275390625,0.013001536019146442,0.02707945741713047,0.018446963280439377
1733699164957708800,0.802708740234375,0.020674902945756912,0.023755567148327827,0.017425907775759697
1733699164967665000,0.812664794921875,0.023884374648332596,0.0224322322756052,0.019494961947202682
1733699164977620000,0.822619873046875,0.022971976548433304,0.026795821264386177,0.021955721080303192
1733699164987576000,0.832576171875,0.01785259321331978,0.034610312432050705,0.021572574973106384
1733699164997531000,0.84253076171875,0.009910247288644314,0.04157287999987602,0.018336301669478416
1733699165007486700,0.85248681640625,0.0011762890499085188,0.05282092094421387,0.013951214961707592
1733699165017442000,0.862442138671875,-0.01090087927877903,0.055390339344739914,0.008289867080748081
1733699165027398000,0.87239794921875,-0.017611391842365265,0.05797901749610901,0.003438045969232917
1733699165037353000,0.88235302734375,-0.020604517310857773,0.05274377390742302,0.0009613061556592584
1733699165047308800,0.892308837890625,-0.024293843656778336,0.04546676203608513,-0.00010292255319654942
1733699165057263900,0.902263916015625,-0.020933998748660088,0.03740164637565613,-0.003621490905061364
1733699165067218700,0.91221875,-0.018487390130758286,0.029606893658638,-0.0010075466707348824
1733699165077174800,0.9221748046875,-0.0165930837392807,0.022359099239110947,0.0007860923651605844
1733699165087129900,0.9321298828125,-0.01777529902756214,0.018951106816530228,0.002747562248259783
1733699165097086000,0.9420859375,-0.015335842035710812,0.007416955661028624,0.00308525119908154
1733699165107040800,0.952040771484375,-0.014545608311891556,-0.0006725021521560848,0.0014044265262782574
1733699165116997000,0.9619970703125,-0.003563797567039728,-0.003111158963292837,0.0012907094787806273
1733699165126952000,0.971951904296875,0.004453200846910477,-0.004909187089651823,0.0038760839961469173
1733699165136907800,0.98190771484375,0.00835180189460516,-0.008250921033322811,0.007764832116663456
1733699165146863000,0.991863037109375,0.013787628151476383,-0.010076059959828854,0.010229350998997688
1733699165156819000,1.00181884765625,0.019493717700242996,-0.009940771386027336,0.016633987426757812
1733699165166773800,1.011773681640625,0.025920579209923744,-0.0028462919872254133,0.02197541669011116
1733699165176729900,1.021729736328125,0.026420187205076218,-0.000050505390390753746,0.02184305712580681
1733699165186685000,1.031684814453125,0.02916616201400757,-0.005265219137072563,0.021446164697408676
1733699165196641000,1.04164111328125,0.03545335307717323,-0.016881659626960754,0.018806971609592438
1733699165206595800,1.051595947265625,0.04446091502904892,-0.035293079912662506,0.02224321849644184
1733699165216551700,1.0615517578125,0.045527245849370956,-0.04452626034617424,0.023238176479935646
1733699165226507000,1.071507080078125,0.0461869090795517,-0.049856044352054596,0.02188156172633171
1733699165236462800,1.081462890625,0.04005524888634682,-0.051001738756895065,0.02115664817392826
1733699165246418000,1.09141796875,0.030706750229001045,-0.04302597790956497,0.017865262925624847
1733699165256373800,1.101373779296875,0.020157169550657272,-0.024975871667265892,0.014861483126878738
1733699165266328800,1.111328857421875,0.010709531605243683,-0.010412001051008701,0.008774666115641594
1733699165276285000,1.121284912109375,-0.010495621711015701,0.00394829548895359,-0.0021000856067985296
1733699165286239700,1.13123974609375,-0.02750907838344574,0.004133704584091902,-0.005913407541811466
1733699165296196000,1.141196044921875,-0.03798035904765129,0.00859343446791172,-0.0007106559351086617
1733699165306151000,1.15115087890625,-0.042469605803489685,0.013689584098756313,0.006755545735359192
1733699165316106800,1.161106689453125,-0.03750387579202652,0.02201436087489128,0.014396154321730137
1733699165326062000,1.17106201171875,-0.021457577124238014,0.033176008611917496,0.021811164915561676
1733699165336017000,1.181016845703125,-0.008770277723670006,0.03225695341825485,0.024516137316823006
1733699165345972700,1.19097265625,0.008393893018364906,0.035507332533597946,0.028431560844182968
1733699165355928000,1.200927978515625,0.019566917791962624,0.03378746286034584,0.03361273929476738
1733699165365884000,1.2108837890625,0.025865742936730385,0.037552498281002045,0.0387212410569191
1733699165375839000,1.2208388671875,0.018400102853775024,0.041232720017433167,0.040936458855867386
1733699165385794800,1.230794921875,0.011215160600841045,0.04896707460284233,0.03860113397240639
1733699165395750000,1.24075,0.0003673069877550006,0.06777644902467728,0.04059584066271782
1733699165405706000,1.2507060546875,-0.0025721814017742872,0.07560264319181442,0.04363702982664108
1733699165415660800,1.260660888671875,0.0004718117415904999,0.09079571068286896,0.04625251889228821
1733699165425617000,1.270616943359375,0.00488307187333703,0.08659990131855011,0.04248041659593582
1733699165435572000,1.280572021484375,0.007782721426337957,0.08606993407011032,0.03628164529800415
1733699165445527800,1.29052783203125,0.015832174569368362,0.08334491401910782,0.031029917299747467
1733699165455483000,1.30048291015625,0.019901217892766,0.0846533253788948,0.027783257886767387
1733699165465438700,1.310438720703125,0.02188543975353241,0.06088089570403099,0.024789024144411087
1733699165475393800,1.320393798828125,0.030451498925685883,0.04006402939558029,0.024000728502869606
1733699165485350000,1.330349853515625,0.04085160419344902,0.03361223638057709,0.023444481194019318
1733699165495304700,1.3403046875,0.044752337038517,0.009714359417557716,0.01941724866628647
1733699165505261000,1.350260986328125,0.047131072729825974,-0.013886841014027596,0.01500013004988432
1733699165515216000,1.3602158203125,0.04247107356786728,-0.021232638508081436,0.009169405326247215
1733699165525172000,1.370171875,0.04235139489173889,-0.026997176930308342,0.006045223213732243
1733699165535127000,1.380126953125,0.03789912164211273,-0.023684203624725342,0.0027783236000686884
1733699165545083000,1.390082763671875,0.027923336252570152,-0.020382897928357124,0.0016321564326062799
1733699165555038000,1.400037841796875,0.01310683973133564,-0.012078629806637764,-0.001630748389288783
1733699165564993800,1.409993896484375,-0.0004412777489051223,0.007604388985782862,-0.0033458019606769085
1733699165574948900,1.419948974609375,-0.011828421615064144,0.020545220002532005,0.0015304458793252707
1733699165584905000,1.429905029296875,-0.013988003134727478,0.05368230491876602,0.010471594519913197
1733699165594859800,1.43985986328125,-0.011377306655049324,0.07934851944446564,0.021333295851945877
1733699165604816000,1.44981591796875,0.00399300642311573,0.1039280816912651,0.031314898282289505
1733699165614771000,1.45977099609375,0.0028193513862788677,0.11118625849485397,0.03596664220094681
1733699165624726800,1.469726806640625,0.009616052731871605,0.12868180871009827,0.04649840667843819
1733699165634681900,1.479681884765625,0.016581017524003983,0.14234888553619385,0.05789940059185028
1733699165644637000,1.489636962890625,0.02679075486958027,0.14177143573760986,0.07792036235332489
1733699165654593000,1.499593017578125,0.03954942524433136,0.14941737055778503,0.10018732398748398
1733699165664547800,1.5095478515625,0.05836145207285881,0.1432630866765976,0.12143447250127792
1733699165674503700,1.519503662109375,0.08292805403470993,0.13933199644088745,0.1375170350074768
1733699165684459000,1.529458984375,0.11001162230968475,0.12504743039608002,0.1486411988735199
1733699165694414800,1.539414794921875,0.15027782320976257,0.05272076651453972,0.14577297866344452
1733699165704369700,1.54936962890625,0.20565751194953918,0.01674336940050125,0.13064712285995483
1733699165714326000,1.559325927734375,0.2180928736925125,0.00018676178297027946,0.08925148099660873
1733699165724280800,1.56928076171875,0.1862277239561081,-0.045468758791685104,0.039812617003917694
1733699165734237000,1.57923681640625,0.13747642934322357,-0.07051205635070801,0.0031131920404732227
1733699165744192000,1.58919189453125,0.07819844037294388,-0.08141928166151047,-0.013538836501538754
1733699165754148000,1.599148193359375,0.02111172117292881,-0.08617249131202698,-0.015209704637527466
1733699165764103000,1.60910302734375,-0.03060114197432995,-0.07362867146730423,-0.00943516381084919
1733699165774058800,1.619058837890625,-0.05084782466292381,-0.04304413124918938,-0.004891278687864542
1733699165784014000,1.62901416015625,-0.053225480020046234,-0.010318024083971977,-0.008106446824967861
1733699165793970000,1.638969970703125,-0.04933939501643181,0.01262484211474657,-0.01576995849609375
1733699165803924700,1.6489248046875,-0.03748162463307381,0.028984298929572105,-0.018865054473280907
1733699165813880800,1.658880859375,-0.023515209555625916,0.044566188007593155,-0.013214359991252422
1733699165823836000,1.6688359375,-0.009245725348591805,0.048588890582323074,-0.011609538458287716
1733699165833792000,1.6787919921875,-0.003642168128862977,0.050810232758522034,-0.009396185167133808
1733699165843746800,1.688746826171875,0.002642965642735362,0.05962998792529106,-0.009682579897344112
1733699165853702700,1.69870263671875,0.012348855845630169,0.0806599035859108,-0.006590915843844414
1733699165863658000,1.708657958984375,0.01380235981196165,0.10607145726680756,-0.004054003395140171
1733699165873613800,1.71861376953125,0.013793038204312325,0.12336868792772293,-0.0018782003317028284
1733699165883569000,1.72856884765625,0.006675935350358486,0.1326891928911209,-0.0008274947758764029
1733699165893525000,1.73852490234375,0.0008113885996863246,0.12210499495267868,-0.005707204341888428
1733699165903479800,1.748479736328125,-0.0010968168498948216,0.07561013102531433,-0.016203003004193306
1733699165913436000,1.758435791015625,0.0005876324139535427,0.0072119031101465225,-0.02892652153968811
1733699165923391000,1.768390869140625,0.007475561462342739,-0.09133493155241013,-0.038480523973703384
1733699165933345800,1.778345703125,0.012214656919240952,-0.1995183825492859,-0.03399709239602089
1733699165943302000,1.788302001953125,0.01160518079996109,-0.2901182472705841,-0.02641647681593895
1733699165953257000,1.798257080078125,0.0134052112698555,-0.3350715935230255,-0.01805388554930687
1733699165963213000,1.808213134765625,0.019472677260637283,-0.31406736373901367,-0.00841863639652729
1733699165973167900,1.81816796875,0.024364905431866646,-0.24361079931259155,0.0019682252313941717
1733699165983123700,1.828123779296875,0.011796709150075912,-0.156022846698761,0.013644152320921421
1733699165993079000,1.8380791015625,-0.012966161593794823,-0.04465503618121147,0.022769739851355553
1733699166003035000,1.848034912109375,-0.03869213908910751,0.07580510526895523,0.026070868596434593
1733699166012990000,1.857989990234375,-0.03680023178458214,0.14721083641052246,0.020717116072773933
1733699166022945800,1.86794580078125,-0.022971583530306816,0.19180746376514435,0.021806636825203896
1733699166032900900,1.87790087890625,-0.0063606491312384605,0.19728346168994904,0.020725926384329796
1733699166042857000,1.88785693359375,0.0009088364895433187,0.18377572298049927,0.017532190307974815
1733699166052811800,1.897811767578125,0.0058695063926279545,0.16850143671035767,0.012320383451879025
1733699166062767900,1.907767822265625,0.010178683325648308,0.12322462350130081,0.01099841296672821
1733699166072723000,1.917722900390625,0.010520366951823235,0.080930694937706,0.013380610384047031
1733699166082678800,1.9276787109375,0.011285769753158092,0.04464057460427284,0.015293107368052006
1733699166092633600,1.937633544921875,0.0010099628707394004,0.022087063640356064,0.01053297333419323
1733699166102590000,1.94758984375,-0.010232849046587944,-0.009976574219763279,0.0008118217810988426
1733699166112544800,1.957544677734375,-0.021596290171146393,-0.017140476033091545,-0.0073353201150894165
1733699166122500900,1.9675009765625,-0.01514348853379488,-0.0455520935356617,-0.013306076638400555
1733699166132456000,1.9774560546875,-0.019551020115613937,-0.04767276719212532,-0.014505032449960709
1733699166142411800,1.987411865234375,-0.010013029910624027,-0.06821434944868088,-0.014191236346960068
1733699166152366800,1.997366943359375,-0.0002679905155673623,-0.07449035346508026,-0.009136291220784187
1733699166162322700,2.00732275390625,0.015383684076368809,-0.08028408139944077,-0.006347347050905228
1733699166172277800,2.01727783203125,0.023862920701503754,-0.08869514614343643,-0.002447946695610881
1733699166182232800,2.02723291015625,0.03049323707818985,-0.07879700511693954,0.001885941717773676
1733699166192188700,2.037188720703125,0.03144717961549759,-0.0702221617102623,0.0037706608418375254
1733699166202144000,2.04714404296875,0.023771977052092552,-0.049391478300094604,0.00571223720908165
1733699166212099800,2.057099853515625,0.0205673947930336,-0.02516043931245804,0.006457922980189323
1733699166222054700,2.0670546875,0.013324642553925514,-0.006694064941257238,0.005417110864073038
1733699166232010800,2.0770107421875,0.0027556209824979305,0.013361401855945587,0.0039843302220106125
1733699166241965800,2.0869658203125,-0.0065886154770851135,0.023014718666672707,0.0003633968299254775
1733699166251922000,2.096921875,-0.008832328952848911,0.03456830978393555,0.0015735372435301542
1733699166261876700,2.106876708984375,-0.008345031179487705,0.0392993688583374,0.003727938514202833
1733699166271832800,2.116832763671875,-0.0040626684203743935,0.03562101349234581,0.00349784130230546
1733699166281788000,2.126787841796875,-0.0025293920189142227,0.031088165938854218,0.004021745175123215
1733699166291743700,2.13674365234375,-0.00026437349151819944,0.025310968980193138,0.003884325735270977
1733699166301698800,2.14669873046875,-0.0021796314977109432,0.021158047020435333,0.0030304789543151855
1733699166311655000,2.156655029296875,-0.00016042275819927454,0.015376590192317963,0.0014738612808287144
1733699166321609700,2.166609619140625,-0.0038429941050708294,0.005632009357213974,-0.000775415450334549
1733699166331565800,2.17656591796875,-0.002363341860473156,-0.003015008522197604,-0.0010380030144006014
1733699166341521000,2.18652099609375,-0.0005440391832962632,-0.00874241255223751,-0.001530110603198409
1733699166351477000,2.19647705078125,0.00317346747033298,-0.009901686571538448,-0.001280306139960885
1733699166361431800,2.206431884765625,0.004089908674359322,-0.011855456978082657,-0.0009140919428318739
1733699166371387600,2.2163876953125,0.006583958864212036,-0.009527853690087795,0.0001660862471908331
1733699166381343000,2.226343017578125,0.0083234878256917,-0.005439294036477804,0.0008768542902544141
1733699166391298800,2.236298828125,0.005320774391293526,0.0049952371045947075,0.0022941885981708765
1733699166401253600,2.246253662109375,0.0024494342505931854,0.010480284690856934,0.001549296546727419
1733699166411209700,2.256209716796875,-0.003738420782610774,0.011270977556705475,-0.00012503284960985184
1733699166421164800,2.266164794921875,-0.0035413792356848717,0.009648237377405167,-0.0008206148631870747
1733699166431121000,2.276120849609375,-0.005248731933534145,0.009617610834538937,-0.00046162074431777
1733699166441075700,2.28607568359375,-0.004392175003886223,-0.0014559407718479633,-0.004658784717321396
1733699166451031800,2.29603173828125,-0.0012384596047922969,-0.006841917522251606,-0.0034060338512063026
1733699166460987000,2.30598681640625,0.0005158623680472374,-0.01691373810172081,-0.0023335344158113003
1733699166470942700,2.315942626953125,-0.0014175926335155964,-0.012132830917835236,-0.0033623138442635536
1733699166480897800,2.325897705078125,-0.001771998591721058,-0.006837890949100256,-0.0028530212584882975
1733699166490852900,2.335852783203125,-0.002671348163858056,-0.0028996081091463566,-0.0025699271354824305
1733699166500808700,2.34580859375,-0.005191521719098091,0.010000116191804409,0.00020014506299048662
1733699166510763800,2.355763671875,-0.004127056337893009,0.01517730113118887,0.00023476616479456425
1733699166520720000,2.365719970703125,-0.004131040070205927,0.01834803819656372,0.00023724453058093786
1733699166530674700,2.3756748046875,-0.004296156112104654,0.022879673168063164,0.0008918495150282979
1733699166540630800,2.385630859375,-0.0028519239276647568,0.02238192781805992,0.0004745321348309517
1733699166550585900,2.3955859375,0.0008578592678532004,0.017644165083765984,0.0018966601928696036
1733699166560542000,2.4055419921875,0.0006130562396720052,0.01726369559764862,0.0021929596550762653
1733699166570496800,2.415496826171875,0.002909233793616295,0.010790618136525154,0.0011015962809324265
1733699166580452900,2.425452880859375,0.003679238259792328,0.0065491390414536,0.0007652165368199348
1733699166590408000,2.435407958984375,0.002622229978442192,0.007096152286976576,0.001122879097238183
1733699166600363800,2.44536376953125,0.0012290896847844124,-0.0004625166766345501,-0.002070982940495014
1733699166610318800,2.45531884765625,-0.0023169091437011957,0.0004315065161790699,-0.0005479210522025824
1733699166620274700,2.465274658203125,-0.0023665744811296463,-0.006783594377338886,-0.0025690020993351936
1733699166630229800,2.475229736328125,-0.0023058545775711536,-0.010782863013446331,-0.00420098751783371
1733699166640185900,2.485185791015625,-0.0005718006286770105,-0.02025064453482628,-0.005465277470648289
1733699166650140700,2.495140625,0.0004841428017243743,-0.02327652834355831,-0.002758973278105259
1733699166660096800,2.5050966796875,0.0023381307255476713,-0.02007816731929779,-0.0018179535400122404
1733699166670051800,2.5150517578125,0.0037195126060396433,-0.012260192073881626,-0.00020407792180776596
1733699166680007700,2.525007568359375,0.0031802805606275797,-0.0007756733102723956,0.00022240506950765848
1733699166689962800,2.534962646484375,0.004808004945516586,0.004725618753582239,0.0021390821784734726
1733699166699918800,2.5449189453125,0.0068711182102561,0.008067939430475235,0.0020951919723302126
1733699166709874000,2.5548740234375,0.008414685726165771,0.009585408493876457,0.002303983783349395
1733699166719829800,2.564829833984375,0.009297914803028107,0.00805111974477768,0.0017907036235556006
1733699166729784800,2.574784912109375,0.011225776746869087,0.004985288251191378,0.0017539520049467683
1733699166739741000,2.584740966796875,0.010086474008858204,0.003937195520848036,0.002531077479943633
1733699166749695700,2.59469580078125,0.007229967974126339,0.0012758984230458736,0.0021606318186968565
1733699166759651800,2.60465185546875,0.00548155652359128,0.0016678646206855774,0.0018785592401400208
1733699166769607000,2.61460693359375,0.002626115456223488,0.001312598935328424,-0.00013159471563994884
1733699166779561700,2.624561767578125,-0.001526118372566998,0.004962597507983446,0.0005868956213817
1733699166789517800,2.634517822265625,-0.0025253365747630596,0.009870802983641624,0.000994891976006329
1733699166799473000,2.644472900390625,-0.002967734355479479,0.013689850457012653,-0.00005255918949842453
1733699166809428700,2.6544287109375,-0.0020417533814907074,0.016423052176833153,0.0021940835285931826
1733699166819383800,2.6643837890625,-0.0036953336093574762,0.015220539644360542,0.0012525080237537622
1733699166829339600,2.674339599609375,-0.0012375022051855922,0.01339627429842949,-0.00020344206131994724
1733699166839295000,2.684294921875,-0.000459910137578845,0.009024632163345814,0.0004913624143227935
1733699166849250800,2.694250732421875,-0.0014945482835173607,0.008444329723715782,-0.0012474155519157648
1733699166859205600,2.70420556640625,0.0009800749830901623,0.005734679754823446,0.0013202042318880558
1733699166869161700,2.71416162109375,0.00032786675728857517,0.002260852139443159,0.00003789202310144901
1733699166879116800,2.72411669921875,-0.000017386977560818195,-0.0010089448187500238,-0.0003249563742429018
1733699166889073000,2.734072998046875,0.0010279036359861493,-0.005998110864311457,-0.0014269722159951925
1733699166899027700,2.74402783203125,0.0016904257936403155,-0.008549438789486885,0.0002608268987387419
1733699166908983800,2.75398388671875,0.00031623465474694967,-0.01080513559281826,-0.0007141563110053539
1733699166918939000,2.76393896484375,-0.0018801470287144184,-0.008192469365894794,-0.0012157640885561705
1733699166928894700,2.773894775390625,-0.0014023759867995977,-0.0004288228810764849,0.0003733441699296236
1733699166938849800,2.783849853515625,-0.00091327860718593,0.00651514669880271,-0.0004758196882903576
1733699166948806000,2.793805908203125,-0.0003838421544060111,0.012012443505227566,0.001360696041956544
1733699166958760700,2.8037607421875,0.0021724270191043615,0.010224410332739353,0.00008607469499111176
1733699166968716800,2.813716796875,0.004613214172422886,0.00314918952062726,-0.0014953103382140398
1733699166978671900,2.823671875,0.005414529703557491,-0.006516157649457455,-0.0018958128057420254
1733699166988628000,2.8336279296875,0.00784839317202568,-0.013238509185612202,-0.002776520326733589
1733699166998582800,2.843582763671875,0.008636783808469772,-0.020782597362995148,-0.0014403057284653187
1733699167008538600,2.85353857421875,0.011223246343433857,-0.02368597500026226,-0.0022717444226145744
1733699167018494000,2.863493896484375,0.01142125017940998,-0.026573043316602707,-0.0009233781602233648
1733699167028449800,2.87344970703125,0.01021111011505127,-0.027522992342710495,0.000001537846401333809
1733699167038404600,2.883404541015625,0.011528771370649338,-0.023107493296265602,0.0011220176238566637
1733699167048360700,2.893360595703125,0.014052382670342922,-0.017122838646173477,0.0030578693840652704
1733699167058316000,2.90331591796875,0.01039347518235445,-0.008159191347658634,0.005008184351027012
1733699167068271000,2.91327099609375,0.011048879474401474,-0.004809733480215073,0.0034014992415905
1733699167078227000,2.92322705078125,0.010848188772797585,-0.0015512497629970312,0.003423447720706463
1733699167088182000,2.93318212890625,0.009100622497498989,0.00047301893937401474,0.0036330383736640215
1733699167098138000,2.94313818359375,0.006628686562180519,0.00179259420838207,0.003177986014634371
1733699167108093000,2.953093017578125,0.0065405359491705894,0.004116734955459833,0.003086373209953308
1733699167118049000,2.963049072265625,0.004073976539075375,0.009226051159203053,0.002151699736714363
1733699167128004000,2.973004150390625,0.0010896383319050074,0.019380951300263405,0.0025546359829604626
1733699167137960000,2.9829599609375,-0.005731428973376751,0.029696185141801834,0.005117624998092651
1733699167147915000,2.9929150390625,-0.010678250342607498,0.04157361388206482,0.005913910456001759
1733699167157871000,3.00287109375,-0.013085433281958103,0.047086287289857864,0.005668129771947861
1733699167167826000,3.012825927734375,-0.015704385936260223,0.05035451799631119,0.003634273773059249
1733699167177782000,3.022781982421875,-0.012841235846281052,0.04564246907830238,0.002879201201722026
1733699167187737000,3.032737060546875,-0.011503263376653194,0.03496106341481209,-0.0005253839772194624
1733699167197693200,3.042693115234375,-0.007332243956625462,0.01956230215728283,-0.0025724375154823065
1733699167207648000,3.05264794921875,-0.0039809225127100945,0.005242218263447285,-0.0028720430564135313
1733699167217604000,3.06260400390625,-0.0011108203325420618,-0.00184992840513587,-0.0037675979547202587
1733699167227559200,3.07255908203125,-0.003584897145628929,-0.0025322302244603634,-0.0019044503569602966
1733699167237515000,3.082514892578125,-0.005687354598194361,0.003998341038823128,-0.001881687669083476
1733699167247470000,3.092469970703125,-0.009724174626171589,0.013848042115569115,-9.632203727960587e-7
1733699167257426000,3.102426025390625,-0.011588070541620255,0.02210550382733345,0.0007159748347476125
1733699167267381000,3.112381103515625,-0.009528914466500282,0.022813905030488968,0.002365270396694541
1733699167277337000,3.122337158203125,-0.004132696893066168,0.01906319335103035,0.0018011394422501326
1733699167287292000,3.1322919921875,0.0038328180089592934,0.007928784936666489,0.0030983651522547007
1733699167297248000,3.142248046875,0.010347453877329826,-0.0031856740824878216,0.0026036305353045464
1733699167307203000,3.152203125,0.016247952356934547,-0.012921392917633057,0.002692047506570816
1733699167317159000,3.162158935546875,0.018645841628313065,-0.017288006842136383,0.002922795480117202
1733699167327114000,3.172114013671875,0.014655626378953457,-0.016498113051056862,0.006449353415518999
1733699167337070000,3.182070068359375,0.009193590842187405,-0.005994638428092003,0.003961554262787104
1733699167347025200,3.192025146484375,-0.00025237537920475006,0.0040939487516880035,0.00378924747928977
1733699167356980000,3.20197998046875,-0.006438753567636013,0.014826668426394463,-0.00111968326382339
1733699167366936000,3.21193603515625,-0.010082757100462914,0.01980118826031685,-0.003290958469733596
1733699167376891100,3.22189111328125,-0.00942305475473404,0.018393652513623238,-0.0057698809541761875
1733699167386847000,3.231846923828125,-0.004388615023344755,0.009358879178762436,-0.007386685814708471
1733699167396802000,3.241802001953125,0.0028926965314894915,0.0005446684663183987,-0.004975673742592335
1733699167406758100,3.251758056640625,0.01006538886576891,-0.009147906675934792,-0.004627599380910397
1733699167416713000,3.261712890625,0.010336908511817455,-0.01915029250085354,-0.002748664701357484
1733699167426669000,3.2716689453125,0.012406185269355774,-0.02993210032582283,-0.002997404197230935
1733699167436624100,3.2816240234375,0.007887370884418488,-0.0383719764649868,-0.005336244124919176
1733699167446580200,3.291580322265625,0.005349910818040371,-0.04588368907570839,-0.0065261442214250565
1733699167456535000,3.30153515625,0.003796634264290333,-0.04986945912241936,-0.008725041523575783
1733699167466491000,3.311490966796875,0.004021937493234873,-0.05704694613814354,-0.0038802199997007847
1733699167476446200,3.3214462890625,0.0021731359884142876,-0.06998199224472046,-0.003940636292099953
1733699167486402000,3.331402099609375,-0.00027191219851374626,-0.07956857234239578,-0.009349515661597252
1733699167496356900,3.34135693359375,0.0009224899113178253,-0.08680754154920578,-0.009539000689983368
1733699167506313000,3.35131298828125,0.00513214897364378,-0.08737000823020935,-0.005836674012243748
1733699167516268000,3.36126806640625,0.006238935049623251,-0.07435602694749832,-0.003057813737541437
1733699167526224100,3.37122412109375,0.0037123938091099262,-0.0475798137485981,0.0025167150888592005
1733699167536179000,3.381178955078125,-0.003902274649590254,-0.011214647442102432,0.009994730353355408
1733699167546135000,3.391135009765625,-0.014971970580518246,0.027655785903334618,0.011791300028562546
1733699167556090000,3.401090087890625,-0.024172306060791016,0.06175731122493744,0.009932376444339752
1733699167566046000,3.4110458984375,-0.03290800750255585,0.08947549015283585,0.005726446397602558
1733699167576001300,3.421001220703125,-0.034039534628391266,0.09960687160491943,0.0010560897644609213
1733699167585957000,3.43095703125,-0.030740678310394287,0.09714850783348083,0.0005120058776810765
1733699167595912000,3.440911865234375,-0.021102095022797585,0.08033174276351929,0.0012211170978844166
1733699167605868000,3.450867919921875,-0.010665698908269405,0.055231980979442596,0.0006346890004351735
1733699167615823000,3.460822998046875,-0.00566590391099453,0.027114227414131165,0.0037467111833393574
1733699167625779200,3.470779296875,-0.0001915103057399392,0.014427727088332176,0.0012715691700577736
1733699167635734000,3.480734130859375,0.0016205045394599438,0.013961141929030418,0.002280907239764929
1733699167645689000,3.490689208984375,-0.0009787407470867038,0.011703845113515854,0.002329376759007573
1733699167655645200,3.500645263671875,-0.008368261158466339,0.019001249223947525,0.0030404110439121723
1733699167665600000,3.51060009765625,-0.014578220434486866,0.0367184616625309,0.005171205848455429
1733699167675555800,3.520555908203125,-0.02199443243443966,0.05303354933857918,0.005719425622373819
1733699167685511200,3.53051123046875,-0.026907432824373245,0.06711181998252869,0.007175375707447529
1733699167695467000,3.540467041015625,-0.028250165283679962,0.08029613643884659,0.0066983662545681
1733699167705422000,3.550422119140625,-0.02053818292915821,0.07769103348255157,0.005573446862399578
1733699167715378000,3.5603779296875,-0.006563473492860794,0.055401261895895004,0.003576277755200863
1733699167725333000,3.5703330078125,0.01274870615452528,0.024787958711385727,0.0029325915966182947
1733699167735289000,3.5802890625,0.030304808169603348,-0.01026831939816475,0.0029971199110150337
1733699167745244000,3.590243896484375,0.0374029316008091,-0.032924894243478775,0.003887947415933013
1733699167755200300,3.6002001953125,0.035543691366910934,-0.040545541793107986,0.006548216566443443
1733699167765155000,3.610155029296875,0.02396240271627903,-0.042639318853616714,0.006953283213078976
1733699167775111000,3.62011083984375,0.006736568175256252,-0.031195886433124542,0.006514276377856731
1733699167785066200,3.630066162109375,-0.009697000496089458,-0.012882391922175884,0.002975734183564782
1733699167795022000,3.64002197265625,-0.02446514368057251,0.0036114160902798176,-0.0005180086009204388
1733699167804977000,3.649976806640625,-0.03432709723711014,0.018387965857982635,-0.00252736359834671
1733699167814933000,3.65993310546875,-0.03739897161722183,0.03199472650885582,-0.002639238489791751
1733699167824888000,3.66988818359375,-0.035782426595687866,0.040698468685150146,-0.00017661345191299915
1733699167834844200,3.67984423828125,-0.029567798599600792,0.05144530162215233,0.005082936957478523
1733699167844799000,3.689799072265625,-0.02131066657602787,0.057878702878952026,0.008008153177797794
1733699167854755000,3.699755126953125,-0.01591392792761326,0.057898517698049545,0.010458906181156635
1733699167864710100,3.709710205078125,-0.009598242118954659,0.050737544894218445,0.009967286139726639
1733699167874666000,3.719666015625,-0.002082421910017729,0.0387459360063076,0.00836242362856865
1733699167884621000,3.72962109375,0.007867414504289627,0.032880593091249466,0.007647897116839886
1733699167894577200,3.7395771484375,0.007749129086732864,0.02055276371538639,0.007647317368537188
1733699167904532000,3.749531982421875,0.007169358432292938,0.00004988536238670349,0.003907972946763039
1733699167914488000,3.759488037109375,0.007660313509404659,-0.01842239499092102,0.0007851434638723731
1733699167924443000,3.76944287109375,0.010870221070945263,-0.03184712305665016,-0.00031926948577165604
1733699167934398000,3.77939794921875,0.007900490425527096,-0.038025207817554474,0.00030877033714205027
1733699167944354000,3.78935400390625,0.00505090830847621,-0.04534970223903656,-0.002952270209789276
1733699167954308900,3.799308837890625,0.00462055578827858,-0.05028549209237099,-0.001910642022266984
1733699167964265200,3.80926513671875,0.001510515809059143,-0.04988974332809448,-0.003923192620277405
1733699167974220000,3.819219970703125,-0.001691837445832789,-0.043070197105407715,-0.00541132315993309
1733699167984176000,3.829176025390625,-0.004730770364403725,-0.035853829234838486,-0.007600707001984119
1733699167994131200,3.839131103515625,-0.003965270239859819,-0.031586144119501114,-0.007327075116336346
1733699168004087000,3.849087158203125,-0.0032161229755729437,-0.028764793649315834,-0.006253022700548172
1733699168014042000,3.8590419921875,-0.002056900877505541,-0.027665769681334496,-0.007062103599309921
1733699168023998000,3.868998046875,-0.0016901835333555937,-0.022781798616051674,-0.00534090306609869
1733699168033953000,3.878953125,-0.0004481922369450331,-0.017853587865829468,-0.0030885280575603247
1733699168043909000,3.8889091796875,0.0009704737458378077,-0.01145587582141161,-0.0016741231083869934
1733699168053864000,3.898864013671875,0.00019667053129523993,-0.005963798612356186,0.002069592708721757
1733699168063820300,3.9088203125,-0.0004297050181776285,0.001030727638863027,0.0036768103018403053
1733699168073775400,3.918775390625,-0.002577133011072874,0.013383181765675545,0.004304857924580574
1733699168083731500,3.9287314453125,-0.005479179322719574,0.028562666848301888,0.0035226873587816954
1733699168093686300,3.938686279296875,-0.010531947948038578,0.041416607797145844,0.003928582649677992
1733699168103642400,3.948642333984375,-0.01364544965326786,0.04740019515156746,0.0013346639461815357
1733699168113597400,3.958597412109375,-0.015160107985138893,0.049553681164979935,-0.0001987246796488762
1733699168123553300,3.96855322265625,-0.00999916810542345,0.039212096482515335,-0.001435496611520648
1733699168133508400,3.97850830078125,-0.006646333262324333,0.022666269913315773,0.0007150286110118032
1733699168143464400,3.98846435546875,-0.0008076192461885512,0.006209800019860268,0.0012993260752409697
1733699168153419500,3.99841943359375,0.001462773885577917,-0.0003746752627193928,0.004341750405728817
1733699168163375400,4.008375244140625,0.0015077812131494284,0.0015758238732814789,0.005757220089435577
1733699168173330400,4.018330322265625,-0.00016475736629217863,0.006543257739394903,0.005659053102135658
1733699168183286500,4.02828662109375,0.0020573842339217663,0.006844460964202881,0.011283915489912033
1733699168193241300,4.038241455078125,0.002078577410429716,0.015469268895685673,0.008216110989451408
1733699168203197400,4.048197509765625,-0.00541795464232564,0.02595147117972374,0.0029750093817710876
1733699168213152500,4.058152587890625,-0.005449861288070679,0.019531985744833946,-0.0010727155022323132
1733699168223107300,4.068107421875,-0.002781906398013234,0.010858068242669106,0.0003446189220994711
1733699168233063400,4.0780634765625,0.0023625451140105724,-0.0023684247862547636,0.002847073134034872
1733699168243018500,4.0880185546875,0.006045963149517775,-0.012756085023283958,-0.00012448197230696678
1733699168252974300,4.097974365234375,0.01259622722864151,-0.021114341914653778,-0.00039136060513556004
1733699168262929400,4.107929443359375,0.017880205065011978,-0.027160782366991043,-0.0008113409858196974
1733699168272885200,4.11788525390625,0.02117159217596054,-0.031729284673929214,0.0025191418826580048
1733699168282840600,4.127840576171875,0.022923419252038002,-0.03037506900727749,0.003456041682511568
1733699168292796400,4.13779638671875,0.02098359912633896,-0.023916400969028473,0.004204257391393185
1733699168302751200,4.147751220703125,0.014577630907297134,-0.011931643821299076,0.004169103689491749
1733699168312707300,4.157707275390625,0.0072204312309622765,0.004855250474065542,0.003345949575304985
1733699168322662400,4.167662353515625,0.0016917085740715265,0.02020864002406597,0.0034330349881201982
1733699168332618500,4.177618408203125,-0.002726092468947172,0.02766330912709236,0.003238299861550331
1733699168342573300,4.1875732421875,-0.00821007415652275,0.031528886407613754,0.0023469398729503155
1733699168352529400,4.197529296875,-0.012240582145750523,0.026769019663333893,0.0011743564391508698
1733699168362484500,4.207484375,-0.013721832074224949,0.01755075342953205,-0.004436391405761242
1733699168372440300,4.2174404296875,-0.012512261047959328,0.0060715158469974995,-0.004243792966008186
1733699168382395400,4.2273955078125,-0.0040399469435215,-0.004501499701291323,-0.002360671991482377
1733699168392351500,4.2373515625,0.0008905788417905569,-0.014780832454562187,-0.0007526695262640715
1733699168402306300,4.247306396484375,0.005446714349091053,-0.018330559134483337,-0.001795030664652586
1733699168412262400,4.257262451171875,0.008487184531986713,-0.017829662188887596,-0.001795126823708415
1733699168422217500,4.267217529296875,0.009571890346705914,-0.017633918672800064,-0.0009240068029612303
1733699168432173600,4.277173583984375,0.0073578739538788795,-0.016114117577672005,-0.0015738261863589287
1733699168442128400,4.28712841796875,-0.0009591783746145666,-0.015931157395243645,-0.0018302886746823788
1733699168452084200,4.297084228515625,-0.0053199464455246925,-0.015054147690534592,-0.001435467740520835
1733699168462039600,4.30703955078125,-0.013192516751587391,-0.01607520319521427,-0.002666913438588381
1733699168471995400,4.316995361328125,-0.01883843168616295,-0.017043380066752434,-0.00969879049807787
1733699168481950200,4.3269501953125,-0.016712697222828865,-0.023076238110661507,-0.009901191107928753
1733699168491906300,4.33690625,-0.01159638725221157,-0.030800627544522285,-0.008963113650679588
1733699168501861400,4.346861328125,-0.0005341487703844905,-0.037431903183460236,-0.004597660154104233
1733699168511817500,4.3568173828125,0.01923784613609314,-0.0339757576584816,0.0024316420312970877
1733699168521772300,4.366772216796875,0.03344794362783432,-0.030715247616171837,0.004867635667324066
1733699168531728400,4.376728271484375,0.04360142722725868,-0.02042573317885399,0.0037826858460903168
1733699168541683500,4.386683349609375,0.048610031604766846,-0.014497269876301289,-0.000292749609798193
1733699168551638300,4.39663818359375,0.03980036824941635,-0.019161103293299675,-0.005401594564318657
1733699168561594400,4.406594482421875,0.02981351688504219,-0.0251470897346735,-0.006671655923128128
1733699168571549400,4.416549560546875,0.022126974537968636,-0.027479976415634155,-0.006294197402894497
1733699168581505300,4.42650537109375,0.016412897035479546,-0.02666265144944191,-0.009207429364323616
1733699168591460400,4.43646044921875,0.01103139016777277,-0.022920548915863037,-0.008803006261587143
1733699168601416400,4.44641650390625,0.00961592048406601,-0.011607973836362362,-0.006079924292862415
1733699168611371300,4.456371337890625,0.0025928246323019266,0.011488396674394608,-0.0011300696060061455
1733699168621327400,4.466327392578125,0.00039545027539134026,0.029361935332417488,0.004166158847510815
1733699168631282400,4.476282470703125,-0.003148455172777176,0.04755430668592453,0.0056368084624409676
1733699168641238500,4.486238525390625,-0.008847619406878948,0.0499759204685688,0.0005696119042113423
1733699168651193300,4.496193359375,-0.014612504281103611,0.04766407608985901,-0.001717148581519723
1733699168661149400,4.5061494140625,-0.01993323303759098,0.03748041391372681,-0.005147033371031284
1733699168671104500,4.5161044921875,-0.022289257496595383,0.021372441202402115,-0.007358892820775509
1733699168681060400,4.526060302734375,-0.019728096202015877,0.004836874548345804,-0.01013230811804533
1733699168691015400,4.536015380859375,-0.012787439860403538,-0.011567824520170689,-0.011338350363075733
1733699168700971300,4.54597119140625,-0.00479662511497736,-0.02569403126835823,-0.008473055437207222
1733699168710926300,4.55592626953125,0.0010426075896248221,-0.03333049267530441,-0.007044867612421513
1733699168720882400,4.56588232421875,0.004079942591488361,-0.03519950062036514,-0.003977438900619745
1733699168730837200,4.575837158203125,0.008617113344371319,-0.033592455089092255,-0.0019839087035506964
1733699168740793300,4.58579345703125,0.010801438242197037,-0.0313817635178566,-0.0005833522882312536
1733699168750748400,4.59574853515625,0.01784903183579445,-0.027743864804506302,-0.0013328543864190578
1733699168760704300,4.605704345703125,0.02573917992413044,-0.03255193307995796,0.00033321918454021215
1733699168770659300,4.615659423828125,0.017746442928910255,-0.040995124727487564,-0.008295799605548382
1733699168780615400,4.625615478515625,0.010873090475797653,-0.04723198339343071,-0.0075418585911393166
1733699168790570500,4.635570556640625,0.003946799319237471,-0.043953195214271545,-0.002960844663903117
1733699168800526300,4.6455263671875,-0.0035476023331284523,-0.03183234855532646,-0.0026947951409965754
1733699168810481400,4.6554814453125,-0.006562286987900734,-0.013768011704087257,-0.004162130411714315
1733699168820437500,4.6654375,-0.009287233464419842,-0.002806706354022026,-0.006879886146634817
1733699168830392300,4.675392333984375,-0.004397838842123747,0.005968132521957159,-0.009004511870443821
1733699168840347400,4.685347412109375,0.005756261758506298,0.01227849256247282,-0.01200323086231947
1733699168850303500,4.695303466796875,0.004439558368176222,-0.003044217824935913,-0.016216034069657326
1733699168860258300,4.70525830078125,0.0006469504442065954,-0.024343114346265793,-0.027540061622858047
1733699168870214400,4.71521435546875,0.004050686024129391,-0.037991080433130264,-0.028293749317526817
1733699168880169500,4.72516943359375,0.008243300020694733,-0.041005246341228485,-0.01777293160557747
1733699168890125300,4.735125244140625,0.011534037068486214,-0.022856134921312332,-0.012335830368101597
1733699168900080400,4.745080322265625,0.008960091508924961,0.005131558980792761,-0.0035772263072431087
1733699168910036200,4.7550361328125,0.005874347873032093,0.0351472906768322,0.0053071752190589905
1733699168919991600,4.764991455078125,0.002707050647586584,0.05889549478888512,0.010398074053227901
1733699168929947400,4.774947509765625,0.00027500081341713667,0.06305023282766342,0.006716771982610226
1733699168939902200,4.784902099609375,0.0005112231010571122,0.050673723220825195,-0.00020158756524324417
1733699168949858300,4.7948583984375,0.005303619429469109,0.023891855031251907,-0.007473400793969631
1733699168959813400,4.8048134765625,0.011019029654562473,-0.0017178996931761503,-0.007093634456396103
1733699168969769500,4.81476953125,0.01631690189242363,-0.0259237103164196,-0.0050174035131931305
1733699168979724300,4.824724365234375,0.017960071563720703,-0.04154501482844353,-0.0038509387522935867
1733699168989680400,4.834680419921875,0.017817340791225433,-0.04861931875348091,-0.0033619168680161238
1733699168999635500,4.844635498046875,0.01556830108165741,-0.046426206827163696,-0.0036284991074353456
1733699169009591300,4.85459130859375,0.009457897394895554,-0.034625399857759476,0.0002018953673541546
1733699169019546400,4.86454638671875,0.0012606877135112882,-0.02038148231804371,0.00007406366057693958
1733699169029502500,4.87450244140625,-0.005898543167859316,-0.0018020239658653736,-0.000673411414027214
1733699169039457300,4.884457275390625,-0.012181472964584827,0.015252859331667423,0.0005252773407846689
1733699169049413400,4.894413330078125,-0.015656668692827225,0.026435792446136475,0.0008246685611084104
1733699169059368700,4.90436865234375,-0.015074235387146473,0.032336559146642685,0.0015991157852113247
1733699169069324500,4.914324462890625,-0.012026379816234112,0.03472055867314339,0.0037637255154550076
1733699169079279600,4.924279541015625,-0.009138713590800762,0.039037540555000305,0.00559811107814312
1733699169089235500,4.9342353515625,-0.007313760928809643,0.04395469278097153,0.007636916823685169
1733699169099190500,4.9441904296875,-0.0035634974483400583,0.04886742681264877,0.011230053380131721
1733699169109146600,4.954146728515625,0.0001430294942110777,0.059959717094898224,0.013169005513191223
1733699169119101400,4.964101318359375,0.0004964310210198164,0.07148028910160065,0.01568356156349182
1733699169129057500,4.9740576171875,-0.004486474674195051,0.08104469627141953,0.013828129507601261
1733699169139012600,4.9840126953125,-0.009828509762883186,0.08957906812429428,0.011181213892996311
1733699169148968400,4.993968505859375,-0.020844722166657448,0.08798284083604813,0.008120146580040455
1733699169158923500,5.003923583984375,-0.023047689348459244,0.08043384552001953,0.00457414798438549
1733699169168878600,5.013878662109375,-0.022147096693515778,0.0663321316242218,0.0023853331804275513
1733699169178834400,5.02383447265625,-0.0205923430621624,0.04664764180779457,0.0008082091808319092
1733699169188789500,5.03378955078125,-0.01334522757679224,0.021540509536862373,-0.0015985637437552214
1733699169198745600,5.04374560546875,-0.00534189585596323,-0.0016172747127711773,-0.004103000275790691
1733699169208700700,5.05370068359375,0.00344802625477314,-0.02563389576971531,-0.005750824231654406
1733699169218656500,5.063656494140625,0.008986336179077625,-0.046005479991436005,-0.005585708189755678
1733699169228611600,5.073611572265625,0.012820876203477383,-0.061136677861213684,-0.010827948339283466
1733699169238567700,5.083567626953125,0.009145181626081467,-0.07161728292703629,-0.01961185410618782
1733699169248522500,5.0935224609375,0.0055426256731152534,-0.08473360538482666,-0.027204036712646484
1733699169258478600,5.103478515625,0.004665646702051163,-0.10293843597173691,-0.034468874335289
1733699169268433700,5.11343359375,0.012498185969889164,-0.10994242876768112,-0.042495884001255035
1733699169278389500,5.123389404296875,0.06519708037376404,-0.09518717974424362,-0.042786434292793274
1733699169288344600,5.133344482421875,0.12156879156827927,-0.07425587624311447,-0.05576612055301666
1733699169298300400,5.143300537109375,0.10847882181406021,-0.08842149376869202,-0.0814049020409584
1733699169308255700,5.153255859375,0.08926603198051453,-0.0848940759897232,-0.0821649581193924
1733699169318211600,5.163211669921875,0.06789017468690872,-0.0668431743979454,-0.06440912932157516
1733699169328166400,5.17316650390625,0.04401678219437599,-0.04179824888706207,-0.04272495210170746
1733699169338122500,5.18312255859375,0.016604067757725716,-0.016644692048430443,-0.02559416927397251
1733699169348077600,5.19307763671875,-0.002425794955343008,0.004392106086015701,-0.015129649080336094
1733699169358033700,5.20303369140625,-0.012277626432478428,0.030898015946149826,-0.007017926312983036
1733699169367988500,5.212988525390625,-0.012633341364562511,0.05972740426659584,0.000581914559006691
1733699169377944600,5.222944580078125,-0.011013073846697807,0.09121183305978775,0.006986817345023155
1733699169387899600,5.232899658203125,-0.01481161080300808,0.11167021095752716,0.013924972154200077
1733699169397855500,5.24285546875,-0.020121419802308083,0.12174893915653229,0.012209630571305752
1733699169407810600,5.252810546875,-0.026232721284031868,0.12706363201141357,0.006864591967314482
1733699169417766700,5.2627666015625,-0.029925459995865822,0.12202919274568558,0.001158236525952816
1733699169427721500,5.272721435546875,-0.029691683128476143,0.11282084882259369,-0.003123356495052576
1733699169437676500,5.282676513671875,-0.028258902952075005,0.09755188226699829,-0.004876782186329365
1733699169447632600,5.292632568359375,-0.020293401554226875,0.0743391290307045,-0.003121292684227228
1733699169457587500,5.30258740234375,-0.00951691996306181,0.0453903004527092,-0.00023469259031116962
1733699169467543600,5.31254345703125,0.0009175455197691917,0.021030185744166374,0.0005601819138973951
1733699169477498600,5.32249853515625,0.009846325032413006,-0.0008314372389577329,0.0010789657244458795
1733699169487454700,5.332454833984375,0.016825858503580093,-0.022732477635145187,-0.0015799293760210276
1733699169497409500,5.342409423828125,0.018984884023666382,-0.03784272074699402,-0.0011349150445312262
1733699169507365400,5.352365478515625,0.020570773631334305,-0.044566765427589417,-0.0020194989629089832
1733699169517320700,5.36232080078125,0.012532819993793964,-0.049143411219120026,0.0006391349015757442
1733699169527276500,5.372276611328125,0.004350048024207354,-0.04020433872938156,0.0010624229907989502
1733699169537231400,5.3822314453125,-0.0051699536852538586,-0.02995835617184639,0.0018954598344862461
1733699169547187500,5.3921875,-0.01231592521071434,-0.01886388473212719,0.0014133898075670004
1733699169557142500,5.402142578125,-0.011580626480281353,-0.00884400773793459,-0.0004897052422165871
1733699169567098600,5.4120986328125,-0.006567977834492922,-0.0023425070103257895,-0.0003916712012141943
1733699169577053400,5.422053466796875,0.0008667692309245467,-0.00458169262856245,0.0009612146532163024
1733699169587009800,5.432009765625,0.011786093935370445,-0.011423896998167038,0.00023634661920368671
1733699169596964600,5.441964599609375,0.022506648674607277,-0.01901257410645485,-0.00141428061760962
1733699169606920400,5.45192041015625,0.032783143222332,-0.03384808450937271,-0.0007765640038996935
1733699169616875800,5.461875732421875,0.05148625746369362,-0.04250336065888405,-0.0002705634105950594
1733699169626831600,5.47183154296875,0.06419341266155243,-0.0573059543967247,0.00631788931787014
1733699169636786400,5.481786376953125,0.07478506863117218,-0.07027661055326462,0.006598586216568947
1733699169646742500,5.491742431640625,0.08025750517845154,-0.06636601686477661,-0.0006204887758940458
1733699169656697600,5.501697509765625,0.09038550406694412,-0.053567398339509964,-0.008937806822359562
1733699169666653700,5.51165380859375,0.09321719408035278,-0.03735985606908798,-0.006690660957247019
1733699169676608500,5.5216083984375,0.09632323682308197,-0.02308717742562294,0.00246315635740757
1733699169686564400,5.531564453125,0.0930800512433052,-0.0038939332589507103,0.013050119392573833
1733699169696519700,5.541519775390625,0.08113790303468704,0.021379731595516205,0.018136758357286453
1733699169706475500,5.5514755859375,0.06593402475118637,0.054619815200567245,0.01627185381948948
1733699169716430600,5.5614306640625,0.05468776449561119,0.08850347995758057,0.010136463679373264
1733699169726386400,5.571386474609375,0.0491580031812191,0.11567221581935883,0.006386332213878632
1733699169736341500,5.581341552734375,0.04973883926868439,0.1220981553196907,0.006133864633738995
1733699169746297600,5.591297607421875,0.053542107343673706,0.11375045776367188,0.00799150113016367
1733699169756252400,5.60125244140625,0.05262225121259689,0.08625838160514832,0.013278407976031303
1733699169766207500,5.61120751953125,0.04586927592754364,0.046892598271369934,0.017882214859128
1733699169776163600,5.62116357421875,0.034634996205568314,0.00856758002191782,0.022371772676706314
1733699169786118400,5.631118408203125,0.01904170773923397,-0.019780905917286873,0.025175830349326134
1733699169796074800,5.64107470703125,0.0003042382886633277,-0.03337102010846138,0.02070038765668869
1733699169806029600,5.651029541015625,-0.018902165815234184,-0.03572719171643257,0.013907224871218204
1733699169815985400,5.6609853515625,-0.033708274364471436,-0.030031755566596985,0.009046157822012901
1733699169825940700,5.670940673828125,-0.043997883796691895,-0.020842324942350388,0.007999299094080925
1733699169835896600,5.680896484375,-0.04665997996926308,-0.015584980137646198,0.009720765985548496
1733699169845851600,5.6908515625,-0.0466109998524189,-0.006087710149586201,0.010868440382182598
1733699169855807500,5.700807373046875,-0.04065191000699997,0.0014005659613758326,0.01735110580921173
1733699169865762600,5.710762451171875,-0.0310076754540205,0.003005984239280224,0.021769564598798752
1733699169875718700,5.72071875,-0.02739403210580349,-0.005028506275266409,0.02121269702911377
1733699169885673500,5.730673583984375,-0.029403069987893105,-0.017505085095763206,0.024304376915097237
1733699169895629600,5.740629638671875,-0.04892111197113991,-0.039050325751304626,0.03064083494246006
1733699169905584600,5.750584716796875,-0.05638215318322182,-0.03312131017446518,0.048446375876665115
1733699169915540500,5.76054052734375,-0.05749881640076637,-0.0010765567421913147,0.06007000803947449
1733699169925495600,5.77049560546875,-0.062407322227954865,0.03445393219590187,0.05704575777053833
1733699169935451400,5.780451416015625,-0.055602945387363434,0.06688111275434494,0.04592280089855194
1733699169945406500,5.790406494140625,-0.03502051532268524,0.094267837703228,0.03703673183917999
1733699169955362600,5.800362548828125,-0.012962615117430687,0.11003322154283524,0.03524069860577583
1733699169965317400,5.8103173828125,-0.004768079146742821,0.1042560413479805,0.034093860536813736
1733699169975273700,5.820273681640625,-0.006213376298546791,0.08086283504962921,0.03659003973007202
1733699169985228500,5.830228515625,-0.005982689559459686,0.06602387875318527,0.04668672755360603
1733699169995184600,5.8401845703125,-0.009042128920555115,0.05619174987077713,0.06231921911239624
1733699170005139700,5.8501396484375,-0.020427370443940163,0.047479964792728424,0.0633535385131836
1733699170015095600,5.860095458984375,-0.03159613534808159,0.03949660807847977,0.06040568649768829
1733699170025050600,5.870050537109375,-0.03132615238428116,0.038827043026685715,0.05302650108933449
1733699170035006500,5.88000634765625,-0.030781801789999008,0.034252531826496124,0.041036151349544525
1733699170044961500,5.88996142578125,-0.020756717771291733,0.030652793124318123,0.028177937492728233
1733699170054916600,5.89991650390625,-0.0069077471271157265,0.024287305772304535,0.018552208319306374
1733699170064872200,5.9098720703125,-0.004483629018068314,-0.0008393868920393288,0.011671789921820164
1733699170074828000,5.919828125,0.0004703828599303961,-0.01854807697236538,0.009701317176222801
1733699170084783400,5.929783447265625,0.00313270790502429,-0.02147590182721615,0.013229791074991226
1733699170094738200,5.93973828125,-0.0007323377067223191,-0.014747160486876965,0.014622891321778297
1733699170104694300,5.9496943359375,-0.01081398781388998,-0.0018831752240657806,0.012940372340381145
1733699170114649300,5.9596494140625,-0.018280692398548126,0.013598047196865082,0.014257571659982204
1733699170124605200,5.969605224609375,-0.02772924117743969,0.02778204344213009,0.012750749476253986
1733699170134560300,5.979560302734375,-0.030759384855628014,0.03681734949350357,0.015118565410375595
1733699170144516400,5.989516357421875,-0.03362172469496727,0.03521063178777695,0.016226306557655334
1733699170154471200,5.99947119140625,-0.03144192323088646,0.020869242027401924,0.012188155204057693
1733699170164427300,6.00942724609375,-0.04370595142245293,-0.018509332090616226,0.002476715948432684
1733699170174382300,6.01938232421875,-0.029675619676709175,-0.03946201875805855,0.009038478136062622
1733699170184338400,6.02933837890625,0.002140773693099618,-0.04033789038658142,0.015436280518770218
1733699170194293200,6.039293212890625,0.008181355893611908,-0.06274519115686417,-0.002557633677497506
1733699170204249300,6.049249267578125,0.018849290907382965,-0.08774524182081223,-0.01397636067122221
1733699170214204400,6.059204345703125,0.02845052070915699,-0.11312996596097946,-0.009752053767442703
1733699170224160300,6.06916015625,0.033631715923547745,-0.12759347259998322,-0.005132734309881926
1733699170234115300,6.079115234375,0.03193581476807594,-0.12879322469234467,-0.005151908844709396
1733699170244071200,6.0890712890625,0.026238257065415382,-0.11631540209054947,-0.007285566069185734
1733699170254026200,6.099026123046875,0.01984613761305809,-0.09722986072301865,-0.009472020901739597
1733699170263982300,6.108982421875,0.01699192076921463,-0.07558924704790115,-0.009009288623929024
1733699170273937200,6.118937255859375,0.01663106121122837,-0.05781024694442749,-0.009606368839740753
1733699170283893200,6.128893310546875,0.011163082905113697,-0.04422178119421005,-0.00849487166851759
1733699170293848300,6.138848388671875,0.009550272487103939,-0.03415609523653984,-0.00996866449713707
1733699170303804200,6.14880419921875,0.006780402734875679,-0.026977675035595894,-0.005572873167693615
1733699170313759200,6.15875927734375,0.0052754501812160015,-0.01725846715271473,-0.003627167781814933
1733699170323715300,6.16871533203125,0.0020621907897293568,-0.007327698636800051,-0.0028454188723117113
1733699170333670400,6.17867041015625,-0.002032685559242964,0.0004133112670388073,-0.0018941375892609358
1733699170343626200,6.188626220703125,-0.007158858701586723,0.00824158824980259,-0.0009409186895936728
1733699170353581300,6.198581298828125,-0.010565042495727539,0.01751844398677349,-0.003676517866551876
1733699170363537400,6.208537353515625,-0.011611023917794228,0.024200549349188805,-0.004011417739093304
1733699170373492200,6.2184921875,-0.01636796072125435,0.031665921211242676,-0.00401754304766655
1733699170383448300,6.2284482421875,-0.01755978725850582,0.038836974650621414,-0.002469543367624283
1733699170393403400,6.2384033203125,-0.017172297462821007,0.04580060765147209,-0.002165676560252905
1733699170403358200,6.248358154296875,-0.0183377917855978,0.04551313444972038,-0.0005060534458607435
1733699170413314300,6.258314208984375,-0.015971573069691658,0.04437250271439552,0.00044016772881150246
1733699170423269400,6.268269287109375,-0.011732777580618858,0.03742535039782524,0.0006227194098755717
1733699170433225200,6.27822509765625,-0.011555944569408894,0.0326998345553875,0.00041605811566114426
1733699170443180300,6.28818017578125,-0.005280619487166405,0.02656625583767891,0.001643983181566
1733699170453136100,6.29813623046875,-0.0024131941609084606,0.02073899284005165,0.0019696878734976053
1733699170463091500,6.308091552734375,0.0011080142576247454,0.019148990511894226,0.0039384146220982075
1733699170473047300,6.31804736328125,0.002757576061412692,0.018194513395428658,0.0033152347896248102
1733699170483002000,6.328002197265625,0.0019421163015067577,0.021185509860515594,0.003520298283547163
1733699170492958200,6.337958251953125,0.0001122582470998168,0.023540010675787926,0.003757319413125515
1733699170502913300,6.347913330078125,-0.0007315981201827526,0.027716508135199547,0.004042574670165777
1733699170512869400,6.357869384765625,-0.006090144626796246,0.02642221190035343,0.0026979446411132812
1733699170522824200,6.36782421875,-0.005930804647505283,0.02744113653898239,0.0011666184291243553
1733699170532780300,6.3777802734375,-0.00900702178478241,0.026914628222584724,-0.00033327401615679264
1733699170542735400,6.3877353515625,-0.00801735371351242,0.027948681265115738,-0.0003218741621822119
1733699170552691200,6.397691162109375,-0.007457291707396507,0.02518591843545437,-0.00136317010037601
1733699170562646300,6.407646240234375,-0.005498415324836969,0.02142695151269436,-0.001504924613982439
1733699170572602400,6.417602294921875,-0.004703728016465902,0.01583857461810112,-0.0024910932406783104
1733699170582557200,6.42755712890625,-0.0010254066437482834,0.007358057424426079,-0.0036601684987545013
1733699170592513300,6.43751318359375,-0.0001268561463803053,-0.0013709859922528267,-0.003779212012887001
1733699170602468400,6.44746826171875,0.0012152181006968021,-0.010356789454817772,-0.0031487157102674246
1733699170612424400,6.457424560546875,0.003292483976110816,-0.01672920025885105,0.00013815786223858595
1733699170622379300,6.467379150390625,0.005179286934435368,-0.019228503108024597,-0.0004794592969119549
1733699170632335000,6.477335205078125,0.0043845996260643005,-0.02152441442012787,0.0003511806717142463
1733699170642290400,6.48729052734375,0.0041007064282894135,-0.021483400836586952,0.0007019189652055502
1733699170652246300,6.497246337890625,0.004457036964595318,-0.01822582259774208,-0.00007119658403098583
1733699170662201000,6.507201171875,0.005920940078794956,-0.015095756389200687,-0.0005694220308214426
1733699170672157200,6.5171572265625,0.003702526679262519,-0.01240170281380415,0.00020662310998886824
1733699170682112300,6.5271123046875,0.006166013889014721,-0.009234222583472729,-0.0024516626726835966
1733699170692068400,6.537068359375,0.009277118369936943,-0.004934815689921379,-0.0012340652756392956
1733699170702023200,6.547023193359375,0.008562985807657242,-0.0008195075788535178,0.001537509262561798
1733699170711979300,6.556979248046875,0.008532093837857246,0.0034053311683237553,0.000772383064031601
1733699170721934300,6.566934326171875,0.002749876119196415,0.0034106033854186535,-0.0005350152496248484
1733699170731889200,6.57688916015625,-0.00332852266728878,-0.0007583089754916728,0.00005886959843337536
1733699170741845200,6.58684521484375,-0.008688386529684067,-0.002896977122873068,-0.0020343088544905186
1733699170751800300,6.59680029296875,-0.010558458045125008,-0.010217207483947277,-0.0034532411955296993
1733699170761756200,6.606756103515625,-0.009951584972441196,-0.013361112214624882,-0.0034951490815728903
1733699170771711200,6.616711181640625,-0.00706738093867898,-0.015830662101507187,-0.0017102982383221388
1733699170781667300,6.626667236328125,-0.004877244122326374,-0.010657130740582943,-0.0035521702375262976
1733699170791622100,6.6366220703125,-0.0021341885440051556,-0.0027446122840046883,-0.0013209739699959755
1733699170801578200,6.646578125,0.002093869261443615,-0.0014970919582992792,-0.0011562425643205643
1733699170811533300,6.656533203125,0.006771445274353027,0.0004520757356658578,0.0016685724258422852
1733699170821489400,6.666489501953125,0.009766940958797932,0.002996759954839945,-0.0002109520137310028
1733699170831444200,6.6764443359375,0.009878261014819145,0.006860207766294479,0.0025390281807631254
1733699170841400000,6.686400146484375,0.009487795643508434,0.0060674576088786125,0.002700118813663721
1733699170851355400,6.69635546875,0.008859289810061455,0.010963412933051586,0.0016327239573001862
1733699170861311200,6.706311279296875,0.004271222278475761,0.018254850059747696,0.00463370606303215
1733699170871266300,6.716266357421875,-0.0024969351943582296,0.023796621710062027,0.00437884172424674
1733699170881222100,6.72622216796875,-0.007883856073021889,0.02751927450299263,0.0031124348752200603
1733699170891177200,6.73617724609375,-0.011720139533281326,0.02727852389216423,0.000016243895515799522
1733699170901133300,6.74613330078125,-0.012350061908364296,0.025337208062410355,-0.0005065123550593853
1733699170911088000,6.756088134765625,-0.009730576537549496,0.019379718229174614,0.0004474320448935032
1733699170921044200,6.766044189453125,-0.007303311489522457,0.013877135701477528,-0.000555684557184577
1733699170930999300,6.775999267578125,-0.00545321311801672,0.009159079752862453,-0.0020403966773301363
1733699170940955100,6.785955078125,-0.0036152233369648457,0.010094423778355122,0.0001884916564449668
1733699170950910200,6.79591015625,-0.005307928659021854,0.009688291698694229,-0.0006621219217777252
1733699170960866300,6.8058662109375,-0.006373141892254353,0.012376283295452595,-0.0011750326957553625
1733699170970821400,6.8158212890625,-0.008176900446414948,0.013362186029553413,0.00140929885674268
1733699170980777200,6.825777099609375,-0.010070227086544037,0.017248399555683136,-0.0006580909248441458
1733699170990732300,6.835732177734375,-0.010562645271420479,0.020682545378804207,-0.001239192672073841
1733699171000688400,6.8456884765625,-0.008136920630931854,0.024096133187413216,-0.00010234746150672436
1733699171010643200,6.855643310546875,-0.007005609571933746,0.025712937116622925,0.002043894026428461
1733699171020599300,6.865599365234375,-0.004663466475903988,0.027283700183033943,0.0017657334683462977
1733699171030554400,6.875554443359375,-0.003588082268834114,0.030259516090154648,0.003465362824499607
1733699171040509200,6.88550927734375,-0.004424399230629206,0.02794988453388214,0.0033780334051698446
1733699171050465300,6.89546533203125,-0.0034803086891770363,0.02765214443206787,0.004272056743502617
1733699171060420000,6.905420166015625,-0.005784742068499327,0.02584066241979599,0.0017827998381108046
1733699171070376000,6.9153759765625,-0.006004719063639641,0.022905858233571053,0.002512505976483226
1733699171080331000,6.9253310546875,-0.0042235469445586205,0.016413401812314987,0.0031852354295551777
1733699171090286800,6.935286865234375,-0.004388396628201008,0.01179974153637886,0.0010877297027036548
1733699171100242000,6.945241943359375,-0.002812859835103154,0.007969561964273453,0.0013075217138975859
1733699171110198000,6.955197998046875,0.001528891734778881,0.0018051426159217954,0.0003455879632383585
1733699171120152800,6.96515283203125,0.001910377643071115,-0.0029101651161909103,-0.0007144240662455559
1733699171130109200,6.975109130859375,-0.0013900778722018003,0.000512263155542314,-0.0008925895672291517
1733699171140064000,6.98506396484375,-0.00509388092905283,0.0011816007317975163,-0.0034959036856889725
1733699171150020000,6.99502001953125,-0.007590860594063997,0.0070823668502271175,-0.004598452243953943
1733699171159975200,7.00497509765625,-0.007082958705723286,0.001633219886571169,-0.005492527037858963
1733699171169931000,7.014930908203125,-0.0006343808490782976,-0.0012219550553709269,-0.007588434498757124
1733699171179886000,7.024885986328125,0.009761026129126549,-0.008273378014564514,-0.008230641484260559
1733699171189842000,7.034842041015625,0.026540538296103477,-0.0180668868124485,-0.005181321874260902
1733699171199797000,7.044796875,0.04521346092224121,-0.03182236850261688,-0.0016886305529624224
1733699171209753000,7.054753173828125,0.06101825833320618,-0.05123494938015938,0.0022230204194784164
1733699171219708000,7.0647080078125,0.0713166892528534,-0.05901242047548294,0.005949234124273062
1733699171229664000,7.0746640625,0.07268209010362625,-0.05896208807826042,0.008737830445170403
1733699171239619000,7.084619140625,0.061490099877119064,-0.051265329122543335,0.007158746011555195
1733699171249575000,7.094574951171875,0.046026185154914856,-0.034725237637758255,0.0039938450790941715
1733699171259530000,7.104530029296875,0.03201694041490555,-0.020575404167175293,0.004067644011229277
1733699171269485800,7.11448583984375,0.018296601250767708,-0.014858926646411419,0.002081991173326969
1733699171279441200,7.124441162109375,0.006748798303306103,-0.017858730629086494,-0.0008276894222944975
1733699171289397000,7.13439697265625,0.0011939763789996505,-0.023631665855646133,-0.005967590492218733
1733699171299351800,7.144351806640625,-0.0013155569322407246,-0.025747494772076607,-0.009575855918228626
1733699171309308200,7.15430810546875,-0.0011328640393912792,-0.02649850584566593,-0.010400104336440563
1733699171319263000,7.164262939453125,-0.0014257272705435753,-0.030080586671829224,-0.007775048725306988
1733699171329219000,7.174218994140625,-0.0007170600583776832,-0.030918950214982033,-0.005577141884714365
1733699171339174100,7.184174072265625,0.001724296249449253,-0.030632179230451584,-0.004257330670952797
1733699171349130000,7.1941298828125,0.0012680967338383198,-0.029935762286186218,-0.004271178971976042
1733699171359085000,7.2040849609375,-0.0005105941090732813,-0.025410979986190796,-0.006546621210873127
1733699171369041000,7.214041015625,-0.005051017738878727,-0.01886039972305298,-0.0063687218353152275
1733699171378996000,7.223995849609375,-0.0065342397429049015,-0.012939363718032837,-0.004928343929350376
1733699171388951000,7.233950927734375,-0.00921923853456974,-0.0028659566305577755,-0.0031501513440161943
1733699171398907000,7.243906982421875,-0.013271080330014229,0.0070674000307917595,-0.0018264197278767824
1733699171408862200,7.2538623046875,-0.01225774735212326,0.014523452147841454,-0.00073665427044034
1733699171418818000,7.263818115234375,-0.009871168062090874,0.017280176281929016,-0.0007668216712772846
1733699171428772900,7.27377294921875,-0.0076745920814573765,0.014429260976612568,0.0007852686103433371
1733699171438729000,7.28372900390625,-0.006897930055856705,0.010002960450947285,-0.0034992473665624857
1733699171448684000,7.29368408203125,-0.00017531251069158316,0.006456428207457066,-0.0032712805550545454
1733699171458640100,7.30364013671875,0.0008509958861395717,0.005291135050356388,-0.0013241400010883808
1733699171468595000,7.313594970703125,0.004451323300600052,0.0032828454859554768,-0.0013273358345031738
1733699171478550800,7.32355078125,0.003101885784417391,0.0051786331459879875,-0.00044163409620523453
1733699171488506000,7.333506103515625,0.002551410347223282,0.01057446375489235,-0.0005201974418014288
1733699171498462000,7.3434619140625,-0.0014046173309907317,0.01862305775284767,0.000509158126078546
1733699171508417000,7.3534169921875,-0.00485607422888279,0.02288864180445671,0.0017651049420237541
1733699171518373000,7.363373046875,-0.009779845364391804,0.026314055547118187,-0.0007611105684190989
1733699171528328000,7.373327880859375,-0.015091786161065102,0.027523664757609367,-0.001671645324677229
1733699171538284000,7.383283935546875,-0.016586389392614365,0.022509250789880753,-0.002258554333820939
1733699171548239000,7.393239013671875,-0.015868667513132095,0.016128316521644592,-0.0007221768610179424
1733699171558195200,7.4031953125,-0.012094643898308277,0.012148925103247166,-0.001127664465457201
1733699171568150000,7.41314990234375,-0.008033057674765587,0.008855393156409264,-0.0014355259481817484
1733699171578105900,7.42310595703125,-0.005370596889406443,0.007868414744734764,-0.0005499809049069881
1733699171588061200,7.433061279296875,-0.005255814641714096,0.001258715521544218,0.00022366736084222794
1733699171598017000,7.44301708984375,-0.0036505828611552715,-0.0018229132983833551,-0.0009062376338988543
1733699171607971800,7.452971923828125,0.0010038238251581788,-0.005755070596933365,-0.0006814668886363506
1733699171617928000,7.462927978515625,0.0023585506714880466,-0.006863840389996767,-0.00011915573850274086
1733699171627883000,7.472883056640625,0.0009731742320582271,-0.008210334926843643,-0.0009439366403967142
1733699171637839000,7.482839111328125,-0.0007915113819763064,-0.005062371026724577,0.0004814916756004095
1733699171647794000,7.4927939453125,-0.002730825450271368,0.001781154191121459,0.0005853549810126424
1733699171657750000,7.50275,-0.005674959160387516,0.004881093744188547,-0.0006706742569804192
1733699171667705000,7.512705078125,-0.0085530374199152,0.011630076915025711,0.0007503884844481945
1733699171677661000,7.522660888671875,-0.010593126527965069,0.016497300937771797,0.000968641834333539
1733699171687616000,7.532615966796875,-0.010514829307794571,0.02103346399962902,0.00031377060804516077
1733699171697572000,7.542572021484375,-0.011663535609841347,0.022688213735818863,0.0006506826030090451
1733699171707527000,7.55252685546875,-0.011919998563826084,0.024755626916885376,0.0009710608283057809
1733699171717482000,7.56248193359375,-0.013698292896151543,0.025768566876649857,0.0015785002615302801
1733699171727438000,7.57243798828125,-0.0108846640214324,0.022768249735236168,0.0030467009637504816
1733699171737393000,7.582392822265625,-0.009930376894772053,0.02142777107656002,0.0006343048298731446
1733699171747349000,7.592348876953125,-0.009519984014332294,0.01872466318309307,0.0010979610960930586
1733699171757304000,7.602303955078125,-0.010741126723587513,0.017146866768598557,0.0010401924373582006
1733699171767260200,7.61226025390625,-0.010126469656825066,0.016187863424420357,0.00043112749699503183
1733699171777215000,7.622215087890625,-0.009380046278238297,0.014522279612720013,0.00018628686666488647
1733699171787171000,7.632171142578125,-0.009379248134791851,0.012995223514735699,-0.0000970733817666769
1733699171797126100,7.642126220703125,-0.010053220205008984,0.011392959393560886,0.0012876661494374275
1733699171807082000,7.65208203125,-0.00945747084915638,0.01071891374886036,0.0029806375969201326
1733699171817037000,7.662037109375,-0.009544485248625278,0.009046469815075397,0.003050857223570347
1733699171826993000,7.671992919921875,-0.008552724495530128,0.0053779655136168,0.0008492219494655728
1733699171836948000,7.681947998046875,-0.00792112946510315,0.002234401647001505,0.0013787983916699886
1733699171846904000,7.691904052734375,-0.008990921080112457,-0.0009565980290062726,0.0005811816081404686
1733699171856859000,7.70185888671875,-0.006878759246319532,-0.005133786238729954,0.0008270738180726767
1733699171866815000,7.71181494140625,-0.007027097512036562,-0.004468262195587158,0.0012459889985620975
1733699171876770000,7.72177001953125,-0.006703373976051807,-0.004353694152086973,-0.0011380147188901901
1733699171886726000,7.731725830078125,-0.007551857270300388,-0.0033121316228061914,0.0005962357390671968
1733699171896681000,7.741680908203125,-0.008665885776281357,0.003572438843548298,0.0017990533960983157
1733699171906637000,7.751636962890625,-0.009251514449715614,0.010178410448133945,0.0021292853634804487
1733699171916592000,7.761592041015625,-0.009975600056350231,0.014102278277277946,0.002156581962481141
1733699171926548000,7.7715478515625,-0.00957985408604145,0.013955538161098957,0.003367254976183176
1733699171936503000,7.7815029296875,-0.004122455604374409,0.011080455966293812,0.001868709921836853
1733699171946459100,7.791459228515625,-0.00009042990859597921,0.002096814103424549,0.0026357003953307867
1733699171956414000,7.8014140625,0.007422914728522301,-0.006096594501286745,0.00195975205861032
1733699171966370000,7.8113701171875,0.006962454877793789,-0.01579609513282776,0.00389879965223372
1733699171976325000,7.8213251953125,0.005836662370711565,-0.02461850643157959,0.002066915389150381
1733699171986281000,7.831281005859375,0.003506662789732218,-0.03258455544710159,0.0003172184806317091
1733699171996236000,7.841236083984375,-0.002556347753852606,-0.03075646236538887,-0.0010830680839717388
1733699172006191900,7.85119189453125,-0.010394563898444176,-0.02365913800895214,-0.004142507910728455
1733699172016147000,7.86114697265625,-0.014972816221415997,-0.012957345694303513,-0.0030448969919234514
1733699172026103000,7.87110302734375,-0.01706686057150364,-0.003399259876459837,-0.005448666401207447
1733699172036057900,7.881057861328125,-0.01850620098412037,0.0023403745144605637,-0.005957817658782005
1733699172046013200,7.89101318359375,-0.015443033538758755,0.006514879874885082,-0.003028873587027192
1733699172055969000,7.900968994140625,-0.014247165992856026,0.007413131184875965,-0.0017043580301105976
1733699172065923600,7.910923583984375,-0.010545638389885426,0.008576666936278343,-0.0010974234901368618
1733699172075880000,7.9208798828125,-0.0067734201438724995,0.007867149077355862,0.0012069521471858025
1733699172085834800,7.930834716796875,-0.004063653293997049,0.009185412898659706,0.0015491682570427656
1733699172095790800,7.940790771484375,-0.0038883890956640244,0.009734789840877056,0.0017556948587298393
1733699172105746000,7.950745849609375,-0.005113443359732628,0.009837588295340538,0.003182882908731699
1733699172115701800,7.96070166015625,-0.0033785756677389145,0.009661159478127956,0.003285924904048443
1733699172125656800,7.97065673828125,-0.005705113522708416,0.010146120563149452,0.0027972350362688303
1733699172135612700,7.98061279296875,-0.0060592880472540855,0.009863528423011303,0.006582519970834255
1733699172145567700,7.990567626953125,-0.00782762747257948,0.010910683311522007,0.003925483673810959
1733699172155523800,8.00052392578125,-0.010644924826920033,0.012295570224523544,0.0036182512994855642
1733699172165478700,8.010478759765626,-0.013172796927392483,0.017478080466389656,0.004953294061124325
1733699172175434800,8.020434814453125,-0.011798327788710594,0.020261328667402267,0.005021285265684128
1733699172185389800,8.030389892578125,-0.013465466909110546,0.02166774310171604,0.005049514584243298
1733699172195346000,8.040345947265624,-0.01095543708652258,0.02460733987390995,0.005005572456866503
1733699172205300700,8.05030078125,-0.009574588388204575,0.024753281846642494,0.00602423120290041
1733699172215256600,8.060256591796875,-0.005587934050709009,0.017997385933995247,0.0047828881070017815
1733699172225212000,8.0702119140625,-0.004335715901106596,0.007894151844084263,0.0028451718389987946
1733699172235167700,8.080167724609375,-0.0028102481737732887,-0.002393393311649561,0.002284392947331071
1733699172245122600,8.09012255859375,-0.0015838625840842724,-0.01143455971032381,0.0017171395011246204
1733699172255079000,8.100078857421876,-0.00002474687062203884,-0.015411862172186375,-0.000862369779497385
1733699172265033700,8.11003369140625,-0.0004441947676241398,-0.012373728677630424,0.00041807815432548523
1733699172274989800,8.11998974609375,-0.00551196001470089,-0.008219677023589611,-0.0003472627140581608
1733699172284945000,8.12994482421875,-0.007585763931274414,-0.0031753836665302515,-0.0020407666452229023
1733699172294900700,8.139900634765626,-0.011350253596901894,0.0010954211466014385,-0.0006893232930451632
1733699172304855800,8.149855712890625,-0.011196322739124298,0.0005779689527116716,-0.0013830768875777721
1733699172314811600,8.159811767578125,-0.011524252593517303,0.005925745703279972,-0.0012276077177375555
1733699172324767000,8.16976708984375,-0.012065939605236053,0.01232665404677391,0.0017452790634706616
1733699172334722800,8.179722900390624,-0.011426321230828762,0.01740221306681633,0.002664972096681595
1733699172344677600,8.189677734375,-0.011030308902263641,0.023630280047655106,0.0031006652861833572
1733699172354633700,8.1996337890625,-0.009405343793332577,0.028391629457473755,0.007682042196393013
1733699172364588800,8.2095888671875,-0.008960862644016743,0.035801611840724945,0.005385332740843296
1733699172374543600,8.219543701171874,-0.010340730659663677,0.039486486464738846,0.006456478498876095
1733699172384499700,8.229499755859376,-0.00966561958193779,0.0403544120490551,0.005548872984945774
1733699172394454800,8.239454833984375,-0.012209327891469002,0.03722204267978668,0.004589158110320568
1733699172404411000,8.249410888671875,-0.01313530933111906,0.040308646857738495,0.006565489806234837
1733699172414365700,8.25936572265625,-0.012791434302926064,0.03744286298751831,0.007194890640676022
1733699172424321500,8.269321533203126,-0.012842566706240177,0.035544559359550476,0.009934218600392342
1733699172434276900,8.27927685546875,-0.013202819041907787,0.03356226161122322,0.009534107521176338
1733699172444232700,8.289232666015625,-0.01265047863125801,0.02903888374567032,0.006892784498631954
1733699172454187800,8.299187744140625,-0.011569017544388771,0.026635989546775818,0.009154845029115677
1733699172464144000,8.309143798828124,-0.011011084541678429,0.019773555919528008,0.006542283575981855
1733699172474098700,8.3190986328125,-0.010369106195867062,0.013574016280472279,0.004807109013199806
1733699172484054800,8.3290546875,-0.011749954894185066,0.010487412102520466,0.004118948243558407
1733699172494009900,8.339009765625,-0.013415386900305748,0.00847482867538929,0.0038777906447649
1733699172503966000,8.348966064453125,-0.01474696770310402,0.011068746447563171,0.003898563329130411
1733699172513920800,8.358920654296876,-0.01805003732442856,0.016498323529958725,0.003052506363019347
1733699172523876600,8.368876708984375,-0.01556530874222517,0.023898184299468994,0.004505527205765247
1733699172533832000,8.37883203125,-0.015207040123641491,0.028747696429491043,0.005864168517291546
1733699172543787800,8.388787841796875,-0.013775059022009373,0.030276615172624588,0.007182965986430645
1733699172553742600,8.39874267578125,-0.012384986504912376,0.030714448541402817,0.00806815642863512
1733699172563698700,8.40869873046875,-0.007574251852929592,0.02749735116958618,0.007377864792943001
1733699172573653800,8.41865380859375,-0.0043887365609407425,0.022188838571310043,0.007649633102118969
1733699172583609900,8.42860986328125,-0.0017234450206160545,0.01675013080239296,0.007653094828128815
1733699172593564700,8.438564697265624,0.00030201044864952564,0.012462527491152287,0.006519579328596592
1733699172603520800,8.448520751953126,0.00029162410646677017,0.007073088549077511,0.0033269820269197226
1733699172613475800,8.458475830078125,0.0011541980784386396,0.0028201909735798836,0.0036253747530281544
1733699172623431700,8.468431640625,0.003163553075864911,-0.00007839367026463151,0.0017861956730484962
1733699172633386800,8.47838671875,0.0013655793154612184,-0.007152175530791283,0.00020358245819807053
1733699172643342800,8.4883427734375,-0.0005180744919925928,-0.018254362046718597,-0.003213519463315606
1733699172653297700,8.498297607421875,0.00036365073174238205,-0.033088091760873795,-0.004459109622985125
1733699172663252700,8.508252685546875,-0.0023703505285084248,-0.04124695435166359,-0.004036199301481247
1733699172673208800,8.518208740234375,-0.002115317154675722,-0.043545518070459366,-0.004131851717829704
1733699172683164000,8.528163818359374,-0.0035619463305920362,-0.04141338914632797,-0.0036506184842437506
1733699172693119700,8.53811962890625,-0.005819643381983042,-0.0361916683614254,-0.0031973400618880987
1733699172703074800,8.54807470703125,-0.008100374601781368,-0.03172314912080765,-0.0037771102506667376
1733699172713031000,8.558031005859375,-0.00750080868601799,-0.026441823691129684,-0.0047087217681109905
1733699172722985700,8.56798583984375,-0.005979611538350582,-0.020805243402719498,-0.0049398839473724365
1733699172732941800,8.57794189453125,-0.005253464914858341,-0.013635736890137196,-0.0016080476343631744
1733699172742897000,8.58789697265625,-0.005245209205895662,-0.003913068678230047,-0.0002045617438852787
1733699172752852700,8.597852783203125,-0.003881779033690691,0.00919158011674881,-0.0005405121482908726
1733699172762807800,8.607807861328125,-0.007216589525341988,0.02147727459669113,0.0036614234559237957
1733699172772763600,8.617763671875,-0.008126725442707539,0.034283414483070374,0.0029221372678875923
1733699172782718700,8.62771875,-0.006749871652573347,0.04045981913805008,0.003700046567246318
1733699172792674800,8.6376748046875,-0.004301214590668678,0.04138718545436859,0.001986096380278468
1733699172802629600,8.647629638671875,-0.00500189233571291,0.040139228105545044,0.0044202255085110664
1733699172812585700,8.657585693359374,-0.0031932066194713116,0.03426701948046684,0.0033666854724287987
1733699172822540800,8.667540771484376,-0.0017838617786765099,0.023931559175252914,0.003526741173118353
1733699172832497000,8.677496826171875,-0.0005471267504617572,0.014217198826372623,0.003018928226083517
1733699172842451700,8.68745166015625,-0.0012619191547855735,0.0032516331411898136,0.0009014490060508251
1733699172852407800,8.69740771484375,-0.002300781197845936,-0.005276926793158054,0.00024492794182151556
1733699172862363000,8.70736279296875,-0.0008131395443342626,-0.01138595212250948,-0.0009135471191257238
1733699172872318700,8.717318603515626,-0.000591105897910893,-0.019360415637493134,0.00031587190460413694
1733699172882273800,8.727273681640625,0.0010081223445013165,-0.021549001336097717,-0.002847963245585561
1733699172892230000,8.73722998046875,0.0009986088844016194,-0.0231011975556612,-0.0002589421346783638
1733699172902184700,8.747184814453124,0.00034134078305214643,-0.022513970732688904,-0.0021931962110102177
1733699172912140800,8.757140869140626,0.004063421860337257,-0.019884705543518066,-0.000845606904476881
1733699172922095900,8.767095947265625,0.00381681346334517,-0.01720263622701168,-0.0010314953979104757
1733699172932051700,8.7770517578125,0.00373582961037755,-0.01918119564652443,-0.0020146160386502743
1733699172942006800,8.7870068359375,0.0052511682733893394,-0.02009705640375614,-0.002704374957829714
1733699172951961900,8.7969619140625,0.00727227795869112,-0.025123825296759605,-0.001338491216301918
1733699172961918000,8.80691796875,0.007878147065639496,-0.02630547061562538,-0.0025467672385275364
1733699172971872800,8.816872802734375,0.007463819347321987,-0.02360897697508335,-0.001861706143245101
1733699172981828600,8.82682861328125,0.0033308600541204214,-0.02186700329184532,-0.0019967283587902784
1733699172991784000,8.836783935546874,0.004647817462682724,-0.018266580998897552,-0.0008117402903735638
1733699173001739800,8.84673974609375,0.0027066394686698914,-0.013663040474057198,-0.0028200303204357624
1733699173011694600,8.856694580078125,0.003901683958247304,-0.00933313462883234,-0.0012842074502259493
1733699173021650700,8.866650634765625,0.002149323932826519,-0.00782445352524519,-0.0004487736150622368
1733699173031605800,8.876605712890624,0.00235234247520566,0.0011496135266497731,0.0007011436391621828
1733699173041561900,8.886561767578126,-0.0005017673829570413,0.007577419281005859,0.0010430935071781278
1733699173051516700,8.8965166015625,-0.0007901876815594733,0.012585227377712727,0.002668154425919056
1733699173061473300,8.906473388671875,-0.0006525022909045219,0.01335727795958519,0.0021256685722619295
1733699173071428600,8.9164287109375,0.000776912784203887,0.013528366573154926,0.0024903130251914263
1733699173081384400,8.926384521484374,0.0018371171317994595,0.013606930151581764,0.0007051961729303002
1733699173091339300,8.93633935546875,0.0031548491679131985,0.013296938501298428,0.0011081324191763997
1733699173101295400,8.94629541015625,0.003790013026446104,0.01024575438350439,-0.0002032080665230751
1733699173111250400,8.95625048828125,0.005119802430272102,0.008663997985422611,0.0024997973814606667
1733699173121206500,8.96620654296875,0.0037314968649297953,0.007242935243993998,0.0012646233662962914
1733699173131161300,8.976161376953126,0.0014818273484706879,0.004536374472081661,0.001993485726416111
1733699173141117400,8.986117431640626,-0.0009802649728953838,0.003137948689982295,-0.001746657770127058
1733699173151072500,8.996072509765625,-0.004546638112515211,0.0008969621267169714,-0.0028657105285674334
1733699173161028400,9.0060283203125,-0.004232917912304401,-0.003020015312358737,-0.0031498700845986605
1733699173170983400,9.0159833984375,-0.0034746790770441294,-0.008338932879269123,-0.00516247283667326
1733699173180939500,9.025939453125,-0.004479223396629095,-0.013366182334721088,-0.0030415309593081474
1733699173190894300,9.035894287109375,-0.0036268061958253384,-0.012534786015748978,-0.004615555517375469
1733699173200850400,9.045850341796875,-0.0014254372799769044,-0.012362213805317879,-0.0028141934890300035
1733699173210805500,9.055805419921874,-0.00038521771784871817,-0.010201035998761654,-0.0021628651302307844
1733699173220761600,9.06576171875,0.00014874606858938932,-0.008110454306006432,-0.003345574950799346
1733699173230716400,9.07571630859375,0.0017669412773102522,-0.002684360835701227,-0.0008293094579130411
1733699173240671500,9.08567138671875,0.0038058573845773935,-0.000040374521631747484,-0.0006780419498682022
1733699173250627600,9.095627685546875,0.0032492331229150295,-0.0005480690742842853,0.0005306185921654105
1733699173260582400,9.10558251953125,0.004501717630773783,-0.002010943600907922,0.0009343537967652082
1733699173270538200,9.115538330078126,0.004806322976946831,-0.0017715678550302982,-0.0003935941495001316
1733699173280493600,9.12549365234375,0.004865711089223623,-0.00400835694745183,0.00008843792602419853
1733699173290449400,9.135449462890625,0.0018821480916813016,-0.003555715549737215,0.0011615436524152756
1733699173300404500,9.145404541015624,0.0007761373417451978,-0.0025288003962486982,-0.0002174412366002798
1733699173310360300,9.1553603515625,0.00007733691018074751,-0.0011640790617093444,0.00008489447645843029
1733699173320315400,9.1653154296875,-0.0016619735397398472,0.000892946554813534,-0.0005350892897695303
1733699173330271500,9.175271484375,-0.0029874895699322224,0.0027406050357967615,0.0011945373844355345
1733699173340226300,9.185226318359375,-0.002815715502947569,0.0038178537506610155,-0.000681126955896616
1733699173350182700,9.1951826171875,-0.0015666562831029296,0.002782630268484354,0.00042909348849207163
1733699173360137500,9.205137451171876,0.0014176819240674376,-0.005110979080200195,-0.0021075676195323467
1733699173370093300,9.21509326171875,0.001069243298843503,-0.010931840166449547,-0.002350226044654846
1733699173380048600,9.225048583984375,-0.00037019525188952684,-0.015576126053929329,-0.0005262270569801331
1733699173390004500,9.23500439453125,0.0008188821375370026,-0.011836078949272633,-0.001959155546501279
1733699173399959300,9.244959228515626,0.00007506110705435276,-0.00770072266459465,-0.0013367747887969017
1733699173409915400,9.254915283203125,-0.00016324373427778482,-0.0023792691063135862,-0.0003638928756117821
1733699173419870500,9.264870361328125,-0.00010358891449868679,0.0007078671478666365,-0.002117051975801587
1733699173429826600,9.27482666015625,0.004059791564941406,-0.00014403549721464515,-0.0012298699002712965
1733699173439781400,9.284781494140624,0.00599111570045352,0.0004988515865989029,-0.0015254807658493519
1733699173449737200,9.2947373046875,0.005887639708817005,0.00017296604346483946,-0.001062820665538311
1733699173459692500,9.304692626953125,0.004903335589915514,-0.001071795355528593,-0.0001453617587685585
1733699173469648400,9.3146484375,0.0029160110279917717,-0.0033074128441512585,-0.000166694400832057
1733699173479603500,9.324603515625,0.0005532543873414397,-0.002339886501431465,-0.002809349214658141
1733699173489559300,9.334559326171876,-0.003381519578397274,-0.00486996304243803,-0.002944808453321457
1733699173499514400,9.344514404296875,-0.0007804100168868899,-0.006193554028868675,-0.002117364201694727
1733699173509470500,9.354470458984375,-0.002800886519253254,-0.006204025819897652,-0.001965728122740984
1733699173519425300,9.36442529296875,-0.0014221679884940386,-0.00479468097910285,-0.0013220419641584158
1733699173529380400,9.37438037109375,-0.0002864032285287976,-0.003039019647985697,0.0012116392608731985
1733699173539336400,9.38433642578125,0.00007285713218152523,-0.001804910833016038,-0.00011195172555744648
1733699173549291300,9.394291259765625,-0.00008227117359638214,-0.0011929790489375591,0.0014964606380090117
1733699173559247600,9.40424755859375,-0.0010617817752063274,-0.0012941791210323572,0.0010623653652146459
1733699173569202400,9.414202392578124,-0.002749305684119463,0.0008950246265158057,-0.00047455658204853535
1733699173579158500,9.424158447265626,-0.0005199735751375556,-0.0034105079248547554,0.0009616861352697015
1733699173589113600,9.434113525390625,-0.0020806354004889727,-0.006272139493376017,-0.0018373203929513693
1733699173599069400,9.4440693359375,-0.0019967458210885525,-0.01031375303864479,0.0001174400094896555
1733699173609024500,9.4540244140625,-0.008098786696791649,-0.012647437863051891,-0.0028751222416758537
1733699173618980400,9.46398046875,-0.00882716104388237,-0.005898721516132355,-0.0037225401028990746
1733699173628935400,9.473935302734375,-0.010244579054415226,0.0027734574396163225,-0.0004820111207664013
1733699173638891500,9.4838916015625,-0.013148490339517593,0.011103026568889618,0.0015089681837707758
1733699173648846300,9.493846435546875,-0.013084708712995052,0.015592114999890327,-0.0008218928705900908
1733699173658802400,9.503802490234374,-0.013182447291910648,0.019473671913146973,-0.0004847366362810135
1733699173668757500,9.513757568359376,-0.009256885387003422,0.016502831131219864,-0.0013544682879000902
1733699173678713300,9.52371337890625,-0.004687166772782803,0.016285784542560577,0.0005483602872118354
1733699173688668400,9.53366845703125,0.0029663448221981525,0.015519804321229458,0.0004941434599459171
1733699173698624300,9.543624267578124,0.009639693424105644,0.01194957084953785,0.002380726858973503
1733699173708579600,9.55357958984375,0.01659299060702324,0.0034791850484907627,0.0010353288380429149
1733699173718535400,9.563535400390625,0.026381172239780426,-0.023281322792172432,-0.0024731194134801626
1733699173728490200,9.573490234375,0.04189343377947807,-0.0656895861029625,-0.006689715664833784
1733699173738446600,9.583446533203125,0.06689491868019104,-0.11246001720428467,-0.008944081142544746
1733699173748401400,9.5934013671875,0.09212873876094818,-0.1644691675901413,-0.0051343850791454315
1733699173758357500,9.603357421875,0.10688664764165878,-0.2264459878206253,-0.00016705691814422607
1733699173768312600,9.6133125,0.09650152176618576,-0.268042653799057,-0.011195117607712746
1733699173778268400,9.623268310546875,0.08446270227432251,-0.2899346351623535,-0.03059837594628334
1733699173788223500,9.633223388671874,0.06596636027097702,-0.29309970140457153,-0.03826284408569336
1733699173798178600,9.643178466796876,0.03576398640871048,-0.2780754864215851,-0.04165517911314964
1733699173808134400,9.653134521484375,0.004944736137986183,-0.239791601896286,-0.037341102957725525
1733699173818089500,9.66308935546875,-0.024053093045949936,-0.18337786197662354,-0.027790207415819168
1733699173828045300,9.67304541015625,-0.04712316393852234,-0.1036849170923233,-0.022440936416387558
1733699173838000600,9.683000732421876,-0.0627114400267601,-0.011428486555814743,-0.01867069862782955
1733699173847956500,9.69295654296875,-0.06446962803602219,0.07733847200870514,-0.009716657921671867
1733699173857911300,9.702911376953125,-0.05569051578640938,0.15349261462688446,0.0010084249079227448
1733699173867867400,9.712867431640625,-0.039457567036151886,0.20862644910812378,0.013157774694263935
1733699173877822500,9.722822509765624,-0.01962713897228241,0.23750843107700348,0.01983751729130745
1733699173887778600,9.732778564453126,-0.005632940214127302,0.24370762705802917,0.02508152276277542
1733699173897733400,9.7427333984375,0.0024201925843954086,0.2297244369983673,0.02544131502509117
1733699173907689200,9.752689208984375,0.0030348985455930233,0.19933395087718964,0.023781396448612213
1733699173917644500,9.76264453125,0.00007186539005488157,0.15972130000591278,0.0188343096524477
1733699173927600400,9.772600341796876,-0.006267026998102665,0.11445346474647522,0.012205752544105053
1733699173937555200,9.78255517578125,-0.01529088243842125,0.06991582363843918,0.005833340808749199
1733699173947511600,9.792511474609375,-0.021103860810399055,0.03231013938784599,-0.0003590858541429043
1733699173957466400,9.80246630859375,-0.02312147058546543,-0.00017563131405040622,-0.004523737356066704
1733699173967422500,9.81242236328125,-0.020434802398085594,-0.02430104650557041,-0.007307909429073334
1733699173977377500,9.82237744140625,-0.015870409086346626,-0.044891275465488434,-0.010515953414142132
1733699173987333600,9.832333740234375,-0.004444626159965992,-0.06764816492795944,-0.010175719857215881
1733699173997288400,9.842288330078125,0.011746328324079514,-0.09238599985837936,-0.010792507790029049
1733699174007244300,9.852244384765624,0.026159996166825294,-0.11402714252471924,-0.01246777642518282
1733699174017199600,9.86219970703125,0.037957265973091125,-0.13552045822143555,-0.012013708241283894
1733699174027155500,9.872155517578125,0.04160589352250099,-0.15255723893642426,-0.011423506774008274
1733699174037110300,9.8821103515625,0.035315241664648056,-0.15914057195186615,-0.011547876521945
1733699174047066400,9.89206640625,0.027458397671580315,-0.16032423079013824,-0.01385037787258625
1733699174057021400,9.902021484375,0.01133242528885603,-0.15204791724681854,-0.017483195289969444
1733699174066977300,9.911977294921876,0.00159730005543679,-0.13121956586837769,-0.016177617013454437
1733699174076932000,9.92193212890625,-0.012250072322785854,-0.10129734873771667,-0.017016246914863586
1733699174086887400,9.931887451171875,-0.018232101574540138,-0.06794280558824539,-0.014354633167386055
1733699174096843300,9.94184326171875,-0.02059565670788288,-0.036125749349594116,-0.012620915658771992
1733699174106798000,9.951798095703126,-0.017392493784427643,-0.009646214544773102,-0.013263233006000519
1733699174116754200,9.961754150390625,-0.008943615481257439,0.008203355595469475,-0.009931884706020355
1733699174126709200,9.971709228515625,-0.0006020837463438511,0.021253686398267746,-0.004973773844540119
1733699174136665300,9.981665283203125,0.009024178609251976,0.03420650213956833,0.0004236547974869609
1733699174146620200,9.9916201171875,0.012586168013513088,0.04192565381526947,0.006287749856710434
1733699174156576300,10.001576171875,0.012062057852745056,0.05582335963845253,0.009236401878297329
1733699174166531300,10.01153125,0.004998059943318367,0.06635823845863342,0.010805218480527401
1733699174176487200,10.021487060546875,-0.00488439854234457,0.07116098701953888,0.010505346581339836
1733699174186442500,10.0314423828125,-0.011607225053012371,0.07026980072259903,0.007527511101216078
1733699174196398300,10.0413984375,-0.015029121190309525,0.0647682398557663,0.005955979693681002
1733699174206353200,10.051353271484375,-0.015943828970193863,0.05876947566866875,0.0036797383800148964
1733699174216309200,10.061309326171875,-0.012973339296877384,0.05162394791841507,0.005784167908132076
1733699174226264300,10.071264404296874,-0.009560618549585342,0.04195152968168259,0.0030821990221738815
1733699174236220400,10.081220458984374,-0.00286782905459404,0.02657363750040531,0.0024808570742607117
1733699174246175200,10.09117529296875,0.00026661413721740246,0.010029292665421963,0.0014895841013640165
1733699174256131000,10.101131103515625,0.00475723622366786,-0.009944682009518147,-0.0007621184922754765
1733699174266086400,10.11108642578125,0.009852796792984009,-0.023736722767353058,-0.002646578475832939
1733699174276042200,10.121042236328124,0.010497281327843666,-0.03559204936027527,-0.003991741221398115
1733699174285997000,10.1309970703125,0.012293570674955845,-0.03885374218225479,-0.0021041594445705414
1733699174295953200,10.140953125,0.009663965553045273,-0.03589789941906929,-0.0005182470194995403
1733699174305908200,10.150908203125,0.006550646387040615,-0.02672770991921425,-0.001209847629070282
1733699174315864300,10.1608642578125,0.0002067300956696272,-0.01795578934252262,-0.001337945694103837
1733699174325819100,10.170819091796876,-0.003592438530176878,-0.01367157232016325,-0.002153893932700157
1733699174335775500,10.180775390625,-0.00590885616838932,-0.008268284611403942,-0.003981621470302343
1733699174345730300,10.190730224609375,-0.003779937978833914,-0.011296682991087437,-0.005345492623746395
1733699174355685000,10.20068505859375,0.001357299741357565,-0.01845685951411724,-0.006263484712690115
1733699174365641500,10.210641357421874,0.010398369282484055,-0.02907659485936165,-0.0041215624660253525
1733699174375596300,10.22059619140625,0.021009203046560287,-0.03896091878414154,-0.0008272319100797176
1733699174385552100,10.23055224609375,0.024601515382528305,-0.04640960693359375,0.00040087068919092417
1733699174395507500,10.240507568359375,0.025454526767134666,-0.048197921365499496,0.0030488516204059124
1733699174405463300,10.25046337890625,0.025971796363592148,-0.04438519850373268,0.0020599972922354937
1733699174415418000,10.260418212890626,0.022417541593313217,-0.039831992238759995,0.0029026216361671686
1733699174425374200,10.270374267578125,0.011925352737307549,-0.029806727543473244,-0.0005371109582483768
1733699174435329300,10.280329345703125,0.0036359981168061495,-0.02305641397833824,-0.004411477595567703
1733699174445285400,10.290285400390625,0.00014482310507446527,-0.01967148296535015,-0.003938714973628521
1733699174455240200,10.300240234375,-0.0022837133146822453,-0.017486093565821648,-0.006087087094783783
1733699174465196300,10.3101962890625,-0.0021165881771594286,-0.0190393328666687,-0.005704050417989492
1733699174475151400,10.3201513671875,0.000027522793971002102,-0.02114083245396614,-0.0096732247620821
1733699174485107200,10.330107177734375,0.006134999915957451,-0.025210078805685043,-0.004706414882093668
1733699174495062300,10.340062255859374,0.009897779673337936,-0.030461031943559647,-0.004449686035513878
1733699174505018000,10.35001806640625,0.014504151418805122,-0.03273376449942589,-0.001033960608765483
1733699174514973200,10.35997314453125,0.015843190252780914,-0.02571260742843151,0.0006193297449499369
1733699174524929300,10.36992919921875,0.013052244670689106,-0.01430716272443533,0.001474234159104526
1733699174534884000,10.379884033203124,0.005336267873644829,-0.0033948603086173534,0.0016753028612583876
1733699174544840400,10.38984033203125,-0.0015520332381129265,0.004652606789022684,0.0008513585198670626
1733699174554795300,10.399795166015625,-0.004426116589456797,0.012473778799176216,0.002453782595694065
1733699174564751000,10.409751220703125,-0.007506462279707193,0.01927182637155056,0.0004359119338914752
1733699174574706400,10.41970654296875,-0.005696844309568405,0.023444732651114464,0.0017853357130661607
1733699174584662300,10.429662353515624,-0.0044438643380999565,0.019808504730463028,0.000520918401889503
1733699174594617300,10.439617431640626,0.0008156127296388149,0.00881258025765419,-0.00021624448709189892
1733699174604572400,10.449572509765625,0.00748140923678875,-0.005535847973078489,0.0008508259197697043
1733699174614528300,10.4595283203125,0.014607761055231094,-0.020945698022842407,-0.0007822245825082064
1733699174624483300,10.4694833984375,0.02231721393764019,-0.031012382358312607,-0.0013952776789665222
1733699174634439200,10.479439208984376,0.023255178704857826,-0.036167729645967484,-0.003053095191717148
1733699174644394200,10.489394287109375,0.025207269936800003,-0.03335503488779068,-0.0010000485926866531
1733699174654350300,10.499350341796875,0.027035797014832497,-0.030248194932937622,0.0036101494915783405
1733699174664305200,10.50930517578125,0.02125484123826027,-0.02066861465573311,0.0031228268053382635
1733699174674261200,10.51926123046875,0.011349479667842388,-0.009836205281317234,-0.0005081270355731249
1733699174684216300,10.52921630859375,0.00011192145757377148,-0.0004854527651332319,-0.002846360206604004
1733699174694172200,10.539172119140625,-0.010941528715193272,0.010296621359884739,-0.0037536988966166973
1733699174704127200,10.549127197265625,-0.018442878499627113,0.021499112248420715,-0.004831894766539335
1733699174714083000,10.5590830078125,-0.02534925378859043,0.030932296067476273,-0.004957862198352814
1733699174724038400,10.569038330078126,-0.0270313061773777,0.03751616179943085,-0.004289408680051565
1733699174733994200,10.578994140625,-0.02400781959295273,0.03510946407914162,-0.004436148796230555
1733699174743949000,10.588948974609375,-0.016709208488464355,0.02424756996333599,-0.0055360631085932255
1733699174753905400,10.598905517578125,-0.005916481837630272,0.004888254217803478,-0.00807645171880722
1733699174763860200,10.608860107421876,0.008887642994523048,-0.019637413322925568,-0.0066827465780079365
1733699174773816300,10.61881640625,0.024741172790527344,-0.04098983854055405,-0.004329843912273645
1733699174783771400,10.628771484375,0.03454256057739258,-0.05694533884525299,-0.001227119704708457
1733699174793727200,10.638727294921875,0.036099180579185486,-0.06480112671852112,0.0017870459705591202
1733699174803682300,10.648682373046874,0.0330137275159359,-0.062783382833004,0.0017944802530109882
1733699174813638100,10.65863818359375,0.024758193641901016,-0.05724214017391205,0.0016972748562693596
1733699174823593500,10.668593505859375,0.01467160414904356,-0.047157756984233856,-0.0002609412185847759
1733699174833549300,10.67854931640625,0.005701279267668724,-0.03327523171901703,-0.00295579363591969
1733699174843504000,10.688504150390624,0.00160830351524055,-0.021233266219496727,-0.005117266904562712
1733699174853460200,10.698460205078124,-0.0023946939036250114,-0.014956195838749409,-0.00777030736207962
1733699174863415300,10.708415283203125,0.0002469924511387944,-0.007492163218557835,-0.005637603811919689
1733699174873370000,10.7183701171875,0.004139202646911144,-0.002394340466707945,-0.0009690818842500448
1733699174883326200,10.728326171875,0.004674084484577179,0.004673633724451065,0.001307594240643084
1733699174893281300,10.73828125,0.005649068392813206,0.010643908753991127,0.004507382400333881
1733699174903237400,10.7482373046875,0.00450281985104084,0.013433474116027355,0.003926398698240519
1733699174913192200,10.758192138671875,0.0036431518383324146,0.007419789209961891,0.004536795429885387
1733699174923148000,10.76814794921875,0.004671252798289061,-0.006769571453332901,0.00011799205094575882
1733699174933103400,10.778103271484374,0.008418587036430836,-0.020621204748749733,-0.0020431631710380316
1733699174943059200,10.78805908203125,0.016081251204013824,-0.02684614434838295,-0.006661900319159031
1733699174953014300,10.79801416015625,0.026313383132219315,-0.03485852852463722,-0.011042799800634384
1733699174962970400,10.807970458984375,0.03079187497496605,-0.04003429785370827,-0.008932318538427353
1733699174972925200,10.81792529296875,0.030412375926971436,-0.03632105141878128,-0.00951661728322506
1733699174982881300,10.82788134765625,0.01898074522614479,-0.02633444033563137,-0.0057893358170986176
1733699174992836400,10.83783642578125,0.008044207468628883,-0.009985827840864658,-0.00007259403355419636
1733699175002792400,10.84779248046875,-0.0032141725532710552,0.01485912874341011,0.005399675108492374
1733699175012747300,10.857747314453125,-0.01273497287184,0.04423539340496063,0.007299840450286865
1733699175022703000,10.867703125,-0.018900565803050995,0.06910136342048645,0.0065156808122992516
1733699175032658400,10.877658447265626,-0.018559681251645088,0.08872486650943756,0.003527880646288395
1733699175042614300,10.8876142578125,-0.011973684653639793,0.09974955022335052,0.004621907137334347
1733699175052569000,10.897569091796875,-0.010772865265607834,0.0909733697772026,0.006246701814234257
1733699175062525200,10.907525146484375,0.0006914135301485658,0.08404809981584549,0.004134769551455975
1733699175072480500,10.91748046875,0.01109585165977478,0.0735941231250763,0.009577471762895584
1733699175082436400,10.927436279296876,0.018672773614525795,0.061275724321603775,0.011317633092403412
1733699175092391400,10.937391357421875,0.02116655744612217,0.055022887885570526,0.01284122746437788
1733699175102346500,10.947346435546875,0.017262062057852745,0.04981672763824463,0.013361659832298756
1733699175112302300,10.95730224609375,0.006460013799369335,0.04611093923449516,0.010966945439577103
1733699175122257400,10.96725732421875,-0.0073734368197619915,0.047910597175359726,0.009532198309898376
1733699175132213200,10.977213134765625,-0.01892516389489174,0.05442894995212555,0.008234972134232521
1733699175142168300,10.987168212890625,-0.02655753120779991,0.05961054563522339,0.0061781457625329494
1733699175152124400,10.99712451171875,-0.028086185455322266,0.06449051946401596,0.005938727408647537
1733699175162079200,11.007079345703126,-0.023981671780347824,0.06766866147518158,0.006350215524435043
1733699175172035300,11.017035400390625,-0.020321423187851906,0.06800075620412827,0.005883629899471998
1733699175181990400,11.026990478515625,-0.014465969987213612,0.06346545368432999,0.0035153324715793133
1733699175191946500,11.036946533203125,-0.005478333681821823,0.046585533767938614,0.002387750195339322
1733699175201901300,11.0469013671875,-0.0007395998109132051,0.02347397617995739,0.000998852658085525
1733699175211857400,11.056857421875,0.005274350289255381,-0.0041938722133636475,0.00015409791376441717
1733699175221812500,11.0668125,0.009202730841934681,-0.02887757122516632,-0.0009141247719526291
1733699175231768300,11.076768310546875,0.012727424502372742,-0.0460757315158844,0.000675249844789505
1733699175241723400,11.086723388671874,0.014494878239929676,-0.051135484129190445,0.004679081961512566
1733699175251679500,11.096679443359376,0.013761710375547409,-0.04340912401676178,0.002889970550313592
1733699175261634300,11.10663427734375,0.008382913656532764,-0.03143712505698204,0.0013404623605310917
1733699175271590400,11.11659033203125,0.0030818916857242584,-0.02282765693962574,0.000987859908491373
1733699175281545500,11.12654541015625,-0.003847653977572918,-0.012334536761045456,-0.003376794746145606
1733699175291501300,11.136501220703124,-0.0036521777510643005,-0.005256387870758772,-0.0038566964212805033
1733699175301456400,11.146456298828125,-0.002091325121000409,-0.0005329741979949176,-0.0038469762075692415
1733699175311412200,11.156412109375,0.0018189941765740514,0.004968051332980394,-0.0017465411219745874
1733699175321367600,11.166367431640625,0.007375887595117092,0.010769045911729336,0.0018563393969088793
1733699175331322400,11.176322265625,0.007230212911963463,0.018505528569221497,0.0036425213329494
1733699175341278200,11.1862783203125,0.005824039224535227,0.029506685212254524,0.005090068094432354
1733699175351233500,11.196233642578125,0.0030160020105540752,0.038247182965278625,0.004628010094165802
1733699175361189400,11.206189453125,-0.00461618322879076,0.04502321407198906,0.002869735239073634
1733699175371144200,11.216144287109374,-0.010506030172109604,0.048183854669332504,0.0005029840394854546
1733699175381100500,11.2261005859375,-0.01703965850174427,0.042511455714702606,-0.003741330001503229
1733699175391055400,11.236055419921875,-0.022743618115782738,0.03360531106591225,-0.004442806821316481
1733699175401011500,11.246011474609375,-0.020394345745444298,0.03023426979780197,-0.007084351498633623
1733699175410966300,11.25596630859375,-0.016125299036502838,0.03246041014790535,-0.003654998727142811
1733699175420922400,11.26592236328125,-0.011002635583281517,0.03924097865819931,-0.0015362901613116264
1733699175430877400,11.27587744140625,-0.007526678033173084,0.04254036769270897,0.00322517566382885
1733699175440833300,11.285833251953125,-0.002125981030985713,0.0360390804708004,0.006954842247068882
1733699175450788600,11.29578857421875,0.004978533834218979,0.022356823086738586,0.010929344221949577
1733699175460744400,11.305744384765624,0.007846927270293236,0.006088645663112402,0.007212059106677771
1733699175470699300,11.31569921875,0.014165276661515236,-0.01370982639491558,0.002955795032903552
1733699175480655400,11.3256552734375,0.019830498844385147,-0.03221781551837921,0.0015340072568506002
1733699175490610400,11.3356103515625,0.02267741784453392,-0.05271803215146065,0.0011430552694946527
1733699175500566500,11.34556640625,0.027098918333649635,-0.06798478960990906,0.000762681826017797
1733699175510521300,11.355521240234374,0.02803315594792366,-0.07684139162302017,0.00010328320786356926
1733699175520477200,11.365477294921876,0.02752508595585823,-0.07756238430738449,-0.0003861216828227043
1733699175530432500,11.3754326171875,0.027509106323122978,-0.06976358592510223,0.0019539978820830584
1733699175540388400,11.385388427734375,0.019170736894011497,-0.04921262711286545,0.0006069029914215207
1733699175550343200,11.39534326171875,0.014691033400595188,-0.027659665793180466,0.0010290140053257346
1733699175560299500,11.405299560546876,0.0062291305512189865,-0.014695300720632076,0.002057940699160099
1733699175570254300,11.41525439453125,-0.0010876384330913424,-0.006748161744326353,-0.0009226691909134388
1733699175580209400,11.42520947265625,-0.004219989757984877,-0.002467494225129485,-0.005274430848658085
1733699175590165500,11.43516552734375,-0.004967006389051676,0.0017165979370474815,-0.0075892498716712
1733699175600120300,11.445120361328126,-0.003865146078169346,-0.0013999923830851912,-0.007096987217664719
1733699175610076400,11.455076416015626,-0.0026888279244303703,-0.009161775931715965,-0.003252713941037655
1733699175620031200,11.46503125,-0.0023598428815603256,-0.01666029915213585,-0.005376074463129044
1733699175629987600,11.474987548828125,-0.003375306259840727,-0.02178901433944702,-0.004400825127959251
1733699175639942400,11.4849423828125,-0.0025056153535842896,-0.02957236021757126,-0.005860814359039068
1733699175649898200,11.494898193359376,0.003371448488906026,-0.035503752529621124,-0.003996601793915033
1733699175659853600,11.504853515625,0.00767535949125886,-0.035925816744565964,-0.0041573503986001015
1733699175669809400,11.514809326171875,0.012643752619624138,-0.03390580788254738,-0.0007160138338804245
1733699175679764200,11.52476416015625,0.014978727325797081,-0.028850875794887543,0.000028640730306506157
1733699175689720300,11.53472021484375,0.01593080721795559,-0.02204064093530178,0.002225482137873769
1733699175699675400,11.54467529296875,0.010812733322381973,-0.01271076500415802,-0.0013869092799723148
1733699175709631500,11.554631591796875,0.005130079574882984,-0.003215264528989792,0.00009567243978381157
1733699175719586300,11.56458642578125,0.0009931374806910753,0.0011855852790176868,0.0000917576253414154
1733699175729542400,11.57454248046875,-0.0037898998707532883,0.0005152676603756845,-0.0020355754531919956
1733699175739497500,11.58449755859375,-0.002150616142898798,-0.002399860881268978,0.0011944319121539593
1733699175749453300,11.594453369140625,0.0011261373292654753,-0.006323229521512985,-0.0009113296400755644
1733699175759408400,11.604408447265625,0.0060706231743097305,-0.011407818645238876,0.0007803937187418342
1733699175769364500,11.614364501953125,0.0087785255163908,-0.012708772905170918,0.0020792174618691206
1733699175779319300,11.6243193359375,0.012607267126441002,-0.01210650335997343,0.0008669691160321236
1733699175789274400,11.6342744140625,0.012951614335179329,-0.0122524444013834,0.0025713923387229443
1733699175799230500,11.64423046875,0.012489834800362587,-0.014376339502632618,0.002519007306545973
1733699175809185500,11.654185546875,0.009573673829436302,-0.01682724803686142,-0.0002048737369477749
1733699175819141400,11.664141357421874,0.006497165188193321,-0.019443633034825325,0.0008530528284609318
1733699175829096200,11.67409619140625,0.0053794365376234055,-0.020566154271364212,-0.0010188831947743893
1733699175839052500,11.684052490234375,0.002402712358161807,-0.028136953711509705,-0.0007998298387974501
1733699175849007400,11.69400732421875,0.0015603543724864721,-0.025553686544299126,-0.00444676261395216
1733699175858963500,11.70396337890625,-0.00018848315812647343,-0.02613554522395134,-0.0028018977027386427
1733699175868918500,11.71391845703125,-0.00043296138755977154,-0.029698055237531662,-0.00769625511020422
1733699175878874400,11.723874267578125,0.005500525236129761,-0.030795760452747345,-0.008463993668556213
1733699175888829400,11.733829345703125,0.006075768731534481,-0.02901463769376278,-0.0071081784553825855
1733699175898785300,11.743785400390625,0.010383975692093372,-0.019596392288804054,-0.005103536881506443
1733699175908740400,11.753740234375,0.010758682154119015,-0.004957261960953474,-0.0011972123757004738
1733699175918696400,11.763696533203126,0.006773939821869135,0.010845992714166641,-0.0006037983112037182
