time,seconds_elapsed,z,y,x
1733699084848415000,0.0194150390625,0.042280346155166626,-0.058400075882673264,0.01728592813014984
1733699084858371000,0.02937109375,0.02605780027806759,-0.0426914282143116,0.01124965213239193
1733699084868326000,0.039325927734375,0.00572536326944828,-0.018591953441500664,-0.0008932971395552158
1733699084878281700,0.04928173828125,-0.005598155781626701,0.010724029503762722,-0.010498134419322014
1733699084888237000,0.059237060546875,-0.01407046988606453,0.038159117102622986,-0.01071225292980671
1733699084898193000,0.06919287109375,-0.017259765416383743,0.04978179559111595,-0.003821742022410035
1733699084908147700,0.079147705078125,-0.016232850030064583,0.04236755520105362,0.000459289294667542
1733699084918103800,0.089103759765625,-0.008123038336634636,0.022426269948482513,0.0016774011310189962
1733699084928059000,0.099058837890625,0.0012728602159768343,-0.004633578471839428,-0.00002302718348801136
1733699084938015000,0.109014892578125,0.009754165075719357,-0.029076233506202698,-0.0012897320557385683
1733699084947969800,0.1189697265625,0.011926772072911263,-0.04161546006798744,-0.001770965289324522
1733699084957926000,0.12892578125,0.012181178666651249,-0.04711966589093208,-0.0035063731484115124
1733699084967881000,0.138880859375,0.010034671053290367,-0.038343485444784164,-0.005361531395465136
1733699084977837300,0.14883740234375,0.006851879879832268,-0.02109399251639843,-0.0033628465607762337
1733699084987792100,0.158792236328125,0.004094709642231464,-0.003209267742931843,-0.00034228921867907047
1733699084997748500,0.16874853515625,0.00026044726837426424,0.011100586503744125,-0.0008803596720099449
1733699085007703300,0.178703369140625,-0.0029185679741203785,0.013895307667553425,-0.0010220399126410484
1733699085017658400,0.188658447265625,-0.0005966788157820702,0.011279874481260777,0.00023130467161536217
1733699085027614500,0.198614501953125,-0.002481397707015276,0.00683319428935647,0.00007391185499727726
1733699085037569300,0.2085693359375,0.002318126615136862,0.005326549522578716,-0.0008098720572888851
1733699085047525400,0.218525390625,0.0037120250053703785,0.0020394097082316875,0.002174199791625142
1733699085057480400,0.22848046875,0.006385366432368755,-0.0015025516040623188,-0.000288595212623477
1733699085067436500,0.2384365234375,0.007171265780925751,-0.003258906304836273,-0.001341609051451087
1733699085077391400,0.248391357421875,0.007835506461560726,-0.008279307745397091,-0.0003426291514188051
1733699085087347200,0.25834716796875,0.003912670537829399,-0.013461020775139332,-0.0013596904464066029
1733699085097302500,0.268302490234375,0.0008076061494648457,-0.014194859191775322,-0.0007402165792882442
1733699085107258400,0.27825830078125,-0.0015615420415997505,-0.013963696546852589,-0.0037927315570414066
1733699085117213400,0.28821337890625,-0.004173219203948975,-0.010937409475445747,-0.0029951378237456083
1733699085127169300,0.298169189453125,-0.0019489468540996313,-0.0058297328650951385,-0.004358143545687199
1733699085137124400,0.308124267578125,-0.004708297550678253,-0.007117826957255602,-0.0034654797054827213
1733699085147080400,0.31808056640625,-0.0010757455602288246,-0.007249121088534594,-0.004318490624427795
1733699085157035300,0.32803515625,-0.0008390381117351353,-0.005959153175354004,-0.0016164644621312618
1733699085166991400,0.337991455078125,0.0027375873178243637,-0.004640622064471245,-0.001161862863227725
1733699085176946400,0.347946533203125,0.003953416831791401,-0.004316258244216442,-0.001163415377959609
1733699085186901200,0.3579013671875,0.0023754939902573824,-0.005727200768887997,-0.0032177779357880354
1733699085196857300,0.367857421875,0.002726462436839938,-0.00853491947054863,-0.0006256720516830683
1733699085206812400,0.3778125,0.001720586558803916,-0.007753015495836735,-0.0006112910341471434
1733699085216768300,0.387768310546875,0.0013892403803765774,-0.005878872703760862,-0.0009431494399905205
1733699085226723300,0.397723388671875,0.0016720681451261044,-0.0025403338950127363,-0.0005026625003665686
1733699085236679400,0.407679443359375,0.002257115673273802,0.0008989495690912008,0.00020571041386574507
1733699085246634500,0.417634521484375,0.003027301747351885,0.004292882047593594,-0.000045159365981817245
1733699085256590300,0.42759033203125,0.0012697135098278522,0.00884966365993023,0.0007722211303189397
1733699085266545400,0.43754541015625,0.0012761049438267946,0.01146648544818163,0.0018539971206337214
1733699085276501500,0.44750146484375,-0.002101631136611104,0.014989390969276428,0.0008430327288806438
1733699085286456300,0.457456298828125,-0.0036571836099028587,0.012722774408757687,0.0008443642873317003
1733699085296412400,0.467412353515625,-0.007739738095551729,0.007666926831007004,-0.0020479299128055573
1733699085306367500,0.477367431640625,-0.008361585438251495,-0.0007755601545795798,-0.0022612493485212326
1733699085316323300,0.4873232421875,-0.008814079686999321,-0.011647089384496212,-0.003882185323163867
1733699085326278400,0.4972783203125,-0.007497146725654602,-0.020605964586138725,-0.007168792188167572
1733699085336234200,0.507234130859375,-0.0041023315861821175,-0.022770565003156662,-0.007226882968097925
1733699085346189300,0.517189208984375,-0.00011771032586693764,-0.02071939781308174,-0.006029791664332151
1733699085356145400,0.5271455078125,0.0002858079969882965,-0.017615826800465584,-0.004145577549934387
1733699085366100200,0.537100341796875,0.0021454934030771255,-0.01434679701924324,-0.0007955874316394329
1733699085376055600,0.5470556640625,0.005466007627546787,-0.0076882243156433105,0.0005916303489357233
1733699085386011400,0.557011474609375,0.00498530687764287,-0.001739255152642727,0.0008089442271739244
1733699085395966200,0.56696630859375,0.006022644694894552,0.003018020885065198,0.0010160994715988636
1733699085405922300,0.57692236328125,0.003628462553024292,0.0073595065623521805,0.001249658758752048
1733699085415877400,0.58687744140625,0.0035793031565845013,0.008450179360806942,0.0013235406950116158
1733699085425833500,0.59683349609375,0.002347324974834919,0.0080166170373559,0.0005565503379330039
1733699085435788300,0.606788330078125,0.0000021940795704722404,0.0043235355988144875,-0.001181666273623705
1733699085445744400,0.616744384765625,0.0017734626308083534,-0.001444072462618351,-0.0008535648230463266
1733699085455699500,0.626699462890625,0.002867391798645258,-0.01290391106158495,0.00007530092261731625
1733699085465655300,0.6366552734375,0.004420813638716936,-0.01877724565565586,0.00042577285785228014
1733699085475610400,0.6466103515625,0.004348325077444315,-0.02261890098452568,-0.0022137255873531103
1733699085485566500,0.65656640625,0.0028902445919811726,-0.020666005089879036,-0.004389528185129166
1733699085495521300,0.666521240234375,0.002305355854332447,-0.025146961212158203,-0.005720395594835281
1733699085505477400,0.676477294921875,0.0029322640039026737,-0.027999475598335266,-0.006511887535452843
1733699085515432400,0.686432373046875,0.0020153496880084276,-0.028174590319395065,-0.005436434876173735
1733699085525388500,0.696388427734375,-0.0003356889355927706,-0.024337243288755417,-0.004832962527871132
1733699085535343400,0.70634326171875,0.0002583279274404049,-0.016470057889819145,-0.003827890381217003
1733699085545298400,0.71629833984375,-0.0009118649177253246,-0.008367390371859074,-0.0014028160367161036
1733699085555254500,0.726254638671875,-0.00083988654660061,-0.004031355958431959,0.0007627885788679123
1733699085565209300,0.736209228515625,-0.00060472940094769,-0.0034795491956174374,-0.00021485774777829647
1733699085575165200,0.746165283203125,0.0029487027786672115,-0.006563318893313408,-0.00055881985463202
1733699085585120500,0.75612060546875,0.0030323262326419353,-0.0058876750990748405,0.0003900643205270171
1733699085595076400,0.766076416015625,0.0035423822700977325,-0.004062567837536335,-0.00010971492156386375
1733699085605031400,0.776031494140625,0.0029295887798070908,0.0004893069854006171,0.0019084286177530885
1733699085614987300,0.7859873046875,0.0006455770926550031,0.006374754477292299,0.0014274839777499437
1733699085624942300,0.7959423828125,-0.0027297132182866335,0.009094108827412128,-0.0016476681921631098
1733699085634898400,0.8058984375,-0.0040363711304962635,0.010759294964373112,-0.001560451928526163
1733699085644853200,0.815853271484375,-0.004155147820711136,0.00981387309730053,-0.0007817437872290611
1733699085654809600,0.8258095703125,-0.0034721430856734514,0.0078237010166049,-0.0011303974315524101
1733699085664764400,0.835764404296875,-0.00208809832111001,0.006949385162442923,-0.00022279215045273304
1733699085674720300,0.84572021484375,-0.0008858010405674577,0.0027661286294460297,0.000779440626502037
1733699085684675300,0.85567529296875,0.0029973541386425495,-0.0005910521722398698,0.0005703824572265148
1733699085694631400,0.86563134765625,0.0016941241919994354,-0.0045380378141999245,-0.00030800187960267067
1733699085704586200,0.875586181640625,-0.00026862556114792824,-0.008380712941288948,0.0003990675322711468
1733699085714541300,0.885541259765625,0.0002598544815555215,-0.009544404223561287,0.00023113470524549484
1733699085724497400,0.895497314453125,0.0015243232483044267,-0.011936455965042114,-0.0022756988182663918
1733699085734452500,0.905452392578125,0.0011871065944433212,-0.011979642324149609,-0.00313679501414299
1733699085744408300,0.915408203125,0.001647034427151084,-0.010004641488194466,-0.0016773829702287912
1733699085754363400,0.92536328125,0.002527717500925064,-0.010101143270730972,-0.0009712597820907831
1733699085764319500,0.935319580078125,0.0021338360384106636,-0.008145583793520927,-0.00047431373968720436
1733699085774274300,0.9452744140625,0.0028932346031069756,-0.009299857541918755,-0.0015662144869565964
1733699085784230400,0.95523046875,0.0016647183801978827,-0.007112336810678244,0.0003003950696438551
1733699085794185500,0.965185546875,0.0013678991235792637,-0.004699306562542915,0.001409271964803338
1733699085804141300,0.975141357421875,-0.0012374712387099862,0.0005697576561942697,-0.00035959971137344837
1733699085814096400,0.985096435546875,-0.00012761098332703114,0.005761676002293825,-0.00006432877853512764
1733699085824052200,0.99505224609375,0.0002726621460169554,0.009338833391666412,0.002019061939790845
1733699085834007300,1.00500732421875,0.0009993420680984855,0.007332950364798307,0.0010842472547665238
1733699085843963400,1.01496337890625,0.0006515331333503127,0.003936620894819498,-0.0011661238968372345
1733699085853918200,1.024918212890625,-0.0005752664292231202,-0.001811580965295434,-0.0008820483926683664
1733699085863874600,1.03487451171875,0.0008290184196084738,-0.0057234978303313255,-0.0015781987458467484
1733699085873829400,1.044829345703125,-0.0010200724937021732,-0.007649685256183147,-0.0003830580972135067
1733699085883785500,1.054785400390625,0.0012207112740725279,-0.007841432467103004,-0.001758048078045249
1733699085893740300,1.064740234375,-0.000003883615136146545,-0.005018233321607113,-0.0016232014168053865
1733699085903695400,1.0746953125,-0.0009815299417823553,-0.004632607568055391,-0.0006974868010729551
1733699085913651500,1.0846513671875,-0.0005984095623716712,-0.0038388294633477926,-0.0026012274902313948
1733699085923606300,1.094606201171875,0.002401375211775303,-0.0033253722358494997,-0.001432099612429738
1733699085933562400,1.104562255859375,0.0031198961660265923,-0.0033757060300558805,0.001394313178025186
1733699085943517400,1.114517333984375,0.0035281586460769176,-0.0025123090017586946,0.0015469123609364033
1733699085953473300,1.124473388671875,0.0005079888505861163,-0.001957220956683159,0.0009875744581222534
1733699085963428400,1.134428466796875,0.00031517597381025553,-0.004526904784142971,-0.001709408825263381
1733699085973384400,1.144384521484375,-0.0010731820948421955,-0.004463298246264458,0.0002066981978714466
1733699085983338800,1.1543388671875,-0.0016441637417301536,-0.0028084097430109978,-0.0006207460537552834
1733699085993294600,1.164294677734375,-0.002051708986982703,0.0014282522024586797,0.0003337755333632231
1733699086003250000,1.17425,0.0031020399183034897,0.006743389181792736,-0.0009480039589107037
1733699086013205800,1.184205810546875,0.003913239110261202,0.010992072522640228,0.00011005718261003494
1733699086023160600,1.19416064453125,0.004962790757417679,0.014707181602716446,0.002984673250466585
1733699086033117000,1.204116943359375,0.003821395803242922,0.015550287440419197,0.0031097913160920143
1733699086043071700,1.21407177734375,0.0005190762458369136,0.016549505293369293,0.0022386712953448296
1733699086053027800,1.22402783203125,-0.0015192581340670586,0.01486551109701395,-0.0016758812125772238
1733699086062983000,1.23398291015625,-0.004055386409163475,0.012121923267841339,-0.00022845319472253323
1733699086072938800,1.243938720703125,-0.004545068833976984,0.006145275663584471,-0.00044425949454307556
1733699086082893800,1.253893798828125,-0.00911052618175745,-0.0017491326434537768,-0.0020829024724662304
1733699086092849000,1.263848876953125,-0.007193244062364101,-0.008484371937811375,-0.006361106410622597
1733699086102805000,1.273804931640625,-0.0041391304694116116,-0.01182424183934927,-0.005025532096624374
1733699086112759800,1.283759765625,-0.001157116610556841,-0.01379070058465004,-0.0015778932720422745
1733699086122715600,1.293715576171875,0.002078357618302107,-0.011755513027310371,-0.0023153226356953382
1733699086132671000,1.3036708984375,0.001704086665995419,-0.012651514261960983,-0.0016278116963803768
1733699086142626800,1.313626708984375,0.002581598237156868,-0.006938768085092306,-0.001690928591415286
1733699086152581600,1.32358154296875,0.0030162015464156866,-0.003535608761012554,-0.0001331984531134367
1733699086162537700,1.333537841796875,0.004899322986602783,0.0006671255687251687,0.0011491135228425264
1733699086172492800,1.343492919921875,0.0017717666923999786,0.0032690768130123615,0.0030844127759337425
1733699086182449000,1.353448974609375,0.0013435306027531624,0.005416383501142263,0.0027512514498084784
1733699086192403700,1.36340380859375,-0.0004499502247199416,0.005525729153305292,0.0008489663014188409
1733699086202359600,1.373359619140625,0.0005788287380710244,0.005502293352037668,0.0011174129322171211
1733699086212315000,1.38331494140625,-0.0006066288333386183,0.0032627033069729805,0.0017959077376872301
1733699086222270700,1.393270751953125,-0.0002332536969333887,-0.00015253451419994235,0.0007199906976893544
1733699086232225800,1.403225830078125,0.0011948866304010153,-0.005148443393409252,0.00006890413351356983
1733699086242180900,1.413180908203125,0.002499302849173546,-0.007304272148758173,-0.002441124990582466
1733699086252136700,1.42313671875,0.0002654703566804528,-0.01045844703912735,-0.0013222259003669024
1733699086262091800,1.433091796875,0.0016396614955738187,-0.015339221805334091,-0.002720119198784232
1733699086272047900,1.4430478515625,0.0015184283256530762,-0.01911628618836403,-0.0036105255130678415
1733699086282002700,1.453002685546875,0.0026659842114895582,-0.01887340657413006,-0.00040035112760961056
1733699086291958800,1.462958740234375,-0.0005316369934007525,-0.013186809606850147,-0.0016613109037280083
1733699086301913900,1.472913818359375,-0.0016826551873236895,-0.004015948623418808,-0.0008647593203932047
1733699086311870000,1.482869873046875,-0.004165641497820616,0.003126830095425248,0.0013450535479933023
1733699086321824800,1.49282470703125,-0.0034620342776179314,0.004784115124493837,0.0018097751308232546
1733699086331780600,1.502780517578125,-0.0027619979809969664,0.0019131181761622429,0.00090794637799263
1733699086341736000,1.51273583984375,-0.0011502529960125685,-0.0007843976491130888,-0.00011710426770150661
1733699086351691800,1.52269189453125,0.0030210555996745825,-0.005582737736403942,0.0010237833485007286
1733699086361646800,1.532646728515625,0.0040109530091285706,-0.005288192071020603,0.001458677463233471
1733699086371602700,1.542602783203125,0.0024600254837423563,-0.0003095658612437546,0.0007582629332318902
1733699086381557800,1.552557861328125,0.0008858309593051672,0.00239114579744637,0.0024166132789105177
1733699086391513900,1.562513916015625,-0.0018955871928483248,0.007271146401762962,0.0011322489008307457
1733699086401468700,1.57246875,-0.005734800361096859,0.010705292224884033,0.0010938994819298387
1733699086411424800,1.5824248046875,-0.006514440290629864,0.011551439762115479,-0.0020551499910652637
1733699086421379800,1.5923798828125,-0.006291533820331097,0.011445180512964725,0.00012757699005305767
1733699086431334700,1.602334716796875,-0.00429720152169466,0.009850513190031052,0.0006056481506675482
1733699086441290800,1.612290771484375,-0.0030820011161267757,0.006938346195966005,0.0008951338240876794
1733699086451245800,1.622245849609375,-0.0014094999060034752,0.0039025573059916496,0.0012549967505037785
1733699086461202000,1.632201904296875,-0.000594040029682219,-0.0006895315600559115,0.0011583240702748299
1733699086471156700,1.64215673828125,0.0033703299704939127,-0.00460503064095974,0.0015871147625148296
1733699086481112800,1.65211279296875,0.0009335377253592014,-0.005838872864842415,0.00036552269011735916
1733699086491068000,1.66206787109375,-0.0004557508509606123,-0.007730233483016491,-0.000362802529707551
1733699086501023700,1.672023681640625,-0.0005377762718126178,-0.007397071458399296,-0.0018770762253552675
1733699086510978800,1.681978759765625,-0.0011331962887197733,-0.006698893383145332,-0.0017272012773901224
1733699086520935000,1.691934814453125,-0.001233597518876195,-0.005366780329495668,-0.0015738033689558506
1733699086530889700,1.7018896484375,-0.0013435990549623966,-0.004878864623606205,0.0011538462713360786
1733699086540845800,1.711845703125,-0.0015976645518094301,-0.004589112475514412,0.0008387943962588906
1733699086550801000,1.72180078125,-0.0008952795178629458,-0.0037728878669440746,0.00039462395943701267
1733699086560756700,1.7317568359375,-0.00005585118196904659,0.00001758948201313615,0.0013562913518399
1733699086570711800,1.7417119140625,-0.0008623168105259538,0.0012279532384127378,0.00125759223010391
1733699086580667600,1.751667724609375,-0.0008010640740394592,0.005390207748860121,0.00266773602925241
1733699086590623000,1.761623046875,-0.000011255382560193539,0.009139001369476318,0.001876461785286665
1733699086600577800,1.771577880859375,-0.0005622634198516607,0.0112881725654006,0.002103895880281925
1733699086610533600,1.78153369140625,-0.0002641951432451606,0.008811209350824356,0.00020133191719651222
1733699086620489000,1.791489013671875,-0.0013534280005842447,0.004545890726149082,0.0005544670857489109
1733699086630444800,1.80144482421875,-0.0007013651775196195,-0.002076915232464671,-0.00010665133595466614
1733699086640399600,1.811399658203125,-0.000616942998021841,-0.006710548885166645,-0.0007772352546453476
1733699086650355700,1.821355712890625,-0.0037352018989622593,-0.008122609928250313,-0.0025549817364662886
1733699086660310800,1.831310791015625,-0.004288340453058481,-0.007462944369763136,-0.0014401823282241821
1733699086670267000,1.841266845703125,-0.0024586275685578585,-0.0043456293642520905,-0.0010180624667555094
1733699086680221700,1.8512216796875,-0.0015126727521419525,-0.002988748485222459,-0.0004103293176740408
1733699086690177800,1.861177734375,-0.0011237183352932334,-0.002732614055275917,-0.0006811716593801975
1733699086700132900,1.8711328125,0.00027950131334364414,-0.0025200939271599054,0.0010221862467005849
1733699086710088700,1.881088623046875,0.0005668428493663669,-0.003593854373320937,0.0008185422047972679
1733699086720043800,1.891043701171875,-0.0005181290907785296,0.001824080478399992,0.000979929813183844
1733699086730000000,1.900999755859375,0.00003721413668245077,0.0013295484241098166,0.003005735110491514
1733699086739954700,1.91095458984375,-0.0008256500004790723,0.00107202073559165,0.002388680586591363
1733699086749910800,1.920910888671875,-0.0003197344485670328,0.0016023848438635468,0.0024192279670387506
1733699086759865900,1.930865966796875,0.0002365998225286603,0.004862360656261444,0.0011574223171919584
1733699086769820700,1.940820556640625,-0.0018985527567565441,0.008137257769703865,0.0019034590804949403
1733699086779776800,1.95077685546875,-0.0011741729686036706,0.01159856840968132,-0.00023825513198971748
1733699086789731800,1.96073193359375,0.0024619975592941046,0.013885458931326866,0.002881539985537529
1733699086799688000,1.97068798828125,0.001859857002273202,0.018621625378727913,0.0036024576984345913
1733699086809642800,1.980642822265625,0.000014577293768525124,0.019661685451865196,0.00482309190556407
1733699086819598600,1.9905986328125,-0.004116784315556288,0.020215889438986778,0.0035695419646799564
1733699086829554000,2.000553955078125,-0.006775418296456337,0.020366357639431953,0.002178523223847151
1733699086839509800,2.010509765625,-0.010355239734053612,0.014364389702677727,-0.000524851493537426
1733699086849464800,2.02046484375,-0.010381435044109821,0.0060324338264763355,-0.0004316987469792366
1733699086859420700,2.030420654296875,-0.012259230017662048,-0.0037749232724308968,-0.0038503985852003098
1733699086869375700,2.040375732421875,-0.009766985662281513,-0.007971077226102352,-0.004429258871823549
1733699086879331800,2.050331787109375,-0.006125645712018013,-0.011193235404789448,-0.003410599660128355
1733699086889286700,2.06028662109375,-0.0036192950792610645,-0.009302735328674316,-0.002260775538161397
1733699086899242800,2.07024267578125,-0.00047436822205781937,-0.006806554272770882,-0.0015515757258981466
1733699086909197800,2.08019775390625,0.0008518268587067723,-0.002964066807180643,0.0005451925098896027
1733699086919153700,2.090153564453125,0.0010049586417153478,0.0025894229765981436,0.00029165949672460556
1733699086929108700,2.100108642578125,0.0024021256249397993,0.005948629695922136,0.001735090627335012
1733699086939064800,2.11006494140625,0.0023704341147094965,0.008491681888699532,0.004208368249237537
1733699086949019600,2.12001953125,0.0025793712120503187,0.009367510676383972,0.0023426313418895006
1733699086958974700,2.129974609375,0.0006328667514026165,0.008411968126893044,0.0035298685543239117
1733699086968930800,2.139930908203125,-0.00018905766773968935,0.0065926010720431805,0.0027629807591438293
1733699086978886000,2.149885986328125,-0.001990419812500477,0.005734797101467848,-0.00017848052084445953
1733699086988842000,2.159842041015625,-0.00011243100743740797,0.0018433670047670603,0.0008908685995265841
1733699086998797000,2.169797119140625,-0.0030917092226445675,-0.0010714628733694553,0.00033480057027190924
1733699087008753200,2.179753173828125,-0.002351375063881278,-0.002614060416817665,-0.00044245715253055096
1733699087018708000,2.1897080078125,-0.0021982432808727026,-0.00530624995008111,-0.0006810764316469431
1733699087028664000,2.1996640625,-0.000027149450033903122,-0.009691805578768253,-0.0015729919541627169
1733699087038619100,2.209619140625,0.00037738459650427103,-0.015159809030592442,-0.0018478301353752613
1733699087048575000,2.219574951171875,-0.0003844248130917549,-0.019632235169410706,-0.002085723914206028
1733699087058530000,2.229530029296875,0.0005905583966523409,-0.02098724991083145,-0.0013371093664318323
1733699087068486000,2.23948583984375,0.001061235903762281,-0.015595834702253342,-0.0022047096863389015
1733699087078441000,2.24944091796875,0.0005975797539576888,-0.0075751920230686665,0.00018840678967535496
1733699087088397000,2.25939697265625,-0.0017762776697054505,0.00040045726927928627,0.0029253028333187103
1733699087098351900,2.269351806640625,-0.001301702344790101,0.00518269557505846,0.0005865147104486823
1733699087108308000,2.279307861328125,-0.0016794954426586628,0.004402355756610632,0.0022021126933395863
1733699087118263000,2.289262939453125,-0.0011039862874895334,0.0018025777535513043,0.0016465772641822696
1733699087128217900,2.2992177734375,0.0014961777487769723,0.0001415085280314088,-0.0003841433208435774
1733699087138174000,2.309174072265625,0.0014722092309966683,0.000534857390448451,0.0014984451700001955
1733699087148129000,2.31912890625,0.003664307063445449,0.004201562609523535,0.001916044158861041
1733699087158085000,2.329085205078125,0.0008003434631973505,0.0066604590974748135,0.0018675746396183968
1733699087168040000,2.3390400390625,-0.001029163715429604,0.01048516295850277,0.00025633955374360085
1733699087177996000,2.34899609375,-0.002849966986104846,0.013353120535612106,0.0014789968263357878
1733699087187951000,2.358951171875,-0.0032152440398931503,0.011157188564538956,0.0005544602172449231
1733699087197907000,2.368906982421875,-0.0030514595564454794,0.009269805625081062,-0.0012761966791003942
1733699087207862000,2.378862060546875,-0.0035619763657450676,0.006142842583358288,-0.0004042088985443115
1733699087217818000,2.388818115234375,-0.0027869967743754387,0.00581127917394042,0.00028128863777965307
1733699087227773000,2.39877294921875,-0.0003741593100130558,0.0013786881463602185,-0.0007990773301571608
1733699087237729000,2.40872900390625,0.000924664200283587,-0.0004373213741928339,-0.0001434069126844406
1733699087247684000,2.41868408203125,-0.00035262375604361296,-0.0050935400649905205,0.00027369509916752577
1733699087257640000,2.428639892578125,0.00048227724619209766,-0.00897003710269928,0.0004409416578710079
1733699087267595000,2.438594970703125,0.0021498752757906914,-0.010090181604027748,-0.0009075924754142761
1733699087277550800,2.44855078125,0.004312894307076931,-0.00973491556942463,-0.0012109263334423304
1733699087287506200,2.458506103515625,0.0023210446815937757,-0.008442912250757217,-0.0010030977427959442
1733699087297462000,2.4684619140625,0.004102699458599091,-0.008765687234699726,-0.001208693953230977
1733699087307416800,2.478416748046875,0.0025512624997645617,-0.007589017041027546,-0.0008138208650052547
1733699087317372200,2.4883720703125,0.0013224801514297724,-0.008224447257816792,0.00005996227264404297
1733699087327328000,2.498327880859375,0.002644909080117941,-0.007250519469380379,-0.0006572722923010588
1733699087337282800,2.50828271484375,0.003158899024128914,-0.0036640409380197525,0.000612522941082716
1733699087347239000,2.518239013671875,0.0030966417398303747,0.0010367475915700197,-0.0003812722861766815
1733699087357194000,2.528194091796875,0.004252986051142216,0.002772063482552767,0.0009833313524723053
1733699087367150000,2.538150146484375,0.004096077289432287,0.0034033090341836214,0.0015902372542768717
1733699087377105000,2.54810498046875,0.0026009785942733288,-0.0007118075154721737,-0.00008062995038926601
1733699087387061000,2.55806103515625,0.0025573994498699903,-0.005837868899106979,0.001093603204935789
1733699087397016000,2.56801611328125,0.0004290009383112192,-0.010285347700119019,-0.0029245743062347174
1733699087406972000,2.577971923828125,-0.0019771764054894447,-0.011029021814465523,-0.004041039384901524
1733699087416927000,2.587927001953125,-0.0011068553430959582,-0.009039640426635742,-0.002176826586946845
1733699087426883000,2.597883056640625,-0.0013410198735073209,-0.003230116330087185,-0.0022113455925136805
1733699087436838000,2.607837890625,0.00014315976295620203,-0.0010529824066907167,-0.001087757758796215
1733699087446794000,2.6177939453125,0.0004509368445724249,-0.0008467254810966551,-0.0003132880665361881
1733699087456749000,2.6277490234375,0.0016245918814092875,-0.0004184891586191952,-0.002738362643867731
1733699087466705200,2.637705078125,0.0031934354919940233,-0.0006172561552375555,0.000756195280700922
1733699087476660000,2.647659912109375,0.0028773185331374407,0.0003643850504886359,0.0018843102734535933
1733699087486615000,2.657614990234375,0.002913137199357152,-0.00020266283536329865,0.0016754328971728683
1733699087496571100,2.667571044921875,0.003439910477027297,-0.003091127146035433,0.0017856878694146872
1733699087506526000,2.67752587890625,0.0023201850708574057,-0.004236491862684488,0.0004102853126823902
1733699087516482000,2.68748193359375,0.0019574626348912716,-0.0029219556599855423,-0.00098334695212543
1733699087526437000,2.69743701171875,0.0018734883051365614,-0.0018818627577275038,0.00007896148599684238
1733699087536393000,2.70739306640625,0.0033518087584525347,0.00011763861402869225,0.000640355865471065
1733699087546348000,2.71734814453125,0.005966983735561371,0.0038647830951958895,0.0017241347813978791
1733699087556304000,2.727303955078125,0.006487898528575897,0.005919944494962692,0.0012389067560434341
1733699087566259000,2.737259033203125,0.0015891591319814324,0.010532842949032784,-0.0002281232737004757
1733699087576215000,2.747215087890625,0.00008074473589658737,0.015841055661439896,0.002269655466079712
1733699087586169900,2.757169921875,-0.0016638190718367696,0.016100075095891953,0.00020289747044444084
1733699087596126000,2.7671259765625,-0.005961095914244652,0.013156218454241753,-0.0009230871219187975
1733699087606081000,2.7770810546875,-0.007050426676869392,0.0071525415405631065,-0.0028916127048432827
1733699087616036900,2.787036865234375,-0.007078655995428562,-0.001153325429186225,-0.0036133290268480778
1733699087625992000,2.796991943359375,-0.006759644951671362,-0.006807697471231222,-0.004684764891862869
1733699087635948000,2.806947998046875,-0.0034000673331320286,-0.010733462870121002,-0.005278916098177433
1733699087645903000,2.816903076171875,-0.00019638112280517817,-0.010735318064689636,-0.0033791332971304655
1733699087655859000,2.82685888671875,0.0033733199816197157,-0.00982211995869875,-0.001783633604645729
1733699087665814000,2.83681396484375,0.004435122013092041,-0.008276421576738358,-0.0008896971121430397
1733699087675769000,2.84676904296875,0.005294790491461754,-0.005280897952616215,0.00035080325324088335
1733699087685725000,2.856724853515625,0.008003395050764084,-0.0002296710736118257,0.0009751737816259265
1733699087695680000,2.866679931640625,0.005404949188232422,0.002929370617493987,0.0034298093523830175
1733699087705636000,2.876635986328125,0.0042481436394155025,0.006089639384299517,0.00251028616912663
1733699087715591000,2.8865908203125,0.002489125821739435,0.00928276963531971,0.002005084417760372
1733699087725547000,2.896547119140625,0.0009956377325579524,0.007411342579871416,-0.0008075330406427383
1733699087735502000,2.906502197265625,0.0006539541063830256,0.005654987879097462,-0.0005518693942576647
1733699087745458000,2.9164580078125,-0.0002923759166151285,0.0006860949215479195,0.000012767966836690903
1733699087755413000,2.9264130859375,-0.000287582166492939,-0.0022537684999406338,-0.00039522815495729446
1733699087765368800,2.936368896484375,0.0018169324612244964,-0.007181543856859207,-0.0007354093249887228
1733699087775324200,2.94632421875,0.002597771119326353,-0.011900132521986961,-0.0022699227556586266
1733699087785280000,2.956280029296875,0.0017642134334892035,-0.01298365369439125,-0.0006554594729095697
1733699087795234800,2.96623486328125,0.0021996404975652695,-0.019937966018915176,-0.003114356193691492
1733699087805191200,2.976191162109375,0.003556653158739209,-0.024167126044631004,-0.0033569156657904387
1733699087815146000,2.98614599609375,0.002594985766336322,-0.025119738653302193,-0.002765161218121648
1733699087825102000,2.99610205078125,0.0024835937656462193,-0.01877065934240818,-0.003038438269868493
1733699087835057000,3.006056884765625,0.0018841164419427514,-0.010093281976878643,-0.0004711509682238102
1733699087845012000,3.016011962890625,0.002611692063510418,-0.0011751545825973153,0.0011830769944936037
1733699087854968000,3.025968017578125,0.002056156750768423,0.005527755245566368,0.0030214572325348854
1733699087864923000,3.0359228515625,-0.0010780571028590202,0.006875357590615749,0.0009987051598727703
1733699087874879000,3.04587890625,-0.00042132160160690546,0.00647215498611331,0.000038901809602975845
1733699087884834000,3.055833984375,0.0005526206223294139,0.003725998103618622,0.0009318037191405892
1733699087894790000,3.065789794921875,0.003182758577167988,0.0010841425973922014,0.0013035810552537441
1733699087904745200,3.0757451171875,0.000869629206135869,0.003515748307108879,0.002998743671923876
1733699087914701000,3.085701171875,0.0005585718899965286,0.0044510504230856895,-0.0006796144880354404
1733699087924655900,3.09565576171875,-0.001586515107192099,0.007691041100770235,0.0010357171995565295
1733699087934612000,3.105612060546875,-0.0015311213210225105,0.011146758683025837,0.0010442392667755485
1733699087944567000,3.115567138671875,-0.0012423137668520212,0.010816079564392567,0.00001775822602212429
1733699087954523100,3.125523193359375,-0.0016095637110993266,0.010925536043941975,0.0004087102133780718
1733699087964478000,3.13547802734375,-0.00015056331176310778,0.008087490685284138,0.000058134784922003746
1733699087974433800,3.145433837890625,-0.001957251923158765,0.0020658178254961967,-0.0014982165303081274
1733699087984388600,3.155388671875,-0.003215279895812273,-0.0008853078470565379,-0.001099820015951991
1733699087994344400,3.165344482421875,-0.0037146226968616247,-0.003027820959687233,-0.0017256627324968576
1733699088004299500,3.175299560546875,-0.005076684057712555,-0.006137147080153227,-0.0023149929475039244
1733699088014255600,3.185255615234375,-0.00346946669742465,-0.006583226379007101,-0.0023173901718109846
1733699088024210400,3.19521044921875,-0.0015227081021293998,-0.007511456962674856,-0.0005294501315802336
1733699088034165500,3.20516552734375,0.00276631279848516,-0.009059819392859936,-0.00007777800783514977
1733699088044121600,3.21512158203125,0.00535995326936245,-0.01293149869889021,0.00039560452569276094
1733699088054076400,3.225076416015625,0.009870548732578754,-0.014522471465170383,0.0021168054081499577
1733699088064032500,3.235032470703125,0.00752689503133297,-0.015939965844154358,0.0017279984895139933
1733699088073987600,3.244987548828125,0.007231816649436951,-0.012878131121397018,-0.0005165135953575373
1733699088083943700,3.254943603515625,0.005701661109924316,-0.011136166751384735,-0.00045743631199002266
1733699088093898500,3.2648984375,0.0020038620568811893,-0.003938973881304264,0.001052576000802219
1733699088103854300,3.274854248046875,0.00013343908358365297,0.002971258480101824,0.00006659631617367268
1733699088113809700,3.2848095703125,-0.0022697974927723408,0.009804396890103817,0.0010775323025882244
1733699088123765500,3.294765625,-0.003236839547753334,0.014704814180731773,0.0013884245418012142
1733699088133720300,3.30472021484375,-0.0027974180411547422,0.015861157327890396,0.0012795012444257736
1733699088143676400,3.314676513671875,-0.0025684472639113665,0.01577683538198471,0.0017016049241647124
1733699088153631500,3.324631591796875,0.00017407594714313745,0.011117635294795036,-0.000266471179202199
1733699088163587600,3.334587646484375,-0.0003959514433518052,0.006659254431724548,0.00089973583817482
1733699088173542400,3.34454248046875,-0.001537648611702025,0.0011710124090313911,0.00024300033692270517
1733699088183498500,3.35449853515625,-0.0025605785194784403,-0.005603516008704901,0.00030136830173432827
1733699088193453600,3.36445361328125,-0.005233326926827431,-0.008433656767010689,-0.004091516137123108
1733699088203408400,3.374408447265625,-0.004915118217468262,-0.007723317015916109,-0.0036737185437232256
1733699088213364500,3.384364501953125,-0.0014146595494821668,-0.008189369924366474,-0.0018470564391463995
1733699088223319600,3.394319580078125,0.0004268104676157236,-0.007675635628402233,-0.0015987895894795656
1733699088233275400,3.404275390625,0.003383717965334654,-0.009749972261488438,-0.0015324768610298634
1733699088243230500,3.41423046875,0.008042482659220695,-0.01183683518320322,-0.0003210841678082943
1733699088253186600,3.4241865234375,0.008450212888419628,-0.009261292405426502,0.0010701511055231094
1733699088263141400,3.434141357421875,0.007641095668077469,-0.006639599800109863,0.0030718462076038122
1733699088273097500,3.444097412109375,0.004451428540050983,-0.007796211168169975,0.0007248023757711053
1733699088283052500,3.454052490234375,0.001068995683453977,-0.0074745770543813705,-0.00040107336826622486
1733699088293008600,3.464008544921875,-0.00052357476670295,-0.004395164083689451,0.0015491595258936286
1733699088302963500,3.47396337890625,-0.00019243534188717604,0.0007720112334936857,0.0007605477003380656
1733699088312919300,3.483919189453125,-0.001100040739402175,0.0060892789624631405,0.00025161763187497854
1733699088322874600,3.49387451171875,0.00004479195922613144,0.012137274257838726,0.0010894781444221735
1733699088332830500,3.50383056640625,0.0022126049734652042,0.017773855477571487,0.002444760873913765
1733699088342785500,3.51378564453125,0.0014862646348774433,0.024352403357625008,0.004197687841951847
1733699088352741400,3.523741455078125,-0.0026184655725955963,0.02924223430454731,0.003383027156814933
1733699088362696400,3.533696533203125,-0.004723235499113798,0.030690444633364677,0.0022486294619739056
1733699088372652500,3.543652587890625,-0.004974638111889362,0.03003503940999508,0.0016265149461105466
1733699088382607400,3.553607421875,-0.0055872006341814995,0.022870389744639397,0.0005530079361051321
1733699088392562400,3.5635625,-0.005087058991193771,0.008845649659633636,0.0005516763776540756
1733699088402518500,3.5735185546875,-0.005029268562793732,-0.0037787985056638718,-0.004448453430086374
1733699088412473300,3.583473388671875,-0.0034374971874058247,-0.009981833398342133,-0.0038034357130527496
1733699088422429400,3.593429443359375,-0.0008774363086558878,-0.014880931936204433,-0.003361862851306796
1733699088432384500,3.603384521484375,0.0011883777333423495,-0.015834342688322067,-0.0015208194963634014
1733699088442340600,3.613340576171875,0.0012293544132262468,-0.014696056954562664,-0.0020398146007210016
1733699088452295400,3.62329541015625,0.0028666655998677015,-0.010896258987486362,-0.001669368939474225
1733699088462251500,3.63325146484375,0.002602455671876669,-0.005064297467470169,-0.0007584183476865292
1733699088472206600,3.64320654296875,0.002551056444644928,0.0006223503733053803,0.002187570324167609
1733699088482162400,3.653162353515625,0.0026696883141994476,0.00492370780557394,0.0029457134660333395
1733699088492117500,3.663117431640625,0.0037546600215137005,0.0074843368493020535,0.0012293062172830105
1733699088502073600,3.673073486328125,0.001153938123025,0.00886660348623991,0.0028724102303385735
1733699088512028400,3.6830283203125,0.002075391821563244,0.006556311156600714,0.00020205869805067778
1733699088521984500,3.692984619140625,0.0022127993870526552,0.00295852730050683,0.0017823005327954888
1733699088531939600,3.702939697265625,0.0028445010539144278,0.00002851756289601326,0.0017458152724429965
1733699088541895400,3.7128955078125,0.0010462251957505941,-0.0042154621332883835,-0.0006445234175771475
1733699088551850500,3.7228505859375,0.0003894898109138012,-0.007457594387233257,0.0001123468391597271
1733699088561805600,3.7328056640625,-0.000022815773263573647,-0.007839025929570198,-0.0006158032920211554
1733699088571761700,3.74276171875,-0.0011027276050299406,-0.009278997778892517,-0.0033684466034173965
1733699088581716500,3.752716552734375,-0.0019937974866479635,-0.01188945583999157,-0.0038817685563117266
1733699088591672300,3.76267236328125,-0.0002464975696057081,-0.016329476609826088,-0.0011365821119397879
1733699088601627600,3.772627685546875,0.0030083335004746914,-0.015216557309031487,-0.0009509045630693436
1733699088611583500,3.78258349609375,0.002628566697239876,-0.01171236950904131,-0.0026417456101626158
1733699088621538300,3.792538330078125,0.0000612430740147829,-0.0046164486557245255,0.0007911131251603365
1733699088631494400,3.802494384765625,0.0001467305701225996,0.002252909354865551,0.0017985869199037552
1733699088641449500,3.812449462890625,-0.00003304448910057545,0.004801168572157621,0.0019494807347655296
1733699088651405600,3.822405517578125,-0.001631740015000105,0.0025862175971269608,0.0014461432583630085
1733699088661360400,3.8323603515625,-0.001737021142616868,0.0008468946907669306,0.0009004591265693307
1733699088671316500,3.84231640625,0.0016899346373975277,-0.0010538033675402403,0.0005260186735540628
1733699088681271600,3.852271484375,0.0010961833177134395,-0.00012001884169876575,0.00042794528417289257
1733699088691227400,3.862227294921875,0.0008676840225234628,0.0008019675151444972,0.0013256969396024942
1733699088701182700,3.8721826171875,-0.0032036472111940384,0.004107981454581022,0.0002584264148026705
1733699088711138600,3.882138671875,-0.006517950911074877,0.005738368723541498,-0.0017493306659162045
1733699088721093400,3.89209326171875,-0.0062956130132079124,0.0065429615788161755,-0.000995871378108859
1733699088731049500,3.902049560546875,-0.0054894741624593735,0.004240658599883318,-0.0003274178598076105
1733699088741004500,3.912004638671875,-0.004845280200242996,0.003997150808572769,-0.001032504253089428
1733699088750959400,3.92195947265625,-0.0020494936034083366,0.0029856825713068247,-0.0007448827382177114
1733699088760915500,3.93191552734375,-0.003524097613990307,0.0018659704364836216,0.0006550733232870698
1733699088770870500,3.94187060546875,0.00004427204839885235,-0.00023686158237978816,0.00020366755779832602
1733699088780826600,3.95182666015625,0.0006106890505179763,-0.001072365208528936,0.0012489978689700365
1733699088790781400,3.961781494140625,0.0012586360098794103,-0.003194638295099139,0.0006380686536431313
1733699088800737300,3.9717373046875,0.00067220872733742,-0.0048304954543709755,0.0006515212589874864
1733699088810692600,3.981692626953125,-0.0003539072349667549,-0.006028385367244482,-0.0007639487739652395
1733699088820648400,3.9916484375,0.0007970264414325356,-0.005165127106010914,-0.0015023169107735157
1733699088830603500,4.001603515625,0.0007259199628606439,-0.006985930260270834,0.00021116086281836033
1733699088840559400,4.011559326171875,0.0010374728590250015,-0.005124450661242008,0.0022088864352554083
1733699088850514400,4.021514404296875,-0.00042992900125682354,-0.003398722503334284,0.0010312366066500545
1733699088860470500,4.031470458984375,-0.0006910150405019522,-0.0026892474852502346,-0.00006917701102793217
1733699088870425300,4.04142529296875,-0.002493176143616438,-0.0023174702655524015,0.0015718628419563174
1733699088880381700,4.051381591796875,-0.0036260727792978287,0.00039120702422223985,-0.0005471017211675644
1733699088890336500,4.06133642578125,-0.004605317022651434,0.0015558074228465557,-0.0007716063410043716
1733699088900292400,4.071292236328125,-0.0044000959023833275,0.005853649694472551,0.0010402742773294449
1733699088910247700,4.08124755859375,-0.0023084492422640324,0.010690483264625072,-0.00009556394070386887
1733699088920202500,4.091202392578125,-0.0030360373202711344,0.013041935861110687,0.0024053293745964766
1733699088930158600,4.10115869140625,-0.0014141722349449992,0.013058447279036045,0.0026671183295547962
1733699088940113700,4.11111376953125,-0.0009734554332681,0.0073083448223769665,-0.0007184927817434072
1733699088950069500,4.121069580078125,-0.00078889838187024,0.0006656223558820784,0.0009864629246294498
1733699088960024600,4.131024658203125,-0.0012766330037266016,-0.004990631248801947,0.00007293070666491985
1733699088969980400,4.14098046875,-0.003956572152674198,-0.009046625345945358,-0.001794744050130248
1733699088979935500,4.150935546875,-0.003643516218289733,-0.00957333855330944,-0.0010287468321621418
1733699088989891300,4.160891357421875,-0.004872298799455166,-0.0065964567475020885,-0.0017709697131067514
1733699088999846100,4.17084619140625,-0.0038432776927948,-0.005049787927418947,-0.0012184963561594486
1733699089009802200,4.18080224609375,-0.002653643721714616,-0.003470799420028925,-0.00044325017370283604
1733699089019757300,4.19075732421875,-0.00030505016911774874,-0.0051806154660880566,-0.00010343221947550774
1733699089029713400,4.20071337890625,0.0027666399255394936,-0.00003352435305714607,0.0013442621566355228
1733699089039668200,4.210668212890625,0.0021705515682697296,0.0028722318820655346,0.002248921664431691
1733699089049624300,4.220624267578125,0.00023123761638998985,0.003753738244995475,0.004237770102918148
1733699089059579400,4.230579345703125,-0.0020446886774152517,0.005181845277547836,0.0026706454809755087
1733699089069535200,4.24053515625,-0.003458294551819563,0.007704923860728741,0.0016999233048409224
1733699089079490300,4.250490234375,-0.0026653013192117214,0.010000577196478844,0.0006791868945583701
1733699089089446400,4.2604462890625,-0.003487951587885618,0.011710060760378838,0.00019875261932611465
1733699089099401200,4.270401123046875,-0.0017619929276406765,0.01221424899995327,0.0012380467960610986
1733699089109356300,4.280356201171875,-0.0011404112447053194,0.013338369317352772,0.0019200823735445738
1733699089119312400,4.2903125,-0.0004497931804507971,0.014557873830199242,0.0020163992885500193
1733699089129267200,4.30026708984375,-0.0016793746035546064,0.01720212586224079,0.0025817882269620895
1733699089139223300,4.310223388671875,-0.005602876655757427,0.02113541029393673,0.0021136219147592783
1733699089149178400,4.320178466796875,-0.009463927708566189,0.021188940852880478,0.003389808814972639
1733699089159134500,4.330134521484375,-0.012551804073154926,0.017052704468369484,0.0016974348109215498
1733699089169089300,4.34008935546875,-0.01254434697329998,0.010509851388633251,-0.0013755867257714272
1733699089179045000,4.350045166015625,-0.011475655250251293,0.0009275827324017882,-0.001351099694147706
1733699089189000400,4.36000048828125,-0.009164031594991684,-0.007487473543733358,-0.005284588783979416
1733699089198956300,4.369956298828125,-0.005874809343367815,-0.01210466306656599,-0.0047881463542580605
1733699089208911000,4.3799111328125,-0.004868400748819113,-0.010773882269859314,-0.0015340300742536783
1733699089218867200,4.3898671875,-0.0031786737963557243,-0.006022193469107151,0.00038850377313792706
1733699089228822300,4.399822265625,-0.0011000765953212976,-0.00008680642349645495,-0.00013613910414278507
1733699089238778400,4.4097783203125,-0.0014501367695629597,0.005267126951366663,0.0017772553255781531
1733699089248733200,4.419733154296875,-0.0009289562003687024,0.008592615835368633,0.00332614965736866
1733699089258689300,4.429689208984375,0.000031173694878816605,0.012093117460608482,0.0015406538732349873
1733699089268644400,4.439644287109375,-0.00032302667386829853,0.011535718105733395,0.0030477368272840977
1733699089278600200,4.44960009765625,-0.0010125930421054363,0.0086086206138134,0.0026542514096945524
1733699089288555300,4.45955517578125,-0.000014972873032093048,0.006157979369163513,0.003448672592639923
1733699089298510300,4.46951025390625,-0.002261081477627158,0.006291259545832872,0.001332312123849988
1733699089308466200,4.479466064453125,-0.002534588100388646,0.004876322112977505,0.0006803703727200627
1733699089318421200,4.489421142578125,-0.005936328321695328,0.0004100630176253617,0.00027684809174388647
1733699089328377300,4.49937744140625,-0.004558408632874489,0.000773850828409195,0.000814007711596787
1733699089338332200,4.509332275390625,-0.006364286877214909,-0.0008327150717377663,0.0009867707267403603
1733699089348288300,4.519288330078125,-0.001003876095637679,-0.0009970320388674736,-0.0008697188459336758
1733699089358243300,4.529243408203125,-0.004101398400962353,-0.005263682454824448,-0.0017156600952148438
1733699089368199400,4.539199462890625,-0.00247660418972373,-0.00684133917093277,-0.0015374948270618916
1733699089378154200,4.549154296875,-0.0036036050878465176,-0.006052853539586067,-0.0016395037528127432
1733699089388110300,4.5591103515625,-0.006808186881244183,-0.004042166750878096,-0.0014035478234291077
1733699089398065400,4.5690654296875,-0.006083372514694929,0.0011974899098277092,0.0008033388294279575
1733699089408021200,4.579021240234375,-0.007317214738577604,0.004293414764106274,0.0025668840389698744
1733699089417976300,4.588976318359375,-0.00655386783182621,0.009080051444470882,0.0019414690323174
1733699089427932200,4.59893212890625,-0.00712671410292387,0.012181036174297333,0.0008575624087825418
1733699089437887200,4.60888720703125,-0.0033736657351255417,0.01343665923923254,0.0027564868796616793
1733699089447843300,4.61884326171875,-0.0032173381187021732,0.015049736015498638,0.004081675782799721
1733699089457798100,4.628798095703125,-0.0020784251391887665,0.017178315669298172,0.004545405972748995
1733699089467754200,4.638754150390625,-0.003297620452940464,0.018563957884907722,0.003966168500483036
1733699089477709300,4.648709228515625,-0.004541715607047081,0.021380454301834106,0.0034625581465661526
1733699089487664000,4.6586640625,-0.007179576903581619,0.022978350520133972,0.002411142224445939
1733699089497620200,4.6686201171875,-0.010689998976886272,0.020978085696697235,0.0011055361246690154
1733699089507575300,4.6785751953125,-0.01022501103579998,0.018737301230430603,0.001714068348519504
1733699089517531400,4.688531494140625,-0.009098287671804428,0.011494791135191917,-0.0018655830062925816
1733699089527486200,4.698486328125,-0.00868523120880127,-0.0012588207609951496,-0.0035361838527023792
1733699089537442300,4.7084423828125,-0.010019728913903236,-0.0190516896545887,-0.00571909686550498
1733699089547397400,4.7183974609375,-0.010640245862305164,-0.04109014570713043,-0.00889038946479559
1733699089557353200,4.728353271484375,-0.010341765359044075,-0.061964843422174454,-0.011368024162948132
1733699089567308300,4.738308349609375,-0.006702556274831295,-0.08097555488348007,-0.014769945293664932
1733699089577264400,4.748264404296875,-0.003817033488303423,-0.09516911953687668,-0.015217170119285583
1733699089587219200,4.75821923828125,0.002088259905576706,-0.09771616011857986,-0.014705311506986618
1733699089597175300,4.76817529296875,0.009166276082396507,-0.09000544995069504,-0.007366965524852276
1733699089607130400,4.77813037109375,0.018366165459156036,-0.0733812004327774,-0.003666502656415105
1733699089617086200,4.788086181640625,0.022904047742486,-0.05326865613460541,0.0006770393811166286
1733699089627041300,4.798041259765625,0.027398398146033287,-0.040136341005563736,0.0005031349137425423
1733699089636997000,4.8079970703125,0.03604051098227501,-0.03585181385278702,-0.002616350771859288
1733699089646952400,4.817952392578125,0.041009970009326935,-0.03747394308447838,-0.007791404612362385
1733699089656908300,4.827908203125,0.04896346852183342,-0.05819861218333244,-0.01085398904979229
1733699089666863000,4.837863037109375,0.0609346404671669,-0.09246257692575455,-0.02090449258685112
1733699089676818400,4.847818359375,0.07451537996530533,-0.13430649042129517,-0.03343867510557175
1733699089686774300,4.857774169921875,0.08266518265008926,-0.17279423773288727,-0.046190954744815826
1733699089696729000,4.86772900390625,0.08578529953956604,-0.194655641913414,-0.04892952740192413
1733699089706685200,4.877685302734375,0.08378473669290543,-0.2008645385503769,-0.042083337903022766
1733699089716640300,4.88764013671875,0.07320526242256165,-0.18210873007774353,-0.033520039170980453
1733699089726596400,4.897596435546875,0.0606553852558136,-0.14609986543655396,-0.02729596570134163
1733699089736551200,4.90755126953125,0.04395640641450882,-0.1071959063410759,-0.02182251214981079
1733699089746507500,4.917507568359375,0.037320077419281006,-0.06872015446424484,-0.020210769027471542
1733699089756462300,4.92746240234375,0.04825720563530922,-0.02648157626390457,-0.019075365737080574
1733699089766418200,4.937418212890625,0.05462482571601868,-0.01271835993975401,-0.013380728662014008
1733699089776373500,4.94737353515625,0.048239536583423615,-0.022807471454143524,-0.009093084372580051
1733699089786329300,4.957329345703125,0.0459393635392189,-0.030090950429439545,0.00128818373195827
1733699089796284200,4.9672841796875,0.04137517511844635,-0.044581253081560135,0.01248934306204319
1733699089806240300,4.977240234375,0.03555137664079666,-0.036153145134449005,0.013051003217697144
1733699089816195300,4.9871953125,0.02507157064974308,-0.033687859773635864,0.013967130333185196
1733699089826151400,4.9971513671875,0.019817152991890907,-0.010020611807703972,0.009112454950809479
1733699089836106200,5.007106201171875,0.007444022223353386,0.002612221520394087,0.007302592508494854
1733699089846062000,5.01706201171875,0.004057280719280243,0.015505915507674217,0.004164324142038822
1733699089856017400,5.027017333984375,-0.0004336932906880975,0.025096621364355087,0.0017595120007172227
1733699089865972200,5.03697216796875,-0.0031325407326221466,0.03196118399500847,0.0005227400688454509
1733699089875928300,5.04692822265625,-0.010020576417446136,0.033394284546375275,-0.002022658009082079
1733699089885883400,5.05688330078125,-0.014663265086710453,0.029498610645532608,-0.0014037394430488348
1733699089895839200,5.066839111328125,-0.01497662253677845,0.019247563555836678,-0.000874257879331708
1733699089905794300,5.076794189453125,-0.01329696737229824,0.011231447570025921,-0.002855649683624506
1733699089915750100,5.086750244140625,-0.00965967122465372,-0.001811306457966566,-0.0011307480745017529
1733699089925705200,5.096705322265625,-0.006653228309005499,-0.018648609519004822,-0.0019757691770792007
1733699089935661300,5.106661376953125,0.0004236747045069933,-0.03027104027569294,-0.0028988434933125973
1733699089945616100,5.1166162109375,0.008986802771687508,-0.029815372079610825,0.0002215822460129857
1733699089955572500,5.126572509765625,0.013053523376584053,-0.021461019292473793,0.0009703721152618527
1733699089965527300,5.13652734375,0.0169979315251112,-0.009118332527577877,0.00394379161298275
1733699089975483100,5.146483154296875,0.014724668115377426,0.0031955684535205364,0.0006221110234037042
1733699089985438700,5.156438720703125,0.010834055952727795,0.005457391031086445,0.000990958884358406
1733699089995395000,5.16639501953125,0.012393578886985779,-0.005666318349540234,0.00286886072717607
1733699090005350000,5.176349853515625,0.0111959557980299,-0.009716719388961792,-0.0038060862571001053
1733699090015306000,5.186305908203125,0.014339201152324677,-0.017004741355776787,-0.0046121906489133835
1733699090025260800,5.1962607421875,0.01868521235883236,-0.026426738128066063,-0.0015415663365274668
1733699090035216000,5.2062158203125,0.021349789574742317,-0.0291330274194479,-0.0006667519919574261
1733699090045172000,5.216171875,0.01907278597354889,-0.028206247836351395,-0.0010363985784351826
1733699090055126800,5.226126708984375,0.015724238008260727,-0.023416053503751755,-0.0036283289082348347
1733699090065083100,5.236083251953125,0.006672419607639313,-0.016993310302495956,-0.007591112516820431
1733699090075038000,5.246037841796875,-0.003839149372652173,-0.021824976429343224,-0.015377561561763287
1733699090084993800,5.255993896484375,-0.0020023672841489315,-0.024527287110686302,-0.015983164310455322
1733699090094949000,5.26594921875,0.0064909374341368675,-0.02041715569794178,-0.013458249159157276
1733699090104905000,5.275905029296875,0.01387242041528225,-0.019163871183991432,-0.019310012459754944
1733699090114859800,5.28585986328125,0.024481147527694702,-0.014302175492048264,-0.022328825667500496
1733699090124816000,5.29581591796875,0.034239236265420914,-0.012677380815148354,-0.01693778857588768
1733699090134771000,5.30577099609375,0.03864588215947151,-0.028391234576702118,-0.010808234103024006
1733699090144727000,5.31572705078125,0.03647540509700775,-0.053528543561697006,-0.005379912443459034
1733699090154681900,5.325681884765625,0.03350827097892761,-0.08148012310266495,-0.0007911322172731161
1733699090164637700,5.3356376953125,0.0342550203204155,-0.07204374670982361,-0.003076390828937292
1733699090174593000,5.345593017578125,0.032201189547777176,-0.01863870397210121,-0.007700449787080288
1733699090184548900,5.355548828125,0.026347029954195023,0.04850171506404877,-0.012685088440775871
1733699090194504000,5.36550390625,0.011090203188359737,0.10512961447238922,-0.007662490475922823
1733699090204460000,5.3754599609375,-0.012827114202082157,0.1350584775209427,-0.005502666812390089
1733699090214414800,5.385414794921875,-0.0423353873193264,0.1410571187734604,-0.009714212268590927
1733699090224370000,5.395369873046875,-0.07012413442134857,0.11880028247833252,-0.012590693309903145
1733699090234325800,5.40532568359375,-0.09225872159004211,0.06380811333656311,-0.016311582177877426
1733699090244280800,5.41528076171875,-0.09434371441602707,-0.005022880621254444,-0.019115624949336052
1733699090254237000,5.42523681640625,-0.07544007897377014,-0.06478113681077957,-0.023698726668953896
1733699090264191700,5.435191650390625,-0.043012093752622604,-0.10300708562135696,-0.018695978447794914
1733699090274148000,5.445148193359375,0.003437465988099575,-0.10666552931070328,-0.009128090925514698
1733699090284103000,5.45510302734375,0.050349846482276917,-0.08242996037006378,0.005511038936674595
1733699090294058800,5.465058837890625,0.08347669988870621,-0.036544982343912125,0.017996568232774734
1733699090304014000,5.47501416015625,0.09874673932790756,-0.00733250193297863,0.02404886670410633
1733699090313970000,5.484969970703125,0.0961163192987442,0.006775618065148592,0.02830638363957405
1733699090323925000,5.494925048828125,0.07353910803794861,0.012384501285851002,0.022729724645614624
1733699090333880800,5.504880859375,0.045166198164224625,0.006824268028140068,0.012557322159409523
1733699090343836000,5.5148359375,0.010152553208172321,0.0006742302211932838,0.005023505073040724
1733699090353792000,5.5247919921875,-0.023946575820446014,0.0030601825565099716,-0.006471042521297932
1733699090363746800,5.534746826171875,-0.04794938117265701,0.00771618727594614,-0.018966592848300934
1733699090373703000,5.544702880859375,-0.05499942973256111,0.013831254094839096,-0.020665673539042473
1733699090383658000,5.554657958984375,-0.05331311374902725,0.01717378757894039,-0.01691674254834652
1733699090393613800,5.56461376953125,-0.04310452938079834,0.019850831478834152,-0.014704846777021885
1733699090403569000,5.57456884765625,-0.02638760209083557,0.014094939455389977,-0.007557720877230167
1733699090413524000,5.58452392578125,-0.012440918013453484,0.007116030901670456,-0.0036185206845402718
1733699090423479800,5.594479736328125,0.0003944532945752144,0.003722098655998707,0.0005549190100282431
1733699090433435000,5.604434814453125,0.007928354665637016,0.006913768593221903,0.0020278908777981997
1733699090443390700,5.614390625,0.008589616976678371,0.013196964748203754,0.005824226886034012
1733699090453346000,5.624345947265625,0.007596706040203571,0.025089969858527184,0.008352121338248253
1733699090463302000,5.634302001953125,0.0034839867148548365,0.038452379405498505,0.012354852631688118
1733699090473256700,5.644256591796875,-0.0055845980532467365,0.04529721662402153,0.006800112314522266
1733699090483213000,5.654213134765625,-0.01840692013502121,0.051161497831344604,0.0027803368866443634
1733699090493167900,5.66416796875,-0.027345165610313416,0.049929868429899216,-0.004217992071062326
1733699090503124000,5.6741240234375,-0.032087456434965134,0.040597621351480484,-0.005915490444749594
1733699090513079000,5.6840791015625,-0.03011251613497734,0.03150474652647972,-0.005832229275256395
1733699090523035000,5.694034912109375,-0.02360907755792141,0.02007472515106201,-0.005945946555584669
1733699090532990000,5.703989990234375,-0.01574578322470188,0.00656099384650588,-0.004186656326055527
1733699090542945800,5.71394580078125,-0.0044475882314145565,-0.007198493927717209,-0.004695320036262274
1733699090552901000,5.723901123046875,0.006269556470215321,-0.014274203218519688,-0.002807366894558072
1733699090562857000,5.73385693359375,0.011543679982423782,-0.017712876200675964,-0.00026378175243735313
1733699090572811800,5.743811767578125,0.01577257178723812,-0.013634324073791504,0.0014764131046831608
1733699090582767900,5.753767822265625,0.011066501028835773,-0.012710207141935825,0.002170699182897806
1733699090592723000,5.763722900390625,0.007791540585458279,-0.00835849903523922,-0.0021600318141281605
1733699090602677800,5.773677734375,0.003839408978819847,-0.0027887639589607716,-0.0013139457441866398
1733699090612633900,5.7836337890625,-0.003186348360031843,0.005812285467982292,-0.0010840129107236862
1733699090622589000,5.7935888671875,-0.003918451257050037,0.01130345743149519,-0.001130884513258934
1733699090632545000,5.803544921875,-0.002599411876872182,0.014098616316914558,-0.0012607278767973185
1733699090642499800,5.813499755859375,-0.0031272503547370434,0.023474007844924927,0.00030094990506768227
1733699090652455700,5.82345556640625,-0.0033594537526369095,0.03238876909017563,0.003980520647019148
1733699090662411000,5.833410888671875,-0.005454562604427338,0.037658631801605225,0.004906767979264259
1733699090672366800,5.843366943359375,-0.0048673115670681,0.043194640427827835,0.00473540835082531
1733699090682322000,5.853322021484375,-0.003667291020974517,0.039168741554021835,0.005060313735157251
1733699090692278000,5.863278076171875,-0.006771679036319256,0.030832698568701744,0.0039698341861367226
1733699090702232800,5.87323291015625,-0.006682196632027626,0.02088073268532753,0.0015466241165995598
1733699090712189000,5.88318896484375,-0.006846390664577484,0.011083703488111496,0.0018373786006122828
1733699090722144000,5.89314404296875,-0.0010529502760618925,0.002702202880755067,-0.00007184152491390705
1733699090732100000,5.90310009765625,0.0028426842764019966,-0.0070253293961286545,0.0024688539560884237
1733699090742055000,5.913054931640625,0.006285352166742086,-0.00991272833198309,0.0014568527694791555
1733699090752010800,5.9230107421875,0.007444615475833416,-0.014131828211247921,0.0037596195470541716
1733699090761966000,5.932966064453125,0.008498428389430046,-0.014422113075852394,0.000999785726889968
1733699090771922000,5.942921875,0.00599241815507412,-0.013203355483710766,-0.0005990287754684687
1733699090781876700,5.952876708984375,0.008978886529803276,-0.009277056902647018,0.0014878243673592806
1733699090791832000,5.96283203125,0.0070625003427267075,-0.0017458086367696524,0.002052029361948371
1733699090801788000,5.972787841796875,0.008200734853744507,0.004744580946862698,0.0022837244905531406
1733699090811743000,5.982742919921875,0.007696647197008133,0.017638877034187317,0.003555933479219675
1733699090821698800,5.99269873046875,0.004399120807647705,0.026638230308890343,0.004332244861871004
1733699090831654000,6.00265380859375,-0.004171245731413364,0.03181055188179016,0.004930107854306698
1733699090841610000,6.01260986328125,-0.010739400051534176,0.03494935482740402,0.0033681634813547134
1733699090851564800,6.022564697265625,-0.0207509845495224,0.034779660403728485,0.0021547763608396053
1733699090861521000,6.03252099609375,-0.025035744532942772,0.03190424293279648,-0.0005187711212784052
1733699090871476000,6.04247607421875,-0.025614777579903603,0.02741863951086998,-0.0028637810610234737
1733699090881431800,6.052431884765625,-0.023160673677921295,0.0219985730946064,-0.0026435372419655323
1733699090891387000,6.062386962890625,-0.017232442274689674,0.011606725864112377,-0.0032153562642633915
1733699090901343000,6.072343017578125,-0.009529780596494675,-0.0029160240665078163,-0.0005031928885728121
1733699090911297800,6.0822978515625,-0.00008420145604759455,-0.014499121345579624,-0.00032123830169439316
1733699090921254000,6.09225390625,0.005555042065680027,-0.018448589369654655,0.0016740019200369716
1733699090931209000,6.102208984375,0.007772389799356461,-0.017842721194028854,0.002859108615666628
1733699090941165000,6.1121650390625,0.009518091566860676,-0.015742817893624306,0.006955582648515701
1733699090951120000,6.122119873046875,0.008509164676070213,-0.009085407480597496,0.003769997274503112
1733699090961076000,6.132075927734375,0.006424708291888237,0.0004407200322020799,0.0017518538516014814
1733699090971031000,6.142031005859375,-0.0001409994438290596,0.009378619492053986,0.0019073972944170237
1733699090980985900,6.15198583984375,-0.005537096410989761,0.016666360199451447,0.002003537490963936
1733699090990941200,6.161941162109375,-0.007959749549627304,0.019229480996727943,0.004122762009501457
1733699091000896500,6.171896484375,-0.00865323655307293,0.021593302488327026,0.001419121166691184
1733699091010852400,6.181852294921875,-0.00790917407721281,0.022480839863419533,0.002268788404762745
1733699091020807200,6.19180712890625,-0.011614696122705936,0.0217340886592865,0.00005543511360883713
1733699091030763300,6.20176318359375,-0.011322620324790478,0.02307736873626709,-0.0011317119933664799
1733699091040718300,6.21171826171875,-0.00922617968171835,0.022220097482204437,-0.0012411680072546005
1733699091050674400,6.22167431640625,-0.010948712937533855,0.021686401218175888,0.0003066612407565117
1733699091060629200,6.231629150390625,-0.009306606836616993,0.022191070020198822,0.0021503677126020193
1733699091070585600,6.241585693359375,-0.010992776602506638,0.022541580721735954,0.0022987928241491318
1733699091080540400,6.25154052734375,-0.009079561568796635,0.020012643188238144,0.0024495278485119343
1733699091090496300,6.261496337890625,-0.00881605688482523,0.014104261063039303,0.0026465055998414755
1733699091100451600,6.27145166015625,-0.007094589062035084,0.0072873677127063274,0.002281918888911605
1733699091110407400,6.281407470703125,-0.003714598249644041,0.0001347777433693409,0.000783055555075407
1733699091120362200,6.2913623046875,0.0002865348942577839,-0.005339083261787891,-0.0014830282889306545
1733699091130318300,6.301318359375,0.005406365264207125,-0.009783623740077019,0.0014306914526969194
1733699091140273400,6.3112734375,0.007130228914320469,-0.014044681563973427,0.0022573366295546293
1733699091150229500,6.3212294921875,0.008962907828390598,-0.017126193270087242,0.0014630570076406002
1733699091160184300,6.331184326171875,0.009569576010107994,-0.016900889575481415,0.0026596151292324066
1733699091170139400,6.341139404296875,0.007021463476121426,-0.01735815405845642,0.0006294875638559461
1733699091180095500,6.351095458984375,0.005443274043500423,-0.012925054877996445,0.002438572933897376
1733699091190050300,6.36105029296875,0.002634813543409109,-0.00449485145509243,0.0008373392047360539
1733699091200006400,6.37100634765625,0.000008936505764722824,0.006085088476538658,-0.00007825554348528385
1733699091209961500,6.38096142578125,-0.0010700566926971078,0.015923036262392998,0.0012790728360414505
1733699091219917300,6.390917236328125,-0.0002276988234370947,0.024987369775772095,0.0047273337841033936
1733699091229872400,6.400872314453125,0.0014341875212267041,0.026397529989480972,0.004863596521317959
1733699091239828200,6.410828125,0.0007116718916222453,0.02717917039990425,0.0028566380497068167
1733699091249783300,6.420783203125,0.0027416301891207695,0.02378721535205841,0.002787453355267644
1733699091259739400,6.430739501953125,0.00038686301559209824,0.02174084261059761,0.003683873452246189
1733699091269694200,6.440694091796875,-0.0007885227678343654,0.01856975257396698,0.0024034189991652966
1733699091279650600,6.450650634765625,-0.0008990439819172025,0.016021640971302986,0.0030913136433809996
1733699091289605400,6.46060546875,-0.0029797961469739676,0.007360414136201143,0.0004884587833657861
1733699091299561200,6.470561279296875,-0.0034639588557183743,0.0010308793280273676,-0.00049930764362216
1733699091309516500,6.4805166015625,-0.000694416812621057,-0.0025163653772324324,0.0006788013270124793
1733699091319472400,6.490472412109375,-0.0007207820890471339,-0.007297005504369736,0.0008329983102157712
1733699091329427500,6.500427490234375,0.0012108937371522188,-0.00624332157894969,0.00028782663866877556
1733699091339382500,6.510382568359375,-0.0006402694853022695,-0.009275862947106361,0.002008761279284954
1733699091349338400,6.52033837890625,-0.0012549028033390641,-0.011652905493974686,0.0015913249226287007
1733699091359293400,6.53029345703125,-0.0031457471195608377,-0.012651058845221996,-0.0017024725675582886
1733699091369249300,6.540249267578125,-0.003295078407973051,-0.008299024775624275,-0.00011719460599124432
1733699091379204400,6.550204345703125,-0.0031355549581348896,-0.001654171384871006,-0.0020767487585544586
1733699091389160400,6.560160400390625,-0.004569606855511665,0.006844817660748959,0.0014448456931859255
1733699091399115300,6.570115234375,-0.004487581551074982,0.019066330045461655,0.002999865449965
1733699091409071400,6.5800712890625,-0.008189230225980282,0.028263861313462257,0.004185858182609081
1733699091419026400,6.5900263671875,-0.010577819310128689,0.03603363409638405,0.0044226134195923805
1733699091428982300,6.599982177734375,-0.015412099659442902,0.03841627389192581,0.005214657634496689
1733699091438937300,6.609937255859375,-0.015663767233490944,0.0335400253534317,0.0025751986540853977
1733699091448893200,6.61989306640625,-0.015685399994254112,0.022367224097251892,0.0015828083269298077
1733699091458848500,6.6298486328125,-0.011775081045925617,0.007040465250611305,-0.0023000806104391813
1733699091468804400,6.639804443359375,-0.0041989912278950214,-0.008565555326640606,-0.0009010203648358583
1733699091478759200,6.64975927734375,0.001467150286771357,-0.014351805672049522,-0.0008980908896774054
1733699091488715500,6.659715576171875,0.005429146345704794,-0.011238450184464455,0.002085366053506732
1733699091498670300,6.66967041015625,0.002454661764204502,-0.0015027320478111506,0.003094704123213887
1733699091508626400,6.67962646484375,-0.002001035725697875,0.011585975997149944,0.0017293712589889765
1733699091518581500,6.68958154296875,-0.008344152942299843,0.023669537156820297,0.0023517520166933537
1733699091528536300,6.699536376953125,-0.012693023309111595,0.032064907252788544,0.0018379753455519676
1733699091538492400,6.709492431640625,-0.014972954988479614,0.03599786385893822,0.003110167570412159
1733699091548447500,6.719447509765625,-0.012126192450523376,0.03740838170051575,0.0034280307590961456
1733699091558403300,6.7294033203125,-0.008677665144205093,0.03448636084794998,0.0072374166920781136
1733699091568358400,6.7393583984375,-0.00572417164221406,0.028538646176457405,0.007142370566725731
1733699091578314200,6.749314208984375,-0.004539331421256065,0.021203769370913506,0.008908579126000404
1733699091588269600,6.75926953125,-0.004850581753998995,0.014875992201268673,0.006211493164300919
1733699091598225400,6.769225341796875,-0.006254334002733231,0.009998146444559097,0.0039049291517585516
1733699091608180200,6.77918017578125,-0.008126948028802872,0.00929995160549879,0.003925095312297344
1733699091618136300,6.78913623046875,-0.009693952277302742,0.008880237117409706,0.00044967024587094784
1733699091628091400,6.79909130859375,-0.009816457517445087,0.006055156234651804,-0.00031039584428071976
1733699091638047500,6.809047607421875,-0.006651290692389011,0.00035039885551668704,0.00025978684425354004
1733699091648002300,6.819002197265625,-0.0027962797321379185,-0.006750249769538641,-0.0001951036974787712
1733699091657958100,6.828958251953125,0.0016442749183624983,-0.012789499945938587,0.0017729724058881402
1733699091667913500,6.83891357421875,0.006531332619488239,-0.011367871426045895,0.0025113422889262438
1733699091677869300,6.848869384765625,0.009074118919670582,-0.006165652070194483,0.0051284306682646275
1733699091687824400,6.858824462890625,0.007598400115966797,0.004604394547641277,0.008749434724450111
1733699091697780500,6.868780517578125,0.003895807545632124,0.014249831438064575,0.011285562068223953
1733699091707735300,6.8787353515625,-0.0033133812248706818,0.019869249314069748,0.007006860338151455
1733699091717690400,6.8886904296875,-0.009805901907384396,0.0259588323533535,0.005570351146161556
1733699091727646500,6.898646484375,-0.0130314277485013,0.029109755530953407,0.004404721315950155
1733699091737601300,6.908601318359375,-0.015792593359947205,0.030529219657182693,0.0027916445396840572
1733699091747557400,6.918557373046875,-0.020131703466176987,0.03191116079688072,0.0033526348415762186
1733699091757512400,6.928512451171875,-0.021754100918769836,0.032719165086746216,0.004059970378875732
1733699091767468500,6.938468505859375,-0.022094707936048508,0.03489748388528824,0.0039090379141271114
1733699091777423400,6.94842333984375,-0.021660080179572105,0.03622506931424141,0.005938100162893534
1733699091787379200,6.958379150390625,-0.019121481105685234,0.03896334767341614,0.005979287903755903
1733699091797334500,6.96833447265625,-0.0173555389046669,0.040751658380031586,0.007310069166123867
1733699091807290400,6.978290283203125,-0.014322259463369846,0.03893427923321724,0.005659346003085375
1733699091817245400,6.988245361328125,-0.011552039533853531,0.033127255737781525,0.0043360209092497826
1733699091827201300,6.998201171875,-0.008583122864365578,0.020916754379868507,0.005235518328845501
1733699091837156400,7.00815625,-0.0035260464064776897,0.008545572869479656,0.002757180482149124
1733699091847112400,7.018112548828125,-0.0029142824932932854,-0.00514312693849206,0.0029898895882070065
1733699091857067300,7.0280673828125,0.0021667624823749065,-0.023746905848383904,0.0020708327647298574
1733699091867023400,7.0380234375,0.009983321651816368,-0.04283285140991211,0.0005392715102061629
1733699091876978400,7.047978515625,0.02365173026919365,-0.05879557132720947,0.0002868038136512041
1733699091886934300,7.057934326171875,0.03621971979737282,-0.07556390017271042,-0.0005299877375364304
1733699091896889300,7.067889404296875,0.04574611037969589,-0.08660749346017838,-0.0028037945739924908
1733699091906844400,7.077844482421875,0.049201223999261856,-0.09026510268449783,0.0011726629454642534
1733699091916800300,7.08780029296875,0.047269634902477264,-0.09224249422550201,0.00453117536380887
1733699091926755300,7.09775537109375,0.03540442883968353,-0.08208076655864716,0.004365646280348301
1733699091936711400,7.10771142578125,0.0181743074208498,-0.06368152052164078,0.003038593102246523
1733699091946666500,7.11766650390625,-0.0023962249979376793,-0.040016405284404755,0.000021440209820866585
1733699091956622300,7.127622314453125,-0.01494557224214077,-0.015217048116028309,-0.0031519823241978884
1733699091966577400,7.137577392578125,-0.02448422834277153,0.009559162892401218,-0.0031725687440484762
1733699091976533500,7.147533447265625,-0.029574593529105186,0.028037771582603455,-0.0036868250463157892
1733699091986489300,7.1574892578125,-0.026425747200846672,0.038654446601867676,-0.003286727238446474
1733699091996445200,7.167445068359375,-0.023173494264483452,0.04434189200401306,-0.002672601956874132
1733699092006400300,7.177400146484375,-0.014902307651937008,0.039803944528102875,-0.000994629692286253
1733699092016356400,7.1873564453125,-0.006951973307877779,0.03357560932636261,-0.0002185844350606203
1733699092026311400,7.1973115234375,-0.00017083925195038319,0.019423820078372955,0.001502706785686314
1733699092036267300,7.207267333984375,0.0059485724195837975,0.004339676350355148,0.0007442384958267212
1733699092046222300,7.217222412109375,0.008031757548451424,-0.007229585200548172,-0.0014546371530741453
1733699092056178400,7.227178466796875,0.008959069848060608,-0.017613781616091728,-0.002741210162639618
1733699092066133200,7.23713330078125,0.009013022296130657,-0.031102390959858894,-0.001691516488790512
1733699092076088000,7.247088134765625,0.009541925974190235,-0.03787561133503914,-0.0021535749547183514
1733699092086044400,7.25704443359375,0.011464499868452549,-0.03903188556432724,-0.0007421395275741816
1733699092095999200,7.266999267578125,0.013229642994701862,-0.03498441353440285,-0.0020521485712379217
1733699092105955300,7.276955322265625,0.011009147390723228,-0.026561032980680466,-0.0034391055814921856
1733699092115910400,7.286910400390625,0.01113617978990078,-0.02321583591401577,-0.005399192217737436
1733699092125866200,7.2968662109375,0.006878146901726723,-0.018285002559423447,-0.007576013915240765
1733699092135821300,7.3068212890625,-0.0010434251744300127,-0.015615450218319893,-0.00809319969266653
1733699092145777200,7.316777099609375,-0.010354040190577507,-0.011343308724462986,-0.007509327959269285
1733699092155732500,7.326732421875,-0.020813073962926865,-0.008311299607157707,-0.007942358031868935
1733699092165688300,7.336688232421875,-0.03166044130921364,0.001440207241103053,-0.008610839955508709
1733699092175643100,7.34664306640625,-0.03493399918079376,0.010279771871864796,-0.009077158756554127
1733699092185599200,7.35659912109375,-0.0338265523314476,0.01669490523636341,-0.006075662560760975
1733699092195554300,7.36655419921875,-0.024988051503896713,0.021090984344482422,-0.0025376530829817057
1733699092205510400,7.376510498046875,-0.00962340272963047,0.026083897799253464,-0.0017196217086166143
1733699092215465200,7.38646533203125,0.007636810652911663,0.025784291326999664,0.003148370422422886
1733699092225421300,7.39642138671875,0.021168889477849007,0.024837099015712738,0.0062441760674119
1733699092235376400,7.40637646484375,0.030530167743563652,0.021934518590569496,0.011171024292707443
1733699092245332200,7.416332275390625,0.03469577059149742,0.02187436819076538,0.012820461764931679
1733699092255287300,7.426287353515625,0.029385963454842567,0.018577907234430313,0.01204015500843525
1733699092265242400,7.436242431640625,0.023143719881772995,0.019552703946828842,0.008269834332168102
1733699092275198200,7.4461982421875,0.009618323296308517,0.019220340996980667,0.0057286461815238
1733699092285153300,7.4561533203125,-0.0008164388127624989,0.016293885186314583,0.0005902799312025309
1733699092295109400,7.466109375,-0.010471729561686516,0.007603724021464586,-0.0036532008089125156
1733699092305064200,7.476064208984375,-0.01461248379200697,-0.003694633487612009,-0.008633210323750973
1733699092315020300,7.486020263671875,-0.01639280654489994,-0.020760437473654747,-0.010777853429317474
1733699092324975400,7.495975341796875,-0.011956307105720043,-0.03347387537360191,-0.0103949885815382
1733699092334931500,7.505931396484375,-0.010418864898383617,-0.04490203410387039,-0.009901770390570164
1733699092344886300,7.51588623046875,-0.0065126726403832436,-0.04439730569720268,-0.008460727520287037
1733699092354842000,7.525842041015625,-0.005364584270864725,-0.038939155638217926,-0.00709639023989439
1733699092364797400,7.53579736328125,-0.004003152716904879,-0.024864375591278076,-0.004082355182617903
1733699092374753300,7.545753173828125,-0.00473046163097024,-0.012447654269635677,-0.0007083965465426445
1733699092384708400,7.555708251953125,-0.0035310948733240366,-0.001117853680625558,-0.00010857917368412018
1733699092394664200,7.565664306640625,-0.004563602618873119,0.010082868859171867,0.0006259205983951688
1733699092404619300,7.575619384765625,-0.004405726678669453,0.021252509206533432,-0.0008255299180746078
1733699092414575400,7.585575439453125,-0.0016397674335166812,0.030417513102293015,0.0018075373955070972
1733699092424530200,7.5955302734375,-0.000013048062101006508,0.03502136096358299,0.004762411117553711
1733699092434486300,7.605486328125,0.0011446280404925346,0.038344986736774445,0.00499863363802433
1733699092444441300,7.61544140625,0.001741153420880437,0.03957992419600487,0.006343127228319645
1733699092454396200,7.625396240234375,0.0025824459735304117,0.0346035398542881,0.004576119594275951
1733699092464352300,7.635352294921875,0.004864399321377277,0.031457845121622086,0.0033245752565562725
1733699092474307300,7.645307373046875,0.005500894971191883,0.02829054743051529,0.0016084342496469617
1733699092484263200,7.65526318359375,0.008056549355387688,0.020082024857401848,-0.0032555859070271254
1733699092494218200,7.66521826171875,0.005517224781215191,0.011232607997953892,-0.003987688571214676
1733699092504174300,7.67517431640625,0.006172871217131615,0.0011870693415403366,-0.006100255064666271
1733699092514129400,7.68512939453125,0.0037038540467619896,-0.008427208289504051,-0.001983541063964367
1733699092524085200,7.695085205078125,0.003333287313580513,-0.018480192869901657,-0.0019813368562608957
1733699092534040300,7.705040283203125,-0.0011669219238683581,-0.02368747442960739,-0.0016196793876588345
1733699092543996400,7.714996337890625,-0.007619665004312992,-0.022593455389142036,-0.0018742321990430355
1733699092553951200,7.724951171875,-0.013044790364801884,-0.01598641835153103,-0.0031823767349123955
1733699092563907300,7.7349072265625,-0.015327943488955498,-0.005857713520526886,-0.00311035243794322
1733699092573862400,7.7448623046875,-0.01593700796365738,0.0062548755668103695,-0.0027170032262802124
1733699092583818200,7.754818359375,-0.012195181101560593,0.012615707702934742,0.0011102025164291263
1733699092593773300,7.764773193359375,-0.007829194888472557,0.012539274990558624,0.0013557460624724627
1733699092603729200,7.774729248046875,-0.00138085859362036,0.00579438079148531,0.0008546861354261637
1733699092613684200,7.784684326171875,-0.0024306767154484987,-0.002024926245212555,-0.0006049924995750189
1733699092623639300,7.794639404296875,0.00009284960106015205,-0.00633698794990778,-0.0031901001930236816
1733699092633595100,7.80459521484375,0.00042574480175971985,-0.012902745977044106,-0.0033972938545048237
1733699092643550500,7.814550537109375,0.0025016311556100845,-0.014562495052814484,-0.0032497721258550882
1733699092653506300,7.82450634765625,0.009854618459939957,-0.017806757241487503,-0.0018204536754637957
1733699092663461000,7.834461181640625,0.016876116394996643,-0.021019432693719864,0.00016855949070304632
1733699092673417200,7.844417236328125,0.020085491240024567,-0.024101775139570236,0.004050116986036301
1733699092683372300,7.854372314453125,0.014226850122213364,-0.024633007124066353,0.003029345301911235
1733699092693328400,7.864328369140625,0.008052043616771698,-0.019359415397047997,0.001800562720745802
1733699092703283200,7.874283203125,-0.0037806446198374033,-0.007379863411188126,0.000058066798374056816
1733699092713239300,7.8842392578125,-0.013303043320775032,0.0033470825292170048,0.00036992295645177364
1733699092723194400,7.8941943359375,-0.013132927939295769,0.013018575496971607,-0.0014991799835115671
1733699092733150200,7.904150146484375,-0.012226920574903488,0.018079912289977074,-0.001087721437215805
1733699092743105300,7.914105224609375,-0.0038555399514734745,0.011325071565806866,-0.002220896305516362
1733699092753061400,7.924061279296875,0.002735517220571637,0.0010665750596672297,-0.0014722819905728102
1733699092763016200,7.93401611328125,0.01155976764857769,-0.0076803723350167274,0.0008672993863001466
1733699092772972300,7.94397216796875,0.014172329567372799,-0.013862368650734425,0.0031110127456486225
1733699092782927400,7.95392724609375,0.009808667004108429,-0.01631157472729683,0.003459456143900752
1733699092792882200,7.963882080078125,0.006438436917960644,-0.013503003865480423,0.0036149846855551004
1733699092802838300,7.97383837890625,0.0007482782239094377,-0.008719357661902905,0.0030610186513513327
1733699092812793300,7.98379345703125,-0.004609469324350357,0.0004323294560890645,0.0032455758191645145
1733699092822749400,7.99374951171875,-0.00673566572368145,0.010104294866323471,0.0022313427180051804
1733699092832704300,8.003704345703126,-0.0047353655099868774,0.01756221055984497,0.0009660748764872551
1733699092842660000,8.01366015625,-0.0028258655220270157,0.023355891928076744,0.0007301975274458528
1733699092852615400,8.023615478515625,-0.000324358232319355,0.022643761709332466,0.0018710957374423742
1733699092862571300,8.0335712890625,0.005852360278367996,0.022406665608286858,0.0019148000283166766
1733699092872526300,8.0435263671875,0.005128779448568821,0.020569084212183952,0.0032841975335031748
1733699092882482200,8.053482177734375,0.004039546474814415,0.016601508483290672,0.0026815240271389484
1733699092892437200,8.063437255859375,0.0011385648977011442,0.008145703934133053,0.0025869819801300764
1733699092902393300,8.073393310546875,-0.0006461529992520809,0.003418798092752695,0.0040578399784862995
1733699092912348200,8.08334814453125,-0.0047444915398955345,-0.0014276221627369523,-0.0006503625772893429
1733699092922304500,8.093304443359376,-0.005197010934352875,-0.004600313026458025,-0.002418717835098505
1733699092932259300,8.10325927734375,-0.008343801833689213,-0.003760085441172123,-0.006017447914928198
1733699092942215200,8.113215087890625,-0.009058110415935516,-0.0032414919696748257,-0.003849929664283991
1733699092952170500,8.12317041015625,-0.003953895531594753,-0.00006061256863176823,-0.000862928107380867
1733699092962126300,8.133126220703126,-0.0003045658813789487,0.0005154291866347194,0.00009980471804738045
1733699092972081200,8.1430810546875,0.0025956162717193365,0.0009330128086730838,-0.00015798932872712612
1733699092982036500,8.153036376953125,0.00603453116491437,0.0007317076670005918,0.0009857042459771037
1733699092991991800,8.16299169921875,0.010740336030721664,-0.00044674117816612124,0.0032754901330918074
1733699093001947000,8.17294677734375,0.011568859219551086,-0.00048603827599436045,0.004358397796750069
1733699093011902700,8.18290283203125,0.011573386378586292,0.0013030733680352569,0.004805808886885643
1733699093021858000,8.192858154296875,0.008368114940822124,0.0021679115016013384,0.003372875042259693
1733699093031814000,8.20281396484375,0.004237285349518061,0.0004142199468333274,0.0008005276322364807
1733699093041768700,8.212768798828124,0.0021334849298000336,-0.0013646578881889582,0.0003129600081592798
1733699093051724800,8.222724853515626,-0.0004657600075006485,-0.0064707365818321705,-0.0018750929739326239
1733699093061679900,8.232679931640625,-0.0004716553958132863,-0.009463135153055191,-0.0018931636586785316
1733699093071636000,8.242635986328125,-0.003053590189665556,-0.01258276216685772,-0.002794643398374319
1733699093081590800,8.2525908203125,-0.0020378115586936474,-0.013119199313223362,-0.0025003356859087944
1733699093091547000,8.262546875,-0.00136136868968606,-0.010886937379837036,-0.0006382537540048361
1733699093101502000,8.272501953125,0.001011556014418602,-0.009056889452040195,-0.0018214669544249773
1733699093111457800,8.282457763671875,0.0026006640400737524,-0.010810581035912037,-0.0015034857206046581
1733699093121412900,8.292412841796875,0.004688182845711708,-0.014211232773959637,-0.0007247838657349348
1733699093131369000,8.302368896484374,0.005772355943918228,-0.012478314340114594,-0.0014678058214485645
1733699093141323800,8.31232373046875,0.003928415477275848,-0.008560707792639732,0.001281582284718752
1733699093151278800,8.32227880859375,0.002776331966742873,-0.0022687239106744528,0.0012605434749275446
1733699093161235000,8.33223486328125,-0.0005642977776005864,0.004740250296890736,0.0016333437524735928
1733699093171189800,8.342189697265624,-0.0005477861268445849,0.007407671771943569,0.0012040422298014164
1733699093181145900,8.352145751953126,-0.0031377216801047325,0.010973791591823101,0.0005757341859862208
1733699093191101000,8.362100830078125,-0.0009022642043419182,0.012256636284291744,0.0010266073513776064
1733699093201057000,8.37205712890625,0.0012188587570562959,0.012784603051841259,0.001520646270364523
1733699093211011800,8.38201171875,0.0027088974602520466,0.013076485134661198,0.001954475184902549
1733699093220967700,8.3919677734375,0.002063105348497629,0.013391898944973946,0.001337301917374134
1733699093230923000,8.401923095703125,-0.0009742299444042146,0.010801175609230995,0.0014054786879569292
1733699093240878800,8.41187890625,-0.005668767727911472,0.010888811200857162,0.00126935844309628
1733699093250834000,8.421833984375,-0.011869139969348907,0.009831536561250687,0.0010025097290053964
1733699093260789800,8.431789794921874,-0.01389140821993351,0.015141262672841549,-0.0005998974665999413
1733699093270744800,8.441744873046876,-0.01509329304099083,0.020663592964410782,-0.00021027703769505024
1733699093280701000,8.451700927734375,-0.01068105362355709,0.023210646584630013,0.0001468636328354478
1733699093290655700,8.46165576171875,-0.007554502692073584,0.024189624935388565,0.0027700774371623993
1733699093300612000,8.471612060546875,-0.0020130930934101343,0.020835649222135544,0.0022781456355005503
1733699093310567000,8.48156689453125,0.0009840283310040832,0.011213114485144615,0.0006466932827606797
1733699093320522800,8.491522705078125,0.0041590491309762,0.0023812735453248024,0.0005399005021899939
1733699093330478000,8.50147802734375,0.005720460321754217,-0.005316860042512417,0.0014195425901561975
1733699093340433000,8.511432861328124,0.005562729202210903,-0.009437997825443745,0.0010744989849627018
1733699093350388700,8.521388671875,0.0013533367309719324,-0.010047328658401966,0.0008377439808100462
1733699093360343800,8.53134375,-0.0021812128834426403,-0.007771246135234833,-0.0005772039294242859
1733699093370300000,8.5412998046875,-0.0027687062975019217,-0.004216192290186882,-0.00004590325988829136
1733699093380255000,8.5512548828125,-0.003794130403548479,-0.0006647123955190182,-0.0015259361825883389
1733699093390210800,8.5612109375,-0.003031400963664055,0.004973998758941889,0.000131349079310894
1733699093400166000,8.571165771484376,-0.0037635399494320154,0.0073067136108875275,-0.00017699413001537323
1733699093410122000,8.5811220703125,-0.003218657337129116,0.0040326230227947235,0.00012527452781796455
1733699093420076800,8.591076904296875,-0.002755500841885805,0.001906450605019927,0.0008243893971666694
1733699093430033000,8.601032958984375,-0.004681232385337353,-0.0006424608873203397,0.0001253096852451563
1733699093439988000,8.610988037109376,-0.005069493781775236,-0.0014393310993909836,-0.00019213720224797726
1733699093449943800,8.62094384765625,-0.007339306175708771,-0.002258785767480731,-0.0021652732975780964
1733699093459899000,8.63089892578125,-0.009043874219059944,-0.002087991451844573,-0.00009993091225624084
1733699093469854700,8.640854736328125,-0.008601789362728596,-0.0019455121364444494,-0.003004907164722681
1733699093479809800,8.650809814453124,-0.005784165114164352,-0.0031665717251598835,-0.0009413235820829868
1733699093489766000,8.660765869140626,-0.005078693851828575,-0.0027234216686338186,-0.001947732176631689
1733699093499720700,8.670720703125,-0.0007218590471893549,0.0013685347512364388,0.0003150402335450053
1733699093509676000,8.680676025390625,-0.0004952240269631147,0.004983243066817522,0.001346482546068728
1733699093519632000,8.6906318359375,0.00009304401464760303,0.00519966334104538,-0.00034778262488543987
1733699093529586700,8.700586669921876,0.0017617808189243078,0.0008145021856762469,0.0013225520960986614
1733699093539543000,8.71054296875,-0.00019506283570080996,-0.004056084901094437,0.0010912853758782148
1733699093549497900,8.720497802734375,-0.0006030590739101171,-0.005552781280130148,0.0017794461455196142
1733699093559454000,8.730453857421875,0.001848660409450531,-0.003891793079674244,-0.000322648324072361
1733699093569408800,8.74040869140625,0.0014148312620818615,0.0012028338387608528,0.00011544162407517433
1733699093579364900,8.75036474609375,0.0016606029821559787,0.007631635759025812,0.001572880195453763
1733699093589320000,8.76031982421875,0.001828115782700479,0.01539475005120039,0.0028741005808115005
1733699093599275800,8.77027587890625,-0.0019615129567682743,0.026626022532582283,0.004561617039144039
1733699093609230800,8.78023095703125,-0.006145072169601917,0.03147750347852707,0.0035094022750854492
1733699093619187000,8.79018701171875,-0.010390744544565678,0.029888885095715523,0.003761081490665674
1733699093629141800,8.800141845703125,-0.013830749318003654,0.020498313009738922,0.002240416593849659
1733699093639097900,8.810097900390625,-0.015148650854825974,0.0051540895365178585,-0.0031768048647791147
1733699093649053000,8.820052978515625,-0.016137482598423958,-0.006723076105117798,-0.007027203217148781
1733699093659009000,8.830009033203124,-0.01304908748716116,-0.018121957778930664,-0.005588858854025602
1733699093668963800,8.8399638671875,-0.012518319301307201,-0.021982740610837936,-0.004660480655729771
1733699093678919000,8.8499189453125,-0.011078190989792347,-0.01837971620261669,-0.004716531373560429
1733699093688875000,8.859875,-0.009210516698658466,-0.010708214715123177,-0.0029407355468720198
1733699093698829800,8.869829833984374,-0.007896269671618938,-0.00027285696705803275,-0.0009677356574684381
1733699093708785700,8.87978564453125,-0.002754504792392254,0.009138221852481365,-0.0009253914467990398
1733699093718741000,8.889740966796875,0.003770445939153433,0.011789089068770409,0.0012657613260671496
1733699093728696800,8.89969677734375,0.007094603031873703,0.007814055308699608,0.003207205794751644
1733699093738652000,8.90965185546875,0.012981664389371872,0.0024241418577730656,0.005586802493780851
1733699093748608000,8.91960791015625,0.014919380657374859,-0.00356557359918952,0.0063141118735075
1733699093758562800,8.929562744140625,0.013515529222786427,-0.00821369793266058,0.0052562495693564415
1733699093768519000,8.939518798828125,0.006018730811774731,-0.006708213593810797,0.00233795796521008
1733699093778473700,8.9494736328125,0.00031830964144319296,-0.00464531360194087,0.0007066791877150536
1733699093788430000,8.95943017578125,-0.005667943973094225,-0.0017653709510341287,-0.0006118519231677055
1733699093798385000,8.969385009765626,-0.00671955244615674,0.001417656079865992,-0.0016638918314129114
1733699093808340700,8.9793408203125,-0.004456930793821812,0.0005886140279471874,-0.0016114276368170977
1733699093818296000,8.989296142578125,-0.001430006348527968,0.000058017787523567677,-0.0008041043765842915
1733699093828252000,8.999251953125,0.0016105246031656861,-0.006600151304155588,-0.0006983769126236439
1733699093838206700,9.009206787109376,0.004574598278850317,-0.012209129519760609,-0.0007483251392841339
1733699093848162000,9.019162109375,0.004506953991949558,-0.012056530453264713,0.00023012026213109493
1733699093858118000,9.029117919921875,0.0003744191490113735,-0.007146837189793587,0.0008694315329194069
1733699093868073000,9.039072998046874,-0.0044099497608840466,0.006561518181115389,0.0018659865017980337
1733699093878028800,9.04902880859375,-0.009614940732717514,0.021173518151044846,0.005040083546191454
1733699093887983900,9.05898388671875,-0.014700779691338539,0.031343065202236176,0.002731655491515994
1733699093897940000,9.06893994140625,-0.01788601651787758,0.04277602210640907,0.0022373273968696594
1733699093907894800,9.078894775390625,-0.017644735053181648,0.051698412746191025,0.006178806070238352
1733699093917851000,9.088850830078124,-0.01996798999607563,0.0567266009747982,0.010186308063566685
1733699093927806000,9.098805908203126,-0.021029260009527206,0.05648691579699516,0.017205335199832916
1733699093937761800,9.10876171875,-0.020641153678297997,0.054003000259399414,0.019298013299703598
1733699093947716900,9.118716796875,-0.020646480843424797,0.05174623802304268,0.01756615936756134
1733699093957673000,9.1286728515625,-0.015838410705327988,0.050755809992551804,0.01311095803976059
1733699093967627800,9.138627685546876,-0.010452433489263058,0.05072997510433197,0.013761302456259727
1733699093977583900,9.148583984375,-0.00997969787567854,0.049974795430898666,0.015281581319868565
1733699093987539500,9.15853955078125,-0.010634568519890308,0.04955881088972092,0.016923952847719193
1733699093997495600,9.16849560546875,-0.014913941733539104,0.04668636992573738,0.017907287925481796
1733699094007450600,9.17845068359375,-0.014117656275629997,0.04584188014268875,0.014386588707566261
1733699094017405400,9.188405517578126,-0.014454537071287632,0.04108879342675209,0.011805522255599499
1733699094027361500,9.198361572265625,-0.013702459633350372,0.035641029477119446,0.007426486350595951
1733699094037316600,9.208316650390625,-0.01196683943271637,0.02338895946741104,0.0046801939606666565
1733699094047272400,9.2182724609375,-0.011981752701103687,0.010149319656193256,0.0018577759619802237
1733699094057227500,9.2282275390625,-0.007920214906334877,-0.002056935802102089,0.0007413506973534822
1733699094067183600,9.23818359375,-0.009088809601962566,-0.009803538210690022,-0.00146108353510499
1733699094077138400,9.248138427734375,-0.006496719550341368,-0.013962915167212486,-0.0006169117987155914
1733699094087094500,9.258094482421875,-0.008808343671262264,-0.01130614522844553,0.00031732511706650257
1733699094097049600,9.268049560546874,-0.006377215031534433,-0.005465730559080839,0.0018772396724671125
1733699094107005700,9.278005615234376,-0.005653101485222578,0.0037903522606939077,0.003198700025677681
1733699094116960500,9.28796044921875,-0.006510966457426548,0.011989116668701172,0.0048108818009495735
1733699094126916600,9.29791650390625,-0.002796655520796776,0.013549995608627796,0.005345111712813377
1733699094136871700,9.30787158203125,-0.0015256989281624556,0.015394226647913456,0.005265795160084963
1733699094146827500,9.31782763671875,-0.000598652521148324,0.014205125160515308,0.0032066390849649906
1733699094156782600,9.327782470703125,0.004155792761594057,0.010578973218798637,0.004725394304841757
1733699094166737700,9.337737548828125,0.005447958596050739,0.006380499806255102,0.003869454376399517
1733699094176693500,9.347693603515625,0.00638251006603241,0.002985425293445587,0.0035704094916582108
1733699094186648600,9.357648681640624,0.003919619135558605,-0.0008420697413384914,0.0016414819983765483
1733699094196604400,9.3676044921875,0.001155631965957582,-0.0019306590547785163,0.0017880694940686226
1733699094206559500,9.3775595703125,-0.0012478709686547518,-0.0019045601366087794,0.0005046920850872993
1733699094216515600,9.387515625,-0.002827185671776533,0.0008405833505094051,0.0011743807699531317
1733699094226470400,9.397470458984374,-0.006038958206772804,0.005021213553845882,0.0013943577650934458
1733699094236426500,9.407426513671876,-0.0052078706212341785,0.009019546210765839,0.000031641218811273575
1733699094246381600,9.417381591796875,-0.005351148545742035,0.0075220512226223946,0.0017429884755983949
1733699094256337700,9.427337646484375,-0.0025143963284790516,0.00630012433975935,0.000016976380720734596
1733699094266292500,9.43729248046875,-0.0008600408327765763,0.005541656166315079,0.0018524269107729197
1733699094276248600,9.44724853515625,0.0012422306463122368,0.0036037261597812176,0.0012743647675961256
1733699094286203600,9.45720361328125,0.00417889840900898,0.00006624939851462841,0.001689285272732377
1733699094296159500,9.467159423828125,0.007367093116044998,0.0009668687707744539,0.0017635226249694824
1733699094306114600,9.477114501953125,0.007693862542510033,0.0011327837128192186,0.003925743047147989
1733699094316070700,9.487070556640624,0.007787762675434351,0.003659891663119197,0.0020891032181680202
1733699094326025500,9.497025390625,0.0036678523756563663,0.005620510783046484,0.0023311846889555454
1733699094335981600,9.506981689453125,0.0003135403385385871,0.005485712084919214,-0.0009134411811828613
1733699094345936600,9.5169365234375,-0.0054175821132957935,0.0056558880023658276,-0.000588002847507596
1733699094355891500,9.526891357421874,-0.007876078598201275,0.0015821108827367425,-0.0011845454573631287
1733699094365847600,9.53684765625,-0.006949031725525856,-0.0015271296724677086,-0.004429074935615063
1733699094375802600,9.546802734375,-0.010816111229360104,-0.004441169556230307,-0.004021032713353634
1733699094385758700,9.5567587890625,-0.005793656222522259,-0.007667056284844875,-0.004271369893103838
1733699094395713500,9.566713623046875,-0.002212698571383953,-0.007768359035253525,-0.001076477114111185
1733699094405669400,9.57666943359375,0.0018875043606385589,-0.0054812366142869,-0.0012000477872788906
1733699094415624700,9.586624755859376,0.00451279804110527,-0.0014334197621792555,0.0012327227741479874
1733699094425580500,9.59658056640625,0.007140538655221462,0.0016928650438785553,0.003126762807369232
1733699094435535400,9.606535400390625,0.008350257761776447,0.004453728906810284,0.0020712094847112894
1733699094445491500,9.616491455078124,0.006659416016191244,0.004574902821332216,0.0036656439770013094
1733699094455446500,9.626446533203126,0.005440102890133858,0.003868401050567627,-0.0011468699667602777
1733699094465402600,9.636402587890625,0.00467311218380928,-0.0007388675003312528,-0.002073650248348713
1733699094475357400,9.646357421875,0.0022742804139852524,-0.006918140687048435,-0.00029299804009497166
1733699094485313500,9.6563134765625,0.0022851992398500443,-0.013948620297014713,-0.0024672027211636305
1733699094495268600,9.6662685546875,0.002080052625387907,-0.018532734364271164,-0.0009853863157331944
1733699094505224400,9.676224365234376,0.001514663570560515,-0.020541023463010788,-0.0012796656228601933
1733699094515179500,9.686179443359375,0.004416782408952713,-0.020728614181280136,-0.0018781800754368305
1733699094525134600,9.696134521484375,0.00475899875164032,-0.018153071403503418,-0.0015351648908108473
1733699094535090400,9.70609033203125,0.0037786890752613544,-0.015593242831528187,-0.0023482278920710087
1733699094545045500,9.71604541015625,0.007774495519697666,-0.01978905126452446,-0.002836917992681265
1733699094555001600,9.726001708984375,0.0072662197053432465,-0.025026338174939156,-0.0014710561372339725
1733699094564956400,9.735956298828125,0.00671494472771883,-0.02534858137369156,-0.0027600261382758617
1733699094574912500,9.74591259765625,0.007057499140501022,-0.02170947566628456,-0.00211404450237751
1733699094584867600,9.75586767578125,0.004130418878048658,-0.01336712297052145,-0.0003752666525542736
1733699094594823700,9.76582373046875,0.0007303868187591434,-0.006626712158322334,0.00008322135545313358
1733699094604778500,9.775778564453125,-0.0004192998167127371,0.0023425479885190725,0.0019690056797116995
1733699094614734600,9.785734619140625,-0.0022891175467520952,0.010299031622707844,0.0015718487557023764
1733699094624689700,9.795689697265624,-0.003312037792056799,0.013837307691574097,0.0009310923051089048
1733699094634645500,9.8056455078125,-0.0034337686374783516,0.014298206195235252,0.001428423449397087
1733699094644600600,9.8156005859375,-0.0006931097013875842,0.013868371956050396,0.0015727668069303036
1733699094654556400,9.825556396484375,0.0006106655346229672,0.013987039215862751,0.002879466861486435
1733699094664511500,9.835511474609374,0.0014825843973085284,0.011068481020629406,0.0005523966392502189
1733699094674466600,9.845466552734376,0.0013304451713338494,0.009974169544875622,0.00036659848410636187
1733699094684422400,9.85542236328125,0.0010276437969878316,0.007987450808286667,0.00037858274299651384
1733699094694377500,9.86537744140625,-0.0005767409456893802,0.00428380211815238,-0.001954391598701477
1733699094704333600,9.87533349609375,0.0010158293880522251,-0.0027141862083226442,-0.002207125537097454
1733699094714288400,9.885288330078126,0.0001448058756068349,-0.006027167662978172,-0.0018845717422664165
1733699094724244500,9.895244384765626,0.0012433597585186362,-0.011083445511758327,-0.001093612750992179
1733699094734199600,9.905199462890625,0.0030446122400462627,-0.013295166194438934,-0.00025830348022282124
1733699094744155600,9.91515576171875,0.002134876325726509,-0.012474645860493183,-0.0015416808892041445
1733699094754110500,9.9251103515625,0.0037190585862845182,-0.00848596915602684,-0.0012252919841557741
1733699094764066600,9.935066650390626,0.004321732558310032,-0.007221766747534275,-0.0006300753448158503
1733699094774021600,9.945021728515625,0.0033038584515452385,-0.006073386408388615,-0.0004242919385433197
1733699094783977500,9.9549775390625,0.002156302332878113,-0.006233975291252136,-0.0011412149760872126
1733699094793932500,9.9649326171875,0.0005077831447124481,-0.006123960018157959,-0.0006205069366842508
1733699094803888600,9.974888671875,0.0010231046471744776,-0.005817962810397148,-0.00043381936848163605
1733699094813843500,9.984843505859375,0.001189890899695456,-0.005006601568311453,0.001833084737882018
1733699094823799600,9.994799560546875,0.0021425033919513226,-0.001588167855516076,0.0011350702261552215
1733699094833754600,10.004754638671875,0.0009934831177815795,0.0029195595998317003,0.0015759714879095554
1733699094843709400,10.01470947265625,0.0025628837756812572,0.004888967145234346,0.0003932616673409939
1733699094853665500,10.02466552734375,0.0020869853906333447,0.0049787163734436035,-0.0009277127683162689
1733699094863620600,10.03462060546875,0.0005993435624986887,0.001492904732003808,0.0006600639317184687
1733699094873576700,10.04457666015625,0.0008979601552709937,-0.0027704122476279736,-0.0008333350997418165
1733699094883531500,10.054531494140624,-0.0010642569977790117,-0.005125978495925665,-0.0011883345432579517
1733699094893487400,10.0644873046875,0.00011413136962801218,-0.007586248684674501,-0.0023086052387952805
1733699094903442700,10.074442626953125,0.0003586095990613103,-0.010730377398431301,-0.0027355095371603966
1733699094913398500,10.0843984375,0.00027921039145439863,-0.010828984901309013,-0.002139172051101923
1733699094923353300,10.094353271484374,-0.0005386463599279523,-0.009838023222982883,-0.0033242786303162575
1733699094933309400,10.104309326171874,-0.0010132330935448408,-0.010504198260605335,-0.0010787039063870907
1733699094943264500,10.114264404296875,0.002163119148463011,-0.005345921963453293,-0.0008541995193809271
1733699094953220600,10.124220703125,-0.000543451402336359,0.00011196028208360076,0.0009427214972674847
1733699094963175400,10.134175537109375,0.0004680170677602291,0.0022448860108852386,0.000987995183095336
1733699094973131800,10.1441318359375,-0.0005612474633380771,0.004847661592066288,0.002019523410126567
1733699094983086600,10.154086669921876,-0.00040039257146418095,0.004303844179958105,0.0018914253450930119
1733699094993042200,10.164042236328125,-0.0008080608677119017,0.008053739555180073,0.002392989583313465
1733699095002997200,10.173997314453125,0.0014106185408309102,0.009022330865263939,0.0005250483518466353
1733699095012952000,10.1839521484375,0.002722390228882432,0.01065648254007101,-0.00021349452435970306
1733699095022908200,10.193908203125,0.003910958766937256,0.010719332844018936,0.003975125029683113
1733699095032863200,10.20386328125,0.004298719577491283,0.012682465836405754,0.002228914527222514
1733699095042819000,10.213819091796875,0.003882467281073332,0.015230844728648663,0.0023998895194381475
1733699095052774100,10.223774169921874,0.0018047180492430925,0.016712550073862076,0.0016215007053688169
1733699095062730000,10.23372998046875,-0.0007063763914629817,0.017548782750964165,0.004589327611029148
1733699095072685000,10.24368505859375,-0.0033215535804629326,0.015092618763446808,0.0012542081531137228
1733699095082641200,10.25364111328125,-0.005625986959785223,0.007603277452290058,0.0006608559051528573
1733699095092596000,10.263595947265625,-0.008151897229254246,0.00035772714181803167,-0.0027187163941562176
1733699095102552000,10.273552001953124,-0.005953457206487656,-0.007323095574975014,-0.007064462173730135
1733699095112507100,10.283507080078126,-0.0033266739919781685,-0.013805917464196682,-0.00571439228951931
1733699095122463200,10.293463134765625,-0.0015173222636803985,-0.01846165582537651,-0.003885067068040371
1733699095132418000,10.30341796875,0.0018192314309999347,-0.018400222063064575,-0.0029483602847903967
1733699095142374100,10.3133740234375,0.004703168291598558,-0.01620258204638958,-0.0021198506001383066
1733699095152329200,10.3233291015625,0.004890498239547014,-0.011415318585932255,-0.001156727084890008
1733699095162285000,10.33328515625,0.004723518155515194,-0.004009333439171314,0.0009418437257409096
1733699095172240100,10.343240234375,0.004104865714907646,0.005157533101737499,0.0015860623680055141
1733699095182195200,10.3531953125,0.0011689970269799232,0.011652982793748379,0.0036335005424916744
1733699095192151000,10.363151123046874,-0.000007079332135617733,0.018514256924390793,0.004115385469049215
1733699095202106000,10.373106201171876,-0.0015943233156576753,0.01873902790248394,0.0006428897613659501
1733699095212062200,10.383062255859375,0.0006003734888508916,0.016506526619195938,-0.00040887040086090565
1733699095222017000,10.39301708984375,0.0012909312499687076,0.009400413371622562,0.0008864912670105696
1733699095231973000,10.40297314453125,0.0008329551201313734,-0.0014485141728073359,-0.0013268745969980955
1733699095241928200,10.41292822265625,0.0036593677941709757,-0.009962374344468117,-0.00033857556991279125
1733699095251884300,10.42288427734375,0.004153965041041374,-0.014987301081418991,-0.0025223386473953724
1733699095261839000,10.432839111328125,0.003688178025186062,-0.02075277827680111,-0.0020205993205308914
1733699095271795000,10.442794921875,0.002826850628480315,-0.025065934285521507,-0.0018382810521870852
1733699095281750300,10.452750244140624,0.003240173449739814,-0.030055899173021317,-0.0025123271625488997
1733699095291706000,10.4627060546875,0.004344245418906212,-0.030319035053253174,-0.0019702818244695663
1733699095301661000,10.472660888671875,0.0009604328079149127,-0.023608403280377388,-0.0021252776496112347
1733699095311617000,10.482616943359375,-0.00020264042541384697,-0.010049881413578987,-0.000558971893042326
1733699095321572000,10.492572021484374,-0.00022048363462090492,0.008308619260787964,0.002629098016768694
1733699095331527200,10.502527099609376,-0.0003086589276790619,0.020942561328411102,0.005849512293934822
1733699095341483000,10.51248291015625,-0.0003797654062509537,0.025467803701758385,0.0038050031289458275
1733699095351438000,10.52243798828125,0.002294957172125578,0.019924400374293327,0.0024032392539083958
1733699095361394200,10.532394287109375,0.006684379652142525,0.0084768021479249,0.0009211901342496276
1733699095371349000,10.542348876953126,0.012502054683864117,-0.0068970937281847,-0.00008788169361650944
1733699095381305300,10.552305419921876,0.017512792721390724,-0.021174566820263863,-0.0004346251953393221
1733699095391260200,10.56226025390625,0.01930270344018936,-0.03139471635222435,-0.00033289240673184395
1733699095401216000,10.572216064453125,0.016235539689660072,-0.03873225674033165,-0.0024517031852155924
1733699095411171000,10.582171142578124,0.013414464890956879,-0.04046132415533066,-0.0036274204030632973
1733699095421127200,10.592127197265626,0.006566145457327366,-0.036772582679986954,-0.005243958905339241
1733699095431082000,10.60208203125,0.003386948723345995,-0.03170337900519371,-0.006575029343366623
1733699095441038000,10.6120380859375,0.001597304712049663,-0.024329887703061104,-0.005639728158712387
1733699095450993200,10.6219931640625,-0.000710649648681283,-0.016914770007133484,-0.004325542598962784
1733699095460949200,10.63194921875,0.0005788529524579644,-0.011295766569674015,-0.0016357502900063992
1733699095470904000,10.641904052734375,0.0017219159053638577,-0.007462585344910622,-0.001622229814529419
1733699095480859100,10.651859130859375,0.003007157240062952,-0.0032947384752333164,0.0021994062699377537
1733699095490815200,10.661815185546875,0.0033876404631882906,-0.002249464625492692,0.0017448379658162594
1733699095500770000,10.67177001953125,0.005402588285505772,-0.0009772726334631443,0.0007392283296212554
1733699095510726100,10.68172607421875,0.004374861251562834,-0.0016486303647980094,0.0010078620398417115
1733699095520681200,10.69168115234375,0.0019394002156332135,-0.00020306650549173355,-0.00090029276907444
1733699095530637000,10.701636962890625,0.00281941844150424,0.0005660201422870159,0.0016175841446965933
1733699095540592000,10.711592041015624,0.002042041625827551,0.00014311017002910376,0.0014066617004573345
1733699095550548000,10.7215478515625,0.002663103397935629,-0.00012030068319290876,0.0006381530547514558
1733699095560503000,10.7315029296875,0.0016646842705085874,-0.0009746427531354129,0.0007468101102858782
1733699095570459100,10.741459228515625,0.0021079638972878456,0.0007389207603409886,0.0005278829485177994
1733699095580414000,10.7514140625,0.002640329534187913,0.00040229721344076097,0.002609675982967019
1733699095590370300,10.761370361328124,0.003681228030472994,0.00008783669909462333,0.0009276274358853698
1733699095600325000,10.7713251953125,0.003881231416016817,-0.0038725503254681826,0.0002916645025834441
1733699095610281200,10.78128125,0.003542115446180105,-0.008143985643982887,-0.0004503377713263035
1733699095620236000,10.791236083984375,0.0045850095339119434,-0.011371737346053123,-0.0007736457046121359
1733699095630191000,10.801191162109374,0.002983902581036091,-0.01318265963345766,-0.0019702818244695663
1733699095640147200,10.811147216796876,0.0013425966026261449,-0.011019640602171421,-0.0037551322020590305
1733699095650102000,10.82110205078125,0.0018391198245808482,-0.01127560529857874,-0.0011315287556499243
1733699095660058000,10.83105810546875,0.0012979655293747783,-0.00990141462534666,-0.0012436478864401579
1733699095670013200,10.84101318359375,-0.00011072575580328703,-0.008436056785285473,-0.003290893044322729
1733699095679969000,10.850968994140626,0.0022533624432981014,-0.009607315063476562,-0.004180655349045992
1733699095689924400,10.86092431640625,0.002548621501773596,-0.012912435457110405,-0.00403735414147377
1733699095699880200,10.870880126953125,0.005238147918134928,-0.012681006453931332,-0.0010282483417540789
1733699095709835000,10.8808349609375,0.008289441466331482,-0.013158013112843037,0.00004539568908512592
1733699095719791000,10.890791015625,0.008627129718661308,-0.012931911274790764,-0.0010933720041066408
1733699095729746200,10.90074609375,0.006336776539683342,-0.012825866229832172,-0.00013591465540230274
1733699095739702300,10.910702392578125,0.0020440269727259874,-0.011565391905605793,0.0008603738388046622
1733699095749657000,10.920656982421875,0.002582408022135496,-0.004832886159420013,0.00017981173004955053
1733699095759613000,10.930613037109374,0.0013554898323491216,0.0022660361137241125,0.000660512363538146
1733699095769568300,10.940568359375,-0.0023325406946241856,0.0075743780471384525,0.0002842308022081852
1733699095779524000,10.950524169921875,0.003104302566498518,0.012335843406617641,0.0007375008426606655
1733699095789479000,10.96047900390625,-0.0005979858106002212,0.019708607345819473,0.0032035475596785545
1733699095799434200,10.970434326171874,0.000011878088116645813,0.023639699444174767,0.001922300667501986
1733699095809390000,10.98039013671875,-0.0017735789297148585,0.024619724601507187,0.0013386267237365246
1733699095819345200,10.99034521484375,-0.0018936875276267529,0.020166121423244476,0.0023556877858936787
1733699095829301000,11.000301025390625,-0.0009906451450660825,0.015570089221000671,0.0005067060701549053
1733699095839256000,11.010256103515625,-0.0037843009922653437,0.004541140049695969,-0.0002959705889225006
1733699095849212200,11.020212158203124,-0.004555446095764637,-0.0038791298866271973,-0.002235702471807599
1733699095859167000,11.0301669921875,-0.0033194730058312416,-0.01099855825304985,-0.0032295945566147566
1733699095869123300,11.040123291015625,-0.0024465490132570267,-0.015325438231229782,-0.003834228031337261
1733699095879078100,11.050078125,-0.0015322858234867454,-0.015117712318897247,-0.003672307822853327
1733699095889034000,11.060033935546874,-0.002940274076536298,-0.011670156382024288,-0.003378414548933506
1733699095898989300,11.0699892578125,-0.001964758150279522,-0.006912152748554945,-0.002287850249558687
1733699095908945200,11.079945068359375,0.0012618318432942033,-0.0006265520351007581,0.0007949791615828872
1733699095918900000,11.08989990234375,0.0023832889273762703,0.0024573884438723326,0.0028461457695811987
1733699095928856000,11.09985595703125,0.0025219793897122145,0.002413403242826462,0.002746979705989361
1733699095938811100,11.10981103515625,0.004058889113366604,0.001970785902813077,0.0006247067358344793
1733699095948766200,11.11976611328125,0.0029449602589011192,0.00199678260833025,0.00042779825162142515
1733699095958722000,11.12972216796875,0.0036597526632249355,0.002972031943500042,0.002863525412976742
1733699095968677000,11.139677001953125,-0.0002634000265970826,0.0027329588774591684,0.0011854406911879778
1733699095978633200,11.14963330078125,-0.0008721986669115722,0.0034062061458826065,0.0010256509995087981
1733699095988587800,11.159587890625,-0.00273288507014513,0.0014313668943941593,0.0017554622609168291
1733699095998544000,11.1695439453125,-0.005743056070059538,-0.0003827784094028175,-0.0006523015908896923
1733699096008499000,11.1794990234375,-0.002432409208267927,-0.002014866331592202,-0.002353097777813673
1733699096018454800,11.189454833984374,-0.003000195138156414,-0.0076296087354421616,-0.0024625533260405064
1733699096028409900,11.199409912109376,-0.000824307557195425,-0.014329185709357262,-0.0020455254707485437
1733699096038366000,11.209365966796875,0.0034551257267594337,-0.019810503348708153,-0.0007789263036102057
1733699096048320800,11.21932080078125,0.0041540851816535,-0.019315240904688835,-0.0009642087388783693
1733699096058276900,11.22927685546875,0.005167684052139521,-0.01200113631784916,0.00015964533668011427
1733699096068232000,11.23923193359375,0.0015101697063073516,-0.0038631511852145195,0.0011028361041098833
1733699096078188000,11.24918798828125,-0.0017372890142723918,0.006035019643604755,0.001437861705198884
1733699096088142800,11.259142822265625,-0.0033223875798285007,0.010031189769506454,0.0007657698588445783
1733699096098098000,11.269097900390625,-0.0034499531611800194,0.010267678648233414,0.0010459343902766705
1733699096108054000,11.279053955078124,-0.0019498197361826897,0.006943835411220789,0.0031669833697378635
1733699096118008800,11.2890087890625,-0.00043288315646350384,0.005412784405052662,0.0011621557641774416
1733699096127965000,11.29896484375,0.0017716065049171448,0.0020473317708820105,0.0011497309897094965
1733699096137920000,11.308919921875,0.00005732977297157049,0.002614052500575781,0.001957467757165432
1733699096147875800,11.318875732421875,-0.0013265691231936216,0.00487791933119297,0.0015599310863763094
1733699096157831000,11.328830810546876,-0.004552190192043781,0.006435868795961142,0.0007114480249583721
1733699096167786800,11.338786865234376,-0.005936983972787857,0.009208140894770622,-0.0007844222709536552
1733699096177741800,11.348741943359375,-0.00826884713023901,0.010224669240415096,0.00013969466090202332
1733699096187698000,11.358697998046875,-0.006292684003710747,0.011449303478002548,0.00015759398229420185
1733699096197652700,11.36865283203125,-0.006510530598461628,0.0117568988353014,0.0007075367029756308
1733699096207608800,11.37860888671875,-0.0030646587256342173,0.010299351997673512,0.0030450529884546995
1733699096217564000,11.38856396484375,-0.003273716662079096,0.009242610074579716,0.0000676389317959547
1733699096227520000,11.39852001953125,-0.002278162632137537,0.004126039333641529,0.0008600337896496058
1733699096237474800,11.408474853515624,-0.0017335462616756558,0.003443737281486392,0.0005441828398033977
1733699096247431000,11.418430908203124,-0.002422168618068099,0.0010696931276470423,-0.00013901875354349613
1733699096257386000,11.428385986328125,0.0002521777059882879,-0.0013745562173426151,-0.0003552674315869808
1733699096267340800,11.4383408203125,-0.0004214427899569273,-0.0018769404850900173,0.0010827250080183148
1733699096277297000,11.448296875,0.0007783113978803158,-0.0028090467676520348,0.002151717897504568
1733699096287252000,11.458251953125,0.002010190859436989,-0.0020951644983142614,0.0011595444520935416
1733699096297207800,11.468207763671876,0.0008349377894774079,-0.0021071487572044134,0.003130550030618906
1733699096307163000,11.478162841796875,-0.0013457899913191795,-0.0027121594175696373,0.0022466944064944983
1733699096317119000,11.488118896484375,-0.0024707093834877014,0.00007377332076430321,0.0002019192324951291
1733699096327073800,11.49807373046875,-0.0018410064512863755,0.002859380329027772,-0.0004097933415323496
1733699096337030000,11.50802978515625,-0.00497794384136796,0.007986764423549175,0.001713545061647892
1733699096346985000,11.51798486328125,-0.004489651881158352,0.012525382451713085,0.0010807854123413563
1733699096356941000,11.527941162109375,-0.0048843324184417725,0.014711305499076843,0.0023306068032979965
1733699096366895900,11.537895751953124,-0.004882979206740856,0.015245245769619942,0.0013854957651346922
1733699096376851700,11.547851806640624,-0.0037375539541244507,0.009244078770279884,0.0003039860166609287
1733699096386807000,11.55780712890625,-0.00347555591724813,0.0026179426349699497,0.0004452320281416178
1733699096396761900,11.567761962890625,-0.0018824529834091663,-0.005307358223944902,-0.0022205919958651066
1733699096406717700,11.5777177734375,-0.00343229528516531,-0.009243808686733246,-0.0006225332617759705
1733699096416673000,11.587673095703124,-0.0021883328445255756,-0.009437686763703823,-0.0006984332576394081
1733699096426628900,11.59762890625,-0.004107342567294836,-0.007110864855349064,0.00035901879891753197
1733699096436583700,11.607583740234375,-0.004799497779458761,-0.00427326699718833,0.0003792588831856847
1733699096446539800,11.617539794921875,-0.003032384207472205,-0.00345994858071208,-0.0004509256687015295
1733699096456494800,11.627494873046874,-0.0009271554299630225,-0.0007709545316174626,-0.0010453432332724333
1733699096466451000,11.637450927734376,-0.0008507226593792439,0.0026283040642738342,0.0004820240428671241
