time,seconds_elapsed,z,y,x
1733699255073552600,0.019552734375,-0.009613909758627415,0.0034848630893975496,0.0010658708633854985
1733699255083507700,0.0295078125,-0.006978271529078484,0.004117358475923538,-0.0021354742348194122
1733699255093463600,0.039463623046875,-0.007195851765573025,0.005268376786261797,-0.0020736888982355595
1733699255103419000,0.0494189453125,-0.004859954118728638,0.007854783907532692,-0.0014396433252841234
1733699255113374700,0.059374755859375,-0.002017828868702054,0.007106435485184193,0.002955903997644782
1733699255123329500,0.06932958984375,-0.0007209231844171882,0.0037831685040146112,0.004406413529068232
1733699255133286000,0.079285888671875,0.002210950944572687,-0.0011221079621464014,0.002519031288102269
1733699255143241000,0.089240966796875,0.0004090643487870693,-0.0036686421371996403,0.0018812872003763914
1733699255153196800,0.09919677734375,-0.0025084284134209156,-0.005882261320948601,-0.0004820020403712988
1733699255163151600,0.109151611328125,-0.003562046680599451,-0.009014044888317585,0.00013950432185083628
1733699255173108000,0.11910791015625,-0.00413968600332737,-0.010618865489959717,-0.0002879330422729254
1733699255183062800,0.129062744140625,-0.003947411198168993,-0.015033837407827377,0.0006211849395185709
1733699255193019000,0.139018798828125,-0.0025377999991178513,-0.019840044900774956,0.0018169442191720009
1733699255202974000,0.148973876953125,-0.0034571008291095495,-0.024237891659140587,0.0007212025811895728
1733699255212929800,0.1589296875,-0.002958823461085558,-0.02908085100352764,0.0028152461163699627
1733699255222884900,0.168884765625,-0.00415050471201539,-0.03372339904308319,-0.000058059580624103546
1733699255232840700,0.1788408203125,-0.005805659107863903,-0.03136996179819107,-0.0006290413439273834
1733699255242796000,0.188796142578125,-0.00875408947467804,-0.021784111857414246,0.000606101006269455
1733699255252752000,0.198751953125,-0.012443101033568382,-0.013587700203061104,0.0008724171202629805
1733699255262706700,0.208706787109375,-0.013838725164532661,-0.011366157792508602,0.005571555346250534
1733699255272662800,0.218662841796875,-0.01575646735727787,-0.00961193349212408,0.005865301936864853
1733699255282617900,0.228617919921875,-0.013984043151140213,-0.010053363628685474,0.00693622138351202
1733699255292574000,0.238573974609375,-0.009246813133358955,-0.010081061162054539,0.005619022063910961
1733699255302528800,0.24852880859375,-0.0034090590197592974,-0.00952342338860035,0.0038659912534058094
1733699255312484900,0.25848486328125,-0.003975247032940388,-0.008787859231233597,0.0054007708095014095
1733699255322440000,0.26843994140625,-0.004316952545195818,-0.007111496292054653,0.00480860099196434
1733699255332395800,0.278395751953125,-0.005051452200859785,-0.008285151794552803,0.003409376135095954
1733699255342350800,0.288350830078125,-0.002781851449981332,-0.011586080305278301,0.00411645695567131
1733699255352307000,0.298306884765625,-0.004683614708483219,-0.014847386628389359,0.0027651689015328884
1733699255362261800,0.30826171875,-0.006214544642716646,-0.017195679247379303,0.001878528157249093
1733699255372217900,0.3182177734375,-0.005722925066947937,-0.019369350746273994,0.003139268606901169
1733699255382173000,0.3281728515625,-0.004584310110658407,-0.01823740266263485,0.004508775193244219
1733699255392129000,0.33812890625,-0.005360887851566076,-0.018042992800474167,0.0024520158767700195
1733699255402083800,0.348083740234375,-0.0033435728400945663,-0.016673292964696884,0.005683630704879761
1733699255412039700,0.358039794921875,-0.00516970269382,-0.013425301760435104,0.005967523902654648
1733699255421995000,0.3679951171875,-0.003069899510592222,-0.010713392868638039,0.004825251176953316
1733699255431950800,0.377950927734375,-0.00522413058206439,-0.011448690667748451,0.004606072790920734
1733699255441905700,0.38790576171875,-0.005541221238672733,-0.011592496186494827,0.0044739400036633015
1733699255451861800,0.39786181640625,-0.005243746563792229,-0.010006316937506199,0.0027724464889615774
1733699255461816800,0.40781689453125,-0.003799711586907506,-0.011227618902921677,0.0032535926438868046
1733699255471773000,0.41777294921875,-0.00450811255723238,-0.008289352990686893,0.004778784699738026
1733699255481727700,0.427727783203125,-0.003703099675476551,-0.008717365562915802,0.005653270985931158
1733699255491683800,0.437683837890625,-0.004866901319473982,-0.007523736916482449,0.0038601644337177277
1733699255501639000,0.447638916015625,-0.005840065889060497,-0.00643363269045949,0.0044154031202197075
1733699255511594800,0.4575947265625,-0.009032396599650383,-0.0021688463166356087,0.005615423433482647
1733699255521549800,0.4675498046875,-0.007245492190122604,0.0013319877907633781,0.00482856435701251
1733699255531506000,0.477505859375,-0.005492599681019783,0.004328310489654541,0.005354272201657295
1733699255541460700,0.487460693359375,-0.005196106154471636,0.006442999932914972,0.004816292319446802
1733699255551416800,0.497416748046875,-0.0029468003194779158,0.0044877068139612675,0.004758767783641815
1733699255561372000,0.507371826171875,-0.0006697976496070623,0.0008192023960873485,0.002304931404069066
1733699255571328000,0.517327880859375,-0.000047416891902685165,-0.006936721503734589,0.0019933416042476892
1733699255581282800,0.52728271484375,0.0009346180595457554,-0.014949572272598743,0.001636222004890442
1733699255591238700,0.53723876953125,0.0001423276262357831,-0.020872442051768303,0.0006167639512568712
1733699255601194000,0.547194091796875,-0.0017729178071022034,-0.021923338994383812,0.00008950079791247845
1733699255611149800,0.55714990234375,-0.004561247304081917,-0.020911870524287224,0.00036327377893030643
1733699255621105000,0.56710498046875,-0.004618033766746521,-0.014080638065934181,0.00039273896254599094
1733699255631060700,0.577060791015625,-0.0030196045991033316,-0.01085182186216116,0.0010601270478218794
1733699255641015800,0.587015869140625,-0.0038284354377537966,-0.00417961785569787,0.0031448828522115946
1733699255650972000,0.596971923828125,-0.001218005083501339,-0.0012946154456585646,0.004304156638681889
1733699255660926700,0.6069267578125,0.00005923141725361347,0.0044182827696204185,0.006068170070648193
1733699255670881800,0.6168818359375,-0.00066514837089926,0.013281282968819141,0.006405326072126627
1733699255680838000,0.626837890625,-0.0035291891545057297,0.017095571383833885,0.006195841357111931
1733699255690793700,0.636793701171875,-0.002186423633247614,0.013921350240707397,0.00811677984893322
1733699255700748800,0.646748779296875,-0.0034020408056676388,0.013961666263639927,0.0057256342843174934
1733699255710705000,0.656704833984375,-0.0017463534604758024,0.019578538835048676,0.005134945269674063
1733699255720659700,0.66665966796875,-0.0013598393416032195,0.022462865337729454,0.003988783806562424
1733699255730615800,0.67661572265625,0.0011477931402623653,0.02081383764743805,0.0038239345885813236
1733699255740571000,0.68657080078125,-0.0004324045730754733,0.022067736834287643,0.0053735533729195595
1733699255750527000,0.69652685546875,-0.0014902121620252728,0.025253143161535263,0.006331492215394974
1733699255760481800,0.706481689453125,-0.003010667860507965,0.025432582944631577,0.006290469318628311
1733699255770438000,0.71643798828125,-0.0058290911838412285,0.02684645541012287,0.005542387254536152
1733699255780393000,0.72639306640625,-0.007479351479560137,0.023525480180978775,0.0028619582299143076
1733699255790348800,0.736348876953125,-0.0060063572600483894,0.01736319251358509,0.002342641819268465
1733699255800303900,0.746303955078125,-0.00460436474531889,0.015203073620796204,0.0015906934859231114
1733699255810259000,0.756259033203125,-0.005654715932905674,0.007890033535659313,0.000494536361657083
1733699255820214800,0.76621484375,-0.00787749420851469,0.0065134731121361256,-0.0026515841018408537
1733699255830171000,0.7761708984375,-0.010147306136786938,0.005351003259420395,-0.0008297157473862171
1733699255840125700,0.786125732421875,-0.011725849471986294,0.010827137157320976,-0.0004553389735519886
1733699255850082000,0.79608203125,-0.012629993259906769,0.016609659418463707,0.0006160506745800376
1733699255860036900,0.806036865234375,-0.016023488715291023,0.021400950849056244,0.00018332956824451685
1733699255869992700,0.81599267578125,-0.012333146296441555,0.030424272641539574,0.0012211634311825037
1733699255879947800,0.82594775390625,-0.01140608824789524,0.030707495287060738,0.0013867910020053387
1733699255889902800,0.83590283203125,-0.009030814282596111,0.030741317197680473,0.0015974469715729356
1733699255899859000,0.84585888671875,-0.004861895926296711,0.02635560929775238,0.002779442584142089
1733699255909814800,0.855814697265625,-0.0038847823161631823,0.023203490301966667,0.002622316125780344
1733699255919769900,0.865769775390625,-0.0005642089527100325,0.02006593532860279,0.004822161979973316
1733699255929726000,0.875725830078125,0.0009679074864834547,0.01573190838098526,0.0055031320080161095
1733699255939680800,0.8856806640625,-0.00024446414317935705,0.017295729368925095,0.0044045355170965195
1733699255949636900,0.895636962890625,-0.001978981075808406,0.017589209601283073,0.0024865271989256144
1733699255959592000,0.905592041015625,-0.006390755996108055,0.019923049956560135,0.0024535676930099726
1733699255969547800,0.9155478515625,-0.008148175664246082,0.02338569238781929,0.002053028205409646
1733699255979502800,0.9255029296875,-0.00967488344758749,0.02209819294512272,0.0007525852415710688
1733699255989458700,0.935458740234375,-0.008973140269517899,0.019542092457413673,0.00040690694004297256
1733699255999413800,0.945413818359375,-0.00766376918181777,0.016129812225699425,-0.0006315873470157385
1733699256009369900,0.955369873046875,-0.006340444553643465,0.017228366807103157,-0.0015418557450175285
1733699256019324700,0.96532470703125,-0.005823768675327301,0.019812263548374176,0.0002213059924542904
1733699256029281000,0.975281005859375,-0.006362259853631258,0.024014465510845184,0.0037164385430514812
1733699256039235800,0.98523583984375,-0.004835125990211964,0.024935008957982063,0.003459869883954525
1733699256049192000,0.99519189453125,-0.006410385947674513,0.023432187736034393,0.0020904724951833487
1733699256059147000,1.00514697265625,-0.005817560479044914,0.01572871208190918,0.001773374853655696
1733699256069102800,1.015102783203125,-0.002061704406514764,0.010178417898714542,0.0009589801775291562
1733699256079058000,1.025057861328125,-0.0008322283392772079,0.002756483154371381,-0.00016233837231993675
1733699256089013800,1.035013671875,0.001225596177391708,0.00013193796621635556,-0.0014489113818854094
1733699256098968800,1.04496875,0.00229550339281559,0.00048757190234027803,0.0014346009120345116
1733699256108925000,1.054925048828125,-0.0003519450547173619,0.0016668196767568588,0.0006281957030296326
1733699256118879700,1.064879638671875,-0.002192121697589755,0.003727598348632455,0.001269398257136345
1733699256128835800,1.0748359375,-0.0025777474511414766,0.003507621120661497,-0.0011354361195117235
1733699256138790000,1.084789794921875,-0.0020557844545692205,0.002895779674872756,0.0003036721609532833
1733699256148745700,1.094745849609375,-0.0003950372338294983,0.0015799117973074317,0.000710336840711534
1733699256158701000,1.104701171875,0.001879934803582728,0.0007109091384336352,-0.00019536144100129604
1733699256168657000,1.114656982421875,0.0020506433211266994,-0.0021293521858751774,0.0018150587566196918
1733699256178611700,1.12461181640625,0.002141989767551422,-0.003821791149675846,0.002175917150452733
1733699256188567800,1.13456787109375,0.001482325023971498,-0.0022880765609443188,0.0029389127157628536
1733699256198523000,1.14452294921875,0.002685030922293663,-0.0026056941132992506,0.0013198599917814136
1733699256208479000,1.15447900390625,0.002342548221349716,-0.0008610573131591082,-0.0012599441688507795
1733699256218433800,1.164433837890625,0.0004360347520560026,-0.0020630124490708113,0.0006482427706941962
1733699256228389600,1.1743896484375,-0.0006278981454670429,0.0015162760391831398,-0.0008681612089276314
1733699256238345000,1.184344970703125,-0.0015309148002415895,0.0036441837437450886,0.0005370185244828463
1733699256248300800,1.19430078125,-0.001437171595171094,0.002699027769267559,0.00036524469032883644
1733699256258256000,1.204255859375,-0.002931388560682535,-0.002393594942986965,0.00022860325407236814
1733699256268212000,1.2142119140625,-0.004071487579494715,-0.004532912280410528,0.00005922629497945309
1733699256278166800,1.224166748046875,-0.0045361267402768135,-0.005417474079877138,-0.0002089750487357378
1733699256288123000,1.234122802734375,-0.00254354951903224,-0.004266722127795219,-0.0019725202582776546
1733699256298077700,1.24407763671875,-0.0018435699166730046,-0.0034254437778145075,-0.00016845273785293102
1733699256308034000,1.254033935546875,0.0009812450734898448,-0.0018552439287304878,-0.00040414254181087017
1733699256317988900,1.26398876953125,0.0010063792578876019,-0.002556201536208391,-0.000715956324711442
1733699256327944700,1.27394482421875,0.0032958986703306437,-0.005067295860499144,-0.002538889879360795
1733699256337900000,1.283900146484375,0.004526977427303791,-0.008877999149262905,0.00020066136494278908
1733699256347856000,1.29385595703125,0.005189305637031794,-0.011152339167892933,-0.00045980256982147694
1733699256357810700,1.303810791015625,0.004984918981790543,-0.01116893533617258,-0.0013878396712243557
1733699256367766800,1.313766845703125,0.003803274128586054,-0.009153720922768116,-0.00002110539935529232
1733699256377721900,1.323721923828125,0.004019767977297306,-0.007833424024283886,-0.0007657937239855528
1733699256387678000,1.333677978515625,0.0011187862837687135,-0.005656289402395487,-0.0009948257356882095
1733699256397632800,1.3436328125,0.0016619439702481031,-0.005285912659019232,-0.0015085188206285238
1733699256407588900,1.3535888671875,0.00495920330286026,-0.004376176744699478,-0.0005380630027502775
1733699256417544000,1.3635439453125,0.002683127298951149,-0.0038815592415630817,0.00007744855247437954
1733699256427499800,1.373499755859375,0.005014458205550909,-0.0015259929932653904,0.0016420555766671896
1733699256437454800,1.383454833984375,0.0020980918779969215,0.0006541127804666758,0.002041826955974102
1733699256447411000,1.393410888671875,0.0030845263972878456,0.0011372101726010442,0.0008865477284416556
1733699256457365800,1.40336572265625,-0.0005400534719228745,0.0009275072952732444,0.0003674327163025737
1733699256467321900,1.41332177734375,-0.0009626970859244466,0.0013533467426896095,-0.0001071426086127758
1733699256477277000,1.42327685546875,-0.0022660742979496717,0.0036419841926544905,-0.0006791334599256516
1733699256487233000,1.43323291015625,-0.002329990267753601,0.006209804210811853,-0.000168871833011508
1733699256497187800,1.443187744140625,-0.0020118816755712032,0.007955841720104218,-0.0006488971412181854
1733699256507143700,1.453143798828125,0.0010518188355490565,0.009728708304464817,0.0009442056762054563
1733699256517099000,1.46309912109375,0.0021599833853542805,0.014422348700463772,0.001982238609343767
1733699256527054800,1.473054931640625,0.000221734750084579,0.017126256600022316,0.0030933094676584005
1733699256537010000,1.483010009765625,-0.0019237310625612736,0.01658261939883232,0.0028533984441310167
1733699256546965800,1.4929658203125,-0.004555467050522566,0.0135711170732975,0.0006837211549282074
1733699256556920800,1.5029208984375,-0.006245325785130262,0.006614533718675375,-0.0022184685803949833
1733699256566877000,1.512876953125,-0.006645598914474249,-0.0023866845294833183,-0.0026730699464678764
1733699256576831700,1.522831787109375,-0.004342208616435528,-0.007141394075006247,-0.00389165710657835
1733699256586787800,1.532787841796875,-0.0034346035681664944,-0.011083404533565044,-0.003061283379793167
1733699256596743000,1.542742919921875,-0.0009950040839612484,-0.008730053901672363,-0.002168191596865654
1733699256606698800,1.55269873046875,-0.0017268407391384244,-0.005428267177194357,0.001690196106210351
1733699256616653800,1.56265380859375,-0.0017447666032239795,-0.00020062195835635066,0.0013566005509346724
1733699256626610000,1.57260986328125,0.0009902998572215438,0.006993374787271023,0.004103917628526688
1733699256636564700,1.582564697265625,0.0004596356302499771,0.015830514952540398,0.0027733847964555025
1733699256646520800,1.592520751953125,0.0017813625745475292,0.02540404535830021,0.003015466034412384
1733699256656476000,1.602475830078125,0.0015159489121288061,0.029454419389367104,0.004250849597156048
1733699256666432000,1.612431884765625,0.0011212686076760292,0.025212537497282028,0.0035150181502103806
1733699256676386800,1.62238671875,0.0009506904752925038,0.022219637408852577,0.00274299131706357
1733699256686343000,1.632343017578125,-0.00015984766650944948,0.013602182269096375,0.0020692115649580956
1733699256696298000,1.642298095703125,-0.00017208734061568975,0.006496036425232887,-0.0010152170434594154
1733699256706253800,1.65225390625,-0.0003774169599637389,0.00040671892929822206,-0.00040189106948673725
1733699256716209000,1.662208984375,0.00001705822069197893,-0.004842062946408987,-0.0010315466206520796
1733699256726164700,1.672164794921875,0.0013544976245611906,-0.0033874446526169777,0.00015196215827018023
1733699256736119800,1.682119873046875,0.001029880135320127,-0.0036986698396503925,-0.00030669430270791054
1733699256746076000,1.692075927734375,-0.00048093125224113464,-0.0036294274032115936,-0.0020827564876526594
1733699256756030700,1.70203076171875,-0.0025152191519737244,-0.005952783860266209,-0.002342257183045149
1733699256765986800,1.71198681640625,-0.0013492872240021825,-0.008926735259592533,-0.0026762173511087894
1733699256775942000,1.72194189453125,-0.0022214942146092653,-0.01019982434809208,-0.002263339003548026
1733699256785897700,1.731897705078125,-0.00142574158962816,-0.00703172804787755,0.0004014201695099473
1733699256795852800,1.741852783203125,-0.0006944556953385472,-0.0042917137034237385,0.0005905108992010355
1733699256805809000,1.751808837890625,-0.0011692973785102367,0.002585100708529353,0.0012304685078561306
1733699256815764000,1.761763916015625,0.0010318402200937271,0.0032242187298834324,0.0003073367988690734
1733699256825719800,1.7717197265625,0.0029506476130336523,0.002809298224747181,0.0015073572285473347
1733699256835675000,1.7816748046875,0.0013407716760411859,0.0006033864337950945,0.002654450014233589
1733699256845631000,1.791630859375,0.0025109644047915936,0.0011453396873548627,0.003171902149915695
1733699256855585800,1.801585693359375,0.0016200327081605792,0.0009911712259054184,0.0025451325345784426
1733699256865542000,1.8115419921875,0.0007521085208281875,0.004469526000320911,0.002498527290299535
1733699256875497000,1.8214970703125,-0.002683469792827964,0.007771593052893877,0.0015719709917902946
1733699256885452800,1.831452880859375,-0.00394421024248004,0.010286948643624783,-0.0002363154198974371
1733699256895407900,1.841407958984375,-0.004290255717933178,0.010204937309026718,-0.000615858007222414
1733699256905363700,1.85136376953125,-0.004655108787119389,0.010281103663146496,0.0020917777437716722
1733699256915318800,1.86131884765625,-0.0021474582608789206,0.008036703802645206,0.0009573346469551325
1733699256925275000,1.87127490234375,-0.0009578242315910757,0.006919241510331631,0.0035019852221012115
1733699256935229700,1.881229736328125,0.0008828120771795511,0.00796513445675373,0.002907312475144863
1733699256945185800,1.891185791015625,0.0006905316840857267,0.011126839555799961,0.0034026603680104017
1733699256955140900,1.901140869140625,-0.0008545517921447754,0.014026363380253315,0.0034729470498859882
1733699256965097000,1.911096923828125,-0.00306337745860219,0.017008304595947266,0.004243399482220411
1733699256975051800,1.9210517578125,-0.0056160385720431805,0.01587769389152527,0.0031899698078632355
1733699256985007900,1.9310078125,-0.003887380473315716,0.013624660670757294,0.0028837062418460846
1733699256994963000,1.940962890625,-0.0056846654042601585,0.010750717483460903,0.0010615502251312137
1733699257004918800,1.950918701171875,-0.003272640984505415,0.004872854799032211,0.00012358487583696842
1733699257014873900,1.960873779296875,-0.002056378172710538,0.0025391404051333666,0.0017882408574223518
1733699257024830000,1.970829833984375,-0.0011679476592689753,-0.0016553383320569992,0.0011482832487672567
1733699257034784800,1.98078466796875,-0.00023516977671533823,-0.0026184057351201773,0.00006489874795079231
1733699257044740900,1.990740966796875,-0.000689505017362535,-0.006369201932102442,0.0004910046700388193
1733699257054696000,2.000696044921875,0.004061601124703884,-0.009014171548187733,-0.0006712307222187519
1733699257064651800,2.01065185546875,0.0020205543842166662,-0.011030716821551323,-0.001445411704480648
1733699257074606800,2.02060693359375,0.005043325014412403,-0.012783203274011612,-0.0010254522785544395
1733699257084562700,2.030562744140625,0.003099217312410474,-0.017895139753818512,-0.0029152315109968185
1733699257094518000,2.04051806640625,0.006552292965352535,-0.026340192183852196,-0.002783787902444601
1733699257104473900,2.050473876953125,0.00820398610085249,-0.028941567987203598,-0.0031523695215582848
1733699257114428700,2.0604287109375,0.015301411971449852,-0.032860420644283295,-0.0016359235160052776
1733699257124384800,2.070384765625,0.01968231052160263,-0.03898223116993904,-0.0004995525814592838
1733699257134339800,2.08033984375,0.022242490202188492,-0.04512227326631546,0.0004841980990022421
1733699257144297000,2.090296875,0.026772527024149895,-0.051525045186281204,0.001367568620480597
1733699257154253000,2.100253173828125,0.02882494404911995,-0.050857264548540115,0.0009777029044926167
1733699257164207900,2.110207763671875,0.02671492099761963,-0.051033034920692444,0.0021407052408903837
1733699257174164000,2.1201640625,0.020535461604595184,-0.046473775058984756,0.0014176458353176713
1733699257184119000,2.130119140625,0.012498840689659119,-0.03670370206236839,-0.0007696084212511778
1733699257194075000,2.140074951171875,0.005592385772615671,-0.025724440813064575,0.0010291975922882557
1733699257204030000,2.150030029296875,-0.0009584577055647969,-0.010970263741910458,-0.0009383459109812975
1733699257213985800,2.15998583984375,-0.006844803225249052,0.007826005108654499,0.0008871975587680936
1733699257223940900,2.16994091796875,-0.0072685121558606625,0.017409658059477806,0.0021271654404699802
1733699257233897000,2.17989697265625,-0.010013554245233536,0.026409724727272987,0.00485378410667181
1733699257243851800,2.189851806640625,-0.006999654695391655,0.033931292593479156,0.00798539537936449
1733699257253808000,2.19980810546875,-0.005743503104895353,0.046089641749858856,0.01255395170301199
1733699257263763000,2.209762939453125,-0.003653986845165491,0.06050480157136917,0.014043457806110382
1733699257273719000,2.219718994140625,-0.0067730862647295,0.06842239201068878,0.01237277127802372
1733699257283674000,2.229674072265625,-0.0062159523367881775,0.0804942399263382,0.01087261363863945
1733699257293630000,2.2396298828125,-0.004570995923131704,0.08179237693548203,0.009588543325662613
1733699257303585000,2.2495849609375,-0.0023200924042612314,0.06644964218139648,0.006847884505987167
1733699257313540900,2.259540771484375,0.002007155679166317,0.04021874815225601,0.0022771761287003756
1733699257323496000,2.269495849609375,0.004480433650314808,0.005069816019386053,-0.0034771158825606108
1733699257333452000,2.2794521484375,0.008705577813088894,-0.03281450644135475,-0.009753973223268986
1733699257343406800,2.28940673828125,0.007891449145972729,-0.0712130218744278,-0.011905275285243988
1733699257353363000,2.299363037109375,0.008322946727275848,-0.10676806420087814,-0.009616106748580933
1733699257363318000,2.309318115234375,0.010599949397146702,-0.13258475065231323,-0.009377754293382168
1733699257373273900,2.31927392578125,0.013969337567687035,-0.14523015916347504,-0.013387175276875496
1733699257383229000,2.32922900390625,0.01779523491859436,-0.14279842376708984,-0.011002580635249615
1733699257393185000,2.33918505859375,0.0194062739610672,-0.12616539001464844,-0.010473186150193214
1733699257403140000,2.34914013671875,0.02194506675004959,-0.10220546275377274,-0.00783239584416151
1733699257413096000,2.359095947265625,0.02239871211349964,-0.07723385095596313,-0.003689369885250926
1733699257423051000,2.369051025390625,0.021524397656321526,-0.052914123982191086,-0.0031412916723638773
1733699257433007000,2.379007080078125,0.01693730242550373,-0.029468214139342308,-0.0023949886672198772
1733699257442962000,2.3889619140625,0.011630422435700893,-0.009274262934923172,-0.003298066556453705
1733699257452918000,2.39891796875,0.008453582413494587,-0.0008001552196219563,-0.0018005389720201492
1733699257462873000,2.408873046875,0.0033493670634925365,0.002015338744968176,-0.00173742207698524
1733699257472829000,2.418828857421875,0.0025966789107769728,-0.003650957252830267,-0.0029064430855214596
1733699257482784000,2.428783935546875,0.0028832347597926855,0.001418103463947773,-0.004059591796249151
1733699257492739800,2.43873974609375,0.008180283941328526,0.012882045470178127,-0.004484748933464289
1733699257502695200,2.448695068359375,0.01275026798248291,0.018541529774665833,-0.0017885647248476744
1733699257512651000,2.458651123046875,0.0135357566177845,0.015741830691695213,0.0008462921250611544
1733699257522605800,2.468605712890625,0.01155063696205616,0.004977334290742874,0.000047077424824237823
1733699257532562000,2.47856201171875,0.0034988161642104387,-0.008702902123332024,-0.0019141368102282286
1733699257542517000,2.48851708984375,-0.0016836953582242131,-0.027432648465037346,-0.002820144174620509
1733699257552473000,2.49847314453125,-0.007474821526557207,-0.04123302176594734,-0.006280102301388979
1733699257562428000,2.508427978515625,-0.008461521938443184,-0.04302985593676567,-0.0082553680986166
1733699257572384000,2.518384033203125,-0.0077225989662110806,-0.04523332789540291,-0.01032157801091671
1733699257582339000,2.528339111328125,-0.004271940793842077,-0.039427902549505234,-0.008741258643567562
1733699257592295000,2.538294921875,0.00006593810394406319,-0.04053729400038719,-0.010765868239104748
1733699257602250000,2.54825,-0.004284868016839027,-0.04154157266020775,-0.011101426556706429
1733699257612206000,2.5582060546875,-0.007164706941694021,-0.045271359384059906,-0.013364984653890133
1733699257622161000,2.568160888671875,-0.007750069722533226,-0.04798112437129021,-0.01184751559048891
1733699257632117000,2.578116943359375,-0.004007510840892792,-0.04085918515920639,-0.00506944116204977
1733699257642072000,2.588072021484375,0.0017361287027597427,-0.021337149664759636,0.004607686772942543
1733699257652028200,2.598028076171875,0.008483780547976494,0.0002520314301364124,0.009911904111504555
1733699257661983000,2.60798291015625,0.014264171943068504,0.029648004099726677,0.01643212139606476
1733699257671938800,2.617938720703125,0.020299818366765976,0.049914997071027756,0.017290471121668816
1733699257681894100,2.62789404296875,0.01995387300848961,0.0699254497885704,0.01857917569577694
1733699257691850000,2.63785009765625,0.018040716648101807,0.0802452564239502,0.0200460534542799
1733699257701804800,2.6478046875,0.007853860035538673,0.0686008557677269,0.021534228697419167
1733699257711761000,2.657760986328125,-0.003313041292130947,0.04923488199710846,0.00924773421138525
1733699257721716000,2.667716064453125,-0.010536865331232548,0.03420160338282585,0.0010361430468037724
1733699257731672000,2.677672119140625,-0.013684909790754318,0.02050645276904106,0.0015529559459537268
1733699257741627000,2.687626953125,-0.012258787639439106,0.02307640202343464,0.004721584729850292
1733699257751583000,2.6975830078125,-0.007130208425223827,0.03225424513220787,0.0066386256366968155
1733699257761538000,2.7075380859375,-0.00579436682164669,0.03952706977725029,0.008969157934188843
1733699257771494000,2.717493896484375,-0.0034568491391837597,0.04221397638320923,0.007373221218585968
1733699257781449000,2.727448974609375,-0.003670967184007168,0.03807701915502548,0.004261051304638386
1733699257791405000,2.737405029296875,-0.006231903564184904,0.026915237307548523,0.0015625241212546825
1733699257801360000,2.74735986328125,-0.00518181873485446,0.012146944180130959,-0.0017195555847138166
1733699257811316000,2.75731591796875,-0.007417462300509214,-0.004829755984246731,-0.004940756596624851
1733699257821271000,2.76727099609375,-0.008098699152469635,-0.02044466882944107,-0.008175166323781013
1733699257831227100,2.77722705078125,-0.006611261982470751,-0.028367266058921814,-0.0075396401807665825
1733699257841183000,2.787182861328125,-0.00767199881374836,-0.029884735122323036,-0.006768388673663139
1733699257851137800,2.7971376953125,-0.009881173260509968,-0.027714397758245468,-0.005987795069813728
1733699257861094000,2.807093994140625,-0.010385043919086456,-0.02110709622502327,-0.006345990113914013
1733699257871049000,2.817049072265625,-0.007934240624308586,-0.011763099581003189,-0.00511493906378746
1733699257881005000,2.827005126953125,-0.004077184945344925,-0.0034340638667345047,-0.00040247547440230846
1733699257890960000,2.8369599609375,-0.0025656409561634064,0.00008634274126961827,0.00012704648543149233
1733699257900916000,2.846916015625,0.0004535845946520567,-0.0034897502046078444,0.001229328801855445
1733699257910871000,2.85687109375,0.0040092808194458485,-0.0022966978140175343,0.0004476378671824932
1733699257920827000,2.866826904296875,0.004486518912017345,0.0015158836031332612,0.00047187262680381536
1733699257930782000,2.876781982421875,0.0064300112426280975,0.003417240222916007,0.0013499378692358732
1733699257940738000,2.886738037109375,0.002772159641608596,0.000677912903483957,-0.002381417201831937
1733699257950692900,2.89669287109375,0.00011235952842980623,0.00587135786190629,-0.007124283351004124
1733699257960649000,2.90664892578125,-0.0017491900362074375,0.013849123381078243,-0.003981485962867737
1733699257970604000,2.91660400390625,-0.0057473755441606045,0.016589093953371048,-0.0028549060225486755
1733699257980560100,2.92656005859375,-0.007539416663348675,0.018915899097919464,-0.0019294572994112968
1733699257990515000,2.936514892578125,-0.010542619973421097,0.01931130699813366,-0.001517966389656067
1733699258000470800,2.946470703125,-0.01065473910421133,0.019299855455756187,-0.003184572560712695
1733699258010426000,2.956426025390625,-0.011718964204192162,0.0112900510430336,-0.0030732210725545883
1733699258020382000,2.9663818359375,-0.008157518692314625,0.010494031943380833,-0.003929960075765848
1733699258030336800,2.976336669921875,-0.005083410069346428,0.01191758830100298,-0.0005965984892100096
1733699258040292900,2.98629296875,-0.004363824147731066,0.017313152551651,0.0008838527137413621
1733699258050248000,2.996248046875,-0.0019548339769244194,0.022000612691044807,0.0008794638561084867
1733699258060204000,3.0062041015625,-0.001861623371951282,0.028347723186016083,0.00041953602340072393
1733699258070158800,3.016158935546875,-0.005826593842357397,0.03240898624062538,-0.00043375161476433277
1733699258080115200,3.026115234375,-0.010692987591028214,0.03580185025930405,-0.0011221787426620722
1733699258090070000,3.036070068359375,-0.01361832581460476,0.038656946271657944,0.000023321714252233505
1733699258100025900,3.04602587890625,-0.01356666162610054,0.03982580825686455,0.00042732316069304943
1733699258109981200,3.055981201171875,-0.013926494866609573,0.040245309472084045,0.003781894687563181
1733699258119937000,3.06593701171875,-0.009785810485482216,0.04849791154265404,0.006209898740053177
1733699258129891800,3.075891845703125,-0.0044275913387537,0.0534534715116024,0.006790459156036377
1733699258139847200,3.08584716796875,-0.0009431113139726222,0.06007275730371475,0.00789620354771614
1733699258149802000,3.095802001953125,-0.002262216294184327,0.06447183340787888,0.005782419349998236
1733699258159757800,3.1057578125,-0.0007596607320010662,0.06278099119663239,0.004615422338247299
1733699258169713000,3.115712890625,-0.0014807035913690925,0.06027835234999657,0.005358698777854443
1733699258179669000,3.1256689453125,-0.0050882212817668915,0.05627402290701866,0.006983492989093065
1733699258189624000,3.1356240234375,-0.007874644361436367,0.04789857938885689,0.005756874103099108
1733699258199580000,3.145579833984375,-0.009264281950891018,0.0442255474627018,0.00816064327955246
1733699258209535000,3.155534912109375,-0.01367779728025198,0.03937799111008644,0.006730513647198677
1733699258219491000,3.165490966796875,-0.014567026868462563,0.038727112114429474,0.00654143001884222
1733699258229446000,3.17544580078125,-0.01612628996372223,0.03680282458662987,0.005054650362581015
1733699258239402000,3.185402099609375,-0.020921045914292336,0.02784608118236065,0.0017113180365413427
1733699258249357000,3.195357177734375,-0.019108189269900322,0.018150240182876587,0.00007403851486742496
1733699258259313000,3.20531298828125,-0.012938443571329117,0.010003097355365753,-0.0014088095631450415
1733699258269268000,3.21526806640625,-0.005822004750370979,0.00831541046500206,-0.001589201157912612
1733699258279223800,3.225223876953125,-0.003971640951931477,0.009407306089997292,-0.0006778675597161055
1733699258289179000,3.235178955078125,-0.002818409353494644,0.0037804534658789635,0.0007833878044039011
1733699258299135000,3.245135009765625,0.0014399851206690073,0.000019271159544587135,0.0014217474963515997
1733699258309089800,3.25508984375,0.00001910876017063856,-0.004060845356434584,-0.0005078713875263929
1733699258319046100,3.265046142578125,0.004619186744093895,-0.007153840269893408,0.0007249058689922094
1733699258329001000,3.2750009765625,0.009984390810132027,-0.015001109801232815,0.0010980147635564208
1733699258338957000,3.28495703125,0.009815546683967113,-0.021785780787467957,0.002326264511793852
1733699258348912000,3.294912109375,0.010859278962016106,-0.020052118226885796,0.0005469528259709477
1733699258358868000,3.304867919921875,0.012438267469406128,-0.01292097195982933,0.004232767969369888
1733699258368823000,3.314822998046875,0.014926433563232422,0.0010759861906990409,0.0045702215284109116
1733699258378779000,3.32477880859375,0.01697067730128765,0.003996142186224461,0.005675433203577995
1733699258388734000,3.33473388671875,0.016871444880962372,0.001580093870870769,0.006376771721988916
1733699258398690000,3.34468994140625,0.012021295726299286,-0.0071324375458061695,0.005471562966704369
1733699258408644900,3.354644775390625,0.007271631620824337,-0.020271800458431244,0.0026613743975758553
1733699258418601000,3.36460107421875,-0.0027407887391746044,-0.02536136843264103,-0.0013469494879245758
1733699258428556000,3.37455615234375,-0.006834600120782852,-0.025742467492818832,-0.003015686059370637
1733699258438511900,3.384511962890625,-0.010126533918082714,-0.021305108442902565,-0.004711586982011795
1733699258448467000,3.394467041015625,-0.009734082967042923,-0.012589911930263042,-0.001898445188999176
1733699258458422800,3.4044228515625,-0.0037054854910820723,-0.002740210387855768,-0.0017905868589878082
1733699258468379100,3.414379150390625,0.0015040261205285788,0.004027931950986385,0.0001285284524783492
1733699258478334000,3.424333984375,0.0041365609504282475,0.004680140409618616,-0.0010254192166030407
1733699258488290000,3.4342900390625,0.005444990936666727,0.003630433464422822,-0.0005806086119264364
1733699258498245000,3.4442451171875,0.0025354870595037937,-0.0006191726424731314,-0.0018759702797979116
1733699258508201000,3.454200927734375,-0.0020332266576588154,-0.009725361131131649,-0.004934706259518862
1733699258518156000,3.464156005859375,-0.007088173180818558,-0.019160941243171692,-0.0034651742316782475
1733699258528111900,3.47411181640625,-0.00779696274548769,-0.02626793645322323,-0.005192957818508148
1733699258538067000,3.48406689453125,-0.00756952865049243,-0.028302857652306557,-0.0028302015271037817
1733699258548023000,3.49402294921875,-0.007045746315270662,-0.021250050514936447,-0.0023719673044979572
1733699258557977900,3.503977783203125,-0.0053314692340791225,-0.01383980456739664,-0.000046495115384459496
1733699258567934000,3.513933837890625,-0.0026744527276605368,-0.0052325790748000145,0.002605950692668557
1733699258577889000,3.523888916015625,-0.00006641913205385208,0.004049336072057486,0.005511459428817034
1733699258587844900,3.533844970703125,0.002064477652311325,0.012335481122136116,0.00512481015175581
1733699258597800000,3.543800048828125,0.005634711589664221,0.013851352035999298,0.0038997558876872063
1733699258607755800,3.553755859375,0.005603203549981117,0.010557147674262524,0.004855052568018436
1733699258617711000,3.563711181640625,0.0072032310999929905,0.004618031904101372,0.002855285070836544
1733699258627667000,3.5736669921875,0.009491786360740662,-0.0018334898632019758,0.0032052663154900074
1733699258637621800,3.583621826171875,0.009329866617918015,-0.01080088596791029,0.001396181178279221
1733699258647578000,3.593578125,0.009142052382230759,-0.021675147116184235,-0.00046280096285045147
1733699258657533000,3.603532958984375,0.006385413929820061,-0.02880150079727173,-0.00152992969378829
1733699258667489000,3.613489013671875,0.0031731524504721165,-0.035546038299798965,-0.0034046745859086514
1733699258677444000,3.623444091796875,-0.0006809743354097009,-0.03998366370797157,-0.003676583059132099
1733699258687400000,3.63339990234375,-0.0028698481619358063,-0.04443548992276192,-0.002805700758472085
1733699258697355000,3.64335498046875,-0.006588952615857124,-0.04486372694373131,-0.002721544587984681
1733699258707310800,3.653310791015625,-0.0022450352553278208,-0.044405169785022736,-0.0019147461280226707
1733699258717266200,3.66326611328125,-0.0018436969257891178,-0.04281073436141014,-0.001577057410031557
1733699258727222000,3.673221923828125,0.0028311549685895443,-0.038065288215875626,-0.00003358512185513973
1733699258737176800,3.6831767578125,0.00854044035077095,-0.029602298513054848,0.002074040472507477
1733699258747133000,3.6931328125,0.012297448702156544,-0.015670644119381905,0.005582553334534168
1733699258757088000,3.703087890625,0.016438663005828857,-0.0010323128663003445,0.008065418340265751
1733699258767044000,3.713044189453125,0.013758435845375061,0.00694721844047308,0.00657602958381176
1733699258776999000,3.7229990234375,0.01489187777042389,0.010726243257522583,0.0071928175166249275
1733699258786954800,3.732954833984375,0.010369481518864632,0.01514641847461462,0.006274580955505371
1733699258796910000,3.74291015625,0.0048812394961714745,0.019050877541303635,0.0053866831585764885
1733699258806866000,3.752865966796875,0.0007997022476047277,0.020338336005806923,0.003831899492070079
1733699258816820700,3.76282080078125,-0.004510641098022461,0.023187119513750076,0.001651303144171834
1733699258826777000,3.772777099609375,-0.010944386944174767,0.027708761394023895,0.00023851695004850626
1733699258836732000,3.78273193359375,-0.01331113837659359,0.0330960676074028,0.00008591776713728905
1733699258846688000,3.79268798828125,-0.01733120158314705,0.028082825243473053,-0.0012113701086491346
1733699258856643000,3.80264306640625,-0.01816450245678425,0.018351634964346886,-0.0039051577914506197
1733699258866599200,3.81259912109375,-0.014418009668588638,0.0036031161434948444,-0.005175518803298473
1733699258876554000,3.822553955078125,-0.008044000715017319,-0.01406855508685112,-0.008241083472967148
1733699258886509800,3.832509765625,-0.0006417466793209314,-0.028927117586135864,-0.005190785974264145
1733699258896465200,3.842465087890625,0.0042938897386193275,-0.039044201374053955,-0.0039673298597335815
1733699258906421000,3.8524208984375,0.0048057097010314465,-0.04441467300057411,-0.0035246580373495817
1733699258916375800,3.862375732421875,0.005180416628718376,-0.04018930345773697,-0.0016300855204463005
1733699258926332000,3.872331787109375,0.003910272382199764,-0.027193482965230942,-0.0008090119808912277
1733699258936287000,3.882286865234375,0.004316937178373337,-0.012796967290341854,0.0012775748036801815
1733699258946243000,3.8922431640625,0.005321789998561144,-0.0023204274475574493,0.0025047920644283295
1733699258956198000,3.902197998046875,0.009208407253026962,0.009691228158771992,0.00449390709400177
1733699258966154000,3.912154052734375,0.009274515323340893,0.01670921966433525,0.002921760082244873
1733699258976109000,3.922109130859375,0.008939489722251892,0.021680543199181557,0.005527130328118801
1733699258986065000,3.93206494140625,0.005285096354782581,0.022884584963321686,0.0055679697543382645
1733699258996020000,3.94202001953125,0.003029665444046259,0.01772337779402733,0.0020954736974090338
1733699259005976000,3.95197607421875,-0.0009133675484918058,0.012880348600447178,-0.0011586102191358805
1733699259015932200,3.96193212890625,-0.006479107774794102,0.0038564938586205244,-0.002461428754031658
1733699259025887000,3.971886962890625,-0.010901963338255882,-0.0015616232994943857,-0.005792318843305111
1733699259035842800,3.9818427734375,-0.01350786630064249,-0.005449838936328888,-0.005466880276799202
1733699259045798100,3.991798095703125,-0.013187243603169918,-0.00555353332310915,-0.005549588240683079
1733699259055754000,4.00175390625,-0.012775784358382225,-0.00392927136272192,-0.005419093184173107
1733699259065708800,4.011708740234375,-0.008811483159661293,-0.0039536599069833755,-0.0029688775539398193
1733699259075665000,4.021664794921875,-0.002480350434780121,-0.009164934046566486,-0.0021696630865335464
1733699259085620000,4.031619873046875,0.0036832881160080433,-0.013376877643167973,-0.0026774646248668432
1733699259095576000,4.041576171875,0.009020795114338398,-0.018468309193849564,-0.0005288263782858849
1733699259105531000,4.05153076171875,0.013660741969943047,-0.024367909878492355,0.0018096240237355232
1733699259115487000,4.061487060546875,0.016246406361460686,-0.026652367785573006,0.00016751885414123535
1733699259125442000,4.071442138671875,0.014727974310517311,-0.024595357477664948,0.0026347129605710506
1733699259135398000,4.08139794921875,0.011993706226348877,-0.01569906808435917,0.0024243230000138283
1733699259145353700,4.091353759765625,0.00555102713406086,-0.004036621190607548,0.0010978362988680601
1733699259155309800,4.101309814453125,0.004564592614769936,0.009022455662488937,0.0010831889230757952
1733699259165265000,4.111264892578125,-0.0011179172433912754,0.014727938920259476,0.0009372347267344594
1733699259175220700,4.121220703125,0.0007201964035630226,0.016483759507536888,-0.0014891712926328182
1733699259185175800,4.13117578125,-0.0001761221792548895,0.010852226056158543,-0.0028864899650216103
1733699259195132000,4.1411318359375,0.0013828923692926764,0.00044805428478866816,-0.0038404343649744987
1733699259205087000,4.1510869140625,0.003529401496052742,-0.01071140170097351,-0.005326124839484692
1733699259215042800,4.161042724609375,0.003242312464863062,-0.019892916083335876,-0.006527210120111704
1733699259224997600,4.17099755859375,0.004326177760958672,-0.02192538231611252,-0.004114332143217325
1733699259234954000,4.1809541015625,0.0032776917796581984,-0.01965397223830223,-0.0029425411485135555
1733699259244908800,4.19090869140625,0.002119195181876421,-0.012541023083031178,-0.001989100594073534
1733699259254865000,4.200864990234375,0.000762580893933773,-0.00301036867313087,-0.003340655006468296
1733699259264820000,4.210820068359375,0.0008068105671554804,0.004736066330224276,0.00033838546369224787
1733699259274775800,4.22077587890625,0.004234831314533949,0.007045559585094452,-0.00030876253731548786
1733699259284731000,4.23073095703125,0.004923791158944368,0.008153434842824936,0.0009498472791165113
1733699259294686700,4.240686767578125,0.0041099293157458305,0.006112121976912022,0.0020036601927131414
1733699259304641800,4.250641845703125,0.002410300076007843,0.009668507613241673,0.0003261349629610777
1733699259314598000,4.260597900390625,-0.0012800423428416252,0.01464462373405695,0.001567967003211379
1733699259324552700,4.270552734375,-0.003424358554184437,0.021169142797589302,0.0009757756488397717
1733699259334508800,4.2805087890625,-0.014161425642669201,0.02092732861638069,0.002431992208585143
1733699259344464000,4.2904638671875,-0.014689160510897636,0.02850506082177162,-0.005859897471964359
1733699259354420000,4.300419921875,-0.01428862102329731,0.031170085072517395,-0.002383939456194639
1733699259364374800,4.310374755859375,-0.008643067441880703,0.03186476230621338,0.00005021062679588795
1733699259374331000,4.320330810546875,-0.0033566930796951056,0.026003943756222725,0.002580480184406042
1733699259384286000,4.330285888671875,-0.0012069705408066511,0.020209817215800285,0.0017038299702107906
1733699259394241800,4.34024169921875,0.002408537082374096,0.00828950759023428,0.00005613220855593681
1733699259404196900,4.35019677734375,0.004513622261583805,-0.0037343143485486507,-0.0004765747580677271
1733699259414153000,4.360153076171875,0.0038861811626702547,-0.010386624373495579,-0.0009234531316906214
1733699259424107800,4.370107666015625,0.0022060938645154238,-0.011546445079147816,0.0005804761312901974
1733699259434064000,4.38006396484375,0.0017917060758918524,-0.01076427474617958,-0.0010579004883766174
1733699259444019000,4.39001904296875,0.002166434656828642,-0.011684831231832504,-0.0004092713352292776
1733699259453974800,4.399974853515625,0.0008007654687389731,-0.012346893548965454,-0.0014694759156554937
1733699259463929900,4.409929931640625,0.0011610109359025955,-0.012870357371866703,0.0000630146823823452
1733699259473885700,4.4198857421875,-0.00005125987809151411,-0.018032629042863846,-0.0017308907117694616
1733699259483841000,4.429841064453125,0.004563812166452408,-0.01774219051003456,-0.0030977323185652494
1733699259493796900,4.439796875,0.004601628985255957,-0.019133426249027252,-0.004782182164490223
1733699259503751700,4.449751708984375,0.004552914295345545,-0.018605222925543785,-0.005619863048195839
1733699259513707800,4.459707763671875,0.007192372810095549,-0.018912019208073616,-0.004260052926838398
1733699259523662800,4.469662841796875,0.00688412319868803,-0.015732554718852043,-0.004901799838989973
1733699259533619000,4.479618896484375,0.0062843794003129005,-0.013177252374589443,-0.005508201662451029
1733699259543574800,4.48957470703125,0.003355639521032572,-0.006052806042134762,-0.003885100595653057
1733699259553529900,4.49952978515625,0.001991035882383585,0.0015550465323030949,-0.0037876288406550884
1733699259563486000,4.50948583984375,-0.0015783588169142604,0.0068456255830824375,-0.0018379825633019209
1733699259573440800,4.519440673828125,-0.004001302644610405,0.009551131166517735,-0.00392883038148284
1733699259583396900,4.52939697265625,-0.006272036582231522,0.011472783982753754,-0.0029100964311510324
1733699259593352000,4.53935205078125,-0.008721612393856049,0.01481611654162407,-0.004459789954125881
1733699259603307800,4.549307861328125,-0.015224231407046318,0.014364809729158878,-0.005444210954010487
1733699259613262800,4.559262939453125,-0.01901737041771412,0.01181749626994133,-0.004291594959795475
1733699259623218700,4.56921875,-0.019632646813988686,0.004599936306476593,-0.004977157339453697
1733699259633174000,4.579174072265625,-0.0188177190721035,0.0018861753633245826,-0.004055969882756472
1733699259643129900,4.5891298828125,-0.019196193665266037,0.0034031677059829235,-0.0029200788121670485
1733699259653084700,4.599084716796875,-0.01717565394937992,0.009934570640325546,-0.003644458716735244
1733699259663040800,4.609040771484375,-0.017369285225868225,0.018201442435383797,-0.0028663459233939648
1733699259672995800,4.618995849609375,-0.017018813639879227,0.025395439937710762,-0.0012918852735310793
1733699259682952000,4.628951904296875,-0.012693204917013645,0.026329129934310913,0.0026722722686827183
1733699259692906800,4.63890673828125,-0.008363437838852406,0.028913727030158043,0.004649403039366007
1733699259702862800,4.64886279296875,-0.004786546342074871,0.033565208315849304,0.009063592180609703
1733699259712818000,4.65881787109375,-0.0030453717336058617,0.04135015979409218,0.009246817789971828
1733699259722773800,4.668773681640625,-0.002851432655006647,0.054971203207969666,0.00934332050383091
1733699259732728800,4.678728759765625,-0.006128984969109297,0.07226576656103134,0.0098250862210989
1733699259742685000,4.688684814453125,-0.011578259989619255,0.08863554894924164,0.011496552266180515
1733699259752639700,4.6986396484375,-0.020225543528795242,0.10150021314620972,0.01031970139592886
1733699259762595800,4.708595947265625,-0.026473525911569595,0.10554826259613037,0.00890219584107399
1733699259772551000,4.718551025390625,-0.028325220569968224,0.10557649284601212,0.005725311115384102
1733699259782507000,4.728507080078125,-0.02395450510084629,0.09911057353019714,0.0024353256449103355
1733699259792461800,4.7384619140625,-0.014434502460062504,0.08083915710449219,-0.00042650732211768627
1733699259802417700,4.748417724609375,-0.005033134017139673,0.06030849739909172,0.000737635069526732
1733699259812373000,4.758373046875,0.003141971305012703,0.041693270206451416,0.0008201930904760957
1733699259822328800,4.768328857421875,0.002523238305002451,0.03789198771119118,0.002005141694098711
1733699259832283600,4.77828369140625,-0.0066108712926507,0.043775442987680435,0.005242479965090752
1733699259842239700,4.78823974609375,-0.021819427609443665,0.050679758191108704,0.00806379970163107
1733699259852194800,4.79819482421875,-0.03128856420516968,0.05371043458580971,0.008126117289066315
1733699259862151000,4.80815087890625,-0.04024175927042961,0.049352310597896576,0.003961179405450821
1733699259872105700,4.818105712890625,-0.037488050758838654,0.03891777992248535,-0.0024921928998082876
1733699259882062000,4.82806201171875,-0.028343740850687027,0.024846578016877174,-0.004352697636932135
1733699259892017000,4.838016845703125,-0.013311794027686119,0.010055647231638432,-0.0067620594054460526
1733699259901972700,4.84797265625,-0.0012102676555514336,-0.004428669810295105,-0.003991648089140654
1733699259911928000,4.857927978515625,0.010682344436645508,-0.017127687111496925,-0.0010384686756879091
1733699259921884000,4.8678837890625,0.020099587738513947,-0.03215835988521576,0.0022289096377789974
1733699259931838700,4.877838623046875,0.026818476617336273,-0.04971391707658768,0.004443327896296978
1733699259941794800,4.887794921875,0.03996000811457634,-0.06777597963809967,0.014078515581786633
1733699259951750000,4.89775,0.04741712287068367,-0.07034939527511597,0.010834519751369953
1733699259961706000,4.9077060546875,0.04299572855234146,-0.06070033833384514,0.007195513695478439
1733699259971660800,4.917660888671875,0.03336627036333084,-0.05528905987739563,0.006953432224690914
1733699259981616600,4.92761669921875,0.01757032424211502,-0.05437556654214859,0.007542972452938557
1733699259991572000,4.937572021484375,-0.00281910365447402,-0.05462696775794029,0.005190602503716946
1733699260001527800,4.94752783203125,-0.019488506019115448,-0.03325154632329941,0.0004486821126192808
1733699260011483000,4.95748291015625,-0.032514024525880814,0.0002480928669683635,0.0004622642882168293
1733699260021438700,4.967438720703125,-0.037650708109140396,0.01581169292330742,0.00516244862228632
1733699260031393800,4.977393798828125,-0.03297153487801552,0.01966315694153309,0.010022450238466263
1733699260041350000,4.987349853515625,-0.027209235355257988,0.012256495654582977,0.012320468202233315
1733699260051305700,4.9973056640625,-0.017735572531819344,-0.011488248594105244,0.011716196313500404
1733699260061261000,5.007260986328125,-0.005206671077758074,-0.03649475798010826,0.01008910033851862
1733699260071217000,5.017216796875,0.004988175816833973,-0.0510217659175396,0.0024660686030983925
1733699260081171700,5.027171630859375,0.01266714558005333,-0.060389306396245956,0.0014668300282210112
1733699260091127800,5.0371279296875,0.019510937854647636,-0.06173793599009514,0.002251663478091359
1733699260101083000,5.047082763671875,0.02263200655579567,-0.0559471994638443,0.0022446855437010527
1733699260111039000,5.0570390625,0.02052890695631504,-0.04455605894327164,0.004077206365764141
1733699260120993800,5.066993896484375,0.016538245603442192,-0.030654750764369965,0.000925866886973381
1733699260130949600,5.07694970703125,0.013802912086248398,-0.01733202114701271,0.0009564933134242892
1733699260140904700,5.08690478515625,0.009242660365998745,-0.005822735372930765,0.0037788068875670433
1733699260150860500,5.096860595703125,0.0069201174192130566,0.0027806065045297146,0.004865109920501709
1733699260160815400,5.1068154296875,0.00518242409452796,0.006017256528139114,0.0049048541113734245
1733699260170771700,5.116771728515625,0.007521212566643953,0.007349370047450066,0.004677420016378164
1733699260180726500,5.1267265625,0.00999450869858265,0.00888532679527998,0.007323866710066795
1733699260190682600,5.1366826171875,0.014567156322300434,0.011195086874067783,0.005558190401643515
1733699260200637700,5.1466376953125,0.010783419013023376,0.009908386506140232,0.0031410842202603817
1733699260210593800,5.15659375,0.0057694860734045506,0.008043374866247177,-0.0029224008321762085
1733699260220548600,5.166548583984375,-0.0012919653672724962,-0.00004453188739717007,-0.0037784993182867765
1733699260230504400,5.17650439453125,-0.010790661908686161,-0.01692764274775982,-0.006835009902715683
1733699260240459800,5.186459716796875,-0.01628742553293705,-0.03818340599536896,-0.010533252730965614
1733699260250415600,5.19641552734375,-0.01430044136941433,-0.058329954743385315,-0.01086401753127575
1733699260260370400,5.206370361328125,-0.008190309628844261,-0.06554904580116272,-0.010471789166331291
1733699260270326500,5.216326416015625,-0.004192905500531197,-0.05869273468852043,-0.008129006251692772
1733699260280281600,5.226281494140625,0.0022308831103146076,-0.042062174528837204,-0.003271104535087943
1733699260290237700,5.23623779296875,0.0028668460436165333,-0.022272493690252304,-0.0008534865919500589
1733699260300192500,5.246192626953125,0.0058387708850204945,-0.003673537401482463,0.0033818669617176056
1733699260310148400,5.2561484375,0.005705080460757017,0.0045668152160942554,0.0030542982276529074
1733699260320103700,5.266103759765625,0.005041726864874363,0.004660502076148987,0.00046565174125134945
1733699260330059500,5.2760595703125,0.003320526098832488,0.00012194301234558225,-0.0014752601273357868
1733699260340014600,5.2860146484375,0.0036141311284154654,-0.004210682585835457,-0.0006904143374413252
1733699260349970700,5.295970703125,0.001987472176551819,-0.0053337374702095985,-0.00009067053906619549
1733699260359925500,5.305925537109375,0.0001243437873199582,-0.0026353118009865284,0.0027113037649542093
1733699260369881600,5.315881591796875,0.0009488584473729134,-0.0007005250663496554,0.0027456586249172688
1733699260379836700,5.325836669921875,0.00117854168638587,0.006813948508352041,0.00144347851164639
1733699260389792800,5.335792724609375,0.000013941200450062752,0.011360498145222664,0.0018623936921358109
1733699260399747600,5.34574755859375,-0.0020042811520397663,0.014379567466676235,0.0009735374478623271
1733699260409703400,5.355703369140625,-0.0021164000499993563,0.015854427590966225,0.002562113106250763
1733699260419658800,5.36565869140625,-0.00268365116789937,0.009516091085970402,-0.0003094866406172514
1733699260429614600,5.375614501953125,-0.00019039970356971025,0.007151203230023384,0.00002607167698442936
1733699260439569400,5.3855693359375,0.0016420793253928423,0.005867362953722477,0.0022567021660506725
1733699260449525500,5.395525390625,0.00291507039219141,0.011428309604525566,0.0030521885491907597
1733699260459480600,5.40548046875,0.004261564463376999,0.016117336228489876,0.0022974484600126743
1733699260469436700,5.415436767578125,0.0022034733556210995,0.02004816383123398,0.0006926277419552207
1733699260479391500,5.4253916015625,-0.0019773002713918686,0.021722575649619102,-0.002174339722841978
1733699260489347600,5.43534765625,-0.005231150425970554,0.018556876108050346,-0.0016076192259788513
1733699260499302700,5.445302734375,-0.006997563876211643,0.013133657164871693,0.00020422495435923338
1733699260509258500,5.455258544921875,-0.006760809104889631,0.010509910993278027,0.0023086548317223787
1733699260519213600,5.465213623046875,-0.005963991396129131,0.013424208387732506,0.0032295759301632643
1733699260529169700,5.475169677734375,-0.002847293857485056,0.02248215302824974,0.001815970055758953
1733699260539124500,5.48512451171875,-0.004380230791866779,0.03168380632996559,0.0014142158906906843
1733699260549080600,5.49508056640625,-0.003200983162969351,0.03823225200176239,0.003261118195950985
1733699260559036400,5.505036376953125,-0.006070722825825214,0.039232414215803146,0.0020666695199906826
1733699260568991700,5.51499169921875,-0.010130445472896099,0.036451805382966995,0.003262694925069809
1733699260578947600,5.524947509765625,-0.01117418147623539,0.03537675738334656,0.0021579836029559374
1733699260588902400,5.53490234375,-0.01307621132582426,0.02811751328408718,0.0015758166555315256
1733699260598858500,5.5448583984375,-0.01064177043735981,0.02127843163907528,0.0010528909042477608
1733699260608813600,5.5548134765625,-0.008804455399513245,0.0074470387771725655,-0.0016297113616019487
1733699260618769700,5.564769775390625,-0.003952340688556433,-0.001042600953951478,-0.0072271013632416725
1733699260628724500,5.574724365234375,0.0028951792046427727,-0.00458513805642724,-0.004737578332424164
1733699260638680600,5.5846806640625,0.007431812584400177,-0.004600093699991703,-0.0011498637031763792
1733699260648635600,5.5946357421875,0.010214016772806644,-0.0017608973430469632,0.005019349046051502
1733699260658591500,5.604591552734375,0.010814621113240719,0.0053188917227089405,0.007327872794121504
1733699260668546600,5.614546630859375,0.0017830429133027792,0.013882286846637726,0.005593089386820793
1733699260678502700,5.624502685546875,-0.005469013936817646,0.019447775557637215,0.003488573245704174
1733699260688457500,5.63445751953125,-0.01247232872992754,0.0212792307138443,0.0023681814782321453
1733699260698413600,5.64441357421875,-0.01544941496104002,0.021189257502555847,-0.0012192667927592993
1733699260708368600,5.65436865234375,-0.016410283744335175,0.012838915921747684,-0.0008922307752072811
1733699260718324700,5.66432470703125,-0.011105982586741447,0.0015962549950927496,-0.002678966848179698
1733699260728279600,5.674279541015625,-0.004944227170199156,-0.01202421635389328,-0.004188179969787598
1733699260738235400,5.6842353515625,0.004078215919435024,-0.02491220459342003,-0.002346497029066086
1733699260748190700,5.694190673828125,0.006860154680907726,-0.028033962473273277,-0.0012836293317377567
1733699260758146600,5.704146484375,0.008308996446430683,-0.020588157698512077,0.0008436829084530473
1733699260768101600,5.7141015625,0.006919625215232372,-0.004718379583209753,0.0026226744521409273
1733699260778057500,5.724057373046875,0.0029789861291646957,0.010379023849964142,0.003737153485417366
1733699260788012500,5.734012451171875,0.0001850638072937727,0.024117739871144295,0.005234382580965757
1733699260797968600,5.74396875,0.0006538376910611987,0.03107983060181141,0.004496696870774031
1733699260807923500,5.75392333984375,0.0033215261064469814,0.030087005347013474,0.0018508464563637972
1733699260817879600,5.763879638671875,0.0029070000164210796,0.023566579446196556,-0.0001805147621780634
1733699260827834600,5.773834716796875,0.005708379205316305,0.013774934224784374,-0.00013603991828858852
1733699260837790500,5.78379052734375,0.0030675467569381,-0.0020811916328966618,-0.0008921448606997728
1733699260847745500,5.79374560546875,-0.003840160556137562,-0.01578262262046337,-0.003653576597571373
1733699260857701600,5.80370166015625,-0.0033975429832935333,-0.01835736632347107,-0.004734020680189133
1733699260867656700,5.81365673828125,-0.0052071609534323215,-0.008040547370910645,-0.003102035727351904
1733699260877612500,5.823612548828125,-0.006328658200800419,0.009934782050549984,0.0009015484247356653
1733699260887567600,5.833567626953125,-0.006476996466517448,0.02661229483783245,0.002310626907274127
1733699260897523700,5.843523681640625,-0.00411782693117857,0.03509918600320816,0.0023995644878596067
1733699260907478500,5.853478515625,-0.0047175707295536995,0.037722934037446976,0.0028368555940687656
1733699260917434600,5.8634345703125,-0.004466722719371319,0.030019106343388557,0.001206851564347744
1733699260927389700,5.8733896484375,-0.0018706731498241425,0.016576269641518593,0.0005245497450232506
1733699260937345500,5.883345458984375,0.0008715870790183544,0.004578970838338137,0.0005691987462341785
1733699260947300600,5.893300537109375,0.00347136496566236,-0.008376242592930794,-0.0012244402896612883
1733699260957256400,5.90325634765625,0.0026757747400552034,-0.017355317249894142,0.00007390067912638187
1733699260967211500,5.91321142578125,0.0036835146602243185,-0.022370848804712296,-0.0021674158051609993
1733699260977167600,5.923167724609375,0.0023155510425567627,-0.01992558129131794,-0.001461106352508068
1733699260987122400,5.933122314453125,0.0012849074555560946,-0.01950187236070633,-0.0019561881199479103
1733699260997078800,5.943078857421875,0.0019386117346584797,-0.017601126804947853,-0.0023482441902160645
1733699261007033600,5.95303369140625,-0.0002441151300445199,-0.0119602857157588,-0.0008576731197535992
1733699261016989700,5.96298974609375,0.0017228741198778152,-0.007892938330769539,0.0005941326962783933
1733699261026945500,5.972945556640625,0.0017335268203169107,-0.001244090497493744,0.0014277021400630474
1733699261036900600,5.982900634765625,0.00651744706556201,0.0019851201213896275,0.0009292245376855135
1733699261046856700,5.992856689453125,0.006231690291315317,0.0027768779546022415,0.003244843101128936
1733699261056811500,6.0028115234375,0.006357629783451557,0.0026737432926893234,0.0016130688600242138
1733699261066767600,6.012767578125,0.004064115695655346,0.0007746430928818882,0.002124662045389414
1733699261076722700,6.02272265625,0.0019998643547296524,0.002566725015640259,0.0016531551955267787
1733699261086678500,6.032678466796875,0.0006967796944081783,0.00141544034704566,0.000371642061509192
1733699261096633600,6.042633544921875,-0.003192583564668894,0.0029024092946201563,-0.0010424754582345486
1733699261106589400,6.05258935546875,-0.004606721922755241,-0.0028833081014454365,-0.001558063318952918
1733699261116544500,6.06254443359375,-0.004669099114835262,-0.008747909218072891,-0.0017175956163555384
1733699261126500600,6.07250048828125,-0.005463520064949989,-0.011262199841439724,-0.004613250494003296
1733699261136455400,6.082455322265625,-0.0037125812377780676,-0.013190440833568573,-0.0015811265911906958
1733699261146410800,6.09241064453125,-0.002765827579423785,-0.011978169903159142,-0.0006218559574335814
1733699261156365600,6.102365478515625,0.003145433496683836,-0.011250637471675873,0.00011978170368820429
1733699261166321700,6.11232177734375,0.0025544781237840652,-0.009593086317181587,0.0005861013196408749
1733699261176276700,6.12227685546875,0.006637269165366888,-0.007409546058624983,0.0023549310863018036
1733699261186232800,6.13223291015625,0.005756561644375324,-0.006054795812815428,0.0013141677482053638
1733699261196187600,6.142187744140625,0.009158525615930557,-0.004873486235737801,-0.0006088674999773502
1733699261206143700,6.152143798828125,0.009444281458854675,-0.004784270189702511,0.0011160619324073195
1733699261216098800,6.162098876953125,0.012428805232048035,-0.005852871108800173,0.0009552277624607086
1733699261226054700,6.1720546875,0.00750808184966445,-0.005412916652858257,0.002325157867744565
1733699261236009500,6.182009521484375,0.007279498036950827,-0.006173111032694578,0.0031051314435899258
1733699261245965800,6.1919658203125,0.005318346433341503,-0.005687616765499115,0.0037408280186355114
1733699261255920600,6.201920654296875,0.0005723667563870549,-0.001585605787113309,0.00204327586106956
1733699261265876700,6.211876708984375,-0.0035933498293161392,0.0008250877144746482,-0.0019834237173199654
1733699261275831800,6.221831787109375,-0.00938691757619381,0.0025368989445269108,-0.002327248454093933
1733699261285788000,6.231787841796875,-0.011050061322748661,0.003323330543935299,-0.004609044641256332
1733699261295742700,6.24174267578125,-0.012012643739581108,0.003954919520765543,-0.004377636127173901
1733699261305698600,6.251698486328125,-0.010767614468932152,0.004331490490585566,-0.0025901219341903925
1733699261315654000,6.26165380859375,-0.010816987603902817,0.0019032475538551807,-0.0034150320570915937
1733699261325609700,6.271609619140625,-0.004852837882936001,0.0021306814160197973,-0.0021596176084131002
1733699261335564500,6.281564453125,0.001397928805090487,0.003138996195048094,-0.0019331530202180147
1733699261345520600,6.291520751953125,0.006949821021407843,0.0045629884116351604,0.001846671337261796
1733699261355475700,6.301475830078125,0.009050317108631134,0.0016905448865145445,0.0021346546709537506
1733699261365431800,6.311431884765625,0.00859970971941948,-0.0019065868109464645,-0.0001604575663805008
1733699261375386600,6.32138671875,0.005094659049063921,-0.005558873526751995,0.0017270094249397516
1733699261385342700,6.3313427734375,0.0027825026772916317,-0.008415380492806435,0.0015211470890790224
1733699261395297800,6.3412978515625,0.001109734526835382,-0.009640924632549286,0.000701033161021769
1733699261405253600,6.351253662109375,-0.0008559446432627738,-0.006135139614343643,0.0003345821751281619
1733699261415208700,6.361208740234375,-0.001966385403648019,-0.0003310461179353297,-0.00038771098479628563
1733699261425164800,6.371164794921875,-0.0021208487451076508,0.0005659065209329128,-0.0004830523394048214
1733699261435119600,6.38111962890625,-0.0031694327481091022,0.0015334328636527061,0.0011905222199857235
1733699261445075700,6.39107568359375,-0.0013702011201530695,-0.0008911089971661568,-0.0012020617723464966
1733699261455031600,6.401031494140625,-0.0010470983106642962,-0.0038820633199065924,-0.0016850633546710014
1733699261464987000,6.41098681640625,0.00007222825661301613,-0.009217706508934498,-0.003102663904428482
1733699261474942700,6.420942626953125,0.0011627115309238434,-0.010237050242722034,-0.001511583337560296
1733699261484897500,6.4308974609375,-0.001887406804598868,-0.00729265995323658,-0.000883876346051693
1733699261494853600,6.440853515625,-0.004499601665884256,-0.0029682209715247154,-0.0011758040636777878
1733699261504808700,6.45080859375,-0.0033640298061072826,0.0012787219602614641,-0.0004964317195117474
1733699261514764800,6.460764892578125,-0.003699793014675379,0.0046782889403402805,-0.00007502362132072449
1733699261524719600,6.4707197265625,-0.00315171480178833,0.003431663615629077,-0.00031071342527866364
1733699261534675700,6.48067578125,0.0012417633552104235,0.0025454056449234486,0.00029951264150440693
1733699261544630800,6.490630859375,0.0016071489080786705,-0.0007790183299221098,0.0006816763198003173
1733699261554586600,6.500586669921875,0.002569532487541437,0.0009132804698310792,0.0023195415269583464
1733699261564541700,6.510541748046875,0.0021327740978449583,-0.00044919265201315284,0.0012646634131669998
1733699261574497800,6.520497802734375,-0.00011370074935257435,0.0009654793539084494,0.0011866772547364235
1733699261584452600,6.53045263671875,-0.004960653837770224,0.0032779022585600615,0.00048093951772898436
1733699261594408700,6.54040869140625,-0.007885688915848732,0.009627549909055233,-0.00066721485927701
1733699261604363800,6.55036376953125,-0.010021011345088482,0.018512653186917305,0.0023552067577838898
1733699261614319900,6.56031982421875,-0.009715666994452477,0.02907651662826538,0.004106929060071707
1733699261624274700,6.570274658203125,-0.010631527751684189,0.03610992804169655,0.0050291819497942924
1733699261634230500,6.58023046875,-0.00866248831152916,0.03886125236749649,0.007077110931277275
1733699261644185900,6.590185791015625,-0.0026868877466768026,0.037014883011579514,0.008106422610580921
1733699261654141700,6.6001416015625,-0.0008783364319242537,0.029666168615221977,0.006455175578594208
1733699261664096800,6.6100966796875,0.0019318312406539917,0.01566779427230358,0.004310532007366419
1733699261674052600,6.620052490234375,0.004764411598443985,0.0015758759109303355,-0.000018136808648705482
1733699261684007700,6.630007568359375,0.0027723670937120914,-0.013735169544816017,-0.0020013926550745964
1733699261693963800,6.6399638671875,0.0031845015473663807,-0.025257952511310577,-0.0020641684532165527
1733699261703918600,6.649918701171875,-0.001232617418281734,-0.0324905663728714,-0.0045385113917291164
1733699261713875000,6.659875,-0.004149540327489376,-0.03507254272699356,-0.0038912377785891294
1733699261723829800,6.669829833984375,-0.004129299893975258,-0.0338464230298996,-0.0041982997208833694
1733699261733785600,6.67978564453125,-0.004883917514234781,-0.0287847351282835,-0.003947504796087742
1733699261743740700,6.68974072265625,-0.004600557032972574,-0.02209913544356823,-0.002365054562687874
1733699261753696800,6.69969677734375,-0.0022497633472085,-0.009727856144309044,-0.00013876915909349918
1733699261763651600,6.709651611328125,0.0014570904895663261,-0.000325033615808934,0.0014042663387954235
1733699261773607700,6.719607666015625,0.0020536170341074467,0.004882680252194405,0.0008419238729402423
1733699261783562800,6.729562744140625,0.0036840043030679226,0.008293922990560532,0.0022640519309788942
1733699261793518800,6.739518798828125,0.002884608693420887,0.007623998448252678,0.002168776234611869
1733699261803473700,6.7494736328125,0.001858759205788374,0.007909223437309265,0.0016971302684396505
1733699261813429800,6.7594296875,-0.002374417847022414,0.007030239328742027,0.00020471587777137756
1733699261823384800,6.769384765625,-0.004523056093603373,0.008934666402637959,0.000741609139367938
1733699261833340700,6.779340576171875,-0.00480492040514946,0.009837492369115353,0.0009785887086763978
1733699261843295700,6.789295654296875,-0.005561790429055691,0.010101411491632462,-0.00021530641242861748
1733699261853251600,6.79925146484375,-0.0016230575274676085,0.008134259842336178,0.001231609727256
1733699261863206700,6.80920654296875,-0.001963942078873515,0.006541689857840538,-0.0001297981943935156
1733699261873162800,6.819162841796875,0.002421013778075576,0.006114827003329992,0.0027627567760646343
1733699261883117600,6.82911767578125,0.0017211351078003645,0.0056498390622437,0.0013595372438430786
1733699261893074000,6.839073974609375,0.0034573511220514774,0.0005416152416728437,0.001394200255163014
1733699261903029800,6.84902978515625,0.002229101490229368,-0.0049950964748859406,0.0010674303630366921
1733699261912984600,6.858984619140625,0.00014270050451159477,-0.006378228776156902,0.0006760535761713982
1733699261922940700,6.868940673828125,-0.00015797035302966833,-0.004568344913423061,-0.00001716730184853077
1733699261932895700,6.878895751953125,0.0005551619688048959,-0.0012876486871391535,-0.0003764352295547724
1733699261942851800,6.888851806640625,-0.0007367375073954463,0.0025646137073636055,0.0010361053282395005
1733699261952806700,6.898806640625,0.000851920573040843,0.006704914849251509,0.0024706413969397545
1733699261962762800,6.9087626953125,-0.00002132984809577465,0.008581378497183323,0.0027028690092265606
1733699261972717800,6.9187177734375,0.0020833038724958897,0.00876191072165966,0.0038334643468260765
1733699261982673700,6.928673583984375,0.0014057954540476203,0.007720348425209522,0.005886228755116463
1733699261992628700,6.938628662109375,0.0023325327783823013,0.0025067476090043783,0.005708563141524792
1733699262002584600,6.94858447265625,-0.0025418507866561413,-0.004330918658524752,0.003265911713242531
1733699262012539600,6.95853955078125,-0.0040434240363538265,-0.007491165306419134,0.0016864122590050101
1733699262022495700,6.968495849609375,-0.002566701266914606,-0.009066425263881683,0.0019260967383161187
1733699262032450600,6.978450439453125,-0.0011772031430155039,-0.012082663364708424,-0.00031485455110669136
1733699262042407000,6.988406982421875,0.0009131119586527348,-0.014611334539949894,0.0014492233749479055
1733699262052361700,6.99836181640625,0.005133034195750952,-0.02246960811316967,0.0003102642949670553
1733699262062317600,7.008317626953125,0.007693397346884012,-0.03369536250829697,0.0024620983749628067
1733699262072273000,7.01827294921875,0.010775206610560417,-0.044219642877578735,0.0020389221608638763
1733699262082228700,7.028228759765625,0.0017377700423821807,-0.06979185342788696,0.004909010604023933
1733699262092183800,7.038183837890625,-0.003910611383616924,-0.0745134949684143,0.000037490157410502434
1733699262102139600,7.0481396484375,-0.007580713834613562,-0.07249535620212555,-0.004509058780968189
1733699262112094700,7.0580947265625,-0.0018606538651511073,-0.048113495111465454,-0.0018406459130346775
1733699262122050800,7.06805078125,0.010557400062680244,-0.02564067766070366,0.0051067424938082695
1733699262132005600,7.078005615234375,0.02550842985510826,-0.017496267333626747,0.007593635004013777
1733699262141962000,7.0879619140625,0.035222310572862625,-0.019412679597735405,0.007629055064171553
1733699262151917000,7.0979169921875,0.0392409972846508,-0.02312335930764675,0.007870187982916832
1733699262161873200,7.107873046875,0.03290081024169922,-0.02570316381752491,0.006020089611411095
1733699262171828000,7.117827880859375,0.024088982492685318,-0.027685169130563736,0.00466865673661232
1733699262181784000,7.1277841796875,0.01086745411157608,-0.030756324529647827,0.001820139936171472
1733699262191739100,7.1377392578125,0.002648735186085105,-0.03156347945332527,-0.0033274765592068434
1733699262201695200,7.1476953125,-0.0029620127752423286,-0.0381217785179615,-0.010217607021331787
1733699262211650000,7.157650146484375,-0.009103718213737011,-0.057870544493198395,-0.008510448038578033
1733699262221606100,7.167606201171875,-0.005140401888638735,-0.0644482895731926,-0.01297763455659151
1733699262231561200,7.177561279296875,-0.0022237866651266813,-0.06492461264133453,-0.011035816743969917
1733699262241517000,7.18751708984375,0.0036167921498417854,-0.057780154049396515,-0.006374752148985863
1733699262251472000,7.197471923828125,0.005123076029121876,-0.0442182719707489,-0.004785910248756409
1733699262261428200,7.20742822265625,0.009318619966506958,-0.03198157995939255,-0.00025613955222070217
1733699262271383000,7.217383056640625,0.007903745397925377,-0.021248746663331985,0.00036882050335407257
1733699262281339100,7.227339111328125,0.007994292303919792,-0.014630258083343506,0.00028013717383146286
1733699262291294200,7.237294189453125,0.006132186856120825,-0.005045626778155565,0.0022421181201934814
1733699262301250000,7.24725,0.005045351106673479,0.0021867197938263416,0.001955029321834445
1733699262311205000,7.257205078125,0.003462349995970726,0.012270933948457241,0.0021586979273706675
1733699262321161000,7.267160888671875,0.0013147767167538404,0.015287229791283607,0.00177946372423321
1733699262331116300,7.2771162109375,-0.0024798207450658083,0.01807682029902935,0.001256407704204321
1733699262341072100,7.287072021484375,-0.00221110787242651,0.019963137805461884,0.002995984395965934
1733699262351027000,7.29702685546875,-0.0030705067329108715,0.018688535317778587,0.0009369142353534698
1733699262360983000,7.306983154296875,-0.004742439370602369,0.01798013411462307,0.0009217342594638467
1733699262370939100,7.316939208984375,-0.005357506684958935,0.013928485102951527,-0.00019819964654743671
1733699262380894200,7.326894287109375,-0.004647241905331612,0.009749186225235462,-0.0008890237659215927
1733699262390850000,7.33685009765625,-0.0037142739165574312,0.004011169541627169,-0.002365297172218561
1733699262400805000,7.34680517578125,0.0002708802931010723,-0.0025710996706038713,-0.0009804533328860998
1733699262410761200,7.35676123046875,0.0013467767275869846,-0.006084440741688013,-0.0019739624112844467
1733699262420716000,7.366716064453125,0.0017742142081260681,-0.006865279749035835,-0.0005544973537325859
1733699262430672100,7.376672119140625,-0.00040696037467569113,-0.006774914916604757,-0.0014867228455841541
1733699262440627200,7.386627197265625,-0.0022522646468132734,-0.008147507905960083,-0.0015879231505095959
1733699262450583000,7.3965830078125,-0.0014857023488730192,-0.007643666584044695,-0.0027108502108603716
1733699262460538000,7.4065380859375,-0.0015038119163364172,-0.009457278996706009,-0.002372096059843898
1733699262470494000,7.416493896484375,-0.0010920872446149588,-0.010251433588564396,-0.002042663050815463
1733699262480449300,7.42644921875,-0.00006756908260285854,-0.009389634244143963,-0.00034862617030739784
1733699262490405000,7.436405029296875,0.0006239337380975485,-0.007127642631530762,-0.0003380782436579466
1733699262500360000,7.44635986328125,0.0012668208219110966,-0.0019840134773403406,0.0019354624673724174
1733699262510316000,7.45631591796875,0.002930476563051343,0.0026894693728536367,0.0016626048600301147
1733699262520271000,7.46627099609375,0.002648713765665889,0.0055142841301858425,0.0008258396992459893
1733699262530227200,7.476227294921875,0.001165251829661429,0.006233984604477882,-0.00019963528029620647
1733699262540182000,7.48618212890625,-0.0007929705316200852,0.004926905035972595,0.00021342094987630844
1733699262550138000,7.49613818359375,0.00020731170661747456,0.0016299232374876738,0.0006170686101540923
1733699262560093200,7.50609326171875,0.00039426563307642937,0.003468303242698312,0.000040494371205568314
1733699262570049000,7.516049072265625,-0.0004396919393911958,0.007101825438439846,-0.0008285988587886095
1733699262580004000,7.526004150390625,-0.004232565872371197,0.009559123776853085,-0.00014203577302396297
1733699262589960200,7.535960205078125,-0.005550280213356018,0.010573377832770348,-0.00019079656340181828
1733699262599915000,7.5459150390625,-0.0015571363037452102,0.008345910347998142,-0.0017053361516445875
1733699262609871000,7.55587109375,0.00034884829074144363,0.005429006647318602,-0.00036065257154405117
1733699262619826200,7.565826171875,0.0021917554549872875,0.002766111632809043,-0.0007079287897795439
1733699262629782300,7.5757822265625,0.0011402358068153262,-0.0011883883271366358,0.0001444207737222314
1733699262639737000,7.585737060546875,0.0009064102778211236,-0.002855527214705944,0.0008983616717159748
1733699262649693000,7.59569287109375,-0.0008203440229408443,-0.008708678185939789,0.00043545104563236237
1733699262659648300,7.605648193359375,-0.00024483492597937584,-0.008202677592635155,-0.00004418427124619484
1733699262669604000,7.61560400390625,-0.0006754463538527489,-0.006221187766641378,0.00018579571042209864
1733699262679559000,7.625558837890625,-0.0015332505572587252,0.0006763991550542414,-0.0008978445548564196
1733699262689515000,7.635514892578125,0.0015319681260734797,0.008162391372025013,-0.00047828955575823784
1733699262699470000,7.645469970703125,0.0017402272205799818,0.012886306270956993,0.0007030887063592672
1733699262709426200,7.65542626953125,0.002254525199532509,0.02020033448934555,0.001638512359932065
1733699262719381000,7.665381103515625,0.001477680983953178,0.022168409079313278,0.0034670387394726276
1733699262729337000,7.675337158203125,0.0007153785554692149,0.020518898963928223,0.0032017510384321213
1733699262739292200,7.685292236328125,0.0016157933278009295,0.017385156825184822,0.0013716266257688403
1733699262749248000,7.695248046875,0.00020450493320822716,0.014518908224999905,0.0011964978184551
1733699262759203000,7.705203125,0.001295868307352066,0.010179286822676659,-0.0004203072749078274
1733699262769159200,7.7151591796875,-0.0012726681306958199,0.00620545819401741,-0.002102913334965706
1733699262779114000,7.725114013671875,-0.0034705749712884426,0.003711940720677376,-0.0022187605500221252
1733699262789070000,7.735070068359375,-0.00535154715180397,0.0015556907746940851,-0.0042616091668605804
1733699262799025200,7.745025146484375,-0.005504678934812546,-0.0020140104461461306,-0.0033026046585291624
1733699262808981200,7.754981201171875,-0.0031790193170309067,-0.0053037116304039955,-0.0034318389371037483
1733699262818936000,7.76493603515625,-0.0037649148143827915,-0.00884917750954628,-0.002728764433413744
1733699262828892000,7.774891845703125,-0.000859673076774925,-0.010302186943590641,-0.002393027301877737
1733699262838848000,7.784847900390625,0.0018013574881479144,-0.01014426164329052,-0.0014284304343163967
1733699262848803000,7.794802978515625,0.0041503687389194965,-0.0054177106358110905,0.0014097995590418577
1733699262858759200,7.80475927734375,0.00505877286195755,-0.0020789054688066244,0.0012537383008748293
1733699262868714000,7.8147138671875,0.0034074238501489162,-0.0016046962700784206,0.003528124652802944
1733699262878670000,7.824670166015625,0.0020843655802309513,-0.00003449642099440098,0.0011541827116161585
1733699262888625200,7.834625244140625,0.001877851551398635,0.0026645194739103317,0.0008969868067651987
1733699262898581000,7.8445810546875,0.001556141534820199,0.0034371025394648314,0.0004945831606164575
1733699262908536300,7.854536376953125,-0.001782253384590149,0.008516199886798859,0.00028744060546159744
1733699262918492200,7.8644921875,-0.002347642555832863,0.017518481239676476,0.0007359170122072101
1733699262928447000,7.874447021484375,-0.0031020340975373983,0.023572776466608047,-0.0014957152307033539
1733699262938403000,7.884403076171875,-0.006778794340789318,0.02461220882833004,-0.0041887033730745316
1733699262948358100,7.894358154296875,-0.0061074718832969666,0.022397492080926895,-0.0054191043600440025
1733699262958314200,7.904314208984375,-0.005457128398120403,0.017219508066773415,-0.0057695768773555756
1733699262968269000,7.91426904296875,-0.009408689104020596,0.010502972640097141,-0.004376883618533611
1733699262978225000,7.924224853515625,-0.017941724509000778,0.0017259928863495588,-0.010051014833152294
1733699262988180200,7.93418017578125,-0.018478697165846825,0.015500507317483425,-0.014346851035952568
1733699262998136000,7.944135986328125,-0.018366312608122826,0.026676727458834648,-0.005355221219360828
1733699263008091000,7.9540908203125,-0.011651149950921535,0.03425528481602669,-0.0004973493050783873
1733699263018047000,7.964046875,-0.004466740880161524,0.035807110369205475,0.001963677816092968
1733699263028002000,7.974001953125,0.0013676299713551998,0.0342082753777504,0.0036026081070303917
1733699263037958100,7.983958251953125,0.008858036249876022,0.03481680527329445,0.003999951295554638
1733699263047913000,7.993912841796875,0.013896611519157887,0.03430913761258125,0.008696425706148148
1733699263057869300,8.003869384765625,0.014238561503589153,0.024678083136677742,0.007447402458637953
1733699263067824000,8.01382421875,0.011654910631477833,0.00713626341894269,0.0024901763536036015
1733699263077780000,8.023780029296875,0.010443970561027527,-0.011682698503136635,-0.003041475545614958
1733699263087735300,8.0337353515625,0.008029012940824032,-0.03197835385799408,-0.00569575559347868
1733699263097691100,8.043691162109376,0.008425291627645493,-0.05160558596253395,-0.007753047160804272
1733699263107646000,8.05364599609375,0.004714855458587408,-0.0681987777352333,-0.009689005091786385
1733699263117602000,8.06360205078125,0.0020333188585937023,-0.07818323373794556,-0.014692551456391811
1733699263127557000,8.07355712890625,-0.00014670449309051037,-0.08479831367731094,-0.01743326336145401
1733699263137513200,8.08351318359375,-0.0014125050511211157,-0.08980532735586166,-0.018553122878074646
1733699263147468300,8.09346826171875,0.0005368674173951149,-0.08806978911161423,-0.019083188846707344
1733699263157424000,8.103424072265625,0.0027883038856089115,-0.08260311931371689,-0.017413919791579247
1733699263167379200,8.113379150390625,0.006857387255877256,-0.0740714743733406,-0.01775112934410572
1733699263177335300,8.123335205078124,0.01050112396478653,-0.06312055140733719,-0.017718905583024025
1733699263187290000,8.1332900390625,0.012893464416265488,-0.0506584532558918,-0.013844122178852558
1733699263197246200,8.14324609375,0.015680726617574692,-0.042095594108104706,-0.008399822749197483
1733699263207201300,8.153201171875,0.016675375401973724,-0.03317659720778465,-0.005007786676287651
1733699263217157400,8.163157470703124,0.018824545666575432,-0.01924799755215645,-0.001753403339534998
1733699263227112200,8.1731123046875,0.02111724391579628,-0.003129327902570367,0.002119834767654538
1733699263237068300,8.183068359375,0.019582996144890785,0.008515344001352787,0.0013879981124773622
1733699263247023400,8.1930234375,0.014810614287853241,0.01918315701186657,-0.00016640173271298409
1733699263256979200,8.202979248046875,0.0105330441147089,0.019331760704517365,-0.0012351281475275755
1733699263266935300,8.212935302734374,0.006704831961542368,0.013922489248216152,-0.0037433139514178038
1733699263276890400,8.222890380859376,0.005039290990680456,0.0030559925362467766,-0.007870681583881378
1733699263286846200,8.23284619140625,-0.001967612188309431,-0.009092608466744423,-0.012475652620196342
1733699263296801300,8.24280126953125,-0.0047889649868011475,-0.020257379859685898,-0.016955088824033737
1733699263306757000,8.252757080078124,-0.01029181107878685,-0.029629910364747047,-0.01888877898454666
1733699263316712200,8.262712158203126,-0.012513687834143639,-0.036109648644924164,-0.01899237558245659
1733699263326668300,8.272668212890625,-0.01339949481189251,-0.040504340082407,-0.01754862070083618
1733699263336623000,8.282623046875,-0.014850650914013386,-0.0404132604598999,-0.017269255593419075
1733699263346579200,8.2925791015625,-0.018852297216653824,-0.03572491928935051,-0.015133604407310486
1733699263356534300,8.3025341796875,-0.01883072592318058,-0.032205551862716675,-0.017660677433013916
1733699263366490400,8.312490478515626,-0.01879485324025154,-0.03130369260907173,-0.015581440180540085
1733699263376445200,8.322445068359375,-0.017863545566797256,-0.03641589730978012,-0.019417723640799522
1733699263386401300,8.3324013671875,-0.01622445322573185,-0.039321545511484146,-0.018904244527220726
1733699263396356400,8.3423564453125,-0.009176664054393768,-0.042924270033836365,-0.017991846427321434
1733699263406312200,8.352312255859376,-0.0016967046540230513,-0.045805055648088455,-0.015260337851941586
1733699263416267300,8.362267333984375,0.0042962064035236835,-0.04835716262459755,-0.01089062262326479
1733699263426223400,8.372223388671875,0.014668729156255722,-0.04309535399079323,-0.0035008499398827553
1733699263436178200,8.38217822265625,0.012059362605214119,-0.0346270352602005,-0.001358603360131383
1733699263446134300,8.39213427734375,0.008395487442612648,-0.03178359568119049,-0.0006448347121477127
1733699263456089300,8.40208935546875,0.010422419756650925,-0.027062609791755676,-0.0010331235826015472
1733699263466045200,8.412045166015625,0.01076035387814045,-0.017444169148802757,-0.0009544435888528824
1733699263476000300,8.422000244140625,0.006956827826797962,-0.0038370138499885798,0.0007379952585324645
1733699263485956000,8.4319560546875,0.0030550267547369003,0.011805609799921513,0.0003213906893506646
1733699263495911400,8.441911376953126,-0.005265220999717712,0.020330121740698814,0.001328065525740385
1733699263505867300,8.4518671875,-0.007404902949929237,0.025504378601908684,-0.0016841916367411613
1733699263515822000,8.461822021484375,-0.010841445997357368,0.026067636907100677,-0.0019244085997343063
1733699263525778200,8.471778076171875,-0.009711978957057,0.021617326885461807,-0.005899026989936829
1733699263535733200,8.481733154296874,-0.010575642809271812,0.010181181132793427,-0.007236199453473091
1733699263545689300,8.491689453125,-0.01428384892642498,-0.011165752075612545,-0.007825707085430622
1733699263555644200,8.50164404296875,-0.020436283200979233,-0.03251897916197777,-0.011923779733479023
1733699263565600300,8.511600341796875,-0.0277146827429533,-0.06315161287784576,-0.023169713094830513
1733699263575555300,8.521555419921874,-0.030674787238240242,-0.10000576078891754,-0.03435712307691574
1733699263585511200,8.53151123046875,-0.026488028466701508,-0.14390186965465546,-0.040174975991249084
1733699263595466500,8.541466552734375,-0.020214153453707695,-0.18178187310695648,-0.039632756263017654
1733699263605422300,8.55142236328125,-0.008648436516523361,-0.19335417449474335,-0.03618477284908295
1733699263615377200,8.561377197265625,-0.005810039583593607,-0.17829613387584686,-0.024086831137537956
1733699263625333200,8.571333251953124,-0.006488489918410778,-0.13395893573760986,-0.006678887642920017
1733699263635288300,8.581288330078126,-0.013407115824520588,-0.06662064045667648,0.004217968787997961
1733699263645244400,8.591244384765625,-0.018338900059461594,0.008133294060826302,0.01160292699933052
1733699263655199200,8.60119921875,-0.013157187029719353,0.08640972524881363,0.02099030278623104
1733699263665155000,8.611155029296874,-0.012449076399207115,0.155284583568573,0.028970761224627495
1733699263675110400,8.6211103515625,-0.012291683815419674,0.21145570278167725,0.0316040962934494
1733699263685066200,8.631066162109375,-0.012206502258777618,0.2396429181098938,0.03798241913318634
1733699263695021000,8.64102099609375,-0.01541001908481121,0.25983795523643494,0.0392274484038353
1733699263704977200,8.65097705078125,-0.024330010637640953,0.2679920196533203,0.04105943441390991
1733699263714933200,8.660933349609374,-0.04122856631875038,0.26729080080986023,0.04018698260188103
1733699263724888300,8.670888427734376,-0.05571386590600014,0.25514519214630127,0.03904613107442856
1733699263734844200,8.68084423828125,-0.07017456740140915,0.24022935330867767,0.040898893028497696
1733699263744799500,8.690799560546875,-0.08248267322778702,0.22626298666000366,0.03686133027076721
1733699263754755300,8.70075537109375,-0.08918292075395584,0.21003714203834534,0.03707491606473923
1733699263764710100,8.710710205078126,-0.08224725723266602,0.19290746748447418,0.03855004534125328
1733699263774666200,8.720666259765625,-0.07056955993175507,0.17987635731697083,0.040794823318719864
1733699263784621300,8.730621337890625,-0.0515754371881485,0.16927707195281982,0.041753754019737244
1733699263794577400,8.740577392578125,-0.032788701355457306,0.15698711574077606,0.04048023000359535
1733699263804532200,8.7505322265625,-0.011342551559209824,0.14064373075962067,0.04029472544789314
1733699263814488000,8.760488037109376,0.002290969016030431,0.11774054914712906,0.037472039461135864
1733699263824443400,8.770443359375,0.012615245766937733,0.08680633455514908,0.028679614886641502
1733699263834399200,8.780399169921875,0.014903271570801735,0.047306038439273834,0.01978691667318344
1733699263844354000,8.79035400390625,0.012365153059363365,0.012363695539534092,0.011905279010534286
1733699263854310400,8.800310302734376,0.008398108184337616,-0.013562710024416447,0.0035144572611898184
1733699263864265200,8.81026513671875,0.006310866679996252,-0.0356324128806591,0.0004716044059023261
1733699263874221300,8.82022119140625,0.004888472612947226,-0.04836578294634819,-0.0021108631044626236
1733699263884176100,8.830176025390625,0.005572167225182056,-0.054426562041044235,-0.0025009203236550093
1733699263894132200,8.84013232421875,0.008020145818591118,-0.05937977507710457,-0.002828222932294011
1733699263904087300,8.85008740234375,0.012579455971717834,-0.0711182951927185,-0.009197588078677654
1733699263914043100,8.860043212890625,0.021246179938316345,-0.09097455441951752,-0.014217379502952099
1733699263923998500,8.86999853515625,0.02928321436047554,-0.12652651965618134,-0.02107911929488182
1733699263933954300,8.879954345703124,0.043150827288627625,-0.1672973781824112,-0.024231238290667534
1733699263943909000,8.8899091796875,0.05361836031079292,-0.19930654764175415,-0.023396486416459084
1733699263953865200,8.899865234375,0.05925653874874115,-0.1992570161819458,-0.025916101410984993
1733699263963820300,8.9098203125,0.055634353309869766,-0.1768317073583603,-0.017939819023013115
1733699263973776400,8.9197763671875,0.04396091774106026,-0.13428504765033722,-0.006630704738199711
1733699263983731200,8.929731201171874,0.02424689009785652,-0.0777958333492279,-0.0007665411103516817
1733699263993687000,8.93968701171875,0.0027088401839137077,-0.020778082311153412,0.0006257594795897603
1733699264003642400,8.949642333984375,-0.014446178451180458,0.023210948333144188,-0.00031699961982667446
1733699264013598200,8.95959814453125,-0.024241017177700996,0.05100236460566521,-0.00040248711593449116
1733699264023553300,8.96955322265625,-0.025695208460092545,0.0612795315682888,-0.002058569109067321
1733699264033509400,8.97950927734375,-0.01994997076690197,0.05733645707368851,-0.0012724041007459164
1733699264043464200,8.989464111328125,-0.012984166853129864,0.042797934263944626,0.0025321340654045343
1733699264053420300,8.999420166015625,-0.0026316605508327484,0.029853107407689095,0.0037619818467646837
1733699264063375400,9.009375244140625,0.004334454424679279,0.023664582520723343,0.008763197809457779
1733699264073331500,9.01933154296875,0.010177696123719215,0.025194035843014717,0.010436462238430977
1733699264083286300,9.029286376953126,0.011486189439892769,0.0367048904299736,0.01359335333108902
1733699264093242000,9.0392421875,0.008412368595600128,0.05276348441839218,0.011685464531183243
1733699264103197400,9.049197509765625,-0.000053022755309939384,0.07042611390352249,0.010339681059122086
1733699264113153300,9.0591533203125,-0.009881950914859772,0.08606765419244766,0.00916895642876625
1733699264123108000,9.069108154296876,-0.017422180622816086,0.09111478924751282,0.007455062121152878
1733699264133064200,9.079064208984375,-0.024892613291740417,0.09129694849252701,0.005790053866803646
1733699264143019300,9.089019287109375,-0.027210770174860954,0.08397997915744781,0.0042907060123980045
1733699264152976000,9.098975830078125,-0.02230922132730484,0.06928598880767822,0.0051210797391831875
1733699264162932000,9.108931884765624,-0.013012886047363281,0.0510382205247879,0.005990814417600632
1733699264172886800,9.11888671875,-0.0014094933867454529,0.03032308630645275,0.0034895732533186674
1733699264182842600,9.128842529296875,0.008629187941551208,0.013565706089138985,0.002438827883452177
1733699264192798000,9.1387978515625,0.015777112916111946,-0.0012310829479247332,0.0021064653992652893
1733699264202753800,9.14875390625,0.015194576233625412,-0.010202711448073387,-0.0009570971596986055
1733699264212708900,9.158708984375,0.007323336321860552,-0.017592983320355415,0.0006309458985924721
1733699264222665000,9.1686650390625,-0.002620413899421692,-0.02043638378381729,-0.0027991519309580326
1733699264232619800,9.178619873046875,-0.010440520010888577,-0.023902488872408867,-0.0015402757562696934
1733699264242576000,9.188575927734375,-0.013731921091675758,-0.034308258444070816,-0.0019999374635517597
1733699264252530700,9.19853076171875,-0.017011336982250214,-0.0632147416472435,-0.006777115631848574
1733699264262487000,9.208487060546876,-0.011841361410915852,-0.09840159863233566,-0.012456635944545269
1733699264272441900,9.21844189453125,0.0034425195772200823,-0.11765012890100479,-0.00786188431084156
1733699264282397700,9.228397705078125,0.027848999947309494,-0.1265493929386139,-0.0011345690581947565
1733699264292353000,9.23835302734375,0.03962390124797821,-0.11179175227880478,0.0020724094938486814
1733699264302308900,9.248308837890624,0.03780985623598099,-0.0768822655081749,-0.0005267069209367037
1733699264312263700,9.258263671875,0.028436329215765,-0.03261546790599823,-0.004610930569469929
1733699264322219800,9.2682197265625,0.018028978258371353,0.0005503337597474456,0.0006439953576773405
1733699264332174800,9.2781748046875,0.005361917894333601,0.022197838872671127,0.0033130154479295015
1733699264342131000,9.288130859375,-0.00379183329641819,0.03669636696577072,0.006826792843639851
1733699264352085800,9.298085693359376,-0.012018870562314987,0.03802688419818878,0.0025188636500388384
1733699264362041900,9.308041748046875,-0.015997551381587982,0.029718240723013878,-0.002710361499339342
1733699264371997000,9.317996826171875,-0.01252399105578661,0.029203452169895172,-0.0034690960310399532
1733699264381952800,9.327952880859375,-0.006609048694372177,0.034672826528549194,0.0016024572541937232
1733699264391907800,9.337907958984376,-0.0070684440433979034,0.041959237307310104,0.004470415413379669
1733699264401864000,9.347864013671876,-0.0063307275995612144,0.04410557821393013,0.004118228796869516
1733699264411818800,9.35781884765625,-0.005926193203777075,0.036072149872779846,0.0038766800425946712
1733699264421774800,9.36777490234375,-0.0003531801048666239,0.020093858242034912,0.002597543178126216
1733699264431730000,9.37772998046875,0.009342590346932411,-0.0012002449948340654,0.002053459407761693
1733699264441686000,9.38768603515625,0.022283628582954407,-0.021704763174057007,0.0017164737218990922
1733699264451640800,9.397640869140625,0.026375042274594307,-0.032944899052381516,0.00021258671768009663
1733699264461596700,9.4075966796875,0.028041094541549683,-0.035183385014534,-0.000574260950088501
1733699264471552000,9.417552001953124,0.02327297069132328,-0.024636736139655113,0.0006254931213334203
1733699264481507800,9.4275078125,0.008860127069056034,-0.004661304410547018,0.0008654649136587977
1733699264491463000,9.437462890625,-0.002246053423732519,0.012026862241327763,0.0018199419137090445
1733699264501418800,9.447418701171875,-0.01149066537618637,0.021368511021137238,0.0003906836500391364
1733699264511373800,9.457373779296875,-0.01352745108306408,0.02205614000558853,-0.0005408900324255228
1733699264521330000,9.467329833984374,-0.009329180233180523,0.017181018367409706,-0.0017356653697788715
1733699264531284700,9.47728466796875,-0.003999928943812847,0.00872308574616909,-0.00038730702362954617
1733699264541240800,9.48724072265625,0.0015051314840093255,-0.0009738074149936438,0.00014633673708885908
1733699264551196000,9.49719580078125,0.0076162866316735744,-0.007049276493489742,-0.0004214493092149496
1733699264561151700,9.50715185546875,0.009609336033463478,-0.010429402813315392,-0.0012657672632485628
1733699264571106800,9.51710693359375,0.006644438952207565,-0.002688658656552434,-0.00174486986361444
1733699264581063000,9.52706298828125,0.0038011865690350533,0.005058967508375645,-0.0014901009853929281
1733699264591017700,9.537017822265625,0.0024237995967268944,0.010787960141897202,-0.00011431192979216576
1733699264600973800,9.546973876953125,0.0009331880137324333,0.014249060302972794,-0.002221084665507078
1733699264610929700,9.5569296875,0.004120458848774433,0.011513195000588894,-0.0011710003018379211
1733699264620885000,9.566885009765626,0.006864048074930906,0.007742957677692175,-0.002830948680639267
1733699264630840800,9.5768408203125,0.009467553347349167,0.002383878920227289,0.0001752275275066495
1733699264640796000,9.5867958984375,0.01229081116616726,-0.0007451257552020252,0.0004396254662424326
1733699264650751700,9.596751708984375,0.011344856582581997,-0.002943032421171665,0.0016500321216881275
1733699264660706800,9.606706787109376,0.009935040026903152,-0.006723348051309586,0.0011483882553875446
1733699264670663000,9.616662841796876,0.009131032042205334,-0.00830979272723198,0.0016157730715349317
1733699264680617700,9.62661767578125,0.004003218375146389,-0.006433889269828796,-0.0007279461715370417
1733699264690573800,9.63657373046875,-0.0006940646562725306,-0.004112411290407181,-0.0012480614241212606
1733699264700529000,9.64652880859375,-0.002119495067745447,-0.004180814139544964,-0.0009638508781790733
1733699264710484700,9.656484619140626,-0.002696069423109293,-0.0037033092230558395,-0.0030035660602152348
1733699264720439800,9.666439697265625,0.00048266141675412655,-0.003632581327110529,-0.002719736658036709
1733699264730396000,9.67639599609375,0.0017684355843812227,-0.0091261500492692,-0.0035114940255880356
1733699264740350700,9.686350830078124,0.004889865405857563,-0.013564350083470345,-0.0018934530671685934
1733699264750306800,9.696306884765624,0.006338092964142561,-0.010400780476629734,-0.0015973097179085016
1733699264760262000,9.706261962890625,0.0036962577141821384,-0.003487915499135852,-0.0010394942946732044
1733699264770218000,9.716218017578125,0.004650468472391367,0.005675222724676132,-0.0005361568182706833
1733699264780172800,9.7261728515625,0.0005954314256086946,0.0113600492477417,-0.0005108045879751444
1733699264790129000,9.73612890625,-0.0049324920400977135,0.011074824258685112,-0.001815220806747675
1733699264800084000,9.746083984375,-0.007001252844929695,0.008924741297960281,-0.0016570929437875748
1733699264810039800,9.756039794921875,-0.009216470643877983,0.007485569454729557,-0.0031391421798616648
1733699264819995000,9.765994873046875,-0.00857673492282629,0.007936094887554646,-0.0034684552811086178
1733699264829950700,9.77595068359375,-0.007382573559880257,0.01076064258813858,-0.004383251070976257
1733699264839905800,9.78590576171875,-0.005033338908106089,0.00851884763687849,-0.002530481433495879
1733699264849862000,9.79586181640625,-0.003850629087537527,0.001758946105837822,-0.005204028449952602
1733699264859816700,9.805816650390625,-0.0031131384894251823,-0.005459243431687355,-0.004665441811084747
1733699264869772800,9.815772705078125,-0.003148292191326618,-0.009379150345921516,-0.006820471957325935
1733699264879727900,9.825727783203124,-0.0031210933811962605,-0.015475966036319733,-0.00664857029914856
1733699264889683700,9.83568359375,0.0006669871509075165,-0.017660023644566536,-0.003189923008903861
1733699264899638800,9.845638671875,0.00264152348972857,-0.014513752423226833,-0.003173410426825285
1733699264909595000,9.855594970703125,0.0013805166818201542,-0.00988970510661602,-0.0017129327170550823
1733699264919550000,9.865550048828124,0.003877352923154831,-0.009863522835075855,-0.0003079238813370466
1733699264929505800,9.875505859375,0.001336697256192565,-0.00850717443972826,-0.000856268685311079
1733699264939460900,9.8854609375,0.002689806744456291,-0.008080733940005302,-0.001265362836420536
1733699264949417000,9.8954169921875,0.00275825010612607,-0.010310865007340908,-0.0004853231366723776
1733699264959371800,9.905371826171875,0.0043917447328567505,-0.011043624952435493,-0.0004800609312951565
1733699264969327900,9.915327880859374,0.005846097134053707,-0.00981990247964859,0.00025550415739417076
1733699264979283000,9.925282958984376,0.004348423331975937,-0.003887586295604706,0.0025858343578875065
1733699264989238800,9.93523876953125,-0.000402123318053782,0.005939478054642677,0.004496119916439056
1733699264999193900,9.94519384765625,-0.003261559410020709,0.01703713648021221,0.006929449737071991
1733699265009149700,9.955149658203124,-0.00851437821984291,0.02184467576444149,0.004186660051345825
1733699265019105000,9.96510498046875,-0.013394298031926155,0.02041328325867653,0.003714492544531822
1733699265029060900,9.975060791015625,-0.018871888518333435,0.012134847231209278,-0.0014951832126826048
1733699265039016700,9.9850166015625,-0.018350906670093536,0.0008460003882646561,-0.005432485602796078
1733699265048971800,9.9949716796875,-0.01957915723323822,-0.012922275811433792,-0.008313227444887161
1733699265058927900,10.004927978515624,-0.013102594763040543,-0.018818682059645653,-0.01064041443169117
1733699265068883000,10.014883056640626,-0.004807646851986647,-0.02240888960659504,-0.010482222773134708
1733699265078838800,10.0248388671875,0.00445011630654335,-0.022293169051408768,-0.0034440411254763603
1733699265088793900,10.0347939453125,0.007587053347378969,-0.02122124657034874,-0.0013667757157236338
1733699265098750000,10.04475,0.008488800376653671,-0.017444351688027382,0.00007292930968105793
1733699265108704800,10.054704833984376,0.008081335574388504,-0.014335110783576965,0.0013222179841250181
1733699265118660900,10.064660888671876,0.007021153345704079,-0.01815984398126602,-0.001458505168557167
1733699265128616000,10.074615966796875,0.007651257328689098,-0.02374289557337761,-0.0014888651203364134
1733699265138571800,10.08457177734375,0.010985182598233223,-0.029153766110539436,0.00009831367060542107
1733699265148526000,10.094526123046874,0.010884782299399376,-0.030607853084802628,-0.0013949207495898008
1733699265158482400,10.104482421875,0.013361215591430664,-0.0310171227902174,-0.0025544078089296818
1733699265168437200,10.114437255859375,0.011370502412319183,-0.02675393596291542,-0.0018358868546783924
1733699265178393300,10.124393310546875,0.009513912722468376,-0.022040925920009613,-0.0009368457831442356
1733699265188348400,10.134348388671874,0.005163372028619051,-0.017893586307764053,-0.0029605820309370756
1733699265198304300,10.14430419921875,0.003556022886186838,-0.015184671618044376,-0.001779033336788416
1733699265208259300,10.15425927734375,0.003346964716911316,-0.016126364469528198,-0.0010120428632944822
1733699265218215200,10.164215087890625,0.005293251946568489,-0.014330682344734669,-0.003880416741594672
1733699265228170200,10.174170166015625,0.008489578031003475,-0.021237056702375412,-0.0029839968774467707
1733699265238126300,10.184126220703124,0.010319456458091736,-0.024732889607548714,-0.0031638769432902336
1733699265248081200,10.1940810546875,0.009528763592243195,-0.02393580600619316,-0.0018536015413701534
1733699265258037200,10.204037353515625,0.00702260434627533,-0.017456140369176865,-0.0020003532990813255
1733699265267992300,10.213992431640625,0.003120540641248226,-0.006454354617744684,0.00016160099767148495
1733699265277948200,10.2239482421875,-0.00032609805930405855,0.0016135103069245815,0.0003389370394870639
1733699265287903200,10.2339033203125,-0.0034028482623398304,0.007662081625312567,0.0025264574214816093
1733699265297859000,10.243859130859375,-0.0036204708740115166,0.009330620989203453,0.0030518663115799427
1733699265307814400,10.253814453125,-0.0019227055599913,0.010762070305645466,0.002282212721183896
1733699265317770200,10.263770263671875,-0.0011863415129482746,0.011770077049732208,0.0018379974644631147
1733699265327725000,10.27372509765625,0.0010302073787897825,0.01108963880687952,0.0027954038232564926
1733699265337681400,10.283681396484376,-0.00052034598775208,0.014728274196386337,0.0030408515594899654
1733699265347636200,10.29363623046875,-0.0025536695029586554,0.014805239625275135,0.004010775126516819
1733699265357592300,10.30359228515625,-0.0061475480906665325,0.010982062667608261,0.0018741306848824024
1733699265367547400,10.31354736328125,-0.007137445267289877,0.009294417686760426,0.0007478798506781459
1733699265377503200,10.323503173828126,-0.009505938738584518,0.008831909857690334,0.00008494453504681587
1733699265387458300,10.333458251953125,-0.006477391812950373,0.004872588440775871,0.00023940799292176962
1733699265397414100,10.3434140625,-0.0048472099006175995,0.0005713595310226083,0.0005774589953944087
1733699265407369500,10.353369384765625,-0.0014777786564081907,-0.003597020171582699,0.0017646962078288198
1733699265417325300,10.3633251953125,0.0018793272320181131,-0.008423913270235062,0.0006698850775137544
1733699265427280100,10.373280029296875,0.0006532077677547932,-0.011586416512727737,-0.00001907465048134327
1733699265437236200,10.383236328125,0.0006548420060425997,-0.014522849582135677,-0.0010233137290924788
1733699265447191300,10.39319140625,0.0011459288652986288,-0.015356152318418026,0.0005442227702587843
1733699265457147400,10.4031474609375,0.0015746979042887688,-0.014981179498136044,0.00040999939665198326
1733699265467102200,10.413102294921876,0.0014500617980957031,-0.012529473751783371,-0.000001725275069475174
1733699265477058000,10.42305810546875,0.0002107708714902401,-0.010368668474256992,0.0006670689908787608
1733699265487013400,10.433013427734375,0.001730903284624219,-0.006698300130665302,0.0007038206094875932
1733699265496969200,10.44296923828125,0.0007007552776485682,-0.0073659117333590984,-0.0014481397811323404
1733699265506924000,10.452924072265626,0.0022784117609262466,-0.007307854946702719,-0.0004356058780103922
1733699265516880400,10.46288037109375,0.00015246926341205835,-0.009351775981485844,-0.0001479752827435732
1733699265526835200,10.472835205078125,-0.0013343734899535775,-0.004215870052576065,0.0020643125753849745
1733699265536791300,10.482791259765625,-0.002110518282279372,0.0012990061659365892,-0.0005577909760177135
1733699265546747100,10.4927470703125,-0.00198508333414793,0.007915896363556385,0.001294970279559493
1733699265556702500,10.502702392578126,-0.0016961577348411083,0.010091095231473446,0.0014096968807280064
1733699265566658300,10.512658203125,-0.0013241141568869352,0.014909286051988602,0.0003747924929484725
1733699265576613000,10.522613037109375,-0.0007183201378211379,0.012269115075469017,-0.0005234773270785809
1733699265586569200,10.5325693359375,-0.0007936875917948782,0.003456182312220335,0.0003777362871915102
1733699265596524300,10.542524169921874,-0.002081142505630851,-0.006526273675262928,-0.002040480962023139
1733699265606480400,10.55248046875,-0.001981007633730769,-0.012074969708919525,-0.001337406225502491
1733699265616435200,10.562435302734375,0.00011336349416524172,-0.0138997258618474,-0.0007791116368025541
1733699265626391300,10.572391357421875,-0.003889900166541338,-0.013420622795820236,0.0004856234882026911
1733699265636346400,10.582346435546874,-0.004265304654836655,-0.007215472403913736,0.0008411974413320422
1733699265646302200,10.59230224609375,-0.003157429862767458,-0.0023450832813978195,-0.0003175439778715372
1733699265656257300,10.60225732421875,-0.003022652119398117,0.003755251644179225,0.0014762445352971554
1733699265666213400,10.61221337890625,-0.00200132979080081,0.008628037758171558,0.00136465800460428
1733699265676168200,10.622168212890625,-0.0008253183332271874,0.01461275015026331,0.0015242353547364473
1733699265686124300,10.632124267578124,0.0002338207559660077,0.015301976352930069,0.004426281899213791
1733699265696079400,10.642079345703126,0.0010674305958673358,0.012172970920801163,0.001988636562600732
1733699265706035200,10.65203515625,0.001671968144364655,0.009684246964752674,0.0009236385812982917
1733699265715990300,10.661990234375,0.002067960798740387,0.008952566422522068,0.0018594105495139956
1733699265725946000,10.671946044921874,0.0024061822332441807,0.007961071096360683,0.001095882267691195
1733699265735901400,10.6819013671875,0.002084882464259863,0.01022946834564209,0.000502338632941246
1733699265745857300,10.691857177734375,0.0034454911947250366,0.006387325469404459,-0.00008914945647120476
1733699265755812000,10.70181201171875,0.0008469417225569487,0.007536506280303001,-0.00018408684991300106
1733699265765768200,10.711768310546875,0.0008480071555823088,0.008020669221878052,0.0011709295213222504
1733699265775723300,10.72172314453125,0.0009260167134925723,0.008263716474175453,0.0029851915314793587
1733699265785679400,10.731679443359376,-0.002499873749911785,0.007124683354049921,0.001135626109316945
1733699265795634200,10.74163427734375,-0.0036366977728903294,-0.0027451040223240852,-0.0003683504182845354
1733699265805590300,10.75159033203125,-0.005056695081293583,-0.012110908515751362,-0.0032368411775678396
1733699265815545300,10.76154541015625,-0.0071274228394031525,-0.024371400475502014,-0.004518725443631411
1733699265825501200,10.771501220703126,-0.005029650870710611,-0.03482856974005699,-0.007322501391172409
1733699265835456300,10.781456298828125,-0.0023286938667297363,-0.03507527709007263,-0.007221983280032873
1733699265845412400,10.791412353515625,-0.0005097548710182309,-0.029143085703253746,-0.007093086373060942
1733699265855367200,10.8013671875,-0.00008545059245079756,-0.018047528341412544,-0.004764768294990063
1733699265865323300,10.8113232421875,0.0014061860274523497,-0.006439873483031988,-0.002529310528188944
1733699265875278300,10.8212783203125,0.0013619146775454283,0.006348595954477787,-0.0009297328069806099
1733699265885234400,10.831234375,0.0018569962121546268,0.007628244813531637,0.00011209596414119005
1733699265895189200,10.841189208984375,0.003527924884110689,0.008010716177523136,-0.0012753154151141644
1733699265905145000,10.85114501953125,0.00586271844804287,0.0019389758817851543,-0.0004095216281712055
1733699265915100400,10.861100341796876,0.010586060583591461,-0.00778736500069499,0.000019833678379654884
1733699265925056300,10.87105615234375,0.010300835594534874,-0.018657056614756584,0.0007530018920078874
1733699265935011000,10.881010986328125,0.010571405291557312,-0.023701321333646774,-0.0003369350451976061
1733699265944967200,10.89096728515625,0.008829431608319283,-0.02595968171954155,-0.001309521496295929
1733699265954922200,10.900922119140626,0.0025936681777238846,-0.02250790037214756,-0.002773851156234741
1733699265964878300,10.91087841796875,0.0002775172470137477,-0.019694004207849503,-0.0023637241683900356
1733699265974833200,10.920833251953125,-0.0028001959435641766,-0.015918975695967674,-0.0025645727291703224
1733699265984789200,10.930789306640625,-0.00405454495921731,-0.013274990022182465,-0.0024793515913188457
1733699265994744300,10.940744384765624,-0.004072963260114193,-0.013279980048537254,-0.0029816562309861183
1733699266004700200,10.9507001953125,-0.0013799748849123716,-0.017374325543642044,-0.00384984677657485
1733699266014655200,10.9606552734375,0.00457720085978508,-0.022576456889510155,-0.0060942089185118675
1733699266024611300,10.970611328125,0.00659587699919939,-0.02230028621852398,-0.004845986142754555
1733699266034566100,10.980566162109374,0.008853199891746044,-0.017685478553175926,-0.0028640939854085445
1733699266044522200,10.990522216796874,0.006102953106164932,-0.009371090680360794,-0.0015953639522194862
1733699266054477300,11.000477294921875,0.004568217322230339,-0.0030211196281015873,-0.00034364592283964157
1733699266064433400,11.010433349609375,0.004381529055535793,0.001805327134206891,0.00009098206646740437
1733699266074389200,11.02038916015625,0.001710418495349586,0.0017219140427187085,-0.0005021574907004833
1733699266084344000,11.030343994140624,0.0009796471567824483,-0.0023982622660696507,-0.0007780608721077442
1733699266094300200,11.040300048828126,0.0009532845579087734,-0.0009609675616957247,0.00012803287245333195
1733699266104255200,11.050255126953125,0.003126157447695732,0.0008158935233950615,-0.00046265614219009876
1733699266114211300,11.06021142578125,0.0028664134442806244,0.005279757548123598,0.0013423690106719732
1733699266124166100,11.070166259765625,0.0006027269409969449,0.008690733462572098,0.0013839142629876733
1733699266134122500,11.08012255859375,-0.0010881752241402864,0.012712597846984863,-0.0007054314482957125
1733699266144077300,11.090077392578126,-0.00014328572433441877,0.012987968511879444,0.00012494204565882683
1733699266154033200,11.100033203125,-0.0016645228024572134,0.015072214417159557,0.00012685998808592558
1733699266163988200,11.10998828125,-0.0014365562237799168,0.009908610954880714,-0.001123760361224413
1733699266173944300,11.1199443359375,-0.000021637650206685066,0.012236636132001877,-0.0024982807226479053
1733699266183899100,11.129899169921876,0.0022029008250683546,0.009013944305479527,-0.000587196322157979
1733699266193855200,11.139855224609375,0.0014954216312617064,0.008586591109633446,0.00041807210072875023
1733699266203810300,11.149810302734375,0.0006005994509905577,0.0035739890299737453,-0.00025277817621827126
1733699266213766100,11.15976611328125,0.0007466231472790241,0.001364504685625434,-0.00107917794957757
1733699266223721200,11.16972119140625,0.0009514202829450369,0.0010891339043155313,-0.0009020778816193342
1733699266233677000,11.179677001953126,-0.0002974382368847728,0.0015581317711621523,-0.0002885269932448864
1733699266243632400,11.18963232421875,0.00039445096626877785,-0.0018152943812310696,-0.0014185062609612942
1733699266253588200,11.199588134765625,-0.0007977652712725103,-0.007377952337265015,0.0004756918642669916
1733699266263543000,11.20954296875,-0.0003788500325754285,-0.010623813606798649,0.001726312329992652
1733699266273499100,11.2194990234375,0.002165616722777486,-0.011075078509747982,0.0014621061272919178
1733699266283454200,11.2294541015625,0.0015568179078400135,-0.0011289711110293865,0.002341215731576085
1733699266293410300,11.239410400390625,0.0013030375121161342,0.0037649651058018208,0.001234735012985766
1733699266303365000,11.249365234375,0.0012002395233139396,0.004555657505989075,0.00162755127530545
1733699266313321200,11.2593212890625,0.001291258609853685,0.007225167937576771,0.0023390522692352533
1733699266323276300,11.2692763671875,-0.00041236565448343754,0.006893338169902563,0.0019734001252800226
1733699266333232000,11.279232177734375,-0.00011911208275705576,0.008065339177846909,0.0008497588569298387
1733699266343187500,11.2891875,-0.001972672063857317,0.00981903076171875,0.000484639429487288
1733699266353143300,11.299143310546874,0.0005986127071082592,0.008658146485686302,0.0001603530254215002
1733699266363098000,11.30909814453125,-0.0007385605713352561,0.009384922683238983,0.0019697046373039484
1733699266373054200,11.31905419921875,-0.0010627310257405043,0.005330496933311224,0.00200707302428782
1733699266383009300,11.32900927734375,-0.0004890861455351114,0.001970387063920498,-0.00029576243832707405
1733699266392965400,11.33896533203125,-0.0031920894980430603,-0.0034166951663792133,-0.0010952940210700035
1733699266402920200,11.348920166015626,-0.001878618379123509,-0.008688689209520817,-0.0007789104711264372
1733699266412876000,11.3588759765625,-0.0014113362412899733,-0.01098350714892149,-0.0022094235755503178
1733699266422831400,11.368831298828125,-0.004048132337629795,-0.011993378400802612,-0.0008932894561439753
1733699266432787200,11.378787109375,-0.0032390449196100235,-0.013683043420314789,-0.0024445177987217903
1733699266442742000,11.388741943359374,-0.0006387343164533377,-0.014105686917901039,-0.0006910925731062889
1733699266452698000,11.398697998046876,0.00172131578437984,-0.01372265350073576,-0.0011257485020905733
1733699266462653200,11.408653076171875,0.0030534290708601475,-0.012896007858216763,-0.0002572915982455015
1733699266472609300,11.418609375,0.0027309199795126915,-0.009579307399690151,0.001019874238409102
1733699266482564000,11.428564208984374,0.003959702793508768,-0.0025458994787186384,0.0010166785214096308
1733699266492520400,11.4385205078125,0.0013361613964661956,0.0012115123681724072,0.002480393508449197
1733699266502475300,11.448475341796875,0.00011004204861819744,0.0014586537145078182,0.0008619904983788729
1733699266512431000,11.45843115234375,-0.000727399718016386,0.002939721802249551,0.0024018946569412947
1733699266522386400,11.468386474609375,0.00029552041087299585,0.005148814059793949,0.0014644620241597295
1733699266532342300,11.47834228515625,0.0004463813966140151,0.008287152275443077,0.0010293127270415425
1733699266542297000,11.488297119140626,0.002544153481721878,0.009568666107952595,0.0012010866776108742
1733699266552253200,11.498253173828125,0.002727972576394677,0.011912290006875992,0.0016573818866163492
1733699266562208300,11.508208251953125,0.0031455561984330416,0.013576765544712543,0.002186818281188607
1733699266572164400,11.518164306640625,0.0023278617300093174,0.016198676079511642,0.0022756396792829037
1733699266582119200,11.528119140625,-0.0021334660705178976,0.017839448526501656,0.001348326914012432
1733699266592075000,11.538074951171875,-0.0024434952065348625,0.0149648766964674,0.0010147732682526112
1733699266602030300,11.5480302734375,-0.004131140187382698,0.011125929653644562,-0.0015360023826360703
1733699266611986200,11.557986083984375,-0.0031400155276060104,0.004063786007463932,-0.0011249573435634375
1733699266621941200,11.567941162109374,-0.004585312679409981,-0.0015450974460691214,-0.0035540268290787935
1733699266631897000,11.57789697265625,-0.004812582395970821,-0.006876997649669647,-0.0034045190550386906
1733699266641852200,11.58785205078125,-0.003849316854029894,-0.010876532644033432,-0.0033179661259055138
1733699266651808300,11.597808349609375,-0.004644355271011591,-0.012815174646675587,-0.002941194688901305
1733699266661763000,11.60776318359375,-0.0050241220742464066,-0.010526187717914581,-0.003748664865270257
1733699266671719400,11.617719482421874,-0.0029888697899878025,-0.009644397534430027,-0.0020658099092543125
1733699266681675300,11.62767529296875,-0.0020016359630972147,-0.004083717241883278,-0.0009925561025738716
1733699266691630000,11.637630126953125,0.001514657400548458,-0.0016044857911765575,0.0016789647052064538
1733699266701586200,11.647586181640625,0.003618554910644889,0.0015747958095744252,0.003387648845091462
1733699266711541200,11.657541259765624,0.004126211162656546,0.0036529162898659706,0.004063835367560387
1733699266721497300,11.667497314453126,0.0025922306813299656,0.0036912658251821995,0.003898186609148979
1733699266731452200,11.6774521484375,-0.00012841145507991314,0.0047964071854949,0.0030183102935552597
1733699266741408000,11.687407958984375,-0.003097303444519639,0.005706143099814653,0.0011490376200526953
