time,seconds_elapsed,z,y,x
1733699118788597500,0.015597412109375,0.0027464539743959904,0.002072717295959592,-0.0018381644040346146
1733699118798552800,0.025552734375,-0.0017225965857505798,0.013689159415662289,-0.0017012779135257006
1733699118808508700,0.0355087890625,-0.006080957595258951,0.025374731048941612,0.0011722163762897253
1733699118818463700,0.045463623046875,-0.0036170012317597866,0.035438284277915955,0.0037080782931298018
1733699118828419600,0.055419677734375,-0.008023733273148537,0.032790567725896835,0.0008371906587854028
1733699118838374700,0.065374755859375,-0.01701056957244873,0.023346202448010445,-0.0007708258926868439
1733699118848330800,0.075330810546875,-0.0250770915299654,0.016456972807645798,-0.005956697277724743
1733699118858285600,0.08528564453125,-0.022997161373496056,0.0030221249908208847,-0.006350845098495483
1733699118868241700,0.09524169921875,-0.02053399384021759,-0.011554034426808357,-0.004394419491291046
1733699118878196700,0.10519677734375,-0.010983365587890148,-0.01577887311577797,-0.002515825442969799
1733699118888152600,0.115152587890625,0.001331679872237146,-0.03022819384932518,0.0022577133495360613
1733699118898107600,0.125107666015625,0.008902514353394508,-0.0338202640414238,0.0021706281695514917
1733699118908063700,0.135063720703125,0.012546826153993607,-0.03670428320765495,0.0035501131787896156
1733699118918018600,0.1450185546875,0.01308505143970251,-0.039540015161037445,0.0016515455208718777
1733699118927974700,0.154974609375,0.010024352930486202,-0.039258889853954315,-0.0015858951956033707
1733699118937929700,0.1649296875,0.005365950986742973,-0.03701837360858917,-0.005107925273478031
1733699118947885800,0.1748857421875,0.002377157099545002,-0.030674561858177185,-0.0039042781572788954
1733699118957840600,0.184840576171875,0.007113056257367134,-0.02070954442024231,-0.0013351268135011196
1733699118967795700,0.194795654296875,0.010419576428830624,-0.01437898725271225,0.0011005038395524025
1733699118977751800,0.204751708984375,0.018407726660370827,-0.006691506132483482,0.002551394049078226
1733699118987706600,0.21470654296875,0.019174572080373764,0.0034938394092023373,0.004053343553096056
1733699118997662700,0.224662841796875,0.018288271501660347,0.016990473493933678,0.005937263369560242
1733699119007617800,0.23461767578125,0.012166986241936684,0.03522555157542229,0.006220289506018162
1733699119017574000,0.244573974609375,-0.0005645215278491378,0.05081116780638695,0.007877840660512447
1733699119027528700,0.25452880859375,-0.016115494072437286,0.05708726868033409,0.0030195829458534718
1733699119037484800,0.26448486328125,-0.027955109253525734,0.052054427564144135,-0.0017645196057856083
1733699119047440000,0.27443994140625,-0.036868445575237274,0.039786722511053085,-0.004336077254265547
1733699119057396000,0.28439599609375,-0.03845302760601044,0.02212783321738243,-0.0067614177241921425
1733699119067350800,0.294350830078125,-0.03261382505297661,0.009150977246463299,-0.007922574877738953
1733699119077306600,0.304306640625,-0.017791736871004105,-0.0027432325296103954,-0.0048985555768013
1733699119087262000,0.314261962890625,-0.00596627127379179,-0.009250614792108536,0.0006571152480319142
1733699119097217800,0.3242177734375,0.003644543932750821,-0.012086083181202412,0.0006709636654704809
1733699119107172600,0.334172607421875,0.009126273915171623,-0.013260622508823872,0.001280368771404028
1733699119117128000,0.3441279296875,0.012671208009123802,-0.018683351576328278,0.0026721367612481117
1733699119127083800,0.354083740234375,0.016660938039422035,-0.029143258929252625,0.001712894532829523
1733699119137038600,0.36403857421875,0.01493893750011921,-0.038179099559783936,0.001406631083227694
1733699119146995000,0.373994873046875,0.01404617354273796,-0.04454673454165459,-0.0023770974949002266
1733699119156949800,0.38394970703125,0.01223575696349144,-0.04818221554160118,-0.004701238125562668
1733699119166905900,0.39390576171875,0.009460500441491604,-0.0416315458714962,-0.004011065699160099
1733699119176861000,0.40386083984375,0.005436197854578495,-0.024607554078102112,-0.00258041569031775
1733699119186817000,0.413817138671875,0.0006016625557094812,-0.006420936901122332,-0.0015298542566597462
1733699119196771800,0.423771728515625,-0.006214698310941458,0.011433960869908333,-0.0014765909872949123
1733699119206727700,0.433727783203125,-0.009258326143026352,0.023165028542280197,0.0003053854452446103
1733699119216683000,0.44368310546875,-0.01120562944561243,0.03143707290291786,-0.0013428449165076017
1733699119226638800,0.453638916015625,-0.010243961587548256,0.03727126121520996,-0.00076067796908319
1733699119236593700,0.46359375,-0.008655119687318802,0.038316018879413605,0.00006836419925093651
1733699119246549800,0.4735498046875,-0.008188316598534584,0.034664224833250046,0.0018438773695379496
1733699119256504800,0.4835048828125,-0.0060593849048018456,0.02771950140595436,0.0016140465158969164
1733699119266461000,0.4934609375,-0.003917271271348,0.01666385680437088,0.0029988838359713554
1733699119276415700,0.503415771484375,-0.0036589447408914566,0.007622160017490387,0.0007791392272338271
1733699119286371600,0.51337158203125,-0.0036633149720728397,-0.0012896847911179066,0.0017172585939988494
1733699119296327000,0.523326904296875,-0.0027466551400721073,-0.00755557045340538,0.0012725107371807098
1733699119306281700,0.53328173828125,0.0018533263355493546,-0.008261156268417835,0.002111082198098302
1733699119316237800,0.54323779296875,0.0015494597610086203,-0.01249691378325224,-0.0005912273190915585
1733699119326193000,0.55319287109375,0.0017234974075108767,-0.016968831419944763,-0.003026149235665798
1733699119336148700,0.563148681640625,0.004931807518005371,-0.025956733152270317,-0.0035369438119232655
1733699119346103800,0.573103759765625,0.006708195433020592,-0.031145716086030006,-0.002482779324054718
1733699119356060000,0.583059814453125,0.008016872219741344,-0.03194892406463623,-0.0025703972205519676
1733699119366014700,0.5930146484375,0.006130580324679613,-0.02715221233665943,-0.0017377461772412062
1733699119375970800,0.602970703125,0.0009296931093558669,-0.01582765206694603,-0.0010037790052592754
1733699119385926000,0.61292578125,-0.003442514920607209,-0.007192609831690788,-0.001286918530240655
1733699119395882000,0.622882080078125,-0.004910183139145374,0.0002642410108819604,-0.0011942405253648758
1733699119405836800,0.6328369140625,-0.004503954667598009,0.004456047900021076,0.0011299456236883998
1733699119415792600,0.642792724609375,-0.0018865998135879636,0.008844937197864056,0.000690257758833468
1733699119425748000,0.652748046875,-0.0007639923132956028,0.014223327860236168,0.0011179387802258134
1733699119435703800,0.662703857421875,-0.000297406455501914,0.019608506932854652,0.003219971898943186
1733699119445659000,0.672658935546875,-0.0017861739033833146,0.022597596049308777,0.0020166588947176933
1733699119455614700,0.68261474609375,-0.0033656947780400515,0.024629056453704834,0.003958369605243206
1733699119465569800,0.69256982421875,-0.006910507567226887,0.02595566213130951,0.0029785193037241697
1733699119475524900,0.70252490234375,-0.007792812772095203,0.02498999983072281,0.0003265434643253684
1733699119485480700,0.712480712890625,-0.00879253912717104,0.025858815759420395,0.0026891808956861496
1733699119495435800,0.722435791015625,-0.0067498949356377125,0.0239567868411541,0.0022401718888431787
1733699119505391900,0.732391845703125,-0.005508244037628174,0.019231410697102547,0.003345627337694168
1733699119515346700,0.7423466796875,-0.0035247216001152992,0.01569313555955887,0.0005570315988734365
1733699119525302800,0.752302734375,-0.0014157398836687207,0.006528494879603386,0.0010725005995482206
1733699119535257900,0.7622578125,-0.0012098775478079915,-0.0038285385817289352,-0.0014095655642449856
1733699119545214000,0.7722138671875,0.00257965549826622,-0.01387815736234188,-0.0013822086621075869
1733699119555168800,0.782168701171875,0.005743490997701883,-0.020279332995414734,-0.0030091337393969297
1733699119565124900,0.792124755859375,0.010199903510510921,-0.026883790269494057,0.00008526677265763283
1733699119575080000,0.802079833984375,0.013096091337502003,-0.03599206730723381,-0.0013499108608812094
1733699119585035800,0.812035888671875,0.016223428770899773,-0.049497608095407486,-0.00017951871268451214
1733699119594990800,0.821990966796875,0.015540060587227345,-0.06524381786584854,-0.0016418604645878077
1733699119604947000,0.831947021484375,0.011701248586177826,-0.07720866054296494,-0.0022506655659526587
1733699119614901800,0.84190185546875,0.006726196967065334,-0.08269956707954407,-0.002927641151472926
1733699119624857900,0.85185791015625,-0.0008006591233424842,-0.08063380420207977,-0.006932021118700504
1733699119634813000,0.86181298828125,-0.004883018787950277,-0.07281289994716644,-0.008120057173073292
1733699119644768800,0.871768798828125,-0.006589765660464764,-0.06094237416982651,-0.009379822760820389
1733699119654723800,0.881723876953125,-0.003523668274283409,-0.04549896717071533,-0.0079758046194911
1733699119664679000,0.891678955078125,0.0004647901514545083,-0.0324496328830719,-0.005264859646558762
1733699119674635000,0.901635009765625,0.005554623436182737,-0.015651479363441467,-0.0014695886056870222
1733699119684589800,0.91158984375,0.011506497859954834,-0.00024692906299605966,0.0026573766954243183
1733699119694545700,0.921545654296875,0.013492151163518429,0.011486159637570381,0.004147681407630444
1733699119704501000,0.9315009765625,0.012374386191368103,0.01677512750029564,0.0028805884066969156
1733699119714456800,0.941456787109375,0.007098131813108921,0.018493132665753365,0.0027817850932478905
1733699119724411600,0.95141162109375,0.005446862895041704,0.01861020177602768,0.0031755538657307625
1733699119734367700,0.96136767578125,0.0008190879598259926,0.01842697523534298,0.002225071657449007
1733699119744322800,0.97132275390625,0.0020211543887853622,0.017474224790930748,0.0023177722468972206
1733699119754279000,0.98127880859375,0.0013231398770585656,0.018171707168221474,0.002943348838016391
1733699119764233700,0.991233642578125,0.0018085972405970097,0.019863132387399673,0.003903203411027789
1733699119774189800,1.00118994140625,0.002893302822485566,0.021180864423513412,0.0034784292802214622
1733699119784145000,1.011144775390625,-0.0005395964253693819,0.024410342797636986,0.0028733813669532537
1733699119794100700,1.021100830078125,-0.0012101803440600634,0.022253448143601418,0.0015247566625475883
1733699119804055800,1.031055908203125,-0.005062769632786512,0.02078680321574211,0.0008612668607383966
1733699119814012000,1.041011962890625,-0.00622310908511281,0.01389001403003931,-0.0017515604849904776
1733699119823966700,1.050966796875,-0.005870155058801174,0.006926252506673336,-0.002312710741534829
1733699119833921800,1.060921875,-0.004369996953755617,-0.0004935804172419012,-0.0035489501897245646
1733699119843878000,1.0708779296875,-0.003460176754742861,-0.004618802573531866,-0.002921011531725526
1733699119853832700,1.080832763671875,0.00035320373717695475,-0.007382631301879883,-0.002558288862928748
1733699119863788800,1.090788818359375,0.0001231797505170107,-0.008299538865685463,-0.002134137786924839
1733699119873744000,1.100743896484375,0.001758094411343336,-0.002733265981078148,-0.0010678083635866642
1733699119883700000,1.110699951171875,0.0024308201391249895,0.004444729536771774,0.0014652051031589508
1733699119893654800,1.12065478515625,-0.0007383417105302215,0.016596466302871704,0.006494052242487669
1733699119903610600,1.130610595703125,-0.0029393103905022144,0.027453314512968063,0.01290054526180029
1733699119913566000,1.14056591796875,-0.0055417511612176895,0.03892195224761963,0.01323503814637661
1733699119923521800,1.150521728515625,-0.00827767699956894,0.053165022283792496,0.013333745300769806
1733699119933476900,1.160476806640625,-0.011909164488315582,0.06764569878578186,0.01260803360491991
1733699119943432700,1.1704326171875,-0.011227624490857124,0.07791026681661606,0.010995439253747463
1733699119953387800,1.1803876953125,-0.011994880624115467,0.07665618509054184,0.008029209449887276
1733699119963344000,1.19034375,-0.011101972311735153,0.06438161432743073,0.007408411242067814
1733699119973298700,1.200298583984375,-0.0001633046194911003,0.04892462119460106,0.008811631239950657
1733699119983254800,1.2102548828125,0.0045703561045229435,0.025281377136707306,0.00562929455190897
1733699119993209900,1.2202099609375,0.005248130764812231,-0.0066565824672579765,-0.001246188534423709
1733699120003165700,1.230165771484375,0.0033447816967964172,-0.04479639232158661,-0.008727739565074444
1733699120013121300,1.240121337890625,0.0019096039468422532,-0.07192681729793549,-0.013419163413345814
1733699120023077400,1.250077392578125,0.0007079008501023054,-0.08481265604496002,-0.012493959628045559
1733699120033032400,1.260032470703125,0.00018272537272423506,-0.08094201236963272,-0.0078089265152812
1733699120042988300,1.26998828125,-0.004558016080409288,-0.06194815784692764,-0.005195315927267075
1733699120052943400,1.279943359375,-0.006326355040073395,-0.036495525389909744,-0.0032781066838651896
1733699120062898400,1.2898984375,-0.00669216550886631,-0.014254698529839516,-0.004393845796585083
1733699120072854500,1.2998544921875,-0.006641831714659929,0.000586565351113677,-0.003606614889577031
1733699120082809300,1.309809326171875,-0.005418483167886734,0.009465843439102173,-0.002868512412533164
1733699120092765400,1.319765380859375,-0.004935652017593384,0.011797972954809666,-0.002616577548906207
1733699120102720500,1.329720458984375,-0.004797143861651421,0.009663278236985207,-0.0012249280698597431
1733699120112676400,1.33967626953125,-0.004361450672149658,0.008976981975138187,0.0003551255213096738
1733699120122631400,1.34963134765625,-0.006919162347912788,0.0071793715469539165,-0.00022978521883487701
1733699120132587500,1.35958740234375,-0.00849708542227745,0.012434320524334908,0.0011491995537653565
1733699120142542300,1.369542236328125,-0.00885312631726265,0.018546637147665024,0.0019384417682886124
1733699120152498400,1.37949853515625,-0.011363154277205467,0.02593478001654148,0.0017312477575615048
1733699120162453500,1.38945361328125,-0.01047792099416256,0.029817402362823486,0.002566947601735592
1733699120172409300,1.399409423828125,-0.006130576133728027,0.030363349243998528,0.0031789420172572136
1733699120182364400,1.409364501953125,-0.0031930976547300816,0.022694895043969154,0.001962477806955576
1733699120192320300,1.4193203125,0.001979293767362833,0.013439346104860306,-0.00026871846057474613
1733699120202275600,1.429275634765625,0.007805091794580221,-0.0046538421884179115,0.0009044100297614932
1733699120212231400,1.4392314453125,0.009504454210400581,-0.017354989424347878,0.0009736522333696485
1733699120222186200,1.449186279296875,0.009209714829921722,-0.02237289771437645,0.0020801068749278784
1733699120232142300,1.459142333984375,0.004289258271455765,-0.01449127309024334,0.004167758859694004
1733699120242097400,1.469097412109375,-0.0025267992168664932,0.00009933480760082603,0.0041035246104002
1733699120252052200,1.47905224609375,-0.010094704106450081,0.01901896297931671,0.004283820744603872
1733699120262008300,1.48900830078125,-0.015104036778211594,0.030917063355445862,0.0018115052953362465
1733699120271963400,1.49896337890625,-0.016513114795088768,0.037090003490448,-0.00023326976224780083
1733699120281919500,1.50891943359375,-0.014943653717637062,0.03690575808286667,0.0018574078567326069
1733699120291874300,1.518874267578125,-0.012544145807623863,0.025938060134649277,0.0025674065109342337
1733699120301830400,1.528830322265625,-0.008800007402896881,0.014151974581182003,-0.0020457208156585693
1733699120311785500,1.538785400390625,-0.0036880699917674065,-0.005605751648545265,-0.004912880249321461
1733699120321741300,1.5487412109375,0.003186503890901804,-0.02106550894677639,-0.003229607827961445
1733699120331696400,1.5586962890625,0.009300588630139828,-0.03436799719929695,-0.0027646198868751526
1733699120341652500,1.568652587890625,0.007179914973676205,-0.03943212702870369,-0.0010338446591049433
1733699120351607300,1.578607177734375,0.00579427182674408,-0.0366150327026844,0.00014673464465886354
1733699120361563400,1.5885634765625,-0.001128118485212326,-0.024542339146137238,0.0010365478228777647
1733699120371518500,1.5985185546875,-0.0023760758340358734,-0.008394261822104454,0.0009100476745516062
1733699120381474600,1.608474609375,-0.006128579378128052,0.0015085942577570677,0.003223690204322338
1733699120391429400,1.618429443359375,-0.006100882776081562,0.007765691261738539,0.0024753420148044825
1733699120401385200,1.62838525390625,-0.0039206272922456264,0.012286247685551643,0.0022999439388513565
1733699120411340500,1.638340576171875,-0.001792761730030179,0.011280105449259281,0.0031353775411844254
1733699120421296400,1.64829638671875,0.004680948331952095,0.01112829428166151,0.003932239022105932
1733699120431251200,1.658251220703125,0.008524688892066479,0.009421474300324917,0.005073403939604759
1733699120441207300,1.668207275390625,0.010517943650484085,0.017777323722839355,0.006949142552912235
1733699120451162400,1.678162353515625,0.0047335573472082615,0.025522062554955482,0.00844770297408104
1733699120461118500,1.688118408203125,-0.002007276751101017,0.03292795643210411,0.007320248521864414
1733699120471073300,1.6980732421875,-0.009516592137515545,0.03461506962776184,0.007083226926624775
1733699120481028400,1.7080283203125,-0.01354997418820858,0.030845390632748604,0.0015794028295204043
1733699120490984400,1.717984375,-0.013982471078634262,0.024528106674551964,-0.0007284926250576973
1733699120500939300,1.727939208984375,-0.011778946965932846,0.011427190154790878,-0.0022631369065493345
1733699120510895600,1.7378955078125,-0.007277672179043293,-0.0024769078008830547,-0.003524410305544734
1733699120520850400,1.747850341796875,-0.004535864107310772,-0.012603581883013248,-0.0028130891732871532
1733699120530806300,1.75780615234375,-0.0006290070014074445,-0.0170942023396492,-0.0013824391644448042
1733699120540761300,1.76776123046875,-0.002465630881488323,-0.01593596301972866,0.0009610168635845184
1733699120550717400,1.777717529296875,-0.0020320683252066374,-0.014027008786797523,0.0002563444431871176
1733699120560672500,1.787672607421875,-0.002950423862785101,-0.0068737477995455265,-0.0007929853163659573
1733699120570628400,1.79762841796875,-0.002310199895873666,-0.0015048151835799217,-0.0008430527523159981
1733699120580583400,1.80758349609375,-0.0021033701486885548,0.0030726371333003044,0.0023247331846505404
1733699120590539500,1.81753955078125,-0.0004918912891298532,0.0039631980471313,0.0007697134278714657
1733699120600494300,1.827494384765625,0.0030218970496207476,0.001060736016370356,0.002274199388921261
1733699120610450400,1.837450439453125,0.0032349496614187956,-0.0021771350875496864,0.0012906939955428243
1733699120620405500,1.847405517578125,0.0038603092543780804,-0.005987253971397877,0.0030502602458000183
1733699120630361300,1.857361328125,0.004433155059814453,-0.004778178874403238,0.0027687642723321915
1733699120640316400,1.86731640625,0.0007834379794076085,-0.0016202882397919893,0.002599194645881653
1733699120650272300,1.877272216796875,-0.003761779051274061,0.0016008050879463553,0.0015400554984807968
1733699120660227300,1.887227294921875,-0.005106566473841667,0.0003394990344531834,0.0005127330077812076
1733699120670183400,1.897183349609375,-0.006850138306617737,-0.00166106759570539,0.0014965047594159842
1733699120680138200,1.90713818359375,-0.0022306672763079405,-0.006573192309588194,-0.0014535076916217804
1733699120690093600,1.917093505859375,0.0013331748778000474,-0.013084887526929379,-0.0016093025915324688
1733699120700049400,1.92704931640625,0.004285287111997604,-0.015658706426620483,0.00011164636816829443
1733699120710004200,1.937004150390625,0.005165994632989168,-0.017595358192920685,0.0010346979834139347
1733699120719960600,1.946960693359375,0.0034588370472192764,-0.01562783494591713,0.000027845147997140884
1733699120729915400,1.956915283203125,0.00040578923653811216,-0.011858396232128143,-0.0004880090709775686
1733699120739871500,1.96687158203125,-0.0005693758139386773,-0.01080524455755949,0.00008774409070611
1733699120749826300,1.976826416015625,-0.0011707176454365253,-0.009369001723825932,-0.0019389213994145393
1733699120759782400,1.986782470703125,-0.00038945465348660946,-0.006195812486112118,-0.0008596677798777819
1733699120769737500,1.996737548828125,-0.0013985263649374247,-0.0006836019456386566,0.0008633973775431514
1733699120779693300,2.006693359375,-0.0002605336485430598,0.006725674029439688,0.0016539713833481073
1733699120789648400,2.0166484375,-0.0014166118344292045,0.0138538908213377,0.0033296323381364346
1733699120799604500,2.0266044921875,-0.0005167537601664662,0.02046908810734749,0.0023214779794216156
1733699120809559300,2.036559326171875,-0.0025159886572510004,0.022069115191698074,0.001957423985004425
1733699120819515400,2.046515380859375,-0.0023058170918375254,0.02190140262246132,0.0014373252633959055
1733699120829470500,2.056470458984375,-0.0024935700930655003,0.019710419699549675,0.001189118716865778
1733699120839426600,2.066426513671875,-0.0011951697524636984,0.018042180687189102,0.0021554382983595133
1733699120849381400,2.07638134765625,-0.0000683862017467618,0.01960252784192562,0.0017727420199662447
1733699120859337200,2.086337158203125,-0.0026297057047486305,0.02348964475095272,0.005316468887031078
1733699120869292500,2.09629248046875,-0.003296561073511839,0.029517710208892822,0.0036266932729631662
1733699120879248400,2.106248291015625,-0.00548649113625288,0.03520438075065613,0.005000005476176739
1733699120889203200,2.116203125,-0.0061469548381865025,0.03947635740041733,0.003381869290024042
1733699120899158500,2.126158447265625,-0.005997526925057173,0.04199953004717827,0.003981493879109621
1733699120909114400,2.1361142578125,-0.006012973375618458,0.04079924523830414,0.0017510965699329972
1733699120919069200,2.146069091796875,-0.0033677523024380207,0.03200043737888336,0.0031910226680338383
1733699120929025500,2.156025634765625,-0.00007342186290770769,0.02049930952489376,0.004164674319326878
1733699120938980400,2.16598046875,0.0005034902133047581,0.0065254573710262775,0.002688661217689514
1733699120948936400,2.1759365234375,0.000931992894038558,-0.005730143748223782,0.0026785412337630987
1733699120958891300,2.185891357421875,-0.0002716582966968417,-0.012136387638747692,0.0009738963562995195
1733699120968847600,2.19584765625,-0.0006383755244314671,-0.01167060062289238,0.0016458119498565793
1733699120978802400,2.205802490234375,-0.0021694509778171778,-0.006196569185703993,0.0013204922433942556
1733699120988758300,2.21575830078125,-0.006665399298071861,0.0016275318339467049,-0.0003631582949310541
1733699120998713600,2.225713623046875,-0.006011885590851307,0.006120582111179829,-0.0006612990982830524
1733699121008669400,2.23566943359375,-0.002588658593595028,0.007273464929312468,-0.0012410692870616913
1733699121018624300,2.245624267578125,0.000778886373154819,0.002738945186138153,-0.000052662333473563194
1733699121028580000,2.255580078125,0.004196787253022194,0.0006108131492510438,-0.00043322821147739887
1733699121038535400,2.265535400390625,0.005859761498868465,0.001331046805717051,0.0023682089522480965
1733699121048491300,2.2754912109375,0.0024341370444744825,0.0024628902319818735,0.0036622388288378716
1733699121058446000,2.285446044921875,0.0024111378006637096,0.00438930606469512,0.0035796230658888817
1733699121068402200,2.295402099609375,0.001275299466215074,0.005285992287099361,0.005129582714289427
1733699121078357200,2.305357177734375,-0.0007812055991962552,0.009994341991841793,0.0015363781712949276
1733699121088313300,2.315313232421875,-0.00048266525845974684,0.014170444570481777,0.002397378208115697
1733699121098268200,2.32526806640625,0.0013233935460448265,0.0161097701638937,0.0018857403192669153
1733699121108223200,2.33522314453125,-0.0013570780865848064,0.016078609973192215,0.0006971715483814478
1733699121118179300,2.345179443359375,-0.00295968446880579,0.015143979340791702,0.000661995611153543
1733699121128134100,2.355134033203125,-0.001891224179416895,0.015443851239979267,-0.0009047419298440218
1733699121138090500,2.365090576171875,0.000028843525797128677,0.015026513487100601,0.0029300330206751823
1733699121148045300,2.37504541015625,-0.0009735703351907432,0.011391032487154007,0.003708208678290248
1733699121158001200,2.385001220703125,-0.0023979023098945618,0.007250987458974123,0.002852105302736163
1733699121167956500,2.39495654296875,-0.005253876093775034,0.0014732596464455128,0.0006392848445102572
1733699121177912300,2.404912353515625,-0.006739387288689613,-0.0035159061662852764,-0.0023565050214529037
1733699121187867100,2.4148671875,-0.007506377995014191,-0.007030746433883905,-0.0021778070367872715
1733699121197823200,2.4248232421875,-0.00656463485211134,-0.006299110129475594,-0.0025202736724168062
1733699121207778300,2.4347783203125,-0.005218140780925751,-0.003504921682178974,-0.0027264023665338755
1733699121217734400,2.444734375,-0.004901321604847908,-0.004078024532645941,-0.0022598616778850555
1733699121227689200,2.454689208984375,-0.0014035258209332824,-0.00638991454616189,-0.0016651777550578117
1733699121237645300,2.464645263671875,0.0017019984079524875,-0.004296018276363611,-0.0016949374694377184
1733699121247600400,2.474600341796875,0.004980882629752159,-0.0020453808829188347,0.0003801976563408971
1733699121257556200,2.48455615234375,0.0044231778010725975,-0.0005772487493231893,0.0008891682373359799
1733699121267511300,2.49451123046875,0.0034822833258658648,-0.0008140037534758449,0.001964286435395479
1733699121277467100,2.504467041015625,0.001701768022030592,0.0006058680592104793,0.0014819089556112885
1733699121287422200,2.514422119140625,0.0012562209740281105,0.0014274532441049814,-0.00011119409464299679
1733699121297378300,2.52437841796875,0.000528004253283143,0.0019997991621494293,-0.0008620647713541985
1733699121307333000,2.5343330078125,-0.0022933485452085733,0.0011459897505119443,-0.000571780139580369
1733699121317288200,2.5442880859375,-0.004103414714336395,-0.00009277474600821733,0.00010890164412558079
1733699121327244300,2.554244384765625,-0.0015300018712878227,-0.0001700064167380333,-0.0019590428564697504
1733699121337199000,2.56419921875,-0.0010186750441789627,0.0007996505592018366,0.0008580489084124565
1733699121347155500,2.574155517578125,0.0002876054495573044,-0.0019063872750848532,-0.0008184111211448908
1733699121357110300,2.5841103515625,0.001320476527325809,-0.006298748776316643,-0.0010484633967280388
1733699121367066400,2.59406640625,0.0030472702346742153,-0.011498305015265942,-0.0006593754515051842
1733699121377021400,2.604021484375,0.003096778877079487,-0.012888443656265736,-0.001279226504266262
1733699121386977300,2.613977294921875,0.0010461447527632117,-0.011000528931617737,-0.0010967999696731567
1733699121396932400,2.623932373046875,0.0008696034783497453,-0.008784011006355286,0.0016192251350730658
1733699121406888200,2.63388818359375,0.0002911648480221629,-0.004636137280613184,-0.0006812133360654116
1733699121416843300,2.64384326171875,-0.00026921299286186695,-0.004959634970873594,-0.0017579582054167986
1733699121426799400,2.65379931640625,0.0027721168007701635,-0.006417982280254364,-0.0014197367709130049
1733699121436754200,2.663754150390625,0.002003456000238657,-0.006550503429025412,-0.00010403268970549107
1733699121446710300,2.673710205078125,0.0023786956444382668,-0.004676437005400658,0.0015463281888514757
1733699121456665300,2.683665283203125,0.0013243864523246884,-0.00021968898363411427,0.0011846196139231324
1733699121466621200,2.69362109375,-0.002422681078314781,0.006276826374232769,0.0005478578386828303
1733699121476576300,2.703576171875,-0.006076381076127291,0.009056933224201202,-0.00045335618779063225
1733699121486532000,2.713531982421875,-0.006809815764427185,0.01067347265779972,-0.00034549832344055176
1733699121496487400,2.7234873046875,-0.007563551422208548,0.011405657045543194,-0.0004928763955831528
1733699121506443300,2.733443359375,-0.006104405503720045,0.009083114564418793,-0.0018042169976979494
1733699121516398000,2.743398193359375,-0.004005518741905689,0.005866347346454859,-0.0011189219076186419
1733699121526354400,2.7533544921875,0.0003410263452678919,0.002071076538413763,0.00034981139469891787
1733699121536309200,2.763309326171875,0.0027912918012589216,-0.003951895050704479,-0.0016366485506296158
1733699121546264000,2.77326416015625,0.002927113091573119,-0.006057656370103359,-0.0000054622069001197815
1733699121556220400,2.783220458984375,0.0020151501521468163,-0.006168700754642487,-0.0004820413887500763
1733699121566175200,2.79317529296875,0.00007823295891284943,-0.0041159363463521,0.0017523507121950388
1733699121576131300,2.80313134765625,-0.0019911162089556456,-0.00009365903679281473,-0.0011709823738783598
1733699121586086400,2.81308642578125,-0.006708906032145023,0.0031577942427247763,-0.00017522647976875305
1733699121596042500,2.82304248046875,-0.0046433350071311,0.0030851855408400297,-0.0004214993678033352
1733699121605997300,2.832997314453125,-0.001197470584884286,0.0019054054282605648,0.000045086489990353584
1733699121615953200,2.842953125,-0.0003667572746053338,-0.00405698549002409,-0.0009372660424560308
1733699121625908500,2.852908447265625,0.0043084220960736275,-0.011204376816749573,0.00038925453554838896
1733699121635864300,2.8628642578125,0.005154859274625778,-0.016524435952305794,-0.0007908407133072615
1733699121645819100,2.872819091796875,0.0035665498580783606,-0.01933913119137287,0.00047975347843021154
1733699121655775200,2.882775146484375,0.0016324762254953384,-0.021213989704847336,0.0005594093818217516
1733699121665730300,2.892730224609375,-0.0011846154229715466,-0.02129681408405304,0.00041240290738642216
1733699121675686400,2.902686279296875,-0.005589446052908897,-0.020244264975190163,-0.0028613931499421597
1733699121685641200,2.91264111328125,-0.00536574050784111,-0.019004829227924347,-0.0028909542597830296
1733699121695597000,2.92259716796875,-0.0026029772125184536,-0.016105445101857185,-0.003461807034909725
1733699121705552400,2.932552490234375,-0.0035894119646400213,-0.014434311538934708,-0.001819968456402421
1733699121715508200,2.94250830078125,0.0003748965682461858,-0.013948977924883366,0.0002027023583650589
1733699121725463300,2.95246337890625,0.002210346981883049,-0.0089819161221385,0.00031588668935000896
1733699121735419400,2.96241943359375,0.0027972597163170576,-0.0022483044303953648,0.0015620962949469686
1733699121745374200,2.972374267578125,0.0008840449154376984,0.0025174221955239773,0.0016076363390311599
1733699121755329300,2.982329345703125,-0.0019868186209350824,0.0017414725152775645,-0.000032839830964803696
1733699121765285400,2.992285400390625,-0.0045676883310079575,0.007000416982918978,0.00024359615053981543
1733699121775240200,3.002240234375,-0.003542770631611347,0.006543356459587812,-0.0006758847739547491
1733699121785196300,3.0121962890625,-0.003323059994727373,0.006432036403566599,0.00045302906073629856
1733699121795151400,3.0221513671875,-0.0009774698410183191,0.004606212954968214,-0.0007140468806028366
1733699121805107500,3.032107421875,-0.0023055882193148136,0.005641383584588766,0.0005384377436712384
1733699121815062300,3.042062255859375,-0.001717003877274692,0.00791942048817873,0.002896588295698166
1733699121825018000,3.05201806640625,-0.003680286230519414,0.00858281459659338,0.003322427626699209
1733699121834973400,3.061973388671875,-0.007131428457796574,0.0100235091522336,0.0035459091886878014
1733699121844929300,3.07192919921875,-0.010500327683985233,0.007331052795052528,0.0020441527012735605
1733699121854884400,3.08188427734375,-0.010920743457973003,0.0032747825607657433,0.0007203412242233753
1733699121864840200,3.091840087890625,-0.01459750346839428,0.0019794211257249117,-0.0017888890579342842
1733699121874795300,3.101795166015625,-0.015903444960713387,0.0032254098914563656,-0.002006291411817074
1733699121884751400,3.11175146484375,-0.016815844923257828,0.004150591790676117,-0.0023525026626884937
1733699121894706200,3.1217060546875,-0.01800943724811077,0.004795681219547987,-0.002006033668294549
1733699121904662300,3.131662353515625,-0.017443781718611717,0.004515250213444233,-0.0010289198253303766
1733699121914617300,3.141617431640625,-0.011706520803272724,0.0041230847127735615,-0.0009254899341613054
1733699121924573200,3.1515732421875,-0.006979143712669611,0.006466133985668421,-0.00017048371955752373
1733699121934528300,3.1615283203125,-0.0009375572553835809,0.008115120232105255,-0.0003101129550486803
1733699121944483300,3.1714833984375,0.0026100396644324064,0.012768995016813278,0.0035426821559667587
1733699121954439200,3.181439208984375,0.0019367194036021829,0.01832406409084797,0.006735625676810741
1733699121964394200,3.191394287109375,-4.6403147280216217e-7,0.02591194398701191,0.005481277592480183
1733699121974350300,3.201350341796875,-0.00545255932956934,0.03066951595246792,0.008197803050279617
1733699121984305400,3.211305419921875,-0.011130684986710548,0.030116643756628036,0.011924099177122116
1733699121994261200,3.22126123046875,-0.015351589769124985,0.036445870995521545,0.012750114314258099
1733699122004216300,3.23121630859375,-0.017656289041042328,0.03545783832669258,0.014472381211817265
1733699122014171600,3.241171630859375,-0.017589541152119637,0.03293024003505707,0.012652331963181496
1733699122024126500,3.25112646484375,-0.013130877166986465,0.03619234636425972,0.015280072577297688
1733699122034082600,3.26108251953125,-0.010734843090176582,0.039729051291942596,0.017209187150001526
1733699122044037600,3.27103759765625,-0.013511987403035164,0.027497418224811554,0.014733778312802315
1733699122053993500,3.280993408203125,-0.007011344190686941,0.016391031444072723,0.01093132235109806
1733699122063948500,3.290948486328125,-0.0044762808829545975,0.004814536776393652,0.010536642745137215
1733699122073904600,3.300904541015625,-0.0008008787408471107,-0.0032491981983184814,0.007367323152720928
1733699122083859700,3.310859619140625,-0.002247507916763425,-0.004997563548386097,0.005418688058853149
1733699122093815600,3.320815673828125,-0.004351039882749319,-0.0011987191392108798,0.003981702029705048
1733699122103770400,3.330770263671875,-0.0036658085882663727,0.004270880948752165,0.004177710972726345
1733699122113726700,3.340726806640625,-0.008474946022033691,0.011034369468688965,0.0022416061256080866
1733699122123681500,3.350681640625,-0.011490176431834698,0.013642136938869953,-0.0006567121017724276
1733699122133637600,3.3606376953125,-0.014515175484120846,0.011054889298975468,-0.0006421005818992853
1733699122143592700,3.3705927734375,-0.015935173258185387,0.007946713827550411,0.0018322422401979566
1733699122153547500,3.380547607421875,-0.009830130264163017,0.010331960394978523,0.005819595418870449
1733699122163503600,3.390503662109375,-0.006566959898918867,0.012857169844210148,0.0043516606092453
1733699122173458700,3.400458740234375,-0.004996311850845814,0.015052132308483124,0.0019854765851050615
1733699122183414500,3.41041455078125,-0.0042530233040452,0.015408197417855263,0.0014589696656912565
1733699122193369600,3.42036962890625,-0.003589982632547617,0.012859025038778782,0.0026922908145934343
1733699122203325400,3.430325439453125,-0.006005469709634781,0.009962039068341255,0.00033832271583378315
1733699122213280800,3.44028076171875,-0.00990260485559702,0.008464070968329906,-0.00047020777128636837
1733699122223236600,3.450236572265625,-0.012693331576883793,0.011623645201325417,0.000845926464535296
1733699122233191400,3.46019140625,-0.013028466142714024,0.01678953692317009,0.001162463566288352
1733699122243147500,3.4701474609375,-0.013356301933526993,0.022012794390320778,0.0027031023055315018
1733699122253102600,3.4801025390625,-0.010232849046587944,0.023517204448580742,0.0035220691934227943
1733699122263058700,3.49005859375,-0.006331051234155893,0.02200692519545555,0.004997992888092995
1733699122273013500,3.500013427734375,-0.0019470290280878544,0.016471650451421738,0.004526183940470219
1733699122282969600,3.509969482421875,0.005290111526846886,0.012969592586159706,0.004527249373495579
1733699122292924700,3.519924560546875,0.011530321091413498,0.014089484699070454,0.00577135244384408
1733699122302880500,3.529880615234375,0.015436379238963127,0.008992993272840977,0.007656870409846306
1733699122312835300,3.53983544921875,0.01592390611767769,0.002579189371317625,0.007744697853922844
1733699122322791700,3.549791748046875,0.01097495574504137,-0.00566675653681159,0.007706348784267902
1733699122332746500,3.55974658203125,0.007977820001542568,-0.015814725309610367,0.005671905353665352
1733699122342702600,3.56970263671875,0.00025385443586856127,-0.024842308834195137,0.0017144482117146254
1733699122352657700,3.57965771484375,-0.004706995561718941,-0.029363278299570084,0.0023919197265058756
1733699122362612500,3.589612548828125,-0.00946127064526081,-0.032858408987522125,-0.00030692783184349537
1733699122372568600,3.599568603515625,-0.009435862302780151,-0.030192619189620018,-0.001214940333738923
1733699122382523600,3.609523681640625,-0.007717324420809746,-0.025419702753424644,0.0012359668035060167
1733699122392479700,3.619479736328125,-0.0037658612709492445,-0.017028264701366425,0.0044581089168787
1733699122402434600,3.6294345703125,0.0009990665130317211,-0.0030083192978054285,0.00617025513201952
1733699122412390400,3.639390380859375,0.0030192581471055746,0.00862088892608881,0.008847564458847046
1733699122422345700,3.649345703125,0.002086619148030877,0.02044319175183773,0.009842786937952042
1733699122432301600,3.659301513671875,0.0003128686221316457,0.025321824476122856,0.007700042799115181
1733699122442256400,3.66925634765625,-0.002656023483723402,0.022168375551700592,0.006797231733798981
1733699122452212500,3.67921240234375,-0.003025741782039404,0.011779630556702614,0.003974103834480047
1733699122462167600,3.68916748046875,-0.003247316926717758,-0.0015265876427292824,-0.0002896171063184738
1733699122472123600,3.69912353515625,-0.006741178222000599,-0.014520193450152874,-0.0030684557277709246
1733699122482078500,3.709078369140625,-0.005181364715099335,-0.02476191148161888,-0.0017667023930698633
1733699122492034600,3.71903466796875,-0.004894966725260019,-0.025823481380939484,0.0001210714690387249
1733699122501989600,3.72898974609375,-0.00513997720554471,-0.01785024255514145,0.003811680246144533
1733699122511945500,3.738945556640625,-0.008884538896381855,-0.002094606403261423,0.005734594538807869
1733699122521900500,3.748900634765625,-0.012629476375877857,0.019019998610019684,0.004702353850007057
1733699122531856600,3.758856689453125,-0.01077863946557045,0.0368088074028492,0.0041030459105968475
1733699122541811500,3.7688115234375,-0.011814609169960022,0.05007534474134445,0.006063931621611118
1733699122551767600,3.778767578125,-0.006120419595390558,0.05282412841916084,0.0030859620310366154
1733699122561722600,3.78872265625,-0.003988559357821941,0.045986197888851166,0.0004574221093207598
1733699122571677700,3.798677734375,0.000296285143122077,0.03361329063773155,0.0004041362553834915
1733699122581633500,3.808633544921875,0.002932281931862235,0.017917949706315994,-0.0015301175881177187
1733699122591588600,3.818588623046875,0.002101302845403552,-0.00013045337982475758,-0.004392379894852638
1733699122601544700,3.828544677734375,-0.0008212501415982842,-0.015870001167058945,-0.005770299583673477
1733699122611499500,3.83849951171875,-0.004496750887483358,-0.03033098764717579,-0.010346852242946625
1733699122621455600,3.84845556640625,-0.006774818990379572,-0.03508978709578514,-0.010720226913690567
1733699122631410700,3.85841064453125,-0.006580141838639975,-0.03187242150306702,-0.007209116127341986
1733699122641366500,3.868366455078125,-0.004962537903338671,-0.023499712347984314,-0.005719610024243593
1733699122651321600,3.878321533203125,-0.0037762937135994434,-0.010433015413582325,-0.0044014472514390945
1733699122661277400,3.88827734375,-0.003118226770311594,-0.001711163204163313,-0.003096231957897544
1733699122671232500,3.898232421875,0.003882703837007284,0.002423370024189353,-0.0009339319076389074
1733699122681188600,3.908188720703125,0.007629239000380039,0.004199964925646782,-0.0025371548254042864
1733699122691143400,3.918143310546875,0.008518418297171593,0.0016366071067750454,-0.0004066412802785635
1733699122701099500,3.928099609375,0.007889646105468273,0.0020595171954482794,-0.001732096541672945
1733699122711054600,3.9380546875,0.004469906445592642,0.0019058226607739925,0.0012241462245583534
1733699122721010700,3.9480107421875,0.0028094258159399033,-0.00010859238682314754,-0.0006957266014069319
1733699122730965500,3.957965576171875,0.004650977440178394,-0.004470944870263338,-0.001303074648603797
1733699122740921600,3.967921630859375,0.003527389606460929,-0.005995604675263166,-0.001589098246768117
1733699122750876700,3.977876708984375,0.0030395700596272945,-0.005608484614640474,0.00014398549683392048
1733699122760832500,3.98783251953125,-0.00018818129319697618,-0.0008981515420600772,0.00011176127009093761
1733699122770787600,3.99778759765625,0.0003745695576071739,0.003960204776376486,0.0019825249910354614
1733699122780742700,4.00774267578125,-0.0017612854717299342,0.00814962387084961,0.0022648200392723083
1733699122790698500,4.017698486328125,-0.0049665323458611965,0.012799706310033798,0.002546842209994793
1733699122800653600,4.027653564453125,-0.0066128987818956375,0.01495207380503416,0.0005939460825175047
1733699122810609700,4.037609619140625,-0.010262664407491684,0.01656966656446457,-0.00013198633678257465
1733699122820564500,4.047564453125,-0.008518028073012829,0.0164538212120533,0.00014924351125955582
1733699122830520600,4.0575205078125,-0.0034808283671736717,0.01396695151925087,-0.0007167709991335869
1733699122840475600,4.0674755859375,-0.0013859859900549054,0.010080866515636444,0.0013511735014617443
1733699122850431700,4.077431640625,0.0004705527098849416,0.006511622108519077,0.002328848000615835
1733699122860386600,4.087386474609375,-0.00047327158972620964,0.007664770819246769,0.0027589485980570316
1733699122870342400,4.09734228515625,-0.0011872650356963277,0.009876525960862637,0.002813543425872922
1733699122880297700,4.107297607421875,-0.005693333223462105,0.012340748682618141,0.0021972879767417908
1733699122890253600,4.117253662109375,-0.0065737501718103886,0.011567994952201843,0.0024429787881672382
1733699122900208400,4.12720849609375,-0.004904481116682291,0.010066238231956959,0.0010972835589200258
1733699122910164500,4.13716455078125,-0.0037720445543527603,0.00882258452475071,-0.0013047915417701006
1733699122920119600,4.14711962890625,-0.0007272522198036313,0.007357047405093908,0.00029496930073946714
1733699122930075600,4.15707568359375,0.0023879436776041985,0.004619308281689882,0.0027429922483861446
1733699122940030500,4.167030517578125,0.0036609345115721226,0.00176226906478405,0.0010433627758175135
1733699122949986600,4.176986572265625,0.0034223038237541914,0.002553108613938093,0.0024931197986006737
1733699122959941600,4.186941650390625,0.0013234664220362902,-0.003506914246827364,-0.0007229135371744633
1733699122969896400,4.196896484375,-0.0014521530829370022,-0.0077842362225055695,-0.0014232341200113297
1733699122979852800,4.206852783203125,0.0010570773156359792,-0.012835719622671604,-0.00281580095179379
1733699122989807600,4.2168076171875,0.0033841233234852552,-0.013833577744662762,-0.0008712962735444307
1733699122999763500,4.226763427734375,0.004550588317215443,-0.012277492322027683,0.0006573580903932452
1733699123009718800,4.23671875,0.006701369769871235,-0.011114371940493584,0.0006502349860966206
1733699123019675400,4.24667529296875,0.007427080534398556,-0.009067732840776443,0.00031254615169018507
1733699123029630500,4.25663037109375,0.0075247217901051044,-0.008351066149771214,-0.0015951211098581553
1733699123039586300,4.26658642578125,0.005861577577888966,-0.011161500588059425,-0.0009823278523981571
1733699123049541400,4.276541259765625,0.005215724464505911,-0.017422271892428398,-0.0016989328432828188
1733699123059497500,4.28649755859375,0.004919048398733139,-0.022336337715387344,-0.003609484527260065
1733699123069452300,4.296452392578125,0.0024107620120048523,-0.02438892051577568,-0.0032980870455503464
1733699123079408400,4.306408447265625,0.003127685282379389,-0.022956939414143562,-0.0019614463672041893
1733699123089363500,4.316363525390625,0.0013072453439235687,-0.01604897528886795,-0.0021550136152654886
1733699123099319600,4.326319580078125,0.0011706252116709948,-0.0071191308088600636,-0.0005155717954039574
1733699123109274400,4.3362744140625,-0.0015248337294906378,0.0008454245980829,0.00041504018008708954
1733699123119230500,4.34623046875,-0.0026809119153767824,0.005087307654321194,-0.00007231836207211018
1733699123129185500,4.356185546875,-0.003642723895609379,0.005887548439204693,-0.00013445690274238586
1733699123139141400,4.366141357421875,-0.0014088645111769438,0.002395079005509615,-0.0015094468835741282
1733699123149096400,4.376096435546875,-0.0006011888617649674,-0.006979432422667742,-0.0019279129337519407
1733699123159052300,4.38605224609375,0.004314207471907139,-0.022389281541109085,-0.003666690783575177
1733699123169007400,4.39600732421875,0.011309205554425716,-0.04055501148104668,-0.005518216639757156
1733699123178962400,4.40596240234375,0.01690557412803173,-0.05509347468614578,-0.005762694403529167
1733699123188918300,4.415918212890625,0.02212904952466488,-0.0630439966917038,-0.005531828384846449
1733699123198873600,4.42587353515625,0.024831358343362808,-0.06254492700099945,-0.0063765826635062695
1733699123208829400,4.435829345703125,0.023559007793664932,-0.05208751931786537,-0.005484031513333321
1733699123218784300,4.4457841796875,0.0175799448043108,-0.030465850606560707,-0.0022072785068303347
1733699123228740400,4.455740234375,0.011060998775064945,-0.00792942475527525,-0.00028004497289657593
1733699123238695400,4.4656953125,0.002616115380078554,0.012209931388497353,0.00001050601713359356
1733699123248651500,4.475651611328125,-0.0013679000549018383,0.02499033696949482,-0.001675112172961235
1733699123258606300,4.4856064453125,-0.003921871539205313,0.025754131376743317,0.0008487656014040112
1733699123268562400,4.4955625,-0.004664263688027859,0.01678565889596939,-0.001994912978261709
1733699123278517500,4.505517578125,-0.0010982910171151161,0.003820059821009636,-0.001986923161894083
1733699123288473300,4.515473388671875,0.001604865537956357,-0.008727231994271278,-0.001205256674438715
1733699123298428400,4.525428466796875,0.0021449546329677105,-0.015078339725732803,-0.001755465753376484
1733699123308384500,4.535384521484375,0.00000751204788684845,-0.01956339180469513,-0.0025652514304965734
1733699123318339300,4.54533935546875,-0.0005477570230141282,-0.019527172669768333,-0.0017394053284078836
1733699123328295400,4.55529541015625,-0.0014438845682889223,-0.012496191076934338,-0.002145670121535659
1733699123338250500,4.56525048828125,0.0019543091766536236,-0.004085928201675415,-0.0007341948803514242
1733699123348206600,4.57520654296875,-0.0006061512976884842,0.005889483727514744,0.000162712880410254
1733699123358161400,4.585161376953125,-0.001887664431706071,0.010787836275994778,0.0009350295877084136
1733699123368117200,4.5951171875,-0.002980673685669899,0.013323240913450718,-0.000047972192987799644
1733699123378072600,4.605072509765625,-0.003266164567321539,0.011165015399456024,-0.0009233530145138502
1733699123388027400,4.61502734375,-0.007409087382256985,0.004508743993937969,-0.001605779631063342
1733699123397983200,4.624983154296875,-0.004441526718437672,-0.0027654138393700123,-0.0015407984610646963
1733699123407938600,4.6349384765625,-0.0023296279832720757,-0.008567401207983494,-0.0016754746902734041
1733699123417894400,4.644894287109375,-0.0008513073553331196,-0.008795900270342827,-0.0025655031204223633
1733699123427849200,4.65484912109375,0.0004915430909022689,-0.004695558454841375,-0.0008464548736810684
1733699123437805300,4.664805419921875,0.0009719772497192025,-0.0014275938738137484,-0.0007559075020253658
1733699123447760400,4.674760498046875,0.0036370628513395786,0.004245924297720194,-0.0011220078449696302
1733699123457716500,4.684716552734375,0.005081028677523136,0.0062081413343548775,-0.0007462357170879841
1733699123467671300,4.69467138671875,0.00705927237868309,0.006474772002547979,-0.0030729982536286116
1733699123477627400,4.70462744140625,0.008022005669772625,0.005724559538066387,0.00040056288708001375
1733699123487582500,4.71458251953125,0.006674749311059713,0.0031168817076832056,-0.000013090437278151512
1733699123497538300,4.724538330078125,0.0023380573838949203,0.002037502359598875,0.00023964361753314734
1733699123507493400,4.734493408203125,0.0011251936666667461,-0.0006581921479664743,-0.0018603552598506212
1733699123517449500,4.744449462890625,-0.0018104086630046368,-0.004794613923877478,-0.0020819304045289755
1733699123527404300,4.754404296875,-0.002218247391283512,-0.005933225154876709,-0.0016583341639488935
1733699123537360400,4.7643603515625,-0.0008389962022192776,-0.0038066906854510307,-0.0003262211102992296
1733699123547315500,4.7743154296875,-0.000613729702308774,0.000368276028893888,0.00129328656475991
1733699123557271600,4.784271484375,-0.0018907154444605112,0.007463203743100166,0.0007976723136380315
1733699123567226400,4.794226318359375,-0.0034688073210418224,0.012524654157459736,0.002053143223747611
1733699123577182200,4.80418212890625,-0.0037652170285582542,0.016407543793320656,0.0010600504465401173
1733699123587137500,4.814137451171875,-0.005938055459409952,0.01780764013528824,-0.00009473320096731186
1733699123597093400,4.82409326171875,-0.005982530303299427,0.016227321699261665,0.0009404374286532402
1733699123607048400,4.83404833984375,-0.005829481407999992,0.011706607416272163,-0.00006170175038278103
1733699123617003500,4.84400341796875,-0.0027926790062338114,0.006574962288141251,-0.00013387342914938927
1733699123626959400,4.85395947265625,-0.00139803031925112,0.0005945017910562456,0.0005502768326550722
1733699123636914400,4.86391455078125,0.0007191826589405537,-0.00641067698597908,-0.0011144650634378195
1733699123646870300,4.873870361328125,0.00023694441188126802,-0.01139779295772314,-0.000820900546386838
1733699123656825300,4.883825439453125,0.0007000680780038238,-0.012934969738125801,-0.0011897485237568617
1733699123666781400,4.893781494140625,0.0020769834518432617,-0.011875132098793983,-0.0009688641875982285
1733699123676736300,4.903736328125,0.0028021621983498335,-0.011938515119254589,0.00030039832927286625
1733699123686692400,4.9136923828125,0.0010326610645279288,-0.009392380714416504,-0.0007888919208198786
1733699123696647400,4.9236474609375,0.0014920561807230115,-0.007948148995637894,0.000634833937510848
1733699123706603300,4.933603271484375,0.0008857273496687412,-0.0047028022818267345,-0.00017805304378271103
1733699123716558300,4.943558349609375,0.002019168809056282,-0.005075911059975624,-0.00023051747120916843
1733699123726514400,4.953514404296875,0.002415785798802972,-0.005245125852525234,-0.0009576627053320408
1733699123736469500,4.963469482421875,0.0038269951473921537,-0.006988697685301304,-0.0017526161391288042
1733699123746425300,4.97342529296875,0.006238958798348904,-0.009783070534467697,-0.0004858332686126232
1733699123756380400,4.98338037109375,0.003949705511331558,-0.008155079558491707,0.0010191190522164106
1733699123766336500,4.99333642578125,0.0024001935962587595,-0.0051575638353824615,0.000362672028131783
1733699123776291300,5.003291259765625,0.0015642272774130106,0.000640936428681016,0.0014409859431907535
1733699123786247400,5.013247314453125,-0.001021410571411252,0.006528090685606003,-0.00015948782674968243
1733699123796202500,5.023202392578125,-0.0019772190134972334,0.006291069556027651,-0.0015376736409962177
1733699123806157300,5.0331572265625,-0.0002060839906334877,0.0025089101400226355,-0.0034888058435171843
1733699123816113400,5.043113525390625,0.002098615514114499,-0.0014938211534172297,-0.000754005741328001
1733699123826068500,5.053068359375,0.0038530579768121243,-0.003355294931679964,0.000763043062761426
1733699123836024300,5.0630244140625,0.004660528618842363,-0.0035100243985652924,0.0009422737639397383
1733699123845979400,5.0729794921875,0.00561927817761898,-0.006569752935320139,0.0004749682266265154
1733699123855935200,5.082935302734375,0.005177992396056652,-0.007107445504516363,0.0001774932025000453
1733699123865890600,5.092890625,0.00522706750780344,-0.011058616451919079,-0.00000248919241130352
1733699123875846400,5.102846435546875,0.002619300503283739,-0.00674988841637969,-0.0002754633314907551
1733699123885801200,5.11280126953125,0.004250498488545418,-0.0064192707650363445,-0.0005501022096723318
1733699123895757300,5.12275732421875,0.003470458323135972,0.0009089494706131518,0.002159664174541831
1733699123905712400,5.13271240234375,0.004144891165196896,0.009552324190735817,0.002144332742318511
1733699123915668500,5.14266845703125,0.0008662741165608168,0.01649784855544567,0.00485543068498373
1733699123925623300,5.152623291015625,0.0010386294452473521,0.0229205172508955,0.002088692504912615
1733699123935579400,5.162579345703125,-0.003014968242496252,0.0221916101872921,0.0022093337029218674
1733699123945534500,5.172534423828125,-0.003933250438421965,0.016589822247624397,0.0009107696823775768
1733699123955490300,5.182490234375,-0.006665120832622051,0.011198785156011581,-0.0012165633961558342
1733699123965445600,5.192445556640625,-0.00852852314710617,0.002710468601435423,-0.0016403228510171175
1733699123975401500,5.2024013671875,-0.006550326943397522,-0.0034171987790614367,-0.003924249671399593
1733699123985356300,5.212356201171875,-0.005836030468344688,-0.005963766016066074,-0.0027898920234292746
1733699123995312400,5.2223125,-0.00659769494086504,-0.008024786598980427,-0.0007134252227842808
1733699124005267500,5.232267333984375,-0.007348707411438227,-0.009615614078938961,-0.003102605463936925
1733699124015223600,5.2422236328125,-0.008148188702762127,-0.010999126359820366,-0.0024104497861117125
1733699124025178400,5.252178466796875,-0.00707872211933136,-0.01080250646919012,-0.0036398402880877256
1733699124035133700,5.2621337890625,-0.007204423192888498,-0.01182436104863882,-0.002735963324084878
1733699124045089500,5.272089599609375,-0.0015115897404029965,-0.014203586615622044,-0.0015557976439595222
1733699124055044400,5.28204443359375,-0.0010758965509012341,-0.012588378973305225,0.002348662819713354
1733699124065000400,5.29200048828125,0.0011331592686474323,-0.013566771522164345,0.00026271259412169456
1733699124074955500,5.30195556640625,-0.00017258874140679836,-0.01290417741984129,0.0025003005284816027
1733699124084911600,5.31191162109375,0.0001632600324228406,-0.008384821936488152,0.0007004583021625876
1733699124094866400,5.321866455078125,-0.0008993412484414876,0.0033946065232157707,0.001870917621999979
1733699124104822500,5.331822509765625,-0.006033697631210089,0.009144836105406284,0.001294328598305583
1733699124114777600,5.341777587890625,-0.011427663266658783,0.006873426493257284,0.003044558223336935
1733699124124733400,5.3517333984375,-0.014669130556285381,-0.001652478938922286,0.0024833015631884336
1733699124134688500,5.3616884765625,-0.019477467983961105,-0.012835890986025333,0.0018579913303256035
1733699124144644600,5.37164453125,-0.019822735339403152,-0.02827698551118374,-0.001596225192770362
1733699124154599400,5.381599365234375,-0.01577712781727314,-0.04595957323908806,-0.0023616175167262554
1733699124164555500,5.391555419921875,-0.011541502550244331,-0.05942152813076973,-0.002985707251355052
1733699124174510600,5.401510498046875,-0.00517015578225255,-0.06684108823537827,-0.005072560161352158
1733699124184466700,5.411466796875,0.0014512981288135052,-0.08069011569023132,-0.00972568616271019
1733699124194421500,5.42142138671875,0.0033964712638407946,-0.0418068990111351,-0.015138029120862484
1733699124204377300,5.43137744140625,-0.011002128012478352,-0.03805537894368172,-0.03265653923153877
1733699124214332700,5.441332763671875,-0.014971302822232246,-0.030987616628408432,-0.02958325296640396
1733699124224287500,5.45128759765625,-0.009965225122869015,-0.023649604991078377,-0.02418609708547592
1733699124234243600,5.46124365234375,-0.0005906320875510573,-0.009807026013731956,-0.020335964858531952
1733699124244198700,5.47119873046875,0.0035653875675052404,0.005106177181005478,-0.019988812506198883
1733699124254154500,5.481154541015625,-0.0019641334656625986,-0.010339091531932354,-0.02731144055724144
1733699124264109600,5.491109619140625,-0.015525506809353828,-0.03037136048078537,-0.03131696954369545
1733699124274065400,5.5010654296875,-0.012140895240008831,-0.03187045454978943,-0.036469653248786926
1733699124284020500,5.5110205078125,-0.012057332322001457,-0.03542141243815422,-0.039791256189346313
1733699124293976600,5.5209765625,-0.012722058221697807,-0.037326641380786896,-0.039147570729255676
1733699124303931400,5.530931396484375,-0.01050594449043274,-0.030279533937573433,-0.03272423520684242
1733699124313887500,5.540887451171875,-0.01165749505162239,-0.019050315022468567,-0.024623166769742966
1733699124323842600,5.550842529296875,-0.013460624031722546,-0.003337408881634474,-0.02146647498011589
1733699124333798700,5.560798583984375,-0.013808699324727058,0.0039516631513834,-0.023440144956111908
1733699124343753500,5.57075341796875,-0.02067709155380726,0.004132362548261881,-0.031204352155327797
1733699124353709600,5.58070947265625,-0.02633524313569069,0.0003682506794575602,-0.03785719722509384
1733699124363664600,5.59066455078125,-0.03252507001161575,-0.009705782867968082,-0.043339189141988754
1733699124373620500,5.600620361328125,-0.02769729122519493,-0.01071565318852663,-0.045332565903663635
1733699124383575600,5.610575439453125,-0.024160297587513924,-0.0088017163798213,-0.04093778878450394
1733699124393531600,5.62053173828125,-0.020024942234158516,-0.0033411700278520584,-0.032920606434345245
1733699124403486500,5.630486572265625,-0.02049456723034382,0.009783845394849777,-0.0264793299138546
1733699124413442600,5.640442626953125,-0.022155312821269035,0.018687324598431587,-0.022432124242186546
1733699124423397600,5.650397705078125,-0.027372250333428383,0.023334255442023277,-0.026301341131329536
1733699124433352400,5.6603525390625,-0.027463331818580627,0.02394704706966877,-0.03335099667310715
1733699124443308500,5.67030859375,-0.03516502305865288,0.017731115221977234,-0.04016741365194321
1733699124453263600,5.680263671875,-0.04055766016244888,0.0010922178626060486,-0.04926850274205208
1733699124463219700,5.6902197265625,-0.048563402146101,-0.010586249642074108,-0.05628520995378494
1733699124473174500,5.700174560546875,-0.054798662662506104,-0.01785162091255188,-0.05945783108472824
1733699124483130400,5.71013037109375,-0.057328347116708755,-0.013823932968080044,-0.0613691583275795
1733699124493085700,5.720085693359375,-0.06232976168394089,-0.013596765697002411,-0.0602857805788517
1733699124503041500,5.73004150390625,-0.06841862201690674,-0.009080613031983376,-0.06005210801959038
1733699124512996400,5.739996337890625,-0.07021092623472214,-0.005272559355944395,-0.06210939958691597
1733699124522952400,5.749952392578125,-0.07023973017930984,-0.00629608565941453,-0.06160043179988861
1733699124532907500,5.759907470703125,-0.07696154713630676,-0.011372869834303856,-0.05947309732437134
1733699124542863600,5.769863525390625,-0.08000300079584122,-0.004213046748191118,-0.05493366718292236
1733699124552818400,5.779818359375,-0.07641838490962982,-0.0016705268062651157,-0.04879667982459068
1733699124562774500,5.7897744140625,-0.06538019329309464,0.009287976659834385,-0.041884154081344604
1733699124572729600,5.7997294921875,-0.05658484250307083,0.01910838484764099,-0.03902392089366913
1733699124582685400,5.809685546875,-0.050319086760282516,0.02852005697786808,-0.03630562499165535
1733699124592640500,5.819640625,-0.040810003876686096,0.03056749515235424,-0.030995281413197517
1733699124602596600,5.8295966796875,-0.03366871550679207,0.037261053919792175,-0.030152255669236183
1733699124612551400,5.839551513671875,-0.02825237810611725,0.05185890570282936,-0.030896609649062157
1733699124622507500,5.849507568359375,-0.029467640444636345,0.061170339584350586,-0.028705723583698273
1733699124632462600,5.859462646484375,-0.03112465888261795,0.062431614845991135,-0.02683032490313053
1733699124642418700,5.869418701171875,-0.03679507225751877,0.06142827868461609,-0.02874014712870121
1733699124652373500,5.87937353515625,-0.04470066726207733,0.0503561869263649,-0.030576396733522415
1733699124662328600,5.88932861328125,-0.05325925350189209,0.04926840588450432,-0.036668043583631516
1733699124672284700,5.89928466796875,-0.05890888348221779,0.054257042706012726,-0.040637750178575516
1733699124682239500,5.909239501953125,-0.07040020078420639,0.06423315405845642,-0.050945185124874115
1733699124692195300,5.9191953125,-0.08427846431732178,0.08252160996198654,-0.057547427713871
1733699124702150700,5.929150634765625,-0.1035221740603447,0.0974549874663353,-0.06115454435348511
1733699124712106500,5.9391064453125,-0.11076837033033371,0.11164218187332153,-0.06130261719226837
1733699124722061600,5.9490615234375,-0.11855821311473846,0.10883548855781555,-0.06351707875728607
1733699124732017400,5.959017333984375,-0.1200391948223114,0.08890678733587265,-0.07079150527715683
1733699124741972500,5.968972412109375,-0.12519212067127228,0.08380453288555145,-0.08003892004489899
1733699124751928600,5.978928466796875,-0.11869213730096817,0.07811415940523148,-0.08870750665664673
1733699124761883400,5.98888330078125,-0.1069221943616867,0.0763363391160965,-0.09393038600683212
1733699124771839700,5.99883984375,-0.09468443691730499,0.08280515670776367,-0.09232236444950104
1733699124781794600,6.008794677734375,-0.09096574038267136,0.09545525163412094,-0.08444347977638245
1733699124791750400,6.01875048828125,-0.09067199379205704,0.11653843522071838,-0.07401800155639648
1733699124801705500,6.02870556640625,-0.09913506358861923,0.14560668170452118,-0.06924818456172943
1733699124811661600,6.03866162109375,-0.10770191997289658,0.1619957685470581,-0.06595225632190704
1733699124821616400,6.048616455078125,-0.11481287330389023,0.17341281473636627,-0.05980943515896797
1733699124831572500,6.058572509765625,-0.12488441914319992,0.17521046102046967,-0.058441635221242905
1733699124841527600,6.068527587890625,-0.12957464158535004,0.17846839129924774,-0.053990233689546585
1733699124851483600,6.078483642578125,-0.12545686960220337,0.19074448943138123,-0.05102560296654701
1733699124861438500,6.0884384765625,-0.10972783714532852,0.19972991943359375,-0.04624488949775696
1733699124871393500,6.0983935546875,-0.08617297559976578,0.19964948296546936,-0.04327386990189552
1733699124881349600,6.108349609375,-0.06520151346921921,0.19002343714237213,-0.04157211259007454
1733699124891304400,6.118304443359375,-0.044475194066762924,0.17752201855182648,-0.04019792005419731
1733699124901260500,6.128260498046875,-0.03307359665632248,0.16687844693660736,-0.03866056725382805
1733699124911215600,6.138215576171875,-0.03209781274199486,0.15297408401966095,-0.03305088356137276
1733699124921171500,6.14817138671875,-0.03609248250722885,0.1313251405954361,-0.03093670681118965
1733699124931126500,6.15812646484375,-0.058983951807022095,0.13270439207553864,-0.03819461911916733
1733699124941082400,6.168082275390625,-0.07585811614990234,0.07469264417886734,-0.044590312987565994
1733699124951037700,6.17803759765625,-0.08692274987697601,0.04014984890818596,-0.037383001297712326
1733699124960993500,6.18799365234375,-0.0904737338423729,0.034761637449264526,-0.03204479441046715
1733699124970948400,6.1979482421875,-0.07624419778585434,0.0480010099709034,-0.023019341751933098
1733699124980904700,6.20790478515625,-0.045779354870319366,0.04788321256637573,-0.018684973940253258
1733699124990859500,6.217859619140625,-0.018152255564928055,0.042842380702495575,-0.01545535959303379
1733699125000815600,6.227815673828125,-0.012714999727904797,0.03615722805261612,-0.017594335600733757
1733699125010770400,6.2377705078125,-0.016529712826013565,0.021797461435198784,-0.018250005319714546
1733699125020725800,6.247725830078125,-0.013631260953843594,0.010399195365607738,-0.010939089581370354
1733699125030680800,6.257680908203125,0.0052950261160731316,0.021903252229094505,0.004852922633290291
1733699125040636700,6.26763671875,0.03806415572762489,0.05328887328505516,0.016894938424229622
1733699125050591700,6.277591796875,0.07856098562479019,0.07251369953155518,0.01772797480225563
1733699125060547800,6.2875478515625,0.10448990762233734,0.05950743705034256,0.017697541043162346
1733699125070502700,6.297502685546875,0.12064331024885178,0.03838244453072548,0.017734825611114502
1733699125080457700,6.307457763671875,0.13045315444469452,0.021483762189745903,0.016075653955340385
1733699125090413800,6.317413818359375,0.12981478869915009,0.0068094776943326,0.010614575818181038
1733699125100368600,6.32736865234375,0.1271003782749176,0.009468434378504753,0.01128894928842783
1733699125110324700,6.33732470703125,0.11553452908992767,0.021232416853308678,0.011293210089206696
1733699125120279800,6.34727978515625,0.09485717117786407,0.02638103999197483,0.004232354462146759
1733699125130235600,6.357235595703125,0.0674058347940445,0.03189511224627495,-0.005391244776546955
1733699125140190700,6.367190673828125,0.013538793660700321,0.027274392545223236,-0.01767132431268692
1733699125150146800,6.377146728515625,-0.05941850692033768,0.024118546396493912,-0.018558954820036888
1733699125160102000,6.387101806640625,-0.05913962423801422,0.06905851513147354,-0.003768262453377247
1733699125170057700,6.3970576171875,-0.06248189136385918,0.12387542426586151,-0.0067193107679486275
1733699125180012800,6.4070126953125,-0.07827191054821014,0.16431227326393127,-0.023602427914738655
1733699125189969000,6.416968994140625,-0.10363399237394333,0.1712585836648941,-0.038715336471796036
1733699125199923700,6.426923828125,-0.11475450545549393,0.14535634219646454,-0.04237741604447365
1733699125209879800,6.4368798828125,-0.11366500705480576,0.10389838367700577,-0.03693045303225517
1733699125219835000,6.4468349609375,-0.10324864834547043,0.07193723320960999,-0.02392694726586342
1733699125229790700,6.456790771484375,-0.08733626455068588,0.06379169225692749,-0.012910516001284122
1733699125239745800,6.466745849609375,-0.07218291610479355,0.07265926897525787,-0.006040308624505997
1733699125249701600,6.47670166015625,-0.05021156743168831,0.08446639031171799,-0.007481344975531101
1733699125259656700,6.48665673828125,-0.03832409158349037,0.08399592339992523,-0.016663819551467896
1733699125269612800,6.49661279296875,-0.039362989366054535,0.0807013213634491,-0.029299721121788025
1733699125279567600,6.506567626953125,-0.049482811242341995,0.07729897648096085,-0.03836315497756004
1733699125289523700,6.516523681640625,-0.05967792496085167,0.07057183235883713,-0.03522967919707298
1733699125299478800,6.526478759765625,-0.07514216750860214,0.04463394731283188,-0.024663763120770454
1733699125309433600,6.53643359375,-0.0684877261519432,0.04228290915489197,0.0012549180537462234
1733699125319389700,6.5463896484375,-0.04709005355834961,0.0641162097454071,0.015815602615475655
1733699125329344800,6.5563447265625,-0.0391509048640728,0.07782163470983505,0.01202699076384306
1733699125339300900,6.56630078125,-0.050814203917980194,0.09095273911952972,-0.0020413564052432775
1733699125349255700,6.576255615234375,-0.07282230257987976,0.09951692819595337,-0.005631031468510628
1733699125359211800,6.586211669921875,-0.08981778472661972,0.10861612856388092,-0.006368646863847971
1733699125369166800,6.596166748046875,-0.10234343260526657,0.1106308102607727,-0.006685296539217234
1733699125379122700,6.606122802734375,-0.12159012258052826,0.11850195378065109,-0.016597464680671692
1733699125389077800,6.616077880859375,-0.1423310935497284,0.11918026208877563,-0.02765384316444397
1733699125399033900,6.626033935546875,-0.15458136796951294,0.13113681972026825,-0.028374042361974716
1733699125408988700,6.63598876953125,-0.140848770737648,0.15388606488704681,-0.018324069678783417
1733699125418944800,6.64594482421875,-0.1167033314704895,0.18227137625217438,-0.010509070008993149
1733699125428899800,6.65589990234375,-0.09257136285305023,0.16947409510612488,-0.020785143598914146
1733699125438856000,6.66585595703125,-0.08861732482910156,0.11871058493852615,-0.03421763330698013
1733699125448810800,6.675810791015625,-0.11652912199497223,0.0335480198264122,-0.04321112856268883
1733699125458766600,6.6857666015625,-0.08453628420829773,0.019579177722334862,-0.020784780383110046
1733699125468722000,6.695721923828125,-0.01838761754333973,0.013999322429299355,0.009952359832823277
1733699125478677800,6.705677734375,0.029768871143460274,-0.022014297544956207,0.027866998687386513
1733699125488632600,6.715632568359375,0.05523508042097092,-0.04169292747974396,0.0240488238632679
1733699125498589000,6.7255888671875,0.05045521631836891,-0.059493184089660645,0.00849660113453865
1733699125508543700,6.735543701171875,0.04308651387691498,-0.07063611596822739,-0.0003935624845325947
1733699125518498600,6.74549853515625,0.047869373112916946,-0.08176852762699127,0.005219026934355497
1733699125528454700,6.75545458984375,0.0551331453025341,-0.06992065906524658,0.021391870453953743
1733699125538409700,6.76540966796875,0.059446994215250015,-0.028408322483301163,0.020490488037467003
1733699125548365800,6.77536572265625,0.043318621814250946,-0.019650783389806747,0.005956551991403103
1733699125558320600,6.785320556640625,0.008153155446052551,-0.04696532338857651,-0.012537384405732155
1733699125568277000,6.795277099609375,-0.008227949030697346,-0.044792450964450836,-0.008648635819554329
1733699125578231800,6.805231689453125,-0.008387145586311817,-0.021978968754410744,0.003797210520133376
1733699125588187600,6.815187744140625,-0.01740647293627262,0.0008571036159992218,0.00689819548279047
1733699125598143000,6.82514306640625,-0.0218952689319849,0.04547348618507385,0.004026306793093681
1733699125608098800,6.835098876953125,-0.014200064353644848,0.06687331199645996,-0.0028686171863228083
1733699125618053600,6.8450537109375,-0.008269893005490303,0.04644830897450447,-0.009770087897777557
1733699125628009700,6.855009765625,-0.014422859996557236,0.00798720307648182,-0.014610650017857552
1733699125637964800,6.86496484375,-0.026951435953378677,-0.04616205021739006,-0.016612015664577484
1733699125647921000,6.8749208984375,-0.017799483612179756,-0.06997550278902054,-0.005603039637207985
1733699125657875700,6.884875732421875,0.011995975859463215,-0.04262392222881317,0.015131069347262383
1733699125667831600,6.89483154296875,0.043484922498464584,0.006355603691190481,0.027944069355726242
1733699125677787000,6.904786865234375,0.045691464096307755,0.03155146911740303,0.024549994617700577
1733699125687742700,6.91474267578125,-0.002247299998998642,0.025212083011865616,-0.0007827917579561472
1733699125697697800,6.92469775390625,-0.05070072039961815,0.013001160696148872,-0.02183322235941887
1733699125707654000,6.93465380859375,-0.08522780239582062,-0.011570760980248451,-0.029102586209774017
1733699125717608700,6.944608642578125,-0.08762839436531067,-0.05074571073055267,-0.017513109371066093
1733699125727563800,6.954563720703125,-0.03781609237194061,-0.03822912275791168,0.012016819790005684
1733699125737519600,6.96451953125,0.03883553296327591,0.004662565421313047,0.03430687636137009
1733699125747474700,6.974474609375,0.10425954312086105,0.02918468602001667,0.03716178610920906
1733699125757430800,6.9844306640625,0.1342334747314453,0.010006655938923359,0.03068500943481922
1733699125767385600,6.994385498046875,0.11505072563886642,-0.04234522953629494,0.018854182213544846
1733699125777342000,7.004342041015625,0.05256034806370735,-0.11689788103103638,0.0033521284349262714
1733699125787296800,7.014296875,-0.0346379354596138,-0.1951117217540741,-0.011501120403409004
1733699125797252900,7.0242529296875,-0.10088662058115005,-0.2524738609790802,-0.012884773313999176
1733699125807208000,7.0342080078125,-0.11613455414772034,-0.2711349129676819,0.002562359906733036
1733699125817163800,7.044163818359375,-0.06631778925657272,-0.25016680359840393,0.029253529384732246
1733699125827118800,7.054118896484375,0.029223650693893433,-0.22645267844200134,0.059639398008584976
1733699125837074700,7.06407470703125,0.128012016415596,-0.2342890501022339,0.07576572149991989
1733699125847029800,7.07402978515625,0.22478917241096497,-0.26106369495391846,0.0889345183968544
1733699125856985900,7.08398583984375,0.2988484501838684,-0.2852664291858673,0.09670279175043106
1733699125866940700,7.093940673828125,0.3300229012966156,-0.30842313170433044,0.09012505412101746
1733699125876896800,7.103896728515625,0.31013429164886475,-0.3315705358982086,0.07644089311361313
1733699125886851800,7.113851806640625,0.2599499523639679,-0.3421177268028259,0.05519312620162964
1733699125896807700,7.1238076171875,0.1791010946035385,-0.32887357473373413,0.0318196639418602
1733699125906762800,7.1337626953125,0.08002990484237671,-0.30778905749320984,0.00684959813952446
1733699125916718800,7.14371875,-0.026452384889125824,-0.2803897261619568,-0.012417669408023357
1733699125926674000,7.153673828125,-0.11502006649971008,-0.2385953813791275,-0.018562380224466324
1733699125936628700,7.163628662109375,-0.17170386016368866,-0.18740449845790863,-0.008475938811898232
1733699125946584600,7.17358447265625,-0.18741197884082794,-0.12870629131793976,0.00988841988146305
1733699125956540000,7.183539794921875,-0.1613762229681015,-0.0732635036110878,0.02455565705895424
1733699125966495700,7.193495849609375,-0.11644496768712997,-0.030279021710157394,0.03243035450577736
1733699125976450600,7.203450439453125,-0.06435675919055939,-0.0072072288021445274,0.03939332067966461
1733699125986407000,7.213406982421875,-0.012234166264533997,0.0027162423357367516,0.04564136266708374
1733699125996361700,7.22336181640625,0.028338221833109856,0.003660846035927534,0.051361389458179474
1733699126006317800,7.23331787109375,0.04642720893025398,0.0019460363546386361,0.058220893144607544
1733699126016273400,7.2432734375,0.045833710581064224,0.0006740555400028825,0.059952422976493835
1733699126026229500,7.2532294921875,0.027376674115657806,-0.00029666669433936477,0.054663386195898056
1733699126036184600,7.2631845703125,-0.0012791561894118786,0.004893632605671883,0.04388505592942238
1733699126046140700,7.273140625,-0.03066367655992508,0.01302799116820097,0.03204810246825218
1733699126056095500,7.283095458984375,-0.05844531208276749,0.0177200548350811,0.020937765017151833
1733699126066051600,7.293051513671875,-0.0707927867770195,0.021600013598799706,0.012998082675039768
1733699126076006700,7.303006591796875,-0.07620634883642197,0.019220031797885895,0.007710568606853485
1733699126085962500,7.31296240234375,-0.07045605033636093,0.004743088968098164,0.004652726463973522
1733699126095917600,7.32291748046875,-0.053893279284238815,-0.009403941221535206,0.004133092239499092
1733699126105873700,7.332873779296875,-0.023992108181118965,-0.023409506306052208,0.007130480371415615
1733699126115828500,7.342828369140625,0.003507306333631277,-0.04096221923828125,0.012172983027994633
1733699126125784600,7.35278466796875,0.02272893860936165,-0.058679163455963135,0.017202362418174744
1733699126135739600,7.36273974609375,0.032587502151727676,-0.07338710874319077,0.018105072900652885
1733699126145694500,7.372694580078125,0.03345249593257904,-0.08198831975460052,0.019379926845431328
1733699126155650600,7.382650634765625,0.03378495201468468,-0.08673781156539917,0.016641976311802864
1733699126165605600,7.392605712890625,0.022529901936650276,-0.08531808108091354,0.015414259396493435
1733699126175561700,7.402561767578125,0.00910219643265009,-0.07918195426464081,0.010214420966804028
1733699126185516500,7.4125166015625,-0.0040452973917126656,-0.06643553823232651,0.008340620435774326
1733699126195472400,7.422472412109375,-0.013959133066236973,-0.05827994644641876,0.0057917386293411255
1733699126205427700,7.432427734375,-0.018394093960523605,-0.051437754184007645,0.005925429053604603
1733699126215383600,7.442383544921875,-0.020787537097930908,-0.041259054094552994,0.00571306562051177
1733699126225338400,7.45233837890625,-0.013081148266792297,-0.033152125775814056,0.0061897714622318745
1733699126235294500,7.46229443359375,0.00036241626366972923,-0.033311013132333755,0.005404774099588394
1733699126245249500,7.47224951171875,0.021001648157835007,-0.03840537369251251,0.00694434717297554
1733699126255205600,7.48220556640625,0.04531945660710335,-0.05167582631111145,0.0029080319218337536
1733699126265160400,7.492160400390625,0.0550764799118042,-0.0691022202372551,0.0030451847705990076
1733699126275116800,7.50211669921875,0.06469716876745224,-0.07475482672452927,0.005028069950640202
1733699126285071600,7.512071533203125,0.07329145818948746,-0.08384499698877335,0.012543244287371635
1733699126295027500,7.52202734375,0.0807824656367302,-0.08276119828224182,0.020044200122356415
1733699126304982800,7.531982666015625,0.07921360433101654,-0.08240512758493423,0.02019573375582695
1733699126314938600,7.541938720703125,0.07085169851779938,-0.07806068658828735,0.019809717312455177
1733699126324893400,7.5518935546875,0.0561358705163002,-0.07217403501272202,0.016646945849061012
1733699126334848800,7.561848876953125,0.04127310961484909,-0.06713197380304337,0.015377581119537354
1733699126344804600,7.5718046875,0.023843253031373024,-0.06653755158185959,0.014195137657225132
1733699126354759400,7.581759521484375,0.01220430713146925,-0.06293423473834991,0.018221843987703323
1733699126364715500,7.591715576171875,0.01184850838035345,-0.05751204118132591,0.017164302989840508
1733699126374670600,7.601670654296875,0.010238398797810078,-0.05010344460606575,0.018464138731360435
1733699126384626700,7.611626708984375,0.013356960378587246,-0.04256083816289902,0.016554920002818108
1733699126394581500,7.62158154296875,0.016730869188904762,-0.0322592668235302,0.015015862882137299
1733699126404537600,7.63153759765625,0.023015663027763367,-0.026027467101812363,0.014996422454714775
1733699126414492700,7.64149267578125,0.01969519816339016,-0.019000524654984474,0.012873387895524502
1733699126424448500,7.651448486328125,0.014445042237639427,-0.01430803444236517,0.01009997259825468
1733699126434403600,7.661403564453125,0.0040655783377587795,-0.009756202809512615,0.007900371216237545
1733699126444359400,7.671359375,-0.0060160839930176735,-0.004213365260511637,0.00988735631108284
1733699126454314500,7.681314453125,-0.006405136547982693,0.0025984160602092743,0.011788802221417427
1733699126464270600,7.6912705078125,-0.004638661630451679,0.007012872025370598,0.008331751450896263
1733699126474225400,7.701225341796875,-0.0025705352891236544,0.009498794563114643,0.0020240778103470802
1733699126484181800,7.711181640625,-0.00033854006323963404,0.007762413937598467,-0.0011544048320502043
1733699126494136600,7.721136474609375,0.0067826323211193085,0.0073958770371973515,-0.004034007433801889
1733699126504092400,7.731092529296875,0.006995684467256069,0.002500454429537058,-0.003086721058934927
1733699126514047700,7.7410478515625,0.009477472864091396,0.0007205448346212506,-0.0036915927194058895
1733699126524003600,7.751003662109375,0.008322459645569324,-0.0020528712775558233,-0.006544637028127909
1733699126533958700,7.760958740234375,0.008321091532707214,-0.005033961031585932,-0.008262324146926403
1733699126543913700,7.770913818359375,0.0023076736833900213,-0.01225751917809248,-0.008313456550240517
1733699126553869600,7.78086962890625,0.002802138216793537,-0.008718050085008144,-0.014590238220989704
1733699126563824600,7.79082470703125,0.004448504187166691,-0.007977691479027271,-0.01309487409889698
1733699126573780500,7.800780517578125,0.0014508981257677078,-0.004607802256941795,-0.01295689307153225
1733699126583735600,7.810735595703125,-0.001511868555098772,-0.007370032835751772,-0.013445583172142506
1733699126593691600,7.820691650390625,-0.004358678124845028,-0.010535091161727905,-0.016211165115237236
1733699126603646500,7.830646484375,-0.009034923277795315,-0.016127996146678925,-0.018499085679650307
1733699126613602600,7.8406025390625,-0.014491376467049122,-0.01744626834988594,-0.019032206386327744
1733699126623557600,7.8505576171875,-0.015008828602731228,-0.008100971579551697,-0.01966763660311699
1733699126633513500,7.860513427734375,-0.015131600201129913,0.00821887981146574,-0.016015909612178802
1733699126643468500,7.870468505859375,-0.013270317576825619,0.0223392266780138,-0.008999012410640717
1733699126653424400,7.88042431640625,-0.008520024828612804,0.02889670431613922,-0.005540817975997925
1733699126663379700,7.890379638671875,-0.0045066410675644875,0.03396123647689819,-0.003806301159784198
1733699126673335600,7.90033544921875,-0.00462918309494853,0.03558634966611862,-0.003881883341819048
1733699126683290400,7.910290283203125,-0.002793998923152685,0.02720591612160206,-0.006633461453020573
1733699126693246700,7.920246826171875,-0.00023940997198224068,0.018155178055167198,-0.007475853897631168
1733699126703201500,7.930201416015625,-0.0014138639671728015,0.007283087819814682,-0.00595332495868206
1733699126713157600,7.94015771484375,-0.00003037590067833662,0.0011764878872781992,-0.006866657640784979
1733699126723112700,7.95011279296875,-0.0002197267021983862,-0.00142195844091475,-0.0037337150424718857
1733699126733068500,7.960068603515625,-0.0027377090882509947,0.001267515355721116,-0.0016117601189762354
1733699126743023600,7.970023681640625,-0.006651756819337606,0.0017724507488310337,-0.0018929899670183659
1733699126752979500,7.9799794921875,-0.011139885522425175,0.0002341993385925889,0.001695931190624833
1733699126762934800,7.989934814453125,-0.01393673662096262,-0.0017091091722249985,-0.0012750911992043257
1733699126772889600,7.9998896484375,-0.01475527137517929,-0.007166107185184956,-0.003797444747760892
1733699126782845400,8.009845458984374,-0.01571853831410408,-0.01273158099502325,-0.005220372229814529
1733699126792800800,8.01980078125,-0.013279820792376995,-0.012064823880791664,-0.00600589532405138
1733699126802756600,8.029756591796875,-0.012022809125483036,-0.01119636744260788,-0.005083908326923847
1733699126812711400,8.03971142578125,-0.009092314168810844,-0.008562691509723663,-0.0059318882413208485
1733699126822667500,8.04966748046875,-0.008048354648053646,-0.009089465253055096,-0.0030705882236361504
1733699126832622600,8.05962255859375,-0.005178326740860939,-0.004870794713497162,-0.0015710585284978151
1733699126842578700,8.06957861328125,-0.005647043231874704,-0.0032308201771229506,-0.0029433853924274445
1733699126852533500,8.079533447265625,-0.007947191596031189,-0.002345880027860403,-0.0014156610704958439
1733699126862489300,8.0894892578125,-0.0067413123324513435,0.004365285858511925,-0.003834343980997801
1733699126872444700,8.099444580078124,-0.008158973418176174,0.009219511412084103,-0.0023901949170976877
1733699126882400500,8.109400390625,-0.009750478900969028,0.018035106360912323,-0.0019912535790354013
1733699126892355600,8.11935546875,-0.007941477000713348,0.02351522073149681,-0.0017379648052155972
1733699126902311700,8.129311767578125,-0.010248840786516666,0.026533914729952812,-0.000948337372392416
1733699126912266500,8.1392666015625,-0.011922502890229225,0.024941813200712204,-0.00003408081829547882
1733699126922222600,8.14922265625,-0.012535829097032547,0.01624179817736149,-0.004275430925190449
1733699126932177700,8.159177734375,-0.0055725714191794395,0.012303550727665424,-0.004803927149623632
1733699126942133800,8.1691337890625,-0.00016795238479971886,0.0047854469157755375,-0.0007356824353337288
1733699126952088600,8.179088623046875,0.004407903179526329,-0.013127265498042107,0.002849545096978545
1733699126962043600,8.189043701171874,0.0074574886821210384,-0.02902154251933098,0.0031374329701066017
1733699126971999700,8.198999755859376,0.012369422242045403,-0.03717333823442459,0.0043100109323859215
1733699126981954600,8.20895458984375,0.01238699909299612,-0.04007218778133392,0.004843974485993385
1733699126991910400,8.218910400390625,0.01214801799505949,-0.03706067427992821,0.00537682743743062
1733699127001865700,8.22886572265625,0.011714721098542213,-0.03684788942337036,0.005703863687813282
1733699127011821600,8.238821533203126,0.01325406413525343,-0.03201231360435486,0.006876947358250618
1733699127021776400,8.2487763671875,0.012731552124023438,-0.03093479946255684,0.005198356695473194
1733699127031732200,8.258732177734375,0.015946241095662117,-0.03148139640688896,0.0047578029334545135
1733699127041687600,8.2686875,0.016703112050890923,-0.024812044575810432,0.004394015297293663
1733699127051643400,8.278643310546874,0.015859410166740417,-0.014947674237191677,0.0024341142270714045
1733699127061598200,8.28859814453125,0.009989004582166672,-0.009437060914933681,-0.0005076136440038681
1733699127071554300,8.29855419921875,0.005287242121994495,-0.0021761509124189615,-0.003093792125582695
1733699127081509400,8.30850927734375,-0.0010121988598257303,0.0053885579109191895,-0.002322008367627859
1733699127091465500,8.318465576171874,-0.00221361150033772,0.018030397593975067,-0.003113317070528865
1733699127101420300,8.328420166015626,-0.0010173195041716099,0.024575915187597275,-0.0041900333017110825
1733699127111376400,8.33837646484375,-0.001654952298849821,0.027715228497982025,-0.0026847252156585455
1733699127121331500,8.34833154296875,-0.0026344629004597664,0.028256649151444435,-0.0024202733766287565
1733699127131287300,8.358287353515625,-0.0020548379980027676,0.026314757764339447,-0.0012062117457389832
1733699127141242600,8.36824267578125,-0.0036479411646723747,0.01815216988325119,0.00033229636028409004
1733699127151198500,8.378198486328126,-0.005862384103238583,0.00773378973826766,-0.0011783961672335863
1733699127161153300,8.3881533203125,-0.006773717701435089,-0.004552171565592289,-0.0026535210199654102
1733699127171109400,8.398109375,-0.0073862201534211636,-0.016611136496067047,-0.002869888674467802
1733699127181064400,8.408064453125,-0.007085549179464579,-0.02626642771065235,-0.0012794488575309515
1733699127191019300,8.418019287109376,-0.0063398159109056,-0.0350610613822937,-0.003015268361195922
1733699127200975400,8.427975341796875,-0.005158437881618738,-0.036170799285173416,-0.003713016165420413
1733699127210930400,8.437930419921875,-0.0012926413910463452,-0.031178094446659088,-0.000018974533304572105
1733699127220886500,8.447886474609374,0.0006397484103217721,-0.024441363289952278,0.001010603504255414
1733699127230841300,8.45784130859375,0.0018101830501109362,-0.017485547810792923,0.00025837926659733057
1733699127240797400,8.46779736328125,0.0036770591977983713,-0.013753392733633518,0.0019151316955685616
1733699127250752500,8.47775244140625,0.007253804709762335,-0.010130076669156551,0.0029763279017060995
1733699127260708400,8.487708251953125,0.006679094862192869,-0.004404013976454735,0.0026793854776769876
1733699127270663400,8.497663330078124,0.004089945461601019,0.001028739963658154,0.0003819953417405486
1733699127280619300,8.507619384765626,0.001252613728865981,0.0038514244370162487,-0.00019031786359846592
1733699127290574300,8.51757421875,-0.0001250396016985178,0.008373738266527653,-0.0022808995563536882
1733699127300530400,8.527530517578125,-0.00583032937720418,0.010862462222576141,-0.002869191812351346
1733699127310485200,8.5374853515625,-0.008448809385299683,0.014790705405175686,-0.0022684666328132153
1733699127320441600,8.547441650390626,-0.012804143130779266,0.01995404250919819,-0.0034658238291740417
1733699127330396400,8.557396484375,-0.014022890478372574,0.026737241074442863,-0.004320942331105471
1733699127340352300,8.567352294921875,-0.02187521941959858,0.03009841777384281,-0.00344316428527236
1733699127350307600,8.5773076171875,-0.018004413694143295,0.03295280411839485,-0.0019220111425966024
1733699127360263400,8.587263427734374,-0.019022008404135704,0.03191922977566719,-0.004337232559919357
1733699127370218500,8.597218505859376,-0.01657101698219776,0.02878003567457199,-0.004774811677634716
1733699127380174300,8.60717431640625,-0.01369693223387003,0.02443402260541916,-0.003420594148337841
1733699127390129400,8.61712939453125,-0.0071386066265404224,0.01895320601761341,-0.003043889533728361
1733699127400084500,8.62708447265625,0.0008016080828383565,0.01443595252931118,-0.0021354849450290203
1733699127410040300,8.637040283203126,0.0029951692558825016,0.0127636156976223,0.0001769602531567216
1733699127419995400,8.646995361328125,0.0042870682664215565,0.008401092141866684,0.0006789661711081862
1733699127429951500,8.656951416015625,0.0008895162027329206,0.003935470245778561,-0.0007970992010086775
1733699127439906300,8.66690625,-0.0037720808759331703,-0.003221508814021945,-0.002657050732523203
1733699127449862400,8.6768623046875,-0.00666186586022377,-0.006695890799164772,-0.00600616168230772
1733699127459817500,8.6868173828125,-0.00937109999358654,-0.012090390548110008,-0.00853190291672945
1733699127469773300,8.696773193359375,-0.01054009236395359,-0.013837487436830997,-0.009318342432379723
1733699127479728400,8.706728271484375,-0.009871106594800949,-0.013469705358147621,-0.010996932163834572
1733699127489684200,8.716684326171874,-0.008151165209710598,-0.009373335167765617,-0.007491782307624817
1733699127499639600,8.7266396484375,-0.006936230696737766,-0.0018003699369728565,-0.0020000773947685957
1733699127509595400,8.736595458984375,-0.004598604515194893,0.007194732315838337,-0.0020174335222691298
1733699127519550200,8.74655029296875,0.002730414504185319,0.012890967540442944,0.0008979290723800659
1733699127529506600,8.756506591796875,0.006166848354041576,0.0165919940918684,0.0021747900173068047
1733699127539461400,8.76646142578125,0.008336526341736317,0.018671924248337746,0.0015481481095775962
1733699127549417500,8.77641748046875,0.010103847831487656,0.01664784736931324,0.0020603027660399675
1733699127559372500,8.78637255859375,0.010662579908967018,0.013027278706431389,0.0012440439313650131
1733699127569328400,8.796328369140625,0.008142913691699505,0.010322381742298603,-0.0010180738754570484
1733699127579283500,8.806283447265624,0.0022496047895401716,0.008750850334763527,-0.0017099631950259209
1733699127589239300,8.8162392578125,-0.0024416865780949593,0.007742905989289284,-0.0034884160850197077
1733699127599194400,8.8261943359375,-0.005930161103606224,0.009054246358573437,-0.0042202528566122055
1733699127609150500,8.836150390625,-0.011926171369850636,0.00872001051902771,-0.006252998020499945
1733699127619105300,8.846105224609374,-0.012988772243261337,0.008921611122786999,-0.006144341547042131
1733699127629060600,8.856060546875,-0.00885208509862423,0.007038756739348173,-0.005491867195814848
1733699127639016400,8.866016357421875,-0.004134827293455601,0.0008636849233880639,-0.005580017808824778
1733699127648971300,8.87597119140625,0.004873508121818304,-0.010591531172394753,-0.0045109218917787075
1733699127658927400,8.88592724609375,0.013758346438407898,-0.019199132919311523,-0.004990024492144585
1733699127668882400,8.89588232421875,0.015648948028683662,-0.020716242492198944,-0.005735828075557947
1733699127678838500,8.905838623046876,0.01598956622183323,-0.01755666732788086,-0.007720948196947575
1733699127688793300,8.91579345703125,0.011691540479660034,-0.009806802496314049,-0.0033445600420236588
1733699127698749200,8.925749267578125,0.005310872569680214,-0.0025262529961764812,-0.0027349628508090973
1733699127708704500,8.93570458984375,0.000023140455596148968,0.0011087260209023952,-0.005826760083436966
1733699127718660400,8.945660400390626,-0.004844052717089653,0.0034501771442592144,-0.007678456604480743
1733699127728615200,8.955615234375,-0.0074598221108317375,0.0033398226369172335,-0.009909212589263916
1733699127738571500,8.965571533203125,-0.007831333205103874,-0.0004898029146715999,-0.012438150122761726
1733699127748526300,8.9755263671875,-0.00674038240686059,-0.000370158813893795,-0.008681009523570538
1733699127758482400,8.985482421875,-0.004796274937689304,0.002579824533313513,-0.00788845308125019
1733699127768437500,8.9954375,-0.0006395378150045872,0.004104785621166229,-0.0051822662353515625
1733699127778393600,9.0053935546875,0.0010678147664293647,0.00446883961558342,-0.00448824604973197
1733699127788348400,9.015348388671875,-0.0025103355292230844,-0.007856783457100391,-0.0044550467282533646
1733699127798304300,9.02530419921875,0.00047346996143460274,-0.00980941392481327,-0.008838077075779438
1733699127808259600,9.035259521484376,0.004931964911520481,-0.009879197925329208,-0.007278485223650932
1733699127818215400,9.04521533203125,0.008321369998157024,-0.009146561846137047,-0.004924250766634941
1733699127828170200,9.055170166015625,0.007806787267327309,-0.006819800939410925,-0.003588239662349224
1733699127838125600,9.06512548828125,0.007722897455096245,-0.00606559356674552,-0.005227148998528719
1733699127848081400,9.075081298828126,0.0048598176799714565,0.0011445200070738792,-0.008288208395242691
1733699127858036500,9.085036376953125,0.003740491345524788,0.004237781744450331,-0.010862419381737709
1733699127867992300,9.094992431640625,0.0009413270745426416,0.00222190679050982,-0.013144771568477154
1733699127877947400,9.104947509765625,-0.003676061751320958,-0.0077028959058225155,-0.016667334362864494
1733699127887903500,9.114903564453124,-0.0039660194888710976,-0.014694183133542538,-0.018906159326434135
1733699127897858300,9.1248583984375,-0.000438396236859262,-0.023726826533675194,-0.018474193289875984
1733699127907814400,9.134814453125,0.0059031834825873375,-0.028518076986074448,-0.01207372173666954
1733699127917769500,9.14476953125,0.015381373465061188,-0.026641080155968666,-0.007545815780758858
1733699127927725300,9.154725341796874,0.022126665338873863,-0.017992252483963966,-0.0022725416347384453
1733699127937680400,9.164680419921876,0.025619134306907654,-0.013622802682220936,-0.00126240449026227
1733699127947636500,9.174636474609375,0.02662043459713459,-0.013745764270424843,-0.0006389869377017021
1733699127957591300,9.18459130859375,0.024614008143544197,-0.013837377540767193,-0.00444810651242733
1733699127967547400,9.19454736328125,0.016941428184509277,-0.019832806661725044,-0.0034548151306807995
1733699127977502500,9.20450244140625,0.007732750847935677,-0.030385315418243408,-0.004900112748146057
1733699127987458600,9.21445849609375,-0.0018317861249670386,-0.02453545853495598,-0.0007824292406439781
1733699127997413400,9.224413330078125,-0.0034288838505744934,-0.007531174458563328,0.0044149961322546005
1733699128007369500,9.234369384765625,-0.007296750321984291,0.0034564626403152943,0.004448676947504282
1733699128017324300,9.24432421875,-0.008887456730008125,0.01139108557254076,0.004420180805027485
1733699128027280100,9.254280029296876,-0.0026183512527495623,0.023844121024012566,0.0130364540964365
1733699128037235200,9.264235107421875,0.0008179254364222288,0.03228554129600525,0.012287307530641556
1733699128047191000,9.27419091796875,0.003935178741812706,0.03525932505726814,0.011178780347108841
1733699128057146400,9.284146484375,0.0027308976277709007,0.03138362616300583,0.011810217052698135
1733699128067101200,9.29410107421875,0.0015473761595785618,0.025703003630042076,0.011566977947950363
1733699128077057000,9.30405712890625,-0.004324095323681831,0.02194235473871231,0.013226659968495369
1733699128087012400,9.314012451171875,-0.008235999383032322,0.024027710780501366,0.012581467628479004
1733699128096968200,9.32396826171875,-0.011431260034441948,0.025109220296144485,0.010292747989296913
1733699128106923000,9.333923095703126,-0.009826256893575191,0.02447817660868168,0.013673385605216026
1733699128116879000,9.343879150390626,-0.005510338582098484,0.024195348843932152,0.015623885206878185
1733699128126834200,9.353834228515625,0.0016064874362200499,0.01814468950033188,0.017211491242051125
1733699128136790300,9.363790283203125,0.006177803501486778,0.013769116252660751,0.020533785223960876
1733699128146745000,9.3737451171875,0.008033155463635921,0.012346169911324978,0.020451582968235016
1733699128156701200,9.383701171875,0.0012673948658630252,0.007149277720600367,0.017808130010962486
1733699128166656300,9.39365625,-0.006560579873621464,0.0011460657697170973,0.01518111303448677
1733699128176612000,9.403612060546875,-0.016001485288143158,-0.002275563543662429,0.013096390292048454
1733699128186567400,9.4135673828125,-0.023939400911331177,-0.007386692799627781,0.007984408177435398
1733699128196523300,9.423523193359374,-0.029150141403079033,-0.01243418175727129,0.0012543338816612959
1733699128206478000,9.43347802734375,-0.030499020591378212,-0.017751596868038177,-0.0003046130295842886
1733699128216434200,9.44343408203125,-0.0277722105383873,-0.021068299189209938,-0.0007549535948783159
1733699128226389200,9.45338916015625,-0.020346010103821754,-0.02299625426530838,0.003010875079780817
1733699128236345300,9.463345458984374,-0.009956219233572483,-0.02576594054698944,0.0060910871252417564
1733699128246300200,9.473300048828126,0.00007514574099332094,-0.025252146646380424,0.011327622458338737
1733699128256256000,9.483256103515625,0.011697979643940926,-0.02371976338326931,0.013851766474545002
1733699128266211300,9.49321142578125,0.01491360180079937,-0.02423420175909996,0.014188848435878754
1733699128276166100,9.503166259765624,0.01592879742383957,-0.025701602920889854,0.01668929122388363
1733699128286122000,9.5131220703125,0.013329419307410717,-0.026564138010144234,0.01653057336807251
1733699128296077300,9.523077392578125,0.010954678058624268,-0.02334863692522049,0.01581817865371704
1733699128306033200,9.533033203125,0.011394210159778595,-0.011015431024134159,0.013573776930570602
1733699128315988200,9.54298828125,0.009739055298268795,-0.006875280290842056,0.018533114343881607
1733699128325944000,9.552944091796874,0.004792137071490288,-0.005004932638257742,0.015596669167280197
1733699128335899100,9.562899169921875,0.002438168739899993,-0.00752108683809638,0.013643240556120872
1733699128345855200,9.572855224609375,-0.002244612667709589,-0.01199138443917036,0.009029773063957691
1733699128355810000,9.58281005859375,-0.006205532234162092,-0.01099269837141037,0.009063062258064747
1733699128365766400,9.592766357421874,-0.008629432879388332,-0.00744699826464057,0.007331600412726402
1733699128375721200,9.60272119140625,-0.009241427294909954,-0.004869058262556791,0.0070021674036979675
1733699128385677000,9.612677001953125,-0.009527198038995266,-0.0024874911177903414,0.008293177001178265
1733699128395632400,9.62263232421875,-0.007808660622686148,0.0022753060329705477,0.006569046527147293
1733699128405588200,9.632588134765625,-0.007186956703662872,0.010260860435664654,0.007222803309559822
1733699128415543000,9.64254296875,-0.007034623995423317,0.019003484398126602,0.005807333160191774
1733699128425499100,9.6524990234375,-0.007782583124935627,0.0262919832020998,0.006515646353363991
1733699128435454200,9.6624541015625,-0.01135175209492445,0.03154746815562248,0.0039166673086583614
1733699128445410300,9.672410400390625,-0.015650736168026924,0.035680193454027176,0.0010898635955527425
1733699128455365000,9.682365234375,-0.01821749098598957,0.035071127116680145,-0.003121925750747323
1733699128465321200,9.6923212890625,-0.019727539271116257,0.034668244421482086,-0.0060886358842253685
1733699128475276300,9.7022763671875,-0.018644697964191437,0.03126312792301178,-0.003133592661470175
1733699128485231000,9.712231201171875,-0.015001784078776836,0.027981609106063843,-0.0032367915846407413
1733699128495187200,9.722187255859374,-0.012055528350174427,0.024846002459526062,-0.001216517761349678
1733699128505142300,9.732142333984376,-0.008532118052244186,0.025148868560791016,-0.00000955723226070404
1733699128515098000,9.74209814453125,-0.007488424889743328,0.027388587594032288,-0.0007350023370236158
1733699128525053200,9.75205322265625,-0.007943886332213879,0.030037857592105865,-0.0018877149559557438
1733699128535009000,9.762009033203125,-0.011220905929803848,0.030271150171756744,-0.005727992858737707
1733699128544964400,9.77196435546875,-0.012586429715156555,0.026315471157431602,-0.00618118979036808
1733699128554920200,9.781920166015626,-0.012405334040522575,0.024601727724075317,-0.004793948493897915
1733699128564875000,9.791875,-0.014790751971304417,0.01889927126467228,-0.0047184620052576065
1733699128574831400,9.801831298828125,-0.010945414192974567,0.014620105735957623,-0.004548286087810993
1733699128584786200,9.8117861328125,-0.008656658232212067,0.010647807270288467,-0.0032657464034855366
1733699128594742300,9.8217421875,-0.005857143085449934,0.003721990156918764,-0.003370408434420824
1733699128604697300,9.831697265625,-0.0021378197707235813,0.002400605008006096,-0.003605328733101487
1733699128614653200,9.841653076171875,0.004522745963186026,-0.002431700937449932,-0.00044282502494752407
1733699128624608300,9.851608154296875,0.00934956781566143,-0.00028016563737764955,-0.00015534437261521816
1733699128634564000,9.861564208984374,0.012328047305345535,0.0020706066861748695,0.0020058108493685722
1733699128644519200,9.871519287109376,0.013239901512861252,0.010463847778737545,0.00025283778086304665
1733699128654475300,9.881475341796875,0.014305432327091694,0.01798328198492527,0.0004640263505280018
1733699128664430000,9.89143017578125,0.011005496606230736,0.02286393940448761,0.0007193563506007195
1733699128674386200,9.90138623046875,0.00965181179344654,0.017345869913697243,-0.0010732172522693872
1733699128684341200,9.91134130859375,0.009484493173658848,0.0018126977374777198,0.0016342420130968094
1733699128694296000,9.921296142578125,0.010075981728732586,-0.016641145572066307,0.0015428955666720867
1733699128704252200,9.931252197265625,0.0174352265894413,-0.0254694614559412,0.0006091976538300514
1733699128714207200,9.941207275390624,0.023359695449471474,-0.026586923748254776,0.005914747249335051
1733699128724163300,9.951163330078124,0.029063569381833076,-0.017594898119568825,0.010397935286164284
1733699128734118100,9.9611181640625,0.028464091941714287,-0.0093846395611763,0.01221367809921503
1733699128744074000,9.971073974609375,0.02159501239657402,0.0014039453817531466,0.01135887112468481
1733699128754029300,9.981029296875,0.011407623067498207,0.00850952509790659,0.011058999225497246
1733699128763985200,9.990985107421874,0.0016639030072838068,0.013013610616326332,0.0065978700295090675
1733699128773940000,10.00093994140625,-0.008195118978619576,0.016832584515213966,0.003726450027897954
1733699128783896300,10.010896240234375,-0.013559402897953987,0.010849878191947937,-0.0006199025083333254
1733699128793851100,10.02085107421875,-0.011579343117773533,0.0022678414825350046,-0.001800481928512454
1733699128803807200,10.03080712890625,-0.0055665671825408936,-0.009956832975149155,0.0002641420578584075
1733699128813762300,10.04076220703125,0.0037600896321237087,-0.021997518837451935,0.004217071924358606
1733699128823718400,10.050718505859376,0.016415152698755264,-0.0306790079921484,0.009300712496042252
1733699128833673200,10.060673095703125,0.02421768195927143,-0.033190902322530746,0.012883995659649372
1733699128843629000,10.070629150390625,0.028345856815576553,-0.027815598994493484,0.013589015230536461
1733699128853584400,10.08058447265625,0.02225467562675476,-0.01996459998190403,0.00985632836818695
1733699128863540200,10.090540283203126,0.014683068729937077,-0.014467334374785423,0.009780297055840492
1733699128873495000,10.1004951171875,0.012978379614651203,-0.00521018635481596,0.008804247714579105
1733699128883451100,10.110451171875,0.008690131828188896,0.0027484341990202665,0.009712251834571362
1733699128893406200,10.12040625,0.008035792969167233,0.011288126930594444,0.01060734037309885
1733699128903362300,10.1303623046875,0.010992120951414108,0.02293340675532818,0.011111979372799397
1733699128913317000,10.140317138671875,0.012664851732552052,0.03719409927725792,0.011123697273433208
1733699128923272200,10.150272216796875,0.01379889715462923,0.042034417390823364,0.01075928844511509
1733699128933228300,10.160228271484375,0.011912846937775612,0.03770065680146217,0.00645988155156374
1733699128943183000,10.17018310546875,0.007992662489414215,0.024512702599167824,0.0025100659113377333
1733699128953139200,10.18013916015625,0.004221361130475998,0.006910006981343031,-0.0013818778097629547
1733699128963094300,10.19009423828125,-0.0021257628686726093,-0.007648671977221966,-0.004233137704432011
1733699128973050000,10.200050048828125,-0.006184686440974474,-0.017106622457504272,-0.004580413922667503
1733699128983005200,10.210005126953124,-0.008685019798576832,-0.01485708262771368,-0.005663663148880005
1733699128992961300,10.219961181640626,-0.01270479429513216,-0.006802618969231844,-0.00476324837654829
1733699129002916000,10.229916015625,-0.01171532180160284,0.008326766081154346,-0.002307688817381859
1733699129012872200,10.2398720703125,-0.012005873024463654,0.022014882415533066,-0.0007449460681527853
1733699129022827300,10.2498271484375,-0.012340898625552654,0.03146377578377724,-0.00039260974153876305
1733699129032783600,10.25978369140625,-0.012415200471878052,0.03493760526180267,-0.0010333664249628782
1733699129042738400,10.269738525390625,-0.009969026781618595,0.038662608712911606,0.0008551775244995952
1733699129052694500,10.279694580078125,-0.007043011486530304,0.04011696204543114,0.002110325498506427
1733699129062649600,10.289649658203125,-0.007165045011788607,0.037951502948999405,0.00019275303930044174
1733699129072605400,10.29960546875,-0.008082769811153412,0.032233696430921555,-0.00232926057651639
1733699129082560500,10.309560546875,-0.009839064441621304,0.021082552149891853,-0.0035307821817696095
1733699129092516400,10.319516357421875,-0.010660383850336075,0.006557937245815992,-0.0062330919317901134
1733699129102471400,10.329471435546875,-0.011486121453344822,-0.006108088884502649,-0.005766912829130888
1733699129112426500,10.339426513671874,-0.012896264903247356,-0.015100252814590931,-0.008910242468118668
1733699129122382300,10.34938232421875,-0.014577023684978485,-0.023102732375264168,-0.012016501277685165
1733699129132337400,10.35933740234375,-0.012380181811749935,-0.03304271399974823,-0.011227140203118324
1733699129142293500,10.36929345703125,-0.00804354902356863,-0.03747517988085747,-0.008808035403490067
1733699129152248300,10.379248291015625,-0.001606954843737185,-0.03382265567779541,-0.006271906662732363
1733699129162204400,10.389204345703124,0.0048406184650957584,-0.027173766866326332,-0.002943658269941807
1733699129172159500,10.399159423828126,0.010005020536482334,-0.017876405268907547,-0.0015649397391825914
1733699129182115600,10.409115478515625,0.008931923657655716,-0.01302781980484724,-0.0008010033052414656
1733699129192070400,10.4190703125,0.010026482865214348,-0.013533021323382854,-0.0006028641946613789
1733699129202026200,10.429026123046874,0.007179189007729292,-0.02084803394973278,-0.0022429514210671186
1733699129211981600,10.438981689453126,0.007489979732781649,-0.03326555714011192,-0.00345468963496387
1733699129221937400,10.4489375,0.010353312827646732,-0.0446564182639122,-0.0008488313760608435
1733699129231892200,10.458892333984375,0.01253603957593441,-0.050459180027246475,0.0006137766176834702
1733699129241848600,10.4688486328125,0.017183765769004822,-0.04376861825585365,0.0055276937782764435
1733699129251803400,10.478803466796874,0.019920695573091507,-0.027888452634215355,0.008521352894604206
1733699129261759500,10.488759521484376,0.01554762851446867,-0.006282384507358074,0.010980362072587013
1733699129271714600,10.498714599609375,0.012531864456832409,0.014829026535153389,0.01044719759374857
1733699129281670400,10.50867041015625,0.0033157533034682274,0.0323423370718956,0.007743970025330782
1733699129291625500,10.51862548828125,-0.0026385425589978695,0.038455355912446976,0.004224069882184267
1733699129301581300,10.528581298828126,-0.004514884669333696,0.03532835841178894,0.0020607104524970055
1733699129311536600,10.53853662109375,-0.004030455835163593,0.021370727568864822,0.000017533311620354652
1733699129321492500,10.548492431640625,-0.0007230647606775165,0.0014605242758989334,-0.0017166491597890854
1733699129331447300,10.558447265625,-0.0009403786389157176,-0.01998378150165081,-0.005027757026255131
1733699129341402600,10.568402587890626,-0.002217024564743042,-0.03834332898259163,-0.006953579373657703
1733699129351358500,10.5783583984375,-0.00021885486785322428,-0.04660126194357872,-0.008035089820623398
1733699129361313300,10.588313232421875,0.001331698033027351,-0.047596439719200134,-0.005808856803923845
1733699129371269400,10.598269287109375,0.0028246664442121983,-0.04144160822033882,-0.0016766958869993687
1733699129381224400,10.608224365234374,0.0026524444110691547,-0.029975764453411102,-0.0026570281479507685
1733699129391180500,10.6181806640625,0.003453523386269808,-0.01853029616177082,-0.00032409909181296825
1733699129401135400,10.62813525390625,0.0029219677671790123,-0.012352051213383675,0.0015756143257021904
1733699129411091200,10.63809130859375,0.005710030905902386,-0.0026938312221318483,0.003541293554008007
1733699129421046500,10.648046630859374,0.00286467419937253,0.0058564417995512486,0.0036856750957667828
1733699129431002400,10.65800244140625,-0.001929015852510929,0.007960338145494461,0.0010462159989401698
1733699129440957400,10.66795751953125,-0.004770463332533836,0.00008848158176988363,-0.00008848309516906738
1733699129450913500,10.67791357421875,-0.0043400963768363,-0.007715911604464054,0.002658034907653928
1733699129460868400,10.687868408203125,-0.00022533128503710032,-0.003758858423680067,0.004482322838157415
1733699129470824400,10.697824462890624,0.004239724949002266,0.005091092083603144,0.0033848341554403305
1733699129480779500,10.707779541015626,0.009003865532577038,0.014483771286904812,0.0027867683675140142
1733699129490735600,10.717735595703125,0.007425676099956036,0.020000509917736053,0.004024871625006199
1733699129500690400,10.7276904296875,-0.000044237589463591576,0.02288592793047428,0.0031073461286723614
1733699129510646300,10.737646240234374,-0.008810298517346382,0.017352944239974022,-0.0024975426495075226
1733699129520601600,10.7476015625,-0.011985111981630325,0.011750283651053905,-0.007170700468122959
1733699129530556400,10.757556396484375,-0.013478612527251244,0.0018137629376724362,-0.006988008506596088
1733699129540512500,10.767512451171875,-0.013622338883578777,-0.008726890198886395,-0.0047818683087825775
1733699129550467600,10.777467529296874,-0.011355455964803696,-0.018440505489706993,-0.006398407276719809
1733699129560423400,10.78742333984375,-0.007212388329207897,-0.022527510300278664,-0.0024961442686617374
1733699129570378500,10.79737841796875,-0.0008687390363775194,-0.022105930373072624,-0.0019635120406746864
1733699129580334300,10.807334228515625,0.0036551724188029766,-0.022161714732646942,0.000191772123798728
1733699129590289400,10.817289306640625,0.005526309367269278,-0.018343539908528328,0.0014969874173402786
1733699129600245500,10.82724560546875,0.0061890725046396255,-0.01528503280133009,0.0003432735102251172
1733699129610200300,10.837200439453126,0.006112639792263508,-0.01665336638689041,-0.00034249061718583107
1733699129620156400,10.847156494140625,0.005782578606158495,-0.020684441551566124,-0.0033247563987970352
1733699129630111500,10.857111572265625,0.008126692846417427,-0.021472737193107605,-0.003640341106802225
1733699129640067300,10.8670673828125,0.011123087257146835,-0.02591818757355213,-0.0011751549318432808
1733699129650022400,10.8770224609375,0.013310607522726059,-0.025358125567436218,0.0008898602100089192
1733699129659978500,10.886978515625,0.019687209278345108,-0.020082566887140274,0.0022076943423599005
1733699129669933600,10.89693359375,0.016733231022953987,-0.006416022777557373,0.004966462962329388
1733699129679889400,10.906889404296875,0.012503598816692829,0.004137285519391298,0.004304667469114065
1733699129689844500,10.916844482421874,0.004301595035940409,0.014251971617341042,0.005583783611655235
1733699129699800600,10.926800537109376,-0.005661182105541229,0.025312578305602074,0.004554330371320248
1733699129709755400,10.93675537109375,-0.014527112245559692,0.030057532712817192,0.0020325833465903997
1733699129719711500,10.94671142578125,-0.01676284708082676,0.031526822596788406,0.002106006955727935
1733699129729666600,10.95666650390625,-0.02435951493680477,0.022593781352043152,-0.00017285998910665512
1733699129739621400,10.966621337890626,-0.02639978751540184,0.02151869237422943,-0.00838565081357956
1733699129749577500,10.976577392578125,-0.01683717407286167,0.020569274201989174,-0.007363263517618179
1733699129759532500,10.986532470703125,-0.009865380823612213,0.01816006377339363,-0.00037225731648504734
1733699129769488400,10.99648828125,-0.004477806389331818,0.021125759929418564,0.0010429464746266603
1733699129779443500,11.006443359375,0.0006018083076924086,0.025793354958295822,0.0012442506849765778
1733699129789399300,11.0163994140625,0.0034937348682433367,0.025857534259557724,0.00333323422819376
1733699129799354600,11.026354736328125,0.003087555291131139,0.021672451868653297,0.003210965311154723
1733699129809310500,11.036310546875,0.0019485214725136757,0.013600943610072136,0.0008942815475165844
1733699129819265300,11.046265380859374,-0.0016534996684640646,0.0023282000329345465,-0.002850980032235384
1733699129829221400,11.056221435546876,-0.004161664750427008,-0.010138323530554771,-0.0012086087372153997
1733699129839176400,11.066176513671875,-0.004077400080859661,-0.02367999777197838,-0.002379742218181491
1733699129849132500,11.076132568359375,-0.0004030367126688361,-0.026610540226101875,-0.0010332476813346148
1733699129859087400,11.08608740234375,0.006466308142989874,-0.0221174955368042,0.002414933405816555
1733699129869043500,11.09604345703125,0.011298081837594509,-0.014170624315738678,0.004292195662856102
1733699129878998500,11.10599853515625,0.013894735835492611,-0.0024797169025987387,0.006917172111570835
1733699129888954400,11.115954345703125,0.01739359460771084,0.010444603860378265,0.00812065415084362
1733699129898909400,11.125909423828125,0.015094684436917305,0.015382473357021809,0.0076509746722877026
1733699129908865500,11.135865478515624,0.012108215130865574,0.019368160516023636,0.005597943440079689
1733699129918820400,11.1458203125,0.012643971480429173,0.011269858106970787,0.002792938379570842
1733699129928776400,11.1557763671875,0.009573080576956272,-0.000834474980365485,0.00349042029120028
1733699129938731500,11.1657314453125,0.0054008872248232365,-0.016235673800110817,-0.00007845950312912464
1733699129948686300,11.175686279296874,0.0026844628155231476,-0.019341984763741493,-0.0026843626983463764
1733699129958642400,11.185642333984376,0.003168480470776558,-0.015582847408950329,-0.0009070425294339657
1733699129968597500,11.195597412109375,0.005207130219787359,-0.01269757840782404,0.00015955360140651464
1733699129978553600,11.2055537109375,0.002135851886123419,-0.004781417548656464,-0.0017748931422829628
1733699129988508400,11.21550830078125,0.0019757957197725773,-0.002485506236553192,-0.005416233092546463
1733699129998464300,11.22546435546875,0.003365902928635478,-0.008174733258783817,-0.009951411746442318
1733699130008419600,11.235419677734376,0.002031126758083701,-0.032924290746450424,-0.011100033298134804
1733699130018375000,11.245375,-0.004022079054266214,-0.0652809888124466,-0.015229137614369392
1733699130028329700,11.255329833984375,-0.005731029435992241,-0.09573104232549667,-0.021616196259856224
1733699130038285800,11.265285888671874,-0.00793114211410284,-0.11818765103816986,-0.020991569384932518
1733699130048241000,11.275240966796876,-0.00431696604937315,-0.1251286417245865,-0.01865570992231369
1733699130058196700,11.28519677734375,0.003156193532049656,-0.11772380769252777,-0.015000971034169197
1733699130068151800,11.29515185546875,0.010211972519755363,-0.10310811549425125,-0.009442955255508423
1733699130078108000,11.30510791015625,0.015913423150777817,-0.0875987708568573,-0.007634247653186321
1733699130088062700,11.315062744140626,0.021373435854911804,-0.07570083439350128,-0.0049031758680939674
1733699130098018800,11.325018798828125,0.027660224586725235,-0.07339207082986832,-0.005333800800144672
1733699130107974000,11.334973876953125,0.03532267361879349,-0.07642275094985962,-0.0013867297675460577
1733699130117930000,11.344929931640625,0.03866260498762131,-0.08190549165010452,-0.002048977417871356
1733699130127884800,11.354884765625,0.03370247036218643,-0.08977805823087692,-0.004968867637217045
1733699130137840600,11.364840576171876,0.03313954919576645,-0.09818442910909653,-0.011852708645164967
1733699130147796000,11.3747958984375,0.030902491882443428,-0.10106010735034943,-0.015210156328976154
1733699130157750800,11.384750732421875,0.03596799448132515,-0.09779693186283112,-0.02031361684203148
1733699130167706600,11.39470654296875,0.042799536138772964,-0.08553281426429749,-0.02356986328959465
1733699130177662000,11.404661865234376,0.05385369807481766,-0.07191620022058487,-0.024035893380641937
1733699130187617800,11.41461767578125,0.08764815330505371,-0.05215555056929588,-0.0264095701277256
1733699130197572600,11.424572509765625,0.0861004889011383,-0.043426763266325,-0.05493073910474777
1733699130207528700,11.43452880859375,0.06982697546482086,-0.051531028002500534,-0.06484036147594452
1733699130217483800,11.44448388671875,0.06352240592241287,-0.06605846434831619,-0.05325497314333916
1733699130227439900,11.45443994140625,0.07169777899980545,-0.05827590823173523,-0.03527943417429924
1733699130237394700,11.464394775390625,0.07479020208120346,-0.0440770722925663,-0.024572957307100296
1733699130247351000,11.47435107421875,0.07413452863693237,-0.03378928080201149,-0.01641995646059513
1733699130257305900,11.484305908203124,0.07333876937627792,-0.026840412989258766,-0.012058564461767673
1733699130267261700,11.49426171875,0.08054687827825546,-0.023171110078692436,-0.009594608098268509
1733699130277217000,11.504217041015625,0.09156792610883713,-0.021694248542189598,-0.01706080138683319
1733699130287172900,11.5141728515625,0.0824761614203453,-0.03567025065422058,-0.024174371734261513
1733699130297127700,11.524127685546874,0.07427244633436203,-0.05274534597992897,-0.025577450171113014
1733699130307083800,11.534083740234376,0.07060740143060684,-0.060893550515174866,-0.022694844752550125
1733699130317038800,11.544038818359375,0.06787286698818207,-0.06411197781562805,-0.02381417155265808
1733699130326995000,11.553994873046875,0.06573781371116638,-0.06264138221740723,-0.029652617871761322
1733699130336949800,11.56394970703125,0.05997571721673012,-0.05869631469249725,-0.03367583453655243
1733699130346904800,11.57390478515625,0.05637272447347641,-0.05198434740304947,-0.03331337869167328
1733699130356861000,11.58386083984375,0.054029565304517746,-0.03624038025736809,-0.030119292438030243
1733699130366815700,11.593815673828125,0.04597616568207741,-0.017939141020178795,-0.02468910813331604
1733699130376771800,11.603771728515625,0.034165650606155396,0.0018162282649427652,-0.016817452386021614
1733699130386727000,11.613726806640624,0.021091660484671593,0.017613567411899567,-0.010697241872549057
1733699130396682800,11.623682861328126,0.01010134257376194,0.028914131224155426,-0.004784146323800087
1733699130406637800,11.633637939453125,0.0024761795066297054,0.0333365797996521,-0.0021185881923884153
1733699130416593700,11.64359375,-0.0013135474873706698,0.036813534796237946,-0.0011982161086052656
1733699130426548700,11.653548828125,-0.001266942243091762,0.03967030718922615,0.0010228602914139628
1733699130436504800,11.6635048828125,-0.0018442064756527543,0.03974844515323639,0.0036616327706724405
1733699130446459600,11.673459716796875,0.0008639621082693338,0.04018493741750717,0.007786869071424007
1733699130456416000,11.683416015625,0.0010325888870283961,0.03982134163379669,0.009660432115197182
1733699130466370800,11.693370849609375,0.0012914481339976192,0.040263425558805466,0.007742689456790686
1733699130476326700,11.70332666015625,0.00032687396742403507,0.03893794119358063,0.00817851908504963
1733699130486282000,11.713281982421876,-0.0036606770008802414,0.036570657044649124,0.006036272272467613
1733699130496237800,11.72323779296875,-0.004803717602044344,0.025706034153699875,0.00358584220521152
1733699130506193000,11.73319287109375,-0.0027855741791427135,0.014353243634104729,0.0023306943476200104
