time,seconds_elapsed,z,y,x
1733698399132033500,0.027033447265625,0.09718162566423416,-0.11097058653831482,0.018183952197432518
1733698399141988600,0.036988525390625,0.1021079421043396,-0.1033526137471199,-0.007790656760334969
1733698399151943400,0.046943359375,0.09867246448993683,-0.05502183362841606,-0.028835222125053406
1733698399161898500,0.0568984375,0.11898364871740341,0.1081606075167656,-0.015757672488689423
1733698399171853600,0.066853515625,0.13757863640785217,0.2724195718765259,-0.0348389558494091
1733698399181808400,0.076808349609375,0.14120860397815704,0.32585686445236206,-0.0409189872443676
1733698399191763500,0.086763427734375,-0.13735537230968475,-0.08034764975309372,0.14228545129299164
1733698399201718500,0.096718505859375,-0.2834792137145996,-0.2545204758644104,0.09385757893323898
1733698399211673600,0.106673583984375,-0.21218134462833405,-0.3285006880760193,0.055470775812864304
1733698399221628400,0.11662841796875,-0.06621260941028595,-0.31681108474731445,0.05572091415524483
1733698399231583500,0.12658349609375,0.06228091940283775,-0.2654685378074646,0.048196420073509216
1733698399241538600,0.13653857421875,0.11652448773384094,-0.20987239480018616,0.018239563331007957
1733698399251493400,0.146493408203125,0.11564777046442032,-0.15823796391487122,-0.004381327889859676
1733698399261448400,0.156448486328125,0.07951605319976807,-0.10494039952754974,-0.013172346167266369
1733698399271403500,0.166403564453125,0.03682717680931091,-0.0567941777408123,-0.019421987235546112
1733698399281358600,0.176358642578125,0.0007683485746383667,-0.016807155683636665,-0.01444529090076685
1733698399291313400,0.1863134765625,-0.024754589423537254,0.011704113334417343,-0.003113275161013007
1733698399301268500,0.1962685546875,-0.03874973580241203,0.032798729836940765,0.003172904485836625
1733698399311224600,0.206224609375,-0.03823201730847359,0.057285163551568985,0.0011819252977147698
1733698399321179400,0.216179443359375,-0.02104392647743225,0.07455579936504364,-0.0041618384420871735
1733698399331134500,0.226134521484375,0.0002935859374701977,0.06926649063825607,-0.013915665447711945
1733698399341089500,0.236089599609375,0.013586326502263546,0.030983353033661842,-0.021678242832422256
1733698399351044400,0.24604443359375,0.014591136947274208,-0.0236069206148386,-0.019756771624088287
1733698399360999200,0.255999267578125,0.0038160148542374372,-0.06683946400880814,-0.008661042898893356
1733698399370954200,0.265954345703125,-0.0070182569324970245,-0.08889283239841461,0.0023820213973522186
1733698399380909300,0.275909423828125,-0.011756819672882557,-0.09356934577226639,0.00607476057484746
1733698399390864100,0.285864013671875,-0.012418615631759167,-0.08662648499011993,0.005882213823497295
1733698399400819200,0.295819091796875,-0.006103967782109976,-0.07054364681243896,0.005333843640983105
1733698399410774300,0.305774169921875,-0.0014905738644301891,-0.052138276398181915,0.005311473272740841
1733698399420729000,0.31572900390625,-0.003159815212711692,-0.026359135285019875,0.0044304742477834225
1733698399430684400,0.325684326171875,-0.009582294151186943,0.001899932511150837,0.004041119944304228
1733698399440639200,0.33563916015625,-0.01313438918441534,0.02932826429605484,0.006280427798628807
1733698399450594300,0.34559423828125,-0.008136434480547905,0.04739035665988922,0.01047437358647585
1733698399460549000,0.355549072265625,0.0008015031926333904,0.053305283188819885,0.015022072941064835
1733698399470504200,0.365504150390625,0.009289263747632504,0.047623161226511,0.019227735698223114
1733698399480459300,0.375459228515625,0.010638074949383736,0.04077959805727005,0.02073417603969574
1733698399490414000,0.3854140625,0.011079094372689724,0.037561431527137756,0.02054802142083645
1733698399500369400,0.395369384765625,0.008597247302532196,0.03766178339719772,0.022502724081277847
1733698399510324200,0.40532421875,0.0063977427780628204,0.0403936505317688,0.02180337905883789
1733698399520279300,0.415279296875,0.00720605906099081,0.04136602580547333,0.02267029508948326
1733698399530234000,0.425234130859375,0.007097136229276657,0.04542041942477226,0.0165274478495121
1733698399540189200,0.435189208984375,0.01054060272872448,0.05058867484331131,0.010262666270136833
1733698399550144300,0.445144287109375,0.0180581733584404,0.05478581786155701,0.008854120969772339
1733698399560099000,0.45509912109375,0.02309815213084221,0.051502782851457596,0.004145742394030094
1733698399570054400,0.465054443359375,0.03135528415441513,0.03620452061295509,0.00026897876523435116
1733698399580009200,0.47500927734375,0.035210102796554565,0.013587292283773422,-0.00042398087680339813
1733698399589964000,0.484964111328125,0.03772732615470886,-0.015475784428417683,-0.00032810703851282597
1733698399599919400,0.49491943359375,0.037689585238695145,-0.0496349036693573,0.004728507250547409
1733698399609874200,0.504874267578125,0.03400510177016258,-0.08030972629785538,0.006941061466932297
1733698399619829200,0.514829345703125,0.023713504895567894,-0.09702150523662567,0.006509559229016304
1733698399629784000,0.5247841796875,0.014557823538780212,-0.09829183667898178,0.006352165713906288
1733698399639739400,0.534739501953125,0.006811680272221565,-0.08078356087207794,0.007698431145399809
1733698399649694200,0.544694091796875,0.003158355364575982,-0.05033164471387863,0.009959454648196697
1733698399659649000,0.55464892578125,-0.004606338683515787,-0.018257612362504005,0.012795241549611092
1733698399669604400,0.564604248046875,-0.011961990036070347,0.0029115895740687847,0.012818943709135056
1733698399679559200,0.57455908203125,-0.01918477565050125,0.017047910019755363,0.013846149668097496
1733698399689514200,0.58451416015625,-0.021628491580486298,0.024324463680386543,0.014581182971596718
1733698399699469300,0.59446923828125,-0.017899027094244957,0.02910749427974224,0.013642444275319576
1733698399709424400,0.60442431640625,-0.008683957159519196,0.03458641469478607,0.010326010175049305
1733698399719379200,0.614379150390625,0.00209404225461185,0.03947940468788147,0.009587138891220093
1733698399729334000,0.624333984375,0.009731455706059933,0.04078115522861481,0.009115492925047874
1733698399739289300,0.634289306640625,0.0077737923711538315,0.035491447895765305,0.0030205966904759407
1733698399749244200,0.644244140625,0.003054671222344041,0.024532275274395943,0.0018453437369316816
1733698399759200000,0.654199951171875,-0.00009638105984777212,0.01073656789958477,0.0030672019347548485
1733698399769155300,0.6641552734375,0.005281340330839157,0.001343065407127142,0.004553245846182108
1733698399779110100,0.674110107421875,0.008059523068368435,0.00017247709911316633,-0.0010870771948248148
1733698399789065200,0.684065185546875,0.004971321672201157,0.0011535856174305081,-0.008414232172071934
1733698399799020300,0.694020263671875,0.002709204563871026,0.00006219575880095363,-0.012788102962076664
1733698399808975000,0.70397509765625,0.003046627389267087,-0.006432987749576569,-0.01591891422867775
1733698399818930200,0.71393017578125,0.0007635550573468208,-0.020904162898659706,-0.011807164177298546
1733698399828885200,0.72388525390625,-0.0021504759788513184,-0.04675120860338211,-0.00539746880531311
1733698399838840300,0.73384033203125,-0.0007436349987983704,-0.08318184316158295,0.0022140666842460632
1733698399848795100,0.743795166015625,0.0035057049244642258,-0.11602234840393066,0.00491770775988698
1733698399858750200,0.753750244140625,0.012865735217928886,-0.1253376305103302,0.008417705073952675
1733698399868705300,0.763705322265625,0.0217985101044178,-0.09821360558271408,0.009854480624198914
1733698399878660000,0.77366015625,0.01962781697511673,-0.05240068584680557,0.007878590375185013
1733698399888615200,0.783615234375,0.01166470069438219,-0.0027937195263803005,0.004734463058412075
1733698399898570200,0.7935703125,-0.0000065267086029052734,0.0399649515748024,0.0023159694392234087
1733698399908525300,0.803525390625,-0.01898873969912529,0.07128026336431503,-0.0027051542419940233
1733698399918480100,0.813480224609375,-0.037600934505462646,0.08626433461904526,-0.002805550117045641
1733698399928435200,0.823435302734375,-0.04827914386987686,0.08636100590229034,-0.0026055467315018177
1733698399938390300,0.833390380859375,-0.04097569361329079,0.07777231186628342,-0.007860496640205383
1733698399948345000,0.843344970703125,-0.02684149518609047,0.06521790474653244,-0.01524144783616066
1733698399958300200,0.853300048828125,-0.0032555030193179846,0.042391661554574966,-0.019537286832928658
1733698399968255200,0.863255126953125,0.023168647661805153,0.009982587769627571,-0.0268388744443655
1733698399978210300,0.873210205078125,0.04630326107144356,-0.03305407613515854,-0.03147818148136139
1733698399988165000,0.8831650390625,0.06402047723531723,-0.08108125627040863,-0.030788157135248184
1733698399998120200,0.8931201171875,0.0736655592918396,-0.1328049749135971,-0.019572285935282707
1733698400008075300,0.9030751953125,0.06711285561323166,-0.17489436268806458,-0.00826982967555523
1733698400018030000,0.913030029296875,0.04742594435811043,-0.19611774384975433,0.004934641532599926
1733698400027985200,0.922985107421875,0.023699576035141945,-0.18853706121444702,0.01256752759218216
1733698400037940200,0.932940185546875,0.0006946830544620752,-0.1530941128730774,0.007457162253558636
1733698400047895300,0.942895263671875,-0.016074975952506065,-0.09641724824905396,0.00465578306466341
1733698400057850000,0.95285009765625,-0.01871030405163765,-0.029824592173099518,0.0017375509487465024
1733698400067805200,0.96280517578125,-0.018016017973423004,0.03853928670287132,0.0007327402709051967
1733698400077760300,0.97276025390625,-0.022204693406820297,0.0908789113163948,-0.0008528553880751133
1733698400087715000,0.982715087890625,-0.021061664447188377,0.11846979707479477,0.00012079649604856968
1733698400097670400,0.99267041015625,-0.014798336662352085,0.11919022351503372,0.0019075964810326695
1733698400107625200,1.002625244140625,-0.009366019628942013,0.10524830967187881,0.006128973327577114
1733698400117580300,1.012580322265625,-0.0054971398785710335,0.07889918237924576,0.009204170666635036
1733698400127535000,1.02253515625,-0.005625504069030285,0.04726455733180046,0.011042283847928047
1733698400137490200,1.032490234375,-0.007674966473132372,0.02076176553964615,0.009716341271996498
1733698400147445200,1.0424453125,-0.00933757796883583,-0.0011179675348103046,0.009024452418088913
1733698400157400000,1.052400146484375,-0.00562430452555418,-0.01460234448313713,0.005158849060535431
1733698400167355400,1.06235546875,0.001956916181370616,-0.023461349308490753,0.0015633150469511747
1733698400177310200,1.072310302734375,0.013758767396211624,-0.024945229291915894,-0.000733259366825223
1733698400187265300,1.082265380859375,0.022383414208889008,-0.02437611296772957,-0.0003239316865801811
1733698400197220400,1.092220458984375,0.02895183488726616,-0.019054051488637924,0.0009834141237661242
1733698400207175200,1.102175048828125,0.03178277611732483,-0.006712963804602623,0.0075057619251310825
1733698400217130200,1.112130126953125,0.03188871592283249,0.013633430935442448,0.005249090027064085
1733698400227086300,1.12208642578125,0.03189963474869728,0.04413008689880371,0.0069886669516563416
1733698400237041200,1.132041259765625,0.03421887382864952,0.07923968136310577,0.007486898452043533
1733698400246996200,1.141996337890625,0.03597389906644821,0.10904977470636368,0.012299496680498123
1733698400256951000,1.151950927734375,0.031293656677007675,0.1276349127292633,0.014069699682295322
1733698400266906400,1.16190625,0.023601116612553596,0.12762080132961273,0.01537731196731329
1733698400276861200,1.171861083984375,0.010110342875123024,0.11211560666561127,0.018084948882460594
1733698400286816000,1.18181591796875,-0.0027953365352004766,0.08888431638479233,0.01997952163219452
1733698400296771300,1.191771240234375,-0.016836849972605705,0.056317176669836044,0.02141234278678894
1733698400306726100,1.20172607421875,-0.020677927881479263,0.028997674584388733,0.020063985139131546
1733698400316681200,1.21168115234375,-0.019829392433166504,0.005937804933637381,0.01406211405992508
1733698400326636300,1.22163623046875,-0.01926879771053791,-0.009777507744729519,0.008723540231585503
1733698400336591400,1.23159130859375,-0.015484095551073551,-0.022102702409029007,0.008079925552010536
1733698400346546200,1.241546142578125,-0.010167361237108707,-0.02681197039783001,0.005315830931067467
1733698400356501000,1.2515009765625,-0.006519709248095751,-0.02491253986954689,0.003961622249335051
1733698400366456300,1.261456298828125,-0.005228076130151749,-0.017838651314377785,0.0021669180132448673
1733698400376411100,1.2714111328125,-0.005160782486200333,-0.00408544996753335,0.006071227602660656
1733698400386366200,1.2813662109375,0.00007712258957326412,0.011981933377683163,0.007466990500688553
1733698400396321300,1.2913212890625,-0.0019136670744046569,0.027810513973236084,0.005078331101685762
1733698400406276400,1.3012763671875,-0.003609834238886833,0.04138491302728653,0.0035313009284436703
1733698400416231200,1.311231201171875,-0.0073339673690497875,0.046427879482507706,0.006038109306246042
1733698400426186200,1.321186279296875,-0.009686337783932686,0.04695944860577583,0.007715900428593159
1733698400436141300,1.331141357421875,-0.008330222219228745,0.042588938027620316,0.0028327039908617735
1733698400446096100,1.34109619140625,-0.004464644007384777,0.03371608629822731,-0.004598313942551613
1733698400456051200,1.35105126953125,0.007181133143603802,0.019817491993308067,-0.015040741302073002
1733698400466006300,1.36100634765625,0.020346470177173615,-0.002864917740225792,-0.014447388239204884
1733698400475961000,1.370961181640625,0.027550693601369858,-0.04131918027997017,-0.00992343109101057
1733698400485916200,1.380916259765625,0.02924766018986702,-0.0852818414568901,0.0019670501351356506
1733698400495871200,1.390871337890625,0.028225325047969818,-0.12276940792798996,0.005516421049833298
1733698400505826300,1.400826416015625,0.030847474932670593,-0.14359399676322937,0.006189402192831039
1733698400515781000,1.410781005859375,0.02886245958507061,-0.13548608124256134,0.007787344045937061
1733698400525736200,1.420736083984375,0.022014673799276352,-0.10907923430204391,0.006762293167412281
1733698400535691300,1.430691162109375,0.009895131923258305,-0.0682910680770874,0.007497350685298443
1733698400545646000,1.44064599609375,0.0010015058796852827,-0.025632554665207863,0.0051050325855612755
1733698400555601200,1.45060107421875,-0.009427961893379688,0.01403908059000969,0.001831781817600131
1733698400565556200,1.46055615234375,-0.01602461189031601,0.04300681874155998,-0.0025919952895492315
1733698400575511300,1.47051123046875,-0.017420504242181778,0.060831815004348755,-0.004399994853883982
1733698400585466000,1.480466064453125,-0.01406865008175373,0.06288804113864899,-0.005017848219722509
1733698400595421400,1.49042138671875,-0.0047390637919306755,0.054728914052248,-0.0036646961234509945
1733698400605376300,1.500376220703125,0.004777742549777031,0.04135851562023163,-0.0017837053164839745
1733698400615331000,1.5103310546875,0.012303335592150688,0.02868027426302433,-0.00026040198281407356
1733698400625286100,1.5202861328125,0.01659528538584709,0.018072905018925667,0.003111692611128092
1733698400635241200,1.5302412109375,0.016529466956853867,0.008647583425045013,0.004559903871268034
1733698400645196300,1.5401962890625,0.010024696588516235,0.00001574592897668481,0.007476331666111946
1733698400655151000,1.550151123046875,0.00975034013390541,-0.008970058523118496,0.009794743731617928
1733698400665106200,1.560106201171875,0.008826223202049732,-0.015355253592133522,0.009742013178765774
1733698400675061200,1.570061279296875,0.013526629656553268,-0.022467143833637238,0.010241552256047726
1733698400685016000,1.58001611328125,0.011425928212702274,-0.0289282388985157,0.012028001248836517
1733698400694971400,1.589971435546875,0.011898817494511604,-0.036619607359170914,0.010968444868922234
1733698400704926200,1.59992626953125,0.013460761867463589,-0.04182662069797516,0.009236058220267296
1733698400714881300,1.60988134765625,0.013524653390049934,-0.041282422840595245,0.005891725420951843
1733698400724836000,1.619836181640625,0.015446655452251434,-0.036887671798467636,0.00390047999098897
1733698400734791200,1.629791259765625,0.016941208392381668,-0.02963857538998127,0.006582123227417469
1733698400744746200,1.639746337890625,0.018473591655492783,-0.021870136260986328,0.012559588998556137
1733698400754701000,1.649701171875,0.018411176279187202,-0.014415429905056953,0.01751953363418579
1733698400764656400,1.659656494140625,0.017663627862930298,0.0003533960261847824,0.01883726753294468
1733698400774611200,1.669611083984375,0.014724671840667725,0.02108987793326378,0.017286859452724457
1733698400784566300,1.679566162109375,0.016102058812975883,0.047841329127550125,0.015772318467497826
1733698400794521000,1.68952099609375,0.017246000468730927,0.07119622826576233,0.012571286410093307
1733698400804476200,1.69947607421875,0.02406076341867447,0.08744364231824875,0.014983577653765678
1733698400814431200,1.70943115234375,0.02464955672621727,0.0906272679567337,0.010225480422377586
1733698400824386000,1.719385986328125,0.021318741142749786,0.07543713599443436,0.011648939922451973
1733698400834341400,1.72934130859375,0.011066203936934471,0.046833962202072144,0.015176951885223389
1733698400844296200,1.739296142578125,0.004884208552539349,0.013276268728077412,0.011372360400855541
1733698400854251300,1.749251220703125,0.012784617021679878,-0.009783993475139141,0.004045532085001469
1733698400864206300,1.759206298828125,0.029425378888845444,-0.014249848201870918,-0.0032366153318434954
1733698400874161200,1.7691611328125,0.049338310956954956,-0.00102421292103827,-0.008185476996004581
1733698400884117200,1.7791171875,0.06260538101196289,0.012422087602317333,-0.012035342864692211
1733698400894071000,1.789071044921875,0.06791886687278748,0.01099566463381052,-0.016705863177776337
1733698400904027100,1.799027099609375,0.05670296773314476,-0.01118314079940319,-0.01008258294314146
1733698400913982200,1.808982177734375,0.03917507082223892,-0.041373804211616516,-0.009041794575750828
1733698400923937300,1.818937255859375,0.021330296993255615,-0.07737548649311066,-0.011037034913897514
1733698400933892400,1.828892333984375,0.010524149984121323,-0.10225864499807358,-0.007288947701454163
1733698400943847200,1.83884716796875,0.002227870048955083,-0.11127851158380508,-0.002155171474441886
1733698400953802000,1.848802001953125,-0.0023185648024082184,-0.09629099071025848,-0.0007864870131015778
1733698400963757300,1.85875732421875,-0.006497597321867943,-0.06564333289861679,-0.003373481798917055
1733698400973712100,1.868712158203125,-0.006525412201881409,-0.02828334830701351,-0.0024958301801234484
1733698400983667200,1.878667236328125,-0.008679909631609917,-0.007356761023402214,-0.0047696372494101524
1733698400993622300,1.888622314453125,-0.013817770406603813,-0.010809761472046375,-0.008070854470133781
1733698401003577300,1.898577392578125,-0.02047514170408249,-0.016905203461647034,-0.014188135974109173
1733698401013532200,1.9085322265625,-0.02502577379345894,-0.020060677081346512,-0.016971025615930557
1733698401023487200,1.9184873046875,-0.020923972129821777,-0.022897476330399513,-0.01530388556420803
1733698401033442300,1.9284423828125,-0.00820607878267765,-0.02480563521385193,-0.009920813143253326
1733698401043397000,1.938397216796875,0.01078225951641798,-0.021280143409967422,-0.005677066743373871
1733698401053352200,1.948352294921875,0.020997386425733566,-0.0062358202412724495,-0.009289894253015518
1733698401063307300,1.958307373046875,0.02119259722530842,0.006439228542149067,-0.013113927096128464
1733698401073262300,1.968262451171875,0.011454110965132713,0.017368119210004807,-0.01181701384484768
1733698401083217200,1.978217041015625,0.0038137687370181084,0.025673188269138336,-0.011607954278588295
1733698401093172200,1.988172119140625,0.0066840085200965405,0.03244982287287712,-0.014937791042029858
1733698401103127300,1.998127197265625,0.006461634766310453,0.027557332068681717,-0.014506359584629536
1733698401113082000,2.00808203125,0.0069089485332369804,0.013388415798544884,-0.01147637702524662
1733698401123037200,2.018037109375,0.0045635029673576355,-0.003386302851140499,-0.009620953351259232
1733698401132992300,2.0279921875,0.00021441560238599777,-0.024664711207151413,-0.007487397640943527
1733698401142947000,2.037947021484375,-0.004983009770512581,-0.05063559114933014,0.00189438636880368
1733698401152902100,2.047902099609375,-0.012609323486685753,-0.07918909937143326,0.0066338637843728065
1733698401162857200,2.057857177734375,-0.016040008515119553,-0.1004219502210617,0.008891158737242222
1733698401172812300,2.067812255859375,-0.016787542030215263,-0.10556560009717941,0.010059302672743797
1733698401182767000,2.07776708984375,-0.013147001154720783,-0.09921716153621674,0.011105658486485481
1733698401192722400,2.087722412109375,-0.007602204103022814,-0.0715753436088562,0.01026357151567936
1733698401202677200,2.09767724609375,-0.008476786315441132,-0.03372889757156372,0.008506683632731438
1733698401212632000,2.107632080078125,-0.012166192755103111,0.009881625883281231,0.006852081976830959
1733698401222587100,2.117587158203125,-0.01926271803677082,0.05272788926959038,0.002909271977841854
1733698401232542200,2.127542236328125,-0.01994236744940281,0.08588740974664688,-0.00022090086713433266
1733698401242497300,2.137497314453125,-0.01952638104557991,0.10947342962026596,-0.0026182786095887423
1733698401252452000,2.1474521484375,-0.010961668565869331,0.1173674538731575,-0.005223157815635204
1733698401262407400,2.157407470703125,-0.0023141184356063604,0.10762801021337509,-0.007446098141372204
1733698401272362200,2.1673623046875,0.006930158473551273,0.0853760689496994,-0.007449977099895477
1733698401282317000,2.177317138671875,0.012264469638466835,0.057368140667676926,-0.0036336679477244616
1733698401292272400,2.1872724609375,0.014230248518288136,0.024361468851566315,0.0010278552072122693
1733698401302227200,2.197227294921875,0.011072272434830666,-0.007727224379777908,0.004581044428050518
1733698401312182300,2.207182373046875,0.01443098671734333,-0.037777453660964966,0.008356804959475994
1733698401322137000,2.21713720703125,0.012736150994896889,-0.06239331513643265,0.01046895794570446
1733698401332092200,2.227092041015625,0.014977126382291317,-0.08038271218538284,0.011301510967314243
1733698401342047200,2.237047119140625,0.016086600720882416,-0.09548896551132202,0.01187835168093443
1733698401352002000,2.247001953125,0.018056213855743408,-0.10481496900320053,0.014521628618240356
1733698401361957400,2.256957275390625,0.02084134891629219,-0.11911001801490784,0.013131191954016685
1733698401371912200,2.266912109375,0.023081960156559944,-0.12493659555912018,0.010609330609440804
1733698401381867500,2.276867431640625,0.022601792588829994,-0.12598241865634918,0.009450322948396206
1733698401391822300,2.286822265625,0.021408429369330406,-0.1179596409201622,0.009546729736030102
1733698401401777200,2.296777099609375,0.02076341211795807,-0.09648577868938446,0.01191561110317707
1733698401411732500,2.306732421875,0.021112967282533646,-0.06433773785829544,0.014792271889746189
1733698401421687300,2.316687255859375,0.023329516872763634,-0.030406404286623,0.01590600609779358
1733698401431642400,2.326642333984375,0.026050852611660957,0.0021678274497389793,0.016442719846963882
1733698401441597200,2.33659716796875,0.027101736515760422,0.034365445375442505,0.018261391669511795
1733698401451552500,2.346552490234375,0.02800237014889717,0.06738771498203278,0.02317836880683899
1733698401461507300,2.35650732421875,0.02666493132710457,0.10149960964918137,0.026293735951185226
1733698401471462100,2.366462158203125,0.02559012547135353,0.11780867725610733,0.029801666736602783
1733698401481417500,2.37641748046875,0.03101205639541149,0.08067595213651657,0.02528015337884426
1733698401491372300,2.386372314453125,0.039168599992990494,0.0008581236470490694,0.01559008564800024
1733698401501327400,2.396327392578125,0.044360965490341187,-0.06179460138082504,0.013739987276494503
1733698401511282400,2.406282470703125,0.04284733906388283,-0.0674717128276825,0.011214716359972954
1733698401521237200,2.4162373046875,0.04050535708665848,-0.03346261382102966,0.012921802699565887
1733698401531192300,2.4261923828125,0.044322021305561066,0.006710265297442675,0.019946575164794922
1733698401541147100,2.436147216796875,0.049977779388427734,0.02067641355097294,0.01511826366186142
1733698401551102500,2.4461025390625,0.04175001382827759,0.0014451139140874147,0.005804193206131458
1733698401561057300,2.456057373046875,0.025918051600456238,-0.03594060614705086,-0.0042596254497766495
1733698401571012400,2.466012451171875,0.009001028724014759,-0.07447528094053268,-0.007747571915388107
1733698401580967400,2.475967529296875,0.00020380900241434574,-0.09627645462751389,-0.0038851893041282892
1733698401590922200,2.485922119140625,-0.003757153870537877,-0.09611350297927856,0.00042766507249325514
1733698401600877300,2.495877197265625,-0.004214684944599867,-0.08375057578086853,0.001137930084951222
1733698401610832400,2.505832275390625,0.0020596408285200596,-0.06502539664506912,0.002740509808063507
1733698401620787500,2.515787353515625,0.005197111051529646,-0.04008622467517853,0.003371146507561207
1733698401630742300,2.5257421875,0.01030648872256279,-0.01586778275668621,0.005880155600607395
1733698401640697300,2.535697265625,0.009315526112914085,0.005565337836742401,0.003998099360615015
1733698401650652400,2.54565234375,0.00462027033790946,0.020520130172371864,0.005250272806733847
1733698401660607200,2.555607177734375,-0.0009286921704187989,0.028168994933366776,0.007308896165341139
1733698401670562300,2.565562255859375,-0.00826268270611763,0.03608610853552818,0.008207184262573719
1733698401680517400,2.575517333984375,-0.012035316787660122,0.04991351068019867,0.006305420771241188
1733698401690472400,2.585472412109375,-0.014049596153199673,0.06238977983593941,0.006508215330541134
1733698401700427300,2.59542724609375,-0.012463417835533619,0.07710907608270645,0.007148971781134605
1733698401710382300,2.60538232421875,-0.005102724768221378,0.0927014946937561,0.009323135018348694
1733698401720337400,2.61533740234375,0.00045582535676658154,0.10005821287631989,0.010112229734659195
1733698401730292200,2.625292236328125,0.0055358437821269035,0.10399356484413147,0.011638462543487549
1733698401740247300,2.635247314453125,0.007177416235208511,0.1012454479932785,0.014581788331270218
1733698401750202400,2.645202392578125,0.004090285860002041,0.09250924736261368,0.018975896760821342
1733698401760157400,2.655157470703125,0.0033813524059951305,0.08194661885499954,0.025778142735362053
1733698401770112300,2.6651123046875,0.014316491782665253,0.0740022212266922,0.029361890628933907
1733698401780067300,2.6750673828125,0.019862258806824684,0.07605498284101486,0.025244111195206642
1733698401790022400,2.6850224609375,0.02032577246427536,0.08042850345373154,0.018115872517228127
1733698401799977200,2.694977294921875,0.014719554223120213,0.07796960324048996,0.01540237758308649
1733698401809932300,2.704932373046875,0.004071126226335764,0.06504259258508682,0.013030432164669037
1733698401819887400,2.714887451171875,-0.0038634957745671272,0.04432026669383049,0.0141281858086586
1733698401829842400,2.724842529296875,-0.002954989904537797,0.016409965232014656,0.014487599022686481
1733698401839797200,2.73479736328125,0.0034626955166459084,-0.012323412112891674,0.014439130201935768
1733698401849752300,2.74475244140625,0.007732131518423557,-0.03761911019682884,0.013510997407138348
1733698401859707400,2.754707275390625,0.010413935407996178,-0.05456187203526497,0.012968511320650578
1733698401869662200,2.764662109375,0.012987880036234856,-0.05594618618488312,0.016037805005908012
1733698401879617500,2.774617431640625,0.014033970423042774,-0.0372939370572567,0.014395433478057384
1733698401889572400,2.784572265625,0.015354489907622337,-0.007376976311206818,0.015072387643158436
1733698401899527400,2.79452734375,0.009101653471589088,0.0234746802598238,0.01016258355230093
1733698401909482200,2.804482177734375,0.002062140731140971,0.05112509801983833,0.008347840048372746
1733698401919437300,2.814437255859375,-0.002222619019448757,0.07152783870697021,0.005047384649515152
1733698401929392400,2.824392333984375,-0.0013460355112329125,0.08517637848854065,0.0038456395268440247
1733698401939347200,2.83434716796875,0.0006734395865350962,0.09133733808994293,0.0032775872386991978
1733698401949302500,2.844302490234375,0.00652875192463398,0.08657865971326828,0.005093589425086975
1733698401959257300,2.85425732421875,0.01068275049328804,0.07594998180866241,0.005564436316490173
1733698401969212400,2.86421240234375,0.016110435128211975,0.06268539279699326,0.008083741180598736
1733698401979167200,2.874167236328125,0.015482730232179165,0.04957837611436844,0.007600910030305386
1733698401989122300,2.884122314453125,0.011522650718688965,0.03469879925251007,0.011375809088349342
1733698401999077400,2.894077392578125,0.005795789882540703,0.02247142791748047,0.011393919587135315
1733698402009032200,2.9040322265625,0.0019084131345152855,0.016067061573266983,0.012456497177481651
1733698402018987500,2.913987548828125,0.003055170178413391,0.011047002859413624,0.013500988483428955
1733698402028942300,2.9239423828125,0.0005948601756244898,0.008964639157056808,0.01081534568220377
1733698402038897200,2.933897216796875,0.002734443638473749,0.007567811291664839,0.01010188553482294
1733698402048852500,2.9438525390625,0.0032157795503735542,0.00741620035842061,0.005323686171323061
1733698402058807300,2.953807373046875,0.004310072399675846,0.010693752206861973,-0.0005584375467151403
1733698402068762400,2.963762451171875,0.0016728918999433517,0.012861992232501507,-0.0026182634755969048
1733698402078717200,2.97371728515625,0.0011631629895418882,0.011325081810355186,0.000773005886003375
1733698402088672500,2.983672607421875,-0.000036247773095965385,0.007985016331076622,0.0019759582355618477
1733698402098627300,2.99362744140625,0.005297797732055187,0.003981486428529024,-0.0005559090059250593
1733698402108582100,3.00358203125,0.007920008152723312,0.001258824486285448,-0.00046704919077456
1733698402118537500,3.013537353515625,0.006136222742497921,0.0008431050810031593,-0.0011845047120004892
1733698402128492300,3.0234921875,0.004262381233274937,-0.0003934038686566055,0.002086679683998227
1733698402138447400,3.033447265625,0.00046151760034263134,-0.002265339717268944,0.0009899899596348405
1733698402148402400,3.04340234375,-0.0063112699426710606,-0.00663764076307416,0.002138566691428423
1733698402158357500,3.053357421875,-0.008684412576258183,-0.011306694708764553,0.0009654442546889186
1733698402168312300,3.063312255859375,-0.008410925045609474,-0.015901565551757812,0.0016021642368286848
1733698402178267100,3.07326708984375,-0.008433029055595398,-0.01751277782022953,-0.0003051918465644121
1733698402188222500,3.083222412109375,-0.0058573149144649506,-0.020832663401961327,-0.0008131514769047499
1733698402198177300,3.09317724609375,-0.0017001207452267408,-0.021557841449975967,-0.003975122235715389
1733698402208132400,3.10313232421875,-0.0011430967133492231,-0.019652772694826126,-0.004615765996277332
1733698402218087400,3.11308740234375,-0.004933307878673077,-0.016219159588217735,-0.008831550367176533
1733698402228042200,3.123042236328125,-0.006185912527143955,-0.015865033492445946,-0.006085809785872698
1733698402237997300,3.132997314453125,-0.011372419074177742,-0.01570550911128521,-0.007258932571858168
1733698402247952100,3.1429521484375,-0.013470174744725227,-0.015321563929319382,-0.006011681631207466
1733698402257907500,3.152907470703125,-0.01363662164658308,-0.01513381116092205,-0.009217594750225544
1733698402267862300,3.1628623046875,-0.008877286687493324,-0.01602676883339882,-0.006134985946118832
1733698402277817300,3.1728173828125,-0.009010178968310356,-0.013223525136709213,-0.006016208790242672
1733698402287772400,3.1827724609375,-0.002335201483219862,-0.01070328988134861,-0.005123632960021496
1733698402297727200,3.192727294921875,-0.001243571750819683,-0.006063797976821661,-0.0053276317194104195
1733698402307682300,3.202682373046875,-0.0017892534378916025,-0.002560142893344164,-0.004700190387666225
1733698402317637400,3.212637451171875,-0.00552334263920784,-0.0027232493739575148,-0.0030783445108681917
1733698402327592400,3.222592529296875,-0.01079676952213049,-0.008654533885419369,-0.003676909487694502
1733698402337547300,3.23254736328125,-0.008834285661578178,-0.01760435290634632,-0.0010209388565272093
1733698402347502300,3.24250244140625,-0.007723420858383179,-0.02322479896247387,-0.004940935410559177
1733698402357457000,3.252456787109375,-0.009280838072299957,-0.0240104328840971,-0.005552663467824459
1733698402367412000,3.262411865234375,-0.009009154513478279,-0.02196432091295719,-0.008659797720611095
1733698402377367000,3.272366943359375,-0.011095473542809486,-0.01857571490108967,-0.009772466495633125
1733698402387321900,3.28232177734375,-0.015724776312708855,-0.017241884022951126,-0.010380979627370834
1733698402397277200,3.292277099609375,-0.016286171972751617,-0.01594305969774723,-0.011369278654456139
1733698402407232000,3.30223193359375,-0.017753764986991882,-0.015221505425870419,-0.011510798707604408
1733698402417187000,3.31218701171875,-0.01785416714847088,-0.014288334175944328,-0.014341472648084164
1733698402427142000,3.322141845703125,-0.017913002520799637,-0.0183726754039526,-0.009115617722272873
1733698402437097000,3.332096923828125,-0.014616275206208229,-0.024061186239123344,-0.0015128247905522585
1733698402447052000,3.342052001953125,-0.01124249305576086,-0.02277943305671215,-0.002627829322591424
1733698402457006800,3.3520068359375,-0.004204290919005871,-0.013938537798821926,-0.003473649499937892
1733698402466962200,3.361962158203125,0.0002980814315378666,-0.00792691484093666,-0.007723762188106775
1733698402476917000,3.3719169921875,-0.0011717170709744096,-0.004852828569710255,-0.0066182841546833515
1733698402486872000,3.3818720703125,-0.0067308321595191956,-0.004482450895011425,-0.0030182490590959787
1733698402496827000,3.391826904296875,-0.01572272926568985,-0.015337495133280754,-0.0014784091617912054
1733698402506782000,3.401781982421875,-0.01920527033507824,-0.03494148701429367,0.0008308199467137456
1733698402516737000,3.411737060546875,-0.021931016817688942,-0.05557352676987648,0.0012729046866297722
1733698402526691800,3.42169189453125,-0.02194838784635067,-0.06883832067251205,-0.0034718012902885675
1733698402536647200,3.431647216796875,-0.018112370744347572,-0.07211454212665558,-0.006399413570761681
1733698402546602000,3.44160205078125,-0.014936527237296104,-0.06473829597234726,-0.007000872399657965
1733698402556557000,3.45155712890625,-0.01078625675290823,-0.04608578607439995,-0.008680794388055801
1733698402566512000,3.46151220703125,-0.012624046765267849,-0.021280117332935333,-0.01295456662774086
1733698402576467000,3.471467041015625,-0.018698183819651604,-0.0024443778675049543,-0.014352460391819477
1733698402586422000,3.481422119140625,-0.022480754181742668,0.01364989671856165,-0.015420871786773205
1733698402596376800,3.491376953125,-0.02267569676041603,0.028450414538383484,-0.014902087859809399
1733698402606332200,3.501332275390625,-0.01973675563931465,0.03458143770694733,-0.011739189736545086
1733698402616287000,3.511286865234375,-0.015732426196336746,0.03428982198238373,-0.008685076609253883
1733698402626242000,3.521241943359375,-0.010072882287204266,0.026133278384804726,-0.005387215409427881
1733698402636197000,3.531197021484375,-0.006718364544212818,0.012599359266459942,-0.006008797790855169
1733698402646152000,3.54115185546875,-0.008862821385264397,-0.005798093508929014,-0.005651935935020447
1733698402656107000,3.55110693359375,-0.0079813152551651,-0.022324873134493828,-0.004469758830964565
1733698402666062000,3.56106201171875,-0.01202143169939518,-0.03804643824696541,-0.0022350947838276625
1733698402676017200,3.57101708984375,-0.012120502069592476,-0.04473976045846939,-0.004331002943217754
1733698402685972000,3.580971923828125,-0.016766594722867012,-0.04611542820930481,-0.002582353074103594
1733698402695926800,3.5909267578125,-0.01572290062904358,-0.04089110344648361,-0.0030497382394969463
1733698402705882000,3.600882080078125,-0.014025740325450897,-0.03256843611598015,-0.003919052891433239
1733698402715837000,3.6108369140625,-0.0088669303804636,-0.016598522663116455,-0.0030402096454054117
1733698402725792000,3.6207919921875,-0.00757339783012867,-0.007801565807312727,-0.006100205704569817
1733698402735747000,3.6307470703125,-0.007286841981112957,0.00018845032900571823,-0.008444853127002716
1733698402745702100,3.6407021484375,-0.007163727190345526,0.003697172971442342,-0.00792585127055645
1733698402755657000,3.650656982421875,-0.009260966442525387,0.004618360195308924,-0.005958307534456253
1733698402765611800,3.66061181640625,-0.0075674201361835,0.001516345189884305,-0.006739544216543436
1733698402775567000,3.670567138671875,-0.006078713107854128,-0.0029899897053837776,-0.005987467709928751
1733698402785522000,3.68052197265625,-0.00356485228985548,-0.005281184334307909,-0.006385565735399723
1733698402795477000,3.69047705078125,0.0038733568508177996,-0.0059461756609380245,-0.006042816676199436
1733698402805432000,3.70043212890625,0.0023504430428147316,-0.0029498960357159376,-0.0034484516363590956
1733698402815387100,3.71038720703125,0.0009658655617386103,-0.00007581262616440654,-0.0005141806323081255
1733698402825342000,3.720342041015625,-0.004410501103848219,-0.0017830149736255407,0.00032251898664981127
1733698402835297000,3.730297119140625,-0.009385285899043083,-0.001685010502114892,0.0020083000417798758
1733698402845252000,3.740252197265625,-0.009134158492088318,-0.0038219611160457134,0.002950899535790086
1733698402855207000,3.75020703125,-0.00711521552875638,-0.004769247490912676,0.004621234256774187
1733698402865162000,3.760161865234375,-0.0019226664444431663,-0.003303513629361987,0.0047882115468382835
1733698402875117000,3.770116943359375,0.0005362301599234343,0.0009245208348147571,0.0023503536358475685
1733698402885072000,3.78007177734375,0.0005026538856327534,0.007998289540410042,0.0008277826709672809
1733698402895027000,3.79002685546875,-0.0003626071847975254,0.01418720930814743,-0.0003972714766860008
1733698402904982000,3.79998193359375,-0.003326084930449724,0.017756180837750435,-0.0007085914257913828
1733698402914937000,3.80993701171875,-0.007350920233875513,0.01964729279279709,0.0005327078979462385
1733698402924892000,3.819891845703125,-0.008655891753733158,0.01814458519220352,0.0031559872440993786
1733698402934847200,3.82984716796875,-0.0062222955748438835,0.02085035853087902,0.0037290994077920914
1733698402944802000,3.839802001953125,-0.0044171009212732315,0.02294911816716194,0.0045105163007974625
1733698402954756900,3.8497568359375,0.0010037636384367943,0.03076842613518238,0.00617818720638752
1733698402964712000,3.8597119140625,0.005019509233534336,0.03789610415697098,0.005872214678674936
1733698402974667000,3.8696669921875,0.007396646775305271,0.03792566433548927,0.0061028446070849895
1733698402984622000,3.8796220703125,0.004652065224945545,0.03376714885234833,0.006812527775764465
1733698402994577000,3.889576904296875,0.0016597372014075518,0.021373329684138298,0.007298022508621216
1733698403004532200,3.8995322265625,0.0015132634434849024,0.00932039599865675,0.006773645989596844
1733698403014487000,3.909487060546875,0.0022698675747960806,0.005960284732282162,0.00732065923511982
1733698403024441900,3.91944189453125,0.0011100696865469217,0.007170188706368208,0.0033420559484511614
1733698403034397000,3.92939697265625,0.0003555961884558201,0.012326335534453392,0.003659771056845784
1733698403044352000,3.93935205078125,0.00023862626403570175,0.017902040854096413,0.004055607132613659
1733698403054307000,3.94930712890625,0.003621106967329979,0.02186295948922634,0.0016449135728180408
1733698403064262000,3.959261962890625,0.0034511657431721687,0.02251010201871395,0.005181882530450821
1733698403074217000,3.969217041015625,0.005474102683365345,0.023962324485182762,0.005969379097223282
1733698403084172000,3.979172119140625,0.008123783394694328,0.021204102784395218,0.0045541017316281796
1733698403094126800,3.989126953125,0.009468413889408112,0.018802732229232788,0.008938729763031006
1733698403104082200,3.999082275390625,0.01314026303589344,0.014983448199927807,0.011273170821368694
1733698403114037000,4.009037109375,0.01908736862242222,0.018620526418089867,0.011431096121668816
1733698403123992000,4.018991943359375,0.022890152409672737,0.02684745378792286,0.007425079122185707
1733698403133947000,4.02894677734375,0.022286947816610336,0.03545798733830452,0.0062719304114580154
1733698403143902000,4.03890185546875,0.015274416655302048,0.0410393625497818,0.006041878834366798
1733698403153857000,4.04885693359375,0.007398384157568216,0.033963609486818314,0.006912466138601303
1733698403163811800,4.058811767578125,0.0019163249526172876,0.015659857541322708,0.008653550408780575
1733698403173767200,4.06876708984375,-0.0007263297447934747,-0.008382362313568592,0.008027974516153336
1733698403183722000,4.078721923828125,-0.0006246899720281363,-0.028977546840906143,0.006899174768477678
1733698403193677000,4.088677001953125,0.0021535195410251617,-0.0406230166554451,0.005872792564332485
1733698403203632000,4.098632080078125,0.007451605051755905,-0.041377078741788864,0.0036815032362937927
1733698403213587000,4.1085869140625,0.007198338396847248,-0.029539061710238457,0.0034743091091513634
1733698403223542000,4.1185419921875,0.006902677938342094,-0.006985050160437822,0.00022165488917380571
1733698403233496800,4.128496826171875,0.0014378717169165611,0.016847845166921616,0.00047625310253351927
1733698403243452200,4.1384521484375,-0.0004575129132717848,0.03928974270820618,-0.0011745337396860123
1733698403253407000,4.148406982421875,0.003350008511915803,0.05694836378097534,0.000012969598174095154
1733698403263362000,4.158362060546875,0.008834157139062881,0.06872964650392532,0.002625871216878295
1733698403273317000,4.168317138671875,0.012050457298755646,0.07060158252716064,0.0038855462335050106
1733698403283272000,4.17827197265625,0.0177592895925045,0.06217564269900322,0.0057389503344893456
1733698403293227000,4.18822705078125,0.017475662752985954,0.04694715514779091,0.008512100204825401
1733698403303181800,4.198181884765625,0.017710473388433456,0.029326042160391808,0.008911996148526669
1733698403313137200,4.20813720703125,0.01693815551698208,0.010166462510824203,0.009625457227230072
1733698403323093000,4.218093017578125,0.019561491906642914,-0.005169718060642481,0.010714550502598286
1733698403333048000,4.228048095703125,0.018715403974056244,-0.017038628458976746,0.009458336979150772
1733698403343003100,4.238003173828125,0.015744317322969437,-0.02225976437330246,0.010239225812256336
1733698403352958000,4.2479580078125,0.014598358422517776,-0.017059143632650375,0.01065521128475666
1733698403362912800,4.257912841796875,0.014637185260653496,-0.00925836805254221,0.010476336814463139
1733698403372867800,4.267867919921875,0.014034777879714966,0.005689954850822687,0.010110684670507908
1733698403382823000,4.277822998046875,0.012493880465626717,0.01797843538224697,0.009642009623348713
1733698403392778000,4.287778076171875,0.014037715271115303,0.029906732961535454,0.007533052004873753
1733698403402732800,4.29773291015625,0.013266642577946186,0.04007212445139885,0.006306248717010021
1733698403412688000,4.30768798828125,0.01158032938838005,0.046353988349437714,0.005047638900578022
1733698403422643000,4.317642822265625,0.011519051156938076,0.04718341305851936,0.008080778643488884
1733698403432597800,4.32759765625,0.013073538430035114,0.0441034659743309,0.00763496570289135
1733698403442552800,4.337552734375,0.014071641489863396,0.03789747133851051,0.007399140391498804
1733698403452508000,4.3475078125,0.01831538788974285,0.029375620186328888,0.00886308029294014
1733698403462463000,4.357462890625,0.02370421029627323,0.025003882125020027,0.011987083591520786
1733698403472417800,4.367417724609375,0.02471141703426838,0.024740228429436684,0.015481683425605297
1733698403482372900,4.377372802734375,0.020688844844698906,0.02159484103322029,0.01903245598077774
1733698403492328000,4.387327880859375,0.01535559818148613,0.023768778890371323,0.015484858304262161
1733698403502282800,4.39728271484375,0.004292142577469349,0.02512209862470627,0.011055614799261093
1733698403512237800,4.40723779296875,0.00041537918150424957,0.018468189984560013,0.012631407007575035
1733698403522193000,4.41719287109375,0.0038892803713679314,0.01036464050412178,0.015647774562239647
1733698403532148000,4.42714794921875,0.011836685240268707,0.004912350792437792,0.013764386996626854
1733698403542102800,4.437102783203125,0.01864667981863022,0.005669780541211367,0.011938151903450489
1733698403552057900,4.447057861328125,0.02165551856160164,0.010445094667375088,0.007868308573961258
1733698403562013000,4.457012939453125,0.01951601542532444,0.014617097564041615,0.00413204450160265
1733698403571967700,4.4669677734375,0.01172467228025198,0.019097333773970604,0.00016659731045365334
1733698403581922800,4.4769228515625,0.00412390474230051,0.020487314090132713,-0.001420425483956933
1733698403591878000,4.4868779296875,-0.0036557214334607124,0.01902550645172596,-0.009328149259090424
1733698403601833000,4.4968330078125,-0.012044653296470642,0.013433550484478474,-0.01734539493918419
1733698403611787800,4.506787841796875,-0.017351001501083374,-0.0004753409302793443,-0.02090550772845745
1733698403621742800,4.516742919921875,-0.010949109680950642,-0.025123590603470802,-0.018708551302552223
1733698403631698000,4.526697998046875,-0.0003782246494665742,-0.049324266612529755,-0.01380833424627781
1733698403641652700,4.53665283203125,0.010591842234134674,-0.06383438408374786,-0.008475289680063725
1733698403651608000,4.546608154296875,0.015000438317656517,-0.06638729572296143,-0.0032488361466675997
1733698403661563000,4.55656298828125,0.015580075792968273,-0.06394057720899582,0.0032234243117272854
1733698403671518000,4.56651806640625,0.010074789635837078,-0.05544428899884224,0.0037086522206664085
1733698403681472800,4.57647265625,0.00717905443161726,-0.045217256993055344,0.006495540030300617
1733698403691427800,4.586427734375,0.007970279082655907,-0.03069690614938736,0.006177824921905994
1733698403701383000,4.5963828125,0.0048139565624296665,-0.012347959913313389,0.0030234467703849077
1733698403711337700,4.606337646484375,0.0004053597804158926,0.00413407851010561,-0.0025476200971752405
1733698403721293000,4.61629296875,-0.007154291961342096,0.016072619706392288,-0.0061606913805007935
1733698403731247900,4.626247802734375,-0.009003590792417526,0.026224857196211815,-0.007704258896410465
1733698403741203000,4.636202880859375,-0.013724204152822495,0.0303883645683527,-0.009106900542974472
1733698403751157800,4.64615771484375,-0.013642445206642151,0.027733460068702698,-0.0100584477186203
1733698403761112800,4.65611279296875,-0.01696910336613655,0.02421378158032894,-0.009386084973812103
1733698403771068000,4.66606787109375,-0.016259636729955673,0.020140476524829865,-0.006457406096160412
1733698403781022700,4.676022705078125,-0.00991740170866251,0.014454977586865425,-0.002147684106603265
1733698403790978000,4.68597802734375,0.00025427620857954025,0.014644593931734562,0.004279854707419872
1733698403800934000,4.695933837890625,0.011075193993747234,0.02364966832101345,0.005835153628140688
1733698403810888700,4.705888671875,0.018045751377940178,0.036677319556474686,0.003444434143602848
1733698403820844000,4.715843994140625,0.014605438336730003,0.04639263078570366,0.000760377268306911
1733698403830798800,4.725798828125,0.007009304594248533,0.043483927845954895,-0.0011858607176691294
1733698403840754000,4.73575390625,-0.003569756867364049,0.025701506063342094,0.003922458738088608
1733698403850709000,4.745708984375,-0.008680629543960094,-0.007759780623018742,0.0071233119815588
1733698403860663800,4.755663818359375,-0.0015782343689352274,-0.044289808720350266,0.009264148771762848
1733698403870619000,4.765618896484375,0.007705278694629669,-0.07295633852481842,0.008534708991646767
1733698403880574000,4.775573974609375,0.015049840323626995,-0.08664508908987045,0.0083460146561265
1733698403890529000,4.785529052734375,0.014858891256153584,-0.07790086418390274,0.006087121553719044
1733698403900483800,4.79548388671875,0.007346176542341709,-0.054750096052885056,0.006013715174049139
1733698403910438700,4.805438720703125,-0.003566924948245287,-0.024221481755375862,0.0033705278765410185
1733698403920394000,4.81539404296875,-0.010273521766066551,0.007098381873220205,0.0005064613651484251
1733698403930348800,4.825348876953125,-0.010831454768776894,0.03624747693538666,0.0002558579435572028
1733698403940304000,4.835303955078125,-0.010654928162693977,0.057547152042388916,-0.002566190902143717
1733698403950259000,4.845259033203125,-0.006744875572621822,0.0680147036910057,-0.001950201578438282
1733698403960214000,4.855214111328125,0.0011822900269180536,0.07098545879125595,-0.0010889351833611727
1733698403970168800,4.8651689453125,0.005803140811622143,0.06522690504789352,-0.0031044157221913338
1733698403980123600,4.87512353515625,0.007308539468795061,0.05084538832306862,-0.001626166282221675
1733698403990079000,4.885078857421875,0.006293076556175947,0.029815740883350372,0.0021512615494430065
1733698404000033800,4.89503369140625,0.0017969280015677214,0.005917504895478487,0.007037993520498276
1733698404009988900,4.90498876953125,0.005937611218541861,-0.010038558393716812,0.011657512746751308
1733698404019944000,4.91494384765625,0.0040556942112743855,-0.022576650604605675,0.012759244069457054
1733698404029899000,4.92489892578125,0.0022189118899405003,-0.027511220425367355,0.013005319982767105
1733698404039853800,4.934853759765625,0.0021007931791245937,-0.027342315763235092,0.010906223207712173
1733698404049809000,4.944808837890625,0.004198298789560795,-0.02479446865618229,0.008749861270189285
1733698404059764000,4.954763916015625,0.0069958241656422615,-0.019145965576171875,0.00737539678812027
1733698404069718800,4.96471875,0.006732171401381493,-0.016389859840273857,0.007595640141516924
1733698404079673900,4.974673828125,0.0035349372774362564,-0.013034465722739697,0.004832298494875431
1733698404089629000,4.98462890625,0.00020625232718884945,-0.012681596912443638,0.0030897920951247215
1733698404099584800,4.994584716796875,-0.0005314603913575411,-0.006997087504714727,0.0008628835203126073
1733698404109540000,5.0045400390625,-0.0014515825314447284,0.0019010663963854313,-0.0008228975348174572
1733698404119495000,5.014494873046875,0.0013369405642151833,0.006975280586630106,-0.0005556144751608372
1733698404129449700,5.02444970703125,0.003644303185865283,0.008523110300302505,-0.0014048966113477945
1733698404139404800,5.03440478515625,0.007473359815776348,0.0103811826556921,-0.0020338823087513447
1733698404149359900,5.04435986328125,0.004046137910336256,0.010641639120876789,-0.0016059123445302248
1733698404159315000,5.05431494140625,-0.0014702379703521729,0.012054492719471455,0.0001582494005560875
1733698404169269800,5.064269775390625,-0.007250628899782896,0.012675276026129723,0.002459486946463585
1733698404179225000,5.07422509765625,-0.01075824722647667,0.009004123508930206,0.0031214728951454163
1733698404189180000,5.084179931640625,-0.008453281596302986,0.004109766334295273,0.0025510236155241728
1733698404199134700,5.094134765625,-0.005114910192787647,-0.0016637879889458418,0.002029116963967681
1733698404209090000,5.104090087890625,0.0004111493472009897,-0.007230061572045088,0.003044313983991742
1733698404219044900,5.114044921875,0.004518489353358746,-0.009552625939249992,0.002605260582640767
1733698404229000000,5.124,0.007479924242943525,-0.012181431986391544,0.0012736800126731396
1733698404238954800,5.133954833984375,0.006359565071761608,-0.010649965144693851,0.002414779970422387
1733698404248909800,5.143909912109375,0.003143531270325184,-0.006360412575304508,0.00001500546932220459
1733698404258865000,5.153864990234375,-0.0003302177647128701,-0.0004984893021173775,0.00036638707388192415
1733698404268819700,5.16381982421875,-0.0028956409078091383,0.0033484469167888165,-0.001023250399157405
1733698404278775000,5.173775146484375,-0.003439015708863735,0.007286415435373783,-0.002362637547776103
1733698404288729900,5.183729736328125,-0.007109650876373053,0.010269155725836754,-0.0032816946040838957
1733698404298685000,5.193684814453125,-0.0034919704776257277,0.011262539774179459,-0.003039693459868431
1733698404308639700,5.2036396484375,-0.002323641674593091,0.009705389849841595,-0.001040458446368575
1733698404318594800,5.2135947265625,-0.000308814225718379,0.007415006402879953,-0.0009744418784976006
1733698404328550000,5.2235498046875,0.0014278329908847809,0.006042147055268288,-0.0008055975195020437
1733698404338506000,5.233506103515625,0.003115945030003786,0.003156315302476287,-0.0008885592687875032
1733698404348460800,5.243460693359375,0.0008016577921807766,-0.0007627925951965153,-0.00012822682037949562
1733698404358416600,5.253416748046875,-0.00046498607844114304,-0.0030593934934586287,-0.0017390812281519175
1733698404368371500,5.263371337890625,-0.0017632771050557494,-0.006230419501662254,-0.0010871393606066704
1733698404378326500,5.273326416015625,-0.00007359788287431002,-0.012385575100779533,-0.0032819057814776897
1733698404388281600,5.283281494140625,0.0020342939533293247,-0.018762247636914253,-0.0020342147909104824
1733698404398236400,5.293236328125,0.003050900064408779,-0.022752689197659492,-0.003469548188149929
1733698404408191700,5.303191650390625,0.002315867692232132,-0.020778754726052284,-0.004783285781741142
1733698404418146600,5.313146484375,-0.0008484481368213892,-0.016017921268939972,-0.0048979208804667
1733698404428101600,5.3231015625,-0.005141730420291424,-0.009631393477320671,-0.0070691960863769054
1733698404438056400,5.333056396484375,-0.00520260538905859,-0.0048124827444553375,-0.005788968876004219
1733698404448011500,5.343011474609375,-0.006689980626106262,-0.0030369532760232687,-0.006847042590379715
1733698404457966600,5.352966552734375,-0.008139505982398987,-0.00304532703012228,-0.0066313911229372025
1733698404467921400,5.36292138671875,-0.008166936226189137,-0.0006447536288760602,-0.008108113892376423
1733698404477876700,5.372876708984375,-0.01013087760657072,-0.0052367825992405415,-0.0031586193945258856
1733698404487831600,5.38283154296875,-0.004287636373192072,-0.009377998299896717,0.004210613667964935
1733698404497786600,5.39278662109375,-0.00021227775141596794,-0.006542835850268602,0.003227264154702425
1733698404507742700,5.40274267578125,0.00481630302965641,0.0027388129383325577,0.00042002624832093716
1733698404517697500,5.412697509765625,0.0025282632559537888,0.011872192844748497,-0.0036913796793669462
1733698404527652600,5.422652587890625,-0.0027882051654160023,0.01255742460489273,-0.004969431087374687
1733698404537607700,5.432607666015625,-0.01024391409009695,0.0011988155310973525,-0.003451052587479353
1733698404547562500,5.4425625,-0.015081013552844524,-0.025903109461069107,0.0002499422989785671
1733698404557517600,5.452517578125,-0.016192959621548653,-0.058120738714933395,-0.00011022714897990227
1733698404567472600,5.46247265625,-0.010876758024096489,-0.08785972744226456,-0.0009081102907657623
1733698404577427700,5.472427734375,-0.0029342109337449074,-0.1016695648431778,-0.0033256274182349443
1733698404587382500,5.482382568359375,0.00016570859588682652,-0.09654804319143295,-0.005049491301178932
1733698404597337600,5.492337646484375,-0.0005660163005813956,-0.0739796981215477,-0.005564767401665449
1733698404607292700,5.502292724609375,-0.010006124153733253,-0.04504658281803131,-0.009144855663180351
1733698404617247500,5.51224755859375,-0.018572766333818436,-0.014782873913645744,-0.01155616994947195
1733698404627202600,5.52220263671875,-0.030105318874120712,0.008352005854249,-0.01458977721631527
1733698404637157600,5.53215771484375,-0.03301963955163956,0.02568453922867775,-0.014502446167171001
1733698404647112700,5.54211279296875,-0.031040910631418228,0.03435472398996353,-0.014802318997681141
1733698404657067500,5.552067626953125,-0.021421052515506744,0.03522685915231705,-0.013262603431940079
1733698404667022600,5.562022705078125,-0.01231197640299797,0.027372932061553,-0.012267112731933594
1733698404676978700,5.571978759765625,-0.004953245632350445,0.01363404095172882,-0.01063041016459465
1733698404686933500,5.58193359375,-0.004429668188095093,-0.001104957889765501,-0.008829314261674881
1733698404696888600,5.591888671875,-0.004565409384667873,-0.017108142375946045,-0.00711114052683115
1733698404706843600,5.60184375,-0.010553793050348759,-0.031851932406425476,-0.004445848986506462
1733698404716798500,5.611798583984375,-0.014208147302269936,-0.043430931866168976,-0.006945051718503237
1733698404726753500,5.62175341796875,-0.016775701195001602,-0.05320287123322487,-0.0076238918118178844
1733698404736708600,5.63170849609375,-0.019144393503665924,-0.05492702126502991,-0.005319093354046345
1733698404746663700,5.64166357421875,-0.019135605543851852,-0.05387134104967117,-0.009309840388596058
1733698404756618500,5.651618408203125,-0.02019645646214485,-0.05123021826148033,-0.011102432385087013
1733698404766573600,5.661573486328125,-0.018829721957445145,-0.046555571258068085,-0.010963947512209415
1733698404776528600,5.671528564453125,-0.016794078052043915,-0.04163994640111923,-0.011011994443833828
1733698404786483500,5.6814833984375,-0.014406021684408188,-0.0377139113843441,-0.01493483129888773
1733698404796438800,5.691438720703125,-0.012444557622075081,-0.02939806692302227,-0.012831737287342548
1733698404806393600,5.7013935546875,-0.009657293558120728,-0.020525479689240456,-0.01184769906103611
1733698404816349400,5.711349365234375,-0.00936066173017025,-0.012379273772239685,-0.012325435876846313
1733698404826304800,5.7213046875,-0.009290887042880058,-0.0048065753653645515,-0.010711560025811195
1733698404836259600,5.731259521484375,-0.00966060534119606,-0.0017003151588141918,-0.012519128620624542
1733698404846214700,5.741214599609375,-0.00353773171082139,0.00602791178971529,-0.01126797590404749
1733698404856169700,5.751169677734375,-0.0014647271018475294,0.010354217141866684,-0.0092921769246459
1733698404866124500,5.76112451171875,-0.008521940559148788,0.011522069573402405,-0.006062548607587814
1733698404876079600,5.77107958984375,-0.018049944192171097,0.00863655749708414,-0.004998674616217613
1733698404886034400,5.781034423828125,-0.02293924055993557,0.0044705746695399284,-0.003472683485597372
1733698404895989800,5.79098974609375,-0.023111775517463684,-0.0008369580027647316,-0.0025811204686760902
1733698404905944600,5.800944580078125,-0.021112272515892982,-0.005145686212927103,-0.003167015966027975
1733698404915899400,5.8108994140625,-0.015574339777231216,-0.009552616626024246,-0.0035646429751068354
1733698404925854700,5.820854736328125,-0.010795829817652702,-0.012778770178556442,-0.004805409349501133
1733698404935810600,5.830810546875,-0.008589139208197594,-0.015071680769324303,-0.004996174946427345
1733698404945765400,5.840765380859375,-0.009640554897487164,-0.015870096161961555,-0.00875229761004448
1733698404955720700,5.850720703125,-0.00857234001159668,-0.01758579909801483,-0.00788902398198843
1733698404965675500,5.860675537109375,-0.0148928202688694,-0.01727048121392727,-0.007804602384567261
1733698404975630600,5.870630615234375,-0.01728648692369461,-0.017017191275954247,-0.008233430795371532
1733698404985585700,5.880585693359375,-0.01556421909481287,-0.014013145118951797,-0.009205750189721584
1733698404995540700,5.890540771484375,-0.01760471798479557,-0.008479920215904713,-0.006720429286360741
1733698405005495600,5.90049560546875,-0.015764206647872925,-0.0021157634910196066,-0.007596076466143131
1733698405015450400,5.910450439453125,-0.01367084588855505,-0.00010994996409863234,-0.006377633661031723
1733698405025405700,5.92040576171875,-0.01156082283705473,0.0006431919755414128,-0.005928092636168003
1733698405035360500,5.930360595703125,-0.012495256960391998,-0.000029933115001767874,-0.0058652437292039394
1733698405045315600,5.940315673828125,-0.011288046836853027,-0.003276060102507472,-0.004678272642195225
1733698405055271700,5.950271728515625,-0.012439517304301262,-0.010472496971487999,-0.005232254974544048
1733698405065226500,5.9602265625,-0.01104428619146347,-0.01526432204991579,-0.003641814924776554
1733698405075181600,5.970181640625,-0.008245613425970078,-0.024177270010113716,-0.005070803686976433
1733698405085136600,5.98013671875,-0.006141982041299343,-0.03255131468176842,-0.0015509040094912052
1733698405095091500,5.990091552734375,-0.0019789501093328,-0.03544501215219498,-0.005152972415089607
1733698405105046500,6.000046630859375,-0.002997609321027994,-0.03312459960579872,-0.0055082375183701515
1733698405115001600,6.010001708984375,-0.003885655663907528,-0.0288042314350605,-0.01032158825546503
1733698405124956700,6.019956787109375,-0.007436714600771666,-0.021056829020380974,-0.011263548396527767
1733698405134911500,6.029911376953125,-0.00877448171377182,-0.014983009546995163,-0.015488199889659882
1733698405144866800,6.03986669921875,-0.009729490615427494,-0.014015750028192997,-0.013064723461866379
1733698405154821600,6.049821533203125,-0.01134238950908184,-0.013267162255942822,-0.012000665068626404
1733698405164777500,6.059777587890625,-0.007620088756084442,-0.010193342342972755,-0.010391849093139172
1733698405174732800,6.06973291015625,0.0014309000689536333,-0.006782258860766888,-0.008041782304644585
1733698405184687600,6.0796875,0.002468201331794262,-0.006884524133056402,-0.0016256943345069885
1733698405194642400,6.089642333984375,0.0002338704653084278,-0.005888715386390686,0.002581113949418068
1733698405204597500,6.099597412109375,0.005596944130957127,0.003662445116788149,0.00205087848007679
1733698405214552600,6.109552490234375,0.005895231384783983,0.017562268301844597,0.003413116093724966
1733698405224507600,6.119507568359375,0.006075260695070028,0.02949988842010498,0.003177692648023367
1733698405234462500,6.12946240234375,0.0024908995255827904,0.032565731555223465,0.004459175281226635
1733698405244417800,6.139417724609375,-0.0019363394239917397,0.02073517255485058,0.003994720056653023
1733698405254372600,6.14937255859375,-0.003736150451004505,0.001394698629155755,0.0056295860558748245
1733698405264328400,6.159328369140625,-0.004360129125416279,-0.0202658548951149,0.00629351194947958
1733698405274283500,6.169283447265625,-0.0008555416716262698,-0.038068730384111404,0.0058761173859238625
1733698405284238600,6.179238525390625,0.004142945632338524,-0.04272420331835747,0.006212741136550903
1733698405294193400,6.189193359375,0.0051866862922906876,-0.0382048562169075,0.004962479695677757
1733698405304148700,6.199148681640625,0.002707549836486578,-0.017815694212913513,0.0018372602062299848
1733698405314103600,6.209103515625,-0.002861863002181053,0.010268458165228367,-0.0007760212756693363
1733698405324058600,6.21905859375,-0.008546913042664528,0.03994219750165939,-0.0015904160682111979
1733698405334013700,6.229013671875,-0.01130957342684269,0.06374439597129822,-0.001003173179924488
1733698405343968500,6.238968505859375,-0.007851991802453995,0.07696858793497086,0.00010017445310950279
1733698405353923600,6.248923583984375,-0.0023024966940283775,0.08000832051038742,0.004037924576550722
1733698405363879000,6.25887890625,0.004231302533298731,0.07322151958942413,0.004133265465497971
1733698405373834000,6.268833984375,0.009741371497511864,0.05962351709604263,0.005423692055046558
1733698405383789000,6.2787890625,0.011899863369762897,0.037188515067100525,0.007586977910250425
1733698405393744000,6.288743896484375,0.009525462053716183,0.01439509354531765,0.00910269282758236
1733698405403699000,6.298698974609375,0.009995509870350361,-0.00284381490200758,0.009982867166399956
1733698405413654000,6.308654052734375,0.00897899642586708,-0.015566987916827202,0.01109542790800333
1733698405423609000,6.318609130859375,0.010347060859203339,-0.01857156679034233,0.01181155163794756
1733698405433564000,6.32856396484375,0.00861603207886219,-0.013946560211479664,0.010863903909921646
1733698405443519200,6.338519287109375,0.010599288158118725,-0.0044489288702607155,0.011377362534403801
1733698405453475000,6.34847509765625,0.010513386689126492,0.012597445398569107,0.01173892617225647
1733698405463430000,6.358429931640625,0.013693733140826225,0.027440307661890984,0.008943406865000725
1733698405473385200,6.36838525390625,0.01212729699909687,0.03921091929078102,0.008043443784117699
1733698405483340000,6.378340087890625,0.013119591400027275,0.045983873307704926,0.004562958609312773
1733698405493294800,6.388294921875,0.0137063879519701,0.05090213194489479,0.003365883370861411
1733698405503250000,6.39825,0.014872852712869644,0.053520552814006805,0.004401320591568947
1733698405513205000,6.408205078125,0.012092309072613716,0.053114552050828934,0.006096923723816872
1733698405523160000,6.41816015625,0.012179394252598286,0.049818623811006546,0.0040566762909293175
1733698405533115000,6.428114990234375,0.012306474149227142,0.0470123291015625,0.005232399329543114
1733698405543071000,6.438071044921875,0.01261886302381754,0.042109183967113495,0.005098176188766956
1733698405553026000,6.448026123046875,0.018291417509317398,0.04101461172103882,0.007794925011694431
1733698405562980900,6.45798095703125,0.0184251070022583,0.03797221556305885,0.009749685414135456
1733698405572936000,6.46793603515625,0.014769170433282852,0.033698972314596176,0.012981357052922249
1733698405582891000,6.47789111328125,0.01108628511428833,0.026606710627675056,0.013833035714924335
1733698405592845800,6.487845703125,0.009664952754974365,0.017629100009799004,0.013136757537722588
1733698405602801200,6.49780126953125,0.009932866320014,0.008157302625477314,0.013510133139789104
1733698405612756000,6.507755859375,0.01078844629228115,0.0022984961979091167,0.013594020158052444
1733698405622711800,6.5177119140625,0.011350106447935104,-0.00037292070919647813,0.012758586555719376
1733698405632667100,6.527667236328125,0.016521213576197624,-0.0009671918232925236,0.010932660661637783
1733698405642622000,6.5376220703125,0.015267398208379745,0.006724549923092127,0.008010108023881912
1733698405652577000,6.547576904296875,0.01266853790730238,0.01259789802134037,0.0029425527900457382
1733698405662532000,6.557531982421875,0.004233774729073048,0.018383614718914032,0.002053323434665799
1733698405672487000,6.56748681640625,0.005634939298033714,0.022841880097985268,0.0017433022148907185
1733698405682442000,6.57744189453125,0.005226942710578442,0.02442299760878086,0.0026972463820129633
1733698405692397000,6.58739697265625,0.008635108359158039,0.022487947717308998,0.0044089192524552345
1733698405702352100,6.59735205078125,0.008397554978728294,0.02243921160697937,0.005934644490480423
1733698405712308000,6.607307861328125,0.012443185783922672,0.0195107851177454,0.00593813881278038
1733698405722263000,6.617262939453125,0.012151303701102734,0.01860451139509678,0.006349064409732819
1733698405732218000,6.627218017578125,0.00885339267551899,0.014843848533928394,0.0064104096964001656
1733698405742173000,6.6371728515625,0.007318613585084677,0.01180731225758791,0.006012267433106899
1733698405752128000,6.6471279296875,0.008145837113261223,0.00810176320374012,0.007007021922618151
1733698405762083000,6.6570830078125,0.008798844181001186,0.006140345241874456,0.009394013322889805
1733698405772038000,6.667037841796875,0.01029391959309578,0.006805442739278078,0.008230838924646378
1733698405781993000,6.676992919921875,0.009944245219230652,0.007603858131915331,0.008352812379598618
1733698405791949000,6.686948974609375,0.006828884594142437,0.0034853715915232897,0.00849994644522667
1733698405801903900,6.69690380859375,0.0069641731679439545,-0.004055901896208525,0.008194215595722198
1733698405811859000,6.70685888671875,0.005387044511735439,-0.010405235923826694,0.007887025363743305
1733698405821814000,6.71681396484375,0.004747087135910988,-0.01683623716235161,0.005007083062082529
1733698405831769000,6.72676904296875,0.001350540667772293,-0.01961510069668293,0.0006964282365515828
1733698405841724000,6.736723876953125,0.0007433397695422173,-0.015234732069075108,-0.0024743310641497374
1733698405851679000,6.746678955078125,-0.0024475879035890102,-0.004673753399401903,-0.00611089589074254
1733698405861634000,6.756634033203125,-0.0037325629964470863,0.006020968779921532,-0.0065196906216442585
1733698405871590000,6.76658984375,-0.006670196540653706,0.010648596100509167,-0.003948139492422342
1733698405881545000,6.776544921875,-0.007897380739450455,0.012920805253088474,-0.005770807154476643
1733698405891500000,6.7865,-0.006292632780969143,0.015579398721456528,-0.005443347617983818
1733698405901454800,6.796454833984375,-0.0024912364315241575,0.01408616453409195,-0.0033037636894732714
1733698405911410200,6.80641015625,0.005208667367696762,0.009436883963644505,0.004266257397830486
1733698405921365000,6.816364990234375,0.01759529486298561,0.010387632064521313,0.007203724235296249
1733698405931320000,6.826320068359375,0.026223670691251755,0.018423454836010933,0.004633773118257523
1733698405941275100,6.836275146484375,0.02432164177298546,0.022277314215898514,0.0060055674985051155
1733698405951231000,6.84623095703125,0.016496475785970688,0.02153242938220501,0.0068543171510100365
1733698405961186000,6.85618603515625,0.010573338717222214,0.011880334466695786,0.009746510535478592
1733698405971141000,6.86614111328125,0.004826605319976807,-0.012782376259565353,0.011242283508181572
1733698405981096000,6.876095947265625,0.0011146911419928074,-0.0403817780315876,0.013189587742090225
1733698405991051000,6.886051025390625,0.006470942869782448,-0.060817789286375046,0.013553517870604992
1733698406001005800,6.896005859375,0.011784748174250126,-0.06698646396398544,0.010790755040943623
1733698406010961200,6.905961181640625,0.017494751140475273,-0.055476680397987366,0.007460500113666058
1733698406020917000,6.9159169921875,0.015592454001307487,-0.030099686235189438,0.003476677695289254
1733698406030872000,6.9258720703125,0.005006360821425915,-0.00019501469796523452,-0.000053022755309939384
1733698406040827100,6.9358271484375,-0.003586061764508486,0.03684103116393089,-0.006815055385231972
1733698406050782000,6.945781982421875,-0.015942927449941635,0.06692786514759064,-0.020582333207130432
1733698406060736800,6.95573681640625,-0.026240039616823196,0.0787070244550705,-0.0327330082654953
1733698406070692000,6.965692138671875,-0.02840576320886612,0.06257673352956772,-0.035482265055179596
1733698406080647000,6.97564697265625,-0.015978120267391205,0.025241345167160034,-0.028124747797846794
1733698406090602000,6.98560205078125,-0.00038025283720344305,-0.0187239833176136,-0.024022415280342102
1733698406100558000,6.99555810546875,0.016751062124967575,-0.055513687431812286,-0.015932530164718628
1733698406110513000,7.005512939453125,0.027182236313819885,-0.07844248414039612,-0.011734220199286938
1733698406120468000,7.015468017578125,0.03214557096362114,-0.08429425209760666,-0.010712099261581898
1733698406130423000,7.025423095703125,0.031216181814670563,-0.07849793136119843,-0.008921943604946136
1733698406140378000,7.035378173828125,0.023111648857593536,-0.06419968605041504,-0.005744526162743568
1733698406150333000,7.0453330078125,0.01350479293614626,-0.048604998737573624,-0.0044329529628157616
1733698406160288000,7.0552880859375,0.0006510461680591106,-0.032056115567684174,-0.002623335225507617
1733698406170244000,7.065244140625,-0.009534303098917007,-0.016200190410017967,0.0015039779245853424
1733698406180199000,7.075198974609375,-0.013126641511917114,-0.00686234887689352,0.004783128388226032
1733698406190154000,7.085154052734375,-0.009428470395505428,0.0015368240419775248,0.006049378775060177
1733698406200109000,7.095109130859375,-0.007358661852777004,0.013738895766437054,0.0061409915797412395
1733698406210064000,7.10506396484375,-0.003633514977991581,0.01914058066904545,0.002225559437647462
1733698406220019200,7.115019287109375,-0.00041987840086221695,0.023198705166578293,0.0012998445890843868
1733698406229974000,7.12497412109375,0.004426095634698868,0.029985705390572548,-0.0005683500785380602
1733698406239929900,7.134929931640625,0.008014705032110214,0.030612614005804062,0.0015637767501175404
1733698406249885200,7.14488525390625,0.008555561304092407,0.02985275909304619,0.004533660598099232
1733698406259840000,7.154840087890625,0.008709225803613663,0.027533944696187973,0.005108636803925037
1733698406269794800,7.164794921875,0.010191487148404121,0.02589835226535797,0.0054418593645095825
1733698406279750100,7.174750244140625,0.013711920008063316,0.026226719841361046,0.007605943828821182
1733698406289705000,7.184705078125,0.011452242732048035,0.025466812774538994,0.010978207923471928
1733698406299660000,7.194659912109375,0.009783771820366383,0.021269937977194786,0.010731599293649197
1733698406309616000,7.2046162109375,0.005721631925553083,0.016744339838624,0.009624925442039967
1733698406319571000,7.214571044921875,0.0030637970194220543,0.011176200583577156,0.009643567726016045
1733698406329526000,7.224526123046875,0.0022725765593349934,0.010021417401731014,0.009701644070446491
1733698406339481000,7.234481201171875,0.003527458291500807,0.012492564506828785,0.009673414751887321
1733698406349436200,7.244436279296875,0.007243884727358818,0.01851750537753105,0.008941881358623505
1733698406359391500,7.2543916015625,0.011728914454579353,0.02458471804857254,0.0068651484325528145
1733698406369346300,7.26434619140625,0.011319754645228386,0.02795432135462761,0.00689399428665638
1733698406379302100,7.27430224609375,0.01236930675804615,0.03186996653676033,0.005196761805564165
1733698406389257500,7.284257568359375,0.00801797118037939,0.03448648750782013,0.002250981517136097
1733698406399212300,7.29421240234375,0.006979605183005333,0.0344926156103611,0.003640885464847088
1733698406409167400,7.30416748046875,0.0068410346284508705,0.03274271637201309,0.00602919515222311
1733698406419122200,7.3141220703125,0.006929450668394566,0.03218132257461548,0.005506683140993118
1733698406429077500,7.324077392578125,0.0044865114614367485,0.03106722980737686,0.004780307877808809
1733698406439033300,7.334033447265625,0.007172842510044575,0.031272560358047485,0.0052753896452486515
1733698406448988400,7.343988525390625,0.007120425347238779,0.030325986444950104,0.005570730660110712
1733698406458943500,7.353943603515625,0.00855240784585476,0.027148302644491196,0.0073092421516776085
1733698406468898300,7.363898193359375,0.00729533052071929,0.020498648285865784,0.0050265975296497345
1733698406478853000,7.37385302734375,0.007087604608386755,0.01298560481518507,0.005764559842646122
1733698406488808400,7.383808349609375,0.007668927311897278,0.0042467243038117886,0.00686547439545393
1733698406498763300,7.39376318359375,0.005232933908700943,0.002276517916470766,0.0067128753289580345
1733698406508719400,7.40371923828125,0.009448299184441566,0.0017503018025308847,0.006769479252398014
1733698406518674400,7.41367431640625,0.00925815012305975,0.005916018504649401,0.008249131962656975
1733698406528629200,7.423629150390625,0.009595245122909546,0.007743300404399633,0.007553248666226864
1733698406538584300,7.433584228515625,0.010746262967586517,0.008076994679868221,0.008972181007266045
1733698406548539400,7.443539306640625,0.007094273809343576,0.002479329938068986,0.008224424906075
1733698406558494200,7.453494140625,0.006741138640791178,-0.0029758892487734556,0.010748302564024925
1733698406568450600,7.463450439453125,0.006421038415282965,-0.005899379961192608,0.009577421471476555
1733698406578405400,7.4734052734375,0.00434883264824748,-0.0032146477606147528,0.00568254804238677
1733698406588360200,7.483360107421875,0.002437005052343011,0.002725412603467703,0.0030025478918105364
1733698406598315300,7.493315185546875,0.00025134882889688015,0.010706107132136822,0.000006225425750017166
1733698406608270300,7.503270263671875,-0.0036023242864757776,0.019554026424884796,-0.0014819016214460135
1733698406618225400,7.513225341796875,0.00032290886156260967,0.023162342607975006,0.000726657803170383
1733698406628181200,7.52318115234375,-0.00042430474422872066,0.024956822395324707,-0.0006117378361523151
1733698406638136300,7.53313623046875,-0.0010520118521526456,0.02630597911775112,-0.00355959078297019
1733698406648091400,7.54309130859375,-0.004991740453988314,0.02136286161839962,-0.0003210660070180893
1733698406658046200,7.553046142578125,-0.0007961965166032314,0.014605621807277203,0.006661475636065006
1733698406668001500,7.56300146484375,0.00550095085054636,0.010528451763093472,0.007615929003804922
1733698406677956400,7.572956298828125,0.012153261341154575,0.014519731514155865,0.0017282123444601893
1733698406687912200,7.582912109375,0.014377163723111153,0.020245932042598724,-0.0004896440077573061
1733698406697867500,7.592867431640625,0.010495073162019253,0.017299676313996315,-0.0002672700211405754
1733698406707822300,7.602822265625,0.0058984337374567986,0.003909245599061251,0.0028115378227084875
1733698406717777200,7.612777099609375,0.0064819324761629105,-0.019742554053664207,0.006215057801455259
1733698406727732500,7.622732421875,0.008049722760915756,-0.04693146049976349,0.009288975037634373
1733698406737687300,7.632687255859375,0.012657525017857552,-0.06867803633213043,0.008763534016907215
1733698406747643100,7.64264306640625,0.016591893509030342,-0.0801861509680748,0.0060913292691111565
1733698406757598500,7.652598388671875,0.0178515687584877,-0.07383318245410919,0.003611926455050707
1733698406767553300,7.66255322265625,0.010532173328101635,-0.0525784008204937,0.0016093635931611061
1733698406777508400,7.67250830078125,-0.00024031347129493952,-0.024637579917907715,0.0002362376544624567
1733698406787463400,7.68246337890625,-0.013470343314111233,0.006801891140639782,-0.0011637143325060606
1733698406797418200,7.692418212890625,-0.025290517136454582,0.03245345875620842,-0.002740838099271059
1733698406807374300,7.702374267578125,-0.027335351333022118,0.04869912937283516,-0.0030110885854810476
1733698406817329400,7.712329345703125,-0.025693777948617935,0.05490642413496971,-0.005195147357881069
1733698406827284200,7.7222841796875,-0.01911982148885727,0.05502212420105934,-0.007052641361951828
1733698406837239300,7.7322392578125,-0.010094103403389454,0.04657591134309769,-0.008981568738818169
1733698406847194400,7.7421943359375,-0.0048582348972558975,0.03392959386110306,-0.006924203131347895
1733698406857149400,7.7521494140625,-0.0009250122820958495,0.015059231780469418,-0.007896257564425468
1733698406867105300,7.762105224609375,0.0044412375427782536,-0.0037462038453668356,-0.005541295278817415
1733698406877060400,7.772060302734375,0.01078595221042633,-0.016345884650945663,-0.004097862169146538
1733698406887015400,7.782015380859375,0.012405360117554665,-0.027312127873301506,0.000031429342925548553
1733698406896970200,7.79197021484375,0.010799741372466087,-0.03443741798400879,0.00028070120606571436
1733698406906925300,7.80192529296875,0.004708973690867424,-0.039460428059101105,0.0035778144374489784
1733698406916880400,7.81188037109375,0.0006809430196881294,-0.04206793010234833,0.0021421045530587435
1733698406926836200,7.821836181640625,-0.002897782251238823,-0.04224669933319092,-0.0003668933641165495
1733698406936791300,7.831791259765625,-0.0039025931619107723,-0.03967435285449028,-0.0007839442696422338
1733698406946746400,7.841746337890625,-0.00714495312422514,-0.03350449725985527,-0.0029103357810527086
1733698406956701200,7.851701171875,-0.011258737184107304,-0.02838616631925106,-0.006540491245687008
1733698406966656500,7.861656494140625,-0.009876192547380924,-0.022114986553788185,-0.010329561308026314
1733698406976612400,7.8716123046875,-0.01122987736016512,-0.015835518017411232,-0.011817469261586666
1733698406986567200,7.881567138671875,-0.008840804919600487,-0.011197340674698353,-0.010896852239966393
1733698406996522500,7.8915224609375,-0.00879659689962864,-0.005339718423783779,-0.012154396623373032
1733698407006477300,7.901477294921875,-0.006903867702931166,-0.0037907673977315426,-0.012609459459781647
1733698407016432400,7.911432373046875,-0.006804265547543764,-0.0015654300805181265,-0.013122384436428547
1733698407026387500,7.921387451171875,-0.006564847193658352,-0.0005552932270802557,-0.011531411670148373
1733698407036343300,7.93134326171875,-0.00980245228856802,-0.002722040982916951,-0.008754800073802471
1733698407046298400,7.94129833984375,-0.015256456099450588,-0.008399149402976036,-0.006898464635014534
1733698407056253400,7.95125341796875,-0.0190298892557621,-0.014216025359928608,-0.005155692342668772
1733698407066208300,7.961208251953125,-0.021063828840851784,-0.02221173234283924,-0.005136696621775627
1733698407076163300,7.971163330078125,-0.02333497256040573,-0.027103958651423454,-0.00554309505969286
1733698407086118100,7.9811181640625,-0.017087113112211227,-0.02948419563472271,-0.005533061921596527
1733698407096074200,7.99107421875,-0.013621541671454906,-0.0337710827589035,-0.005370608996599913
1733698407106029300,8.001029296875,-0.012016995809972286,-0.03571242466568947,-0.006174786016345024
1733698407115984400,8.010984375,-0.010489938780665398,-0.036123618483543396,-0.005644816905260086
1733698407125939500,8.020939453125,-0.01111854799091816,-0.02926780842244625,-0.007193787023425102
1733698407135894300,8.030894287109374,-0.013487162068486214,-0.02445920556783676,-0.009398617781698704
1733698407145850400,8.040850341796874,-0.015776846557855606,-0.016268951818346977,-0.011198839172720909
1733698407155805400,8.050805419921875,-0.01983097568154335,-0.006930577103048563,-0.01244413387030363
1733698407165760300,8.06076025390625,-0.017690379172563553,0.0019023448694497347,-0.013962438330054283
1733698407175715300,8.07071533203125,-0.019633155316114426,0.0075831338763237,-0.013123810291290283
1733698407185670400,8.08067041015625,-0.019501011818647385,0.007508815731853247,-0.014057476073503494
1733698407195626200,8.090626220703125,-0.016380585730075836,0.006635831668972969,-0.014027383178472519
1733698407205581300,8.100581298828125,-0.012892832048237324,0.0030450266785919666,-0.010256601497530937
1733698407215536400,8.110536376953124,-0.0132044218480587,-0.002370777539908886,-0.010464061982929707
1733698407225491200,8.1204912109375,-0.013525431975722313,-0.010922341607511044,-0.009912504814565182
1733698407235446500,8.130446533203125,-0.015465544536709785,-0.01670433022081852,-0.01218498032540083
1733698407245401300,8.1404013671875,-0.015251103788614273,-0.02391512133181095,-0.012139401398599148
1733698407255357200,8.150357177734374,-0.020978763699531555,-0.03041563183069229,-0.016531752422451973
1733698407265312500,8.1603125,-0.030764134600758553,-0.03253723308444023,-0.017384210601449013
1733698407275267300,8.170267333984375,-0.03449016436934471,-0.03265894204378128,-0.019336840137839317
1733698407285222400,8.180222412109375,-0.033118147403001785,-0.02949519455432892,-0.018385428935289383
1733698407295177200,8.19017724609375,-0.03139401599764824,-0.03354239836335182,-0.01757609285414219
1733698407305133300,8.20013330078125,-0.03173914551734924,-0.043539583683013916,-0.01926446706056595
1733698407315088400,8.21008837890625,-0.03576717525720596,-0.05825700983405113,-0.022433627396821976
1733698407325043500,8.22004345703125,-0.034758634865283966,-0.07289249449968338,-0.025812456384301186
1733698407334998300,8.229998291015624,-0.03293889760971069,-0.08299493044614792,-0.026594625785946846
1733698407344953300,8.239953369140625,-0.032374463975429535,-0.08993864059448242,-0.028329091146588326
1733698407354909400,8.249909423828125,-0.02980877459049225,-0.08881745487451553,-0.026155151426792145
1733698407364864300,8.2598642578125,-0.029191985726356506,-0.08240429311990738,-0.02618071809411049
1733698407374819300,8.2698193359375,-0.028812754899263382,-0.0718400627374649,-0.01993214339017868
1733698407384774100,8.279774169921875,-0.02732549048960209,-0.05630408972501755,-0.015594873577356339
1733698407394729200,8.289729248046875,-0.024483630433678627,-0.03874640166759491,-0.009478123858571053
1733698407404685300,8.299685302734375,-0.02010246366262436,-0.021688057109713554,-0.010102635249495506
1733698407414640000,8.30964013671875,-0.018476050347089767,-0.008109018206596375,-0.004189480561763048
1733698407424595500,8.319595458984375,-0.01749291829764843,-0.002421006327494979,0.0020920410752296448
1733698407434550300,8.32955029296875,-0.01141957938671112,0.003556192386895418,0.006811961531639099
1733698407444505000,8.339505126953124,-0.008436929434537888,0.014256514608860016,0.0026584144216030836
1733698407454460200,8.349460205078126,-0.004400642588734627,0.025617027655243874,0.002687176689505577
1733698407464416300,8.359416259765625,-0.0030589019879698753,0.03873951733112335,0.003251568414270878
1733698407474371000,8.36937109375,-0.005272255279123783,0.04461844637989998,0.002223055809736252
1733698407484326400,8.379326416015624,-0.01242823712527752,0.04377365484833717,0.0026866034604609013
1733698407494281200,8.38928125,-0.015810450538992882,0.02882905676960945,0.004642961546778679
1733698407504236300,8.399236328125,-0.015633385628461838,0.0022633564658463,0.004595923703163862
1733698407514192400,8.4091923828125,-0.01510288380086422,-0.018546316772699356,0.004295253194868565
1733698407524147200,8.419147216796874,-0.008581682108342648,-0.028542855754494667,0.0006478751311078668
1733698407534102300,8.429102294921876,-0.006973665207624435,-0.031541574746370316,-0.00015267101116478443
1733698407544057300,8.439057373046875,-0.00561879575252533,-0.01897452212870121,-0.002459787530824542
1733698407554012400,8.449012451171875,-0.009395690634846687,-0.00211138604208827,-0.004616681486368179
1733698407563968300,8.45896826171875,-0.015033585950732231,0.01966177113354206,-0.007337662391364574
1733698407573923300,8.46892333984375,-0.015297239646315575,0.034197039902210236,-0.005630576051771641
1733698407583878400,8.47887841796875,-0.012708045542240143,0.04093381017446518,-0.00436386838555336
1733698407593833200,8.488833251953125,-0.008761507458984852,0.0394459031522274,-0.000017589423805475235
1733698407603788000,8.4987880859375,-0.0041424790397286415,0.03155259042978287,0.000012839213013648987
1733698407613744400,8.508744384765626,0.002233927370980382,0.014047102071344852,0.002270667115226388
1733698407623699200,8.51869921875,0.005087179597467184,-0.004657593555748463,0.0041388352401554585
1733698407633654300,8.528654296875,0.005062146112322807,-0.020123368129134178,0.004987850785255432
1733698407643609300,8.538609375,0.0038317712023854256,-0.02611478790640831,0.006440239958465099
1733698407653564200,8.548564208984375,0.002302583772689104,-0.028874622657895088,0.007969161495566368
1733698407663520300,8.558520263671875,0.002269566059112549,-0.02090175449848175,0.008791446685791016
1733698407673475300,8.568475341796875,0.00043491460382938385,-0.009274393320083618,0.009918229654431343
1733698407683430100,8.57843017578125,0.0009284552652388811,0.004151650704443455,0.009180307388305664
1733698407693385500,8.588385498046875,0.004229177255183458,0.018560416996479034,0.008921181783080101
1733698407703340300,8.59834033203125,0.007632968947291374,0.030702995136380196,0.007910680025815964
1733698407713296100,8.608296142578125,0.009905710816383362,0.04024456813931465,0.007990840822458267
1733698407723251500,8.61825146484375,0.01254482101649046,0.04796801134943962,0.0030692405998706818
1733698407733206300,8.628206298828125,0.012940832413733006,0.05306397005915642,0.002096654148772359
1733698407743161000,8.6381611328125,0.010980562306940556,0.055431243032217026,0.0045095570385456085
1733698407753116400,8.648116455078124,0.009503306820988655,0.05129801854491234,0.004430461209267378
1733698407763072300,8.658072265625,0.007656184025108814,0.04416903480887413,0.005694466643035412
1733698407773027000,8.668027099609375,0.007523025386035442,0.036020029336214066,0.007769069168716669
1733698407782982400,8.677982421875,0.01071364525705576,0.02887575887143612,0.008858922868967056
1733698407792937200,8.687937255859374,0.013596517033874989,0.02792580984532833,0.01014789380133152
1733698407802893000,8.69789306640625,0.01159381028264761,0.02403860352933407,0.01108951773494482
1733698407812848400,8.707848388671875,0.00940043106675148,0.020288074389100075,0.010106811299920082
1733698407822803200,8.71780322265625,0.005798036232590675,0.012274501845240593,0.011128607206046581
1733698407832758300,8.72775830078125,0.0026525764260441065,0.005309003870934248,0.010499568656086922
1733698407842713300,8.73771337890625,0.002776800887659192,-0.0029087448492646217,0.010280737653374672
1733698407852669200,8.747669189453125,0.005096946842968464,-0.005833694711327553,0.012283965945243835
1733698407862624300,8.757624267578125,0.009587375447154045,-0.006209902465343475,0.012832754291594028
1733698407872579300,8.767579345703124,0.01424497738480568,-0.0025661655236035585,0.01109291147440672
1733698407882534100,8.7775341796875,0.018582221120595932,0.008140920661389828,0.008652794174849987
1733698407892489200,8.7874892578125,0.01898835226893425,0.01853070966899395,0.009190753102302551
1733698407902445300,8.7974453125,0.020365390926599503,0.028335146605968475,0.010226643644273281
1733698407912400100,8.807400146484374,0.018083861097693443,0.03690919280052185,0.012951590120792389
1733698407922355200,8.817355224609376,0.020554138347506523,0.04331362619996071,0.014920721761882305
1733698407932310300,8.827310302734375,0.017260607331991196,0.05065836012363434,0.0158858522772789
1733698407942265300,8.837265380859375,0.015946537256240845,0.05732181295752525,0.01723436824977398
1733698407952221200,8.84722119140625,0.016027230769395828,0.06463884562253952,0.016736889258027077
1733698407962176300,8.85717626953125,0.01768897846341133,0.06806432455778122,0.01581869088113308
1733698407972131300,8.86713134765625,0.02063443325459957,0.06658440828323364,0.014945706352591515
1733698407982086100,8.877086181640625,0.02272014506161213,0.06232123076915741,0.014336030930280685
1733698407992041500,8.88704150390625,0.02399500086903572,0.054649461060762405,0.016433270648121834
1733698408001997300,8.896997314453126,0.021386314183473587,0.04472948610782623,0.015196152031421661
1733698408011952000,8.9069521484375,0.015649864450097084,0.0353117510676384,0.013854185119271278
1733698408021907500,8.916907470703125,0.012774772942066193,0.028467513620853424,0.01243379432708025
1733698408031862300,8.9268623046875,0.00872570276260376,0.023297784850001335,0.013333410024642944
1733698408041818000,8.936818115234376,0.00950348749756813,0.02096792310476303,0.011195708997547626
1733698408051773200,8.946773193359375,0.010686462745070457,0.0168679878115654,0.009333627298474312
1733698408061728300,8.956728271484375,0.012591073289513588,0.00908292829990387,0.009337409399449825
1733698408071683000,8.96668310546875,0.015019875951111317,0.0013150200247764587,0.008894791826605797
1733698408081638400,8.976638427734375,0.013953017070889473,-0.010270577855408192,0.009141368791460991
1733698408091594200,8.98659423828125,0.015845727175474167,-0.013790477998554707,0.008081696927547455
1733698408101549000,8.996549072265625,0.014910952188074589,-0.010281714610755444,0.008601844310760498
1733698408111504400,9.00650439453125,0.013906941749155521,-0.005205729976296425,0.0061133867129683495
1733698408121459200,9.016459228515625,0.00888955406844616,0.0032181234564632177,0.005491041578352451
1733698408131414300,9.026414306640625,0.007138259708881378,0.011827857233583927,0.003920575603842735
1733698408141370400,9.036370361328125,0.00642372714355588,0.02018090896308422,0.0027008794713765383
1733698408151325200,9.0463251953125,0.008900200948119164,0.029129397124052048,0.0051307473331689835
1733698408161280300,9.0562802734375,0.011624087579548359,0.03774307668209076,0.0029565112199634314
1733698408171235300,9.0662353515625,0.012893350794911385,0.03798888623714447,0.008777381852269173
1733698408181191200,9.076191162109374,0.017301209270954132,0.034692779183387756,0.012379447929561138
1733698408191146200,9.086146240234376,0.02017262950539589,0.035060297697782516,0.01100126188248396
1733698408201101300,9.096101318359375,0.02424633502960205,0.03733045607805252,0.005616300273686647
1733698408211056000,9.10605615234375,0.027150245383381844,0.03825590759515762,0.005237332545220852
1733698408221011200,9.11601123046875,0.02591187134385109,0.033083610236644745,0.0036869060713797808
1733698408230967300,9.12596728515625,0.020053183659911156,0.019495628774166107,0.006693881005048752
1733698408240922000,9.135922119140625,0.014521265402436256,-0.006832800339907408,0.010645879432559013
1733698408250877200,9.145877197265625,0.0077336677350103855,-0.034503575414419174,0.014314915984869003
1733698408260832300,9.155832275390624,0.009695951826870441,-0.05789487808942795,0.012951219454407692
1733698408270788000,9.1657880859375,0.01329334918409586,-0.06786735355854034,0.011222561821341515
1733698408280743400,9.175743408203125,0.018133848905563354,-0.06137891486287117,0.009988312609493732
1733698408290698200,9.1856982421875,0.02094188705086708,-0.04217059910297394,0.010824012570083141
1733698408300653300,9.1956533203125,0.017932377755641937,-0.013195648789405823,0.008844634518027306
1733698408310608100,9.205608154296876,0.009985505603253841,0.018064802512526512,0.006927424110472202
1733698408320564200,9.215564208984375,0.004335940815508366,0.046600982546806335,0.004787249490618706
1733698408330519300,9.225519287109375,0.000538805965334177,0.06861068308353424,0.003768057795241475
1733698408340474400,9.235474365234374,0.001053394633345306,0.0804525688290596,0.003045750083401799
1733698408350429200,9.24542919921875,0.006234041880816221,0.08482547849416733,0.00492168078199029
1733698408360385500,9.255385498046875,0.010168942622840405,0.07685910910367966,0.00390865933150053
1733698408370340900,9.2653408203125,0.009600091725587845,0.058678776025772095,0.008561201393604279
1733698408380295700,9.275295654296874,0.015980742871761322,0.04126323387026787,0.0096657769754529
1733698408390250800,9.285250732421876,0.014716009609401226,0.023143352940678596,0.00966630969196558
1733698408400206800,9.295206787109375,0.013381765224039555,0.007833743467926979,0.011918911710381508
1733698408410161700,9.30516162109375,0.014057142660021782,-0.005565684288740158,0.014228138141334057
1733698408420116700,9.31511669921875,0.016140399500727654,-0.01280882116407156,0.015344519168138504
1733698408430071600,9.325071533203126,0.014064998365938663,-0.015379304997622967,0.015359699726104736
1733698408440027000,9.33502685546875,0.013654005713760853,-0.013124922290444374,0.014143925160169601
1733698408449982700,9.344982666015625,0.011197240091860294,-0.007122689392417669,0.015490951016545296
1733698408459937800,9.354937744140624,0.01113059464842081,0.0014537139795720577,0.01247747614979744
1733698408469892900,9.364892822265626,0.010452021844685078,0.012037382461130619,0.011737382970750332
1733698408479847700,9.37484765625,0.008533147163689137,0.01985665038228035,0.012295740656554699
1733698408489803800,9.3848037109375,0.010741173289716244,0.02948504127562046,0.012251531705260277
1733698408499758800,9.3947587890625,0.01570737175643444,0.04116877168416977,0.01047399640083313
1733698408509713700,9.404713623046876,0.011503305286169052,0.04953589290380478,0.010288374498486519
1733698408519668700,9.414668701171875,0.008172956295311451,0.05153854936361313,0.009359089657664299
1733698408529623800,9.424623779296875,0.008933820761740208,0.049224261194467545,0.009761493653059006
1733698408539579600,9.43457958984375,0.011998588219285011,0.04590259864926338,0.010554916225373745
1733698408549534700,9.44453466796875,0.012901399284601212,0.03764759749174118,0.010170888155698776
1733698408559489800,9.45448974609375,0.010686317458748817,0.031452860683202744,0.010806534439325333
1733698408569444600,9.464444580078125,0.003127999836578965,0.019251853227615356,0.010677903890609741
1733698408579400700,9.474400634765624,0.001495679491199553,0.011237069964408875,0.007162156980484724
1733698408589355800,9.484355712890626,0.005083223804831505,0.000594013137742877,0.00901811383664608
1733698408599310600,9.494310546875,0.006166729144752026,-0.00449690967798233,0.005623232573270798
1733698408609266000,9.504265869140625,0.006985384970903397,-0.009645067155361176,0.00440323818475008
1733698408619221800,9.5142216796875,0.007916758768260479,-0.013432412408292294,0.0018993422854691744
1733698408629176600,9.524176513671875,0.010159672237932682,-0.015435908921062946,0.002829051809385419
1733698408639132000,9.5341318359375,0.008097988553345203,-0.014165450818836689,-0.001081549795344472
1733698408649086700,9.544086669921874,0.004537075757980347,-0.01140215527266264,-0.0021358951926231384
1733698408659042600,9.55404248046875,0.0028409063816070557,-0.008012265898287296,-0.0018293994944542646
1733698408668998000,9.563997802734375,0.0042081731371581554,-0.0025594437029212713,-0.0029327471274882555
1733698408678952700,9.57395263671875,0.0017290374962612987,0.00014611822552978992,-0.0015422443393617868
1733698408688907500,9.583907470703124,-0.0011517038801684976,0.006062862928956747,-0.0010892406571656466
1733698408698862800,9.59386279296875,-0.003496418008580804,0.009955242276191711,0.0015985132195055485
1733698408708818700,9.603818603515625,-0.002484682947397232,0.011618918739259243,0.0022736245300620794
1733698408718773500,9.6137734375,0.0008513935608789325,0.010680856183171272,-0.0002704013604670763
1733698408728728800,9.623728759765624,0.0032011005096137524,0.008808653801679611,0.0032220683060586452
1733698408738683600,9.63368359375,0.005707534961402416,0.00451316125690937,0.001404777285642922
1733698408748639700,9.6436396484375,0.004269161261618137,-0.000982537865638733,0.001996531616896391
1733698408758594800,9.6535947265625,0.002469669096171856,-0.004933288786560297,0.00025326141621917486
1733698408768549600,9.663549560546874,-0.0012742027174681425,-0.010271062143146992,0.00010066223330795765
1733698408778504700,9.673504638671876,-0.002163837430998683,-0.011063586920499802,0.0008374737808480859
1733698408788460800,9.683460693359375,-0.00022532243747264147,-0.007784969639033079,0.0019272392382845283
1733698408798415600,9.69341552734375,0.002676459029316902,-0.0013264326844364405,0.003274899208918214
1733698408808371000,9.703370849609374,0.004836549051105976,0.004227589815855026,0.001892718719318509
1733698408818325800,9.71332568359375,0.004749661311507225,0.008693622425198555,0.0032089767046272755
1733698408828281600,9.723281494140625,0.002899030689150095,0.011024154722690582,0.0031402669847011566
1733698408838237000,9.73323681640625,0.0003056556452065706,0.008587031625211239,0.003565478138625622
1733698408848191700,9.743191650390624,-0.004665667191147804,0.002785335062071681,0.003735654056072235
1733698408858146600,9.753146484375,-0.003216718789190054,-0.006585134658962488,0.0041970014572143555
1733698408868101600,9.7631015625,-0.001202303683385253,-0.012143418192863464,0.0033373329788446426
1733698408878057700,9.7730576171875,-0.0002302498323842883,-0.011942083016037941,0.0009617933537811041
1733698408888012500,9.783012451171874,0.000618499587289989,-0.007124424912035465,0.00035086425486952066
1733698408897967900,9.7929677734375,-0.0032126493752002716,0.002308524213731289,0.00019514700397849083
1733698408907922700,9.802922607421875,-0.0038422206416726112,0.01312015950679779,-0.0038105137646198273
1733698408917878500,9.81287841796875,-0.0059939282946288586,0.020911535248160362,-0.003948284313082695
1733698408927833900,9.822833740234374,-0.0059276157990098,0.020987700670957565,-0.003427902702242136
1733698408937788700,9.83278857421875,-0.005588993895798922,0.020228354260325432,-0.003854224691167474
1733698408947743700,9.84274365234375,-0.003606004174798727,0.01631350629031658,-0.002716788789257407
1733698408957699800,9.852699951171875,-0.0006108093075454235,0.00571536086499691,0.0007334293331950903
1733698408967654700,9.862654541015624,0.004043863620609045,-0.0033495069947093725,0.0061087533831596375
1733698408977609700,9.872609619140626,0.009178697131574154,-0.007458062376827002,0.004769381135702133
1733698408987564800,9.882564697265625,0.010913480073213577,-0.0022601045202463865,0.0014726538211107254
1733698408997520600,9.892520751953125,0.013691496104001999,0.0012450189096853137,-0.001469162991270423
1733698409007475700,9.902475830078124,0.00930793397128582,0.0005621844320558012,-0.0020241658203303814
1733698409017430800,9.9124306640625,0.007802911102771759,-0.006736725103110075,0.00038462085649371147
1733698409027385600,9.922385498046875,0.0045213643461465836,-0.02717728540301323,0.0029750776011496782
1733698409037341700,9.932341796875,0.00174409756436944,-0.05317818373441696,0.006530317477881908
1733698409047296800,9.942296875,0.005951626226305962,-0.07002986967563629,0.005529235582798719
1733698409057251600,9.95225146484375,0.011161640286445618,-0.0723780021071434,0.003807013388723135
1733698409067206700,9.96220654296875,0.014801382087171078,-0.05921851843595505,0.0034059411846101284
1733698409077162800,9.972162841796875,0.005578376818448305,-0.033007800579071045,0.004757465794682503
1733698409087117600,9.98211767578125,-0.008168593980371952,-0.002408079570159316,0.00224397424608469
1733698409097072600,9.99207275390625,-0.018715376034379005,0.029128462076187134,0.0027361768297851086
1733698409107027700,10.00202783203125,-0.022684551775455475,0.053683605045080185,-0.0003823847509920597
1733698409116983600,10.011983642578125,-0.01824965886771679,0.0675252377986908,-0.001328814309090376
1733698409126939000,10.02193896484375,-0.011809867806732655,0.0715615302324295,-0.002307259477674961
1733698409136893700,10.031893798828126,0.0006747008301317692,0.0684206560254097,-0.00026622042059898376
1733698409146848800,10.041848876953125,0.00806497223675251,0.05599861219525337,-0.001034276094287634
1733698409156804900,10.051804931640625,0.01325007900595665,0.03767644986510277,0.0003729958552867174
1733698409166759700,10.061759765625,0.01193128153681755,0.017368247732520103,0.000020393403246998787
1733698409176714800,10.07171484375,0.011029406450688839,-0.002837130567058921,0.0041708145290613174
1733698409186669800,10.081669921875,0.009837375022470951,-0.018774818629026413,0.00620174128562212
1733698409196625700,10.091625732421875,0.006667209789156914,-0.026481110602617264,0.007153728045523167
1733698409206580700,10.101580810546874,0.004180083051323891,-0.03205670416355133,0.008542832918465137
1733698409216535800,10.111535888671876,0.0026998373214155436,-0.03174814209342003,0.008194051682949066
1733698409226490600,10.12149072265625,0.00364312925375998,-0.02658240869641304,0.0067740548402071
1733698409236446700,10.13144677734375,0.006793716922402382,-0.018960295245051384,0.00398433580994606
1733698409246401800,10.14140185546875,0.007586274296045303,-0.011488263495266438,0.0030453053768724203
1733698409256356600,10.151356689453126,0.0037493426352739334,-0.0028638101648539305,0.0019466743106022477
1733698409266311700,10.161311767578125,0.001394575578160584,0.002990350592881441,-0.002155659021809697
1733698409276267800,10.171267822265625,-0.00040127220563590527,0.008193811401724815,-0.00475132092833519
1733698409286222600,10.18122265625,-0.0027579034212976694,0.010577075183391571,-0.00526557769626379
1733698409296177700,10.191177734375,-0.0030175100546330214,0.011215748265385628,-0.0046281469985842705
1733698409306132700,10.2011328125,-0.0018486486515030265,0.012203514575958252,-0.004416958428919315
1733698409316088600,10.211088623046875,0.002375066513195634,0.009068716317415237,-0.006317994557321072
1733698409326043600,10.221043701171874,0.0057828472927212715,0.004367438144981861,-0.006258605979382992
1733698409335998700,10.230998779296876,0.005677130538970232,0.005246063694357872,-0.00481833191588521
1733698409345953800,10.240953857421875,0.0006288423901423812,0.002563994377851486,-0.0009428998455405235
1733698409355910000,10.250909912109375,-0.0033266267273575068,-0.0015091735403984785,0.0012947015929967165
1733698409365863700,10.26086376953125,-0.005075524561107159,-0.0064424131996929646,0.0027557117864489555
1733698409375819000,10.270819091796875,-0.002266546245664358,-0.010457265190780163,0.0017173318192362785
1733698409385773800,10.28077392578125,-0.0026766732335090637,-0.011541171930730343,0.0004810923710465431
1733698409395729700,10.290729736328124,0.0020383186638355255,-0.010926167480647564,-0.0014697236474603415
1733698409405685000,10.30068505859375,0.005121992900967598,-0.01192591805011034,-0.002670276677235961
1733698409415639800,10.310639892578125,0.0059633441269397736,-0.012449931353330612,-0.003028832608833909
1733698409425595000,10.320594970703125,0.005651487503200769,-0.010674934834241867,-0.0025918076280504465
1733698409435551000,10.330551025390625,0.005210278555750847,-0.007829790003597736,-0.0032603824511170387
1733698409445505800,10.340505859375,0.0011894378112629056,-0.004371409770101309,-0.002660105936229229
1733698409455460900,10.3504609375,-0.0021333920303732157,0.0005193805554881692,-0.0025028144009411335
1733698409465416000,10.360416015625,-0.0028383308090269566,0.005374589469283819,-0.0022617983631789684
1733698409475371800,10.370371826171874,-0.0034432040993124247,0.008283148519694805,-0.0011056631337851286
1733698409485326800,10.380326904296876,-0.0034075176808983088,0.00846450962126255,-0.0038772146217525005
1733698409495282000,10.390281982421875,-0.0027049132622778416,0.009313461370766163,-0.0029589494224637747
1733698409505237000,10.400237060546875,-0.00119570002425462,0.006785854697227478,-0.0015203100629150867
1733698409515193000,10.410193115234375,-0.002394439186900854,0.0006111630355007946,-0.002514171414077282
1733698409525148000,10.42014794921875,-0.0027947123162448406,-0.005318098701536655,-0.0009828538168221712
1733698409535102700,10.430102783203125,-0.0037117227911949158,-0.01021195575594902,-0.0013264825101941824
1733698409545057800,10.440057861328125,-0.002364696003496647,-0.011933956295251846,-0.0028332991059869528
1733698409555014000,10.450013916015624,-0.002108559012413025,-0.010748147033154964,-0.0015407728496938944
1733698409564968700,10.45996875,-0.0020060273818671703,-0.005067624617367983,0.001804690109565854
1733698409574924000,10.469924072265625,-0.001763671520166099,0.002204080345109105,0.00017903256230056286
1733698409584878800,10.47987890625,0.0001322329044342041,0.010512610897421837,-0.00039887335151433945
1733698409594834700,10.489834716796874,-0.00015824823640286922,0.014702707529067993,-0.00032622623257339
1733698409604790000,10.4997900390625,0.001261482946574688,0.013434509746730328,-0.00042689358815550804
1733698409614744800,10.509744873046875,-0.0019366798223927617,0.007152638863772154,0.0005557889817282557
1733698409624700000,10.519699951171875,-0.0031641307286918163,-0.00375566934235394,0.0012295686174184084
1733698409634656000,10.529656005859374,-0.004443610552698374,-0.010915716178715229,-0.0012239206116646528
1733698409644610800,10.53961083984375,-0.007255109492689371,-0.018463915213942528,-0.0005333630833774805
1733698409654566000,10.54956591796875,-0.007662558928132057,-0.02293025143444538,-0.0004204064607620239
1733698409664521000,10.55952099609375,-0.009084153920412064,-0.027220604941248894,-0.003291293978691101
1733698409674476800,10.569476806640624,-0.007703033275902271,-0.029801635071635246,-0.006184450350701809
1733698409684432000,10.579431884765626,-0.008612236008048058,-0.0342046394944191,-0.010472139343619347
1733698409694387000,10.589386962890625,-0.007138589397072792,-0.03255574032664299,-0.012402652762830257
1733698409704342000,10.599342041015625,-0.007676281966269016,-0.031872108578681946,-0.016462376341223717
1733698409714297900,10.6092978515625,-0.012368625029921532,-0.03049592301249504,-0.01524425856769085
1733698409724253000,10.6192529296875,-0.016742601990699768,-0.030107898637652397,-0.01759582944214344
1733698409734207700,10.629207763671875,-0.021931901574134827,-0.03210907801985741,-0.018085800111293793
1733698409744164000,10.6391640625,-0.02344537526369095,-0.0362609438598156,-0.016521992161870003
1733698409754119000,10.649118896484374,-0.02383100613951683,-0.03850183263421059,-0.017575640231370926
1733698409764073700,10.65907373046875,-0.02111644670367241,-0.044154126197099686,-0.01706591248512268
1733698409774028800,10.66902880859375,-0.01670459844172001,-0.05415899679064751,-0.011025691404938698
1733698409783985000,10.67898486328125,-0.006504691671580076,-0.05946081876754761,-0.010587600991129875
1733698409793939700,10.688939697265624,-0.0006284969858825207,-0.058181844651699066,-0.012503422796726227
1733698409803894800,10.698894775390626,0.0027635712176561356,-0.05394422262907028,-0.013620618730783463
1733698409813849900,10.708849853515625,0.0015774854691699147,-0.04799426347017288,-0.012410762719810009
1733698409823805700,10.7188056640625,-0.005761920008808374,-0.04441683739423752,-0.013419834896922112
1733698409833761000,10.728760986328124,-0.01721516251564026,-0.04669739678502083,-0.009750966913998127
1733698409843715800,10.7387158203125,-0.022906338796019554,-0.05933409556746483,-0.008244683034718037
1733698409853671000,10.7486708984375,-0.022826384752988815,-0.06911168992519379,-0.008905941620469093
1733698409863627000,10.758626953125,-0.01827877014875412,-0.07466491311788559,-0.011325689032673836
1733698409873581800,10.768581787109374,-0.013433356769382954,-0.0690837949514389,-0.016599008813500404
1733698409883537000,10.778536865234376,-0.008603980764746666,-0.05353599414229393,-0.018394777551293373
1733698409893492000,10.788491943359375,-0.005196856800466776,-0.033535365015268326,-0.018747493624687195
1733698409903447800,10.79844775390625,-0.010971122421324253,-0.0105972895398736,-0.02209641970694065
1733698409913403000,10.80840283203125,-0.015618948265910149,0.006212065927684307,-0.02292710356414318
1733698409923358000,10.81835791015625,-0.017219508066773415,0.019180595874786377,-0.024137776345014572
1733698409933313800,10.828313720703125,-0.012957308441400528,0.025434480980038643,-0.019529664888978004
1733698409943268900,10.838268798828125,-0.011132510378956795,0.021240003407001495,-0.01661669835448265
1733698409953224000,10.848223876953124,-0.0012412634678184986,0.013338935561478138,-0.012508240528404713
1733698409963178800,10.8581787109375,0.0015476420521736145,-0.0026883480604737997,-0.009188642725348473
1733698409973135000,10.868135009765625,-0.002535169245675206,-0.025464145466685295,-0.007942402735352516
1733698409983090000,10.87808984375,-0.009789619594812393,-0.048873331397771835,-0.008832697756588459
1733698409993044700,10.888044677734374,-0.018919579684734344,-0.06776263564825058,-0.009070693515241146
1733698410002999800,10.897999755859376,-0.019387230277061462,-0.07771912962198257,-0.0050298795104026794
1733698410012956000,10.907955810546875,-0.019538581371307373,-0.08013017475605011,-0.005890227854251862
1733698410022910700,10.91791064453125,-0.021247532218694687,-0.07506483793258667,-0.0028076190501451492
1733698410032865800,10.92786572265625,-0.020567666739225388,-0.06789842993021011,-0.0035516717471182346
1733698410042820900,10.93782080078125,-0.019109318032860756,-0.048822205513715744,-0.006120023783296347
1733698410052776700,10.947776611328125,-0.019741835072636604,-0.03127644583582878,-0.008819076232612133
1733698410062732000,10.95773193359375,-0.016076792031526566,-0.01137970108538866,-0.010933092795312405
1733698410072686800,10.967686767578124,-0.007810930721461773,0.0026371129788458347,-0.014441280625760555
1733698410082642700,10.977642578125,-0.0035014033783227205,0.010157614015042782,-0.017111897468566895
1733698410092598000,10.987597900390625,-0.0012488297652453184,0.011124219745397568,-0.016062403097748756
1733698410102552800,10.997552734375,-0.006497121416032314,0.006399772595614195,-0.012031177058815956
1733698410112508000,11.0075078125,-0.009528235532343388,-0.002637735102325678,-0.011898566037416458
1733698410122464000,11.017464111328126,-0.007715688087046146,-0.012429911643266678,-0.009825028479099274
1733698410132418800,11.027418701171875,-0.004925220273435116,-0.01762334629893303,-0.007869115099310875
1733698410142374000,11.037373779296875,-0.0005291402339935303,-0.018314968794584274,-0.004792631603777409
1733698410152329000,11.047328857421874,-0.001098504988476634,-0.01720677688717842,-0.002242614747956395
1733698410162284800,11.057284912109376,-0.007402473594993353,-0.015050151385366917,-0.003105212701484561
1733698410172240000,11.067239990234375,-0.01671423576772213,-0.019350672140717506,-0.0025142973754554987
1733698410182195000,11.07719482421875,-0.019813090562820435,-0.02165830135345459,-0.0031105789821594954
1733698410192150800,11.08715087890625,-0.02077416330575943,-0.02356439083814621,-0.0056743985041975975
1733698410202105900,11.09710595703125,-0.019245509058237076,-0.019339285790920258,-0.00653300154954195
1733698410212061000,11.10706103515625,-0.016544284299016,-0.010933386161923409,-0.007221086882054806
1733698410222015700,11.117015625,-0.012424907647073269,-0.0009151070262305439,-0.011250716634094715
1733698410231972000,11.12697216796875,-0.007705670781433582,0.016692783683538437,-0.015360230579972267
1733698410241927000,11.136927001953126,-0.008058539591729641,0.03466139733791351,-0.017041217535734177
1733698410251881700,11.1468818359375,-0.015084411948919296,0.05368620902299881,-0.017894981428980827
1733698410261836800,11.1568369140625,-0.016689233481884003,0.0682491734623909,-0.01400064118206501
1733698410271793000,11.16679296875,-0.017309829592704773,0.07839716225862503,-0.0050474051386117935
1733698410281747700,11.176747802734376,-0.014462909661233425,0.08636241406202316,0.005753843113780022
1733698410291703000,11.186703125,-0.005919820163398981,0.08931101858615875,0.012616169638931751
1733698410301659000,11.196658935546875,0.0054265777580440044,0.08651949465274811,0.020559046417474747
1733698410311613700,11.20661376953125,0.01304480992257595,0.07743242383003235,0.024206943809986115
1733698410321569000,11.216569091796876,0.011318015865981579,0.06089206039905548,0.023958202451467514
1733698410331523800,11.22652392578125,0.0061098309233784676,0.035254571586847305,0.023716747760772705
1733698410341479700,11.236479736328125,0.005620608106255531,0.012740744277834892,0.02302485704421997
1733698410351435000,11.24643505859375,0.006809467449784279,-0.008440391160547733,0.017804039642214775
1733698410361390000,11.25639013671875,0.0067061372101306915,-0.02342626452445984,0.01314111053943634
1733698410371345400,11.266345458984375,0.003925384487956762,-0.03210419788956642,0.007603711448609829
1733698410381301200,11.27630126953125,0.006965116132050753,-0.032553739845752716,0.004152787383645773
1733698410391256000,11.286256103515624,0.008626085706055164,-0.028244581073522568,-0.0037957648746669292
1733698410401211100,11.296211181640626,0.009517179802060127,-0.017742671072483063,-0.004189380444586277
1733698410411167200,11.306167236328125,0.008716395124793053,-0.007156184874475002,-0.007047608494758606
1733698410421122300,11.316122314453125,0.006616492290049791,-0.002118549309670925,-0.010167768225073814
1733698410431077000,11.3260771484375,0.009122736752033234,0.0031878643203526735,-0.009567230008542538
1733698410441032200,11.3360322265625,0.0068028573878109455,0.011157373897731304,-0.006061444990336895
1733698410450988300,11.34598828125,0.010209452360868454,0.016444306820631027,-0.002610632451251149
1733698410460943000,11.355943115234375,0.005754516460001469,0.019978854805231094,-0.001900367671623826
1733698410470898200,11.365898193359374,0.0006994247669354081,0.026789329946041107,0.0002672916743904352
1733698410480854300,11.375854248046876,0.0003598717739805579,0.034293584525585175,0.0037152862641960382
1733698410490809000,11.38580908203125,0.000634233932942152,0.04377437382936478,0.00871990341693163
1733698410500764200,11.39576416015625,-0.0002824260154739022,0.05011163279414177,0.009762264788150787
1733698410510719200,11.40571923828125,0.005050303880125284,0.04854803532361984,0.010876470245420933
1733698410520675000,11.415675048828126,0.004821272101253271,0.04096761345863342,0.011935609392821789
1733698410530630100,11.425630126953125,0.00442533241584897,0.03263712301850319,0.014341453090310097
1733698410540585200,11.435585205078125,-0.002876522485166788,0.023174114525318146,0.011014100164175034
1733698410550541000,11.445541015625,-0.010342307388782501,0.0074174972251057625,0.013139946386218071
1733698410560496000,11.45549609375,0.00027518311981111765,-0.0024761466775089502,0.01711258478462696
1733698410570451200,11.465451171875,0.01635739952325821,-0.0019530865829437971,0.01813172921538353
1733698410580406300,11.47540625,0.02832724340260029,0.010319292545318604,0.017026783898472786
1733698410590362400,11.4853623046875,0.026153329759836197,0.0219190064817667,0.010216323658823967
1733698410600317200,11.495317138671876,0.019028041511774063,0.0286480151116848,0.006488963961601257
1733698410610272300,11.505272216796875,0.015675969421863556,0.02768404595553875,0.009004221297800541
1733698410620228400,11.515228271484375,0.013763552531599998,0.01962984725832939,0.011427165940403938
1733698410630183200,11.52518310546875,0.014357875101268291,-0.0005608308711089194,0.01346068549901247
1733698410640138200,11.53513818359375,0.01721784472465515,-0.021738022565841675,0.015509987249970436
1733698410650093300,11.54509326171875,0.022250475361943245,-0.03410527482628822,0.013893719762563705
1733698410660049200,11.555049072265625,0.015138237737119198,-0.03491940349340439,0.008730116300284863
1733698410670004200,11.565004150390624,0.026749499142169952,-0.019772915169596672,0.013536744751036167
1733698410679959300,11.574959228515626,0.018444964662194252,0.006966554094105959,0.011696766130626202
1733698410689914000,11.5849140625,0.006736377254128456,0.028957340866327286,0.009623495861887932
1733698410699870200,11.5948701171875,0.02690742537379265,0.05195027217268944,0.019495034590363503
1733698410709825300,11.6048251953125,0.020552048459649086,0.08177836984395981,0.008865723386406898
1733698410719780000,11.614780029296876,0.016982080414891243,0.0886453315615654,0.010547775775194168
1733698410729736400,11.624736328125,0.0037120655179023743,0.08772420138120651,0.004582621622830629
1733698410739691300,11.634691162109375,-0.0017783076036721468,0.08386155217885971,0.01653968170285225
1733698410749646000,11.64464599609375,0.0002305597299709916,0.06779948621988297,0.016727684065699577
1733698410759601200,11.65460107421875,0.016628175973892212,0.04641164094209671,0.016132734715938568
1733698410769557200,11.66455712890625,0.016399962827563286,0.02064240723848343,0.01482924073934555
1733698410779512000,11.674511962890625,0.018685219809412956,0.002225584117695689,0.01928124763071537
1733698410789467100,11.684467041015624,0.016973799094557762,-0.004423775244504213,0.01830080896615982
1733698410799423200,11.69442333984375,0.01822814904153347,-0.009877929463982582,0.019785787910223007
1733698410809378000,11.7043779296875,0.011081057600677013,-0.011721113696694374,0.015385244973003864
1733698410819333400,11.71433349609375,0.005395208951085806,-0.010622560046613216,0.015045691281557083
1733698410829288200,11.7242880859375,0.00033902411814779043,-0.0036263444926589727,0.015720954164862633
1733698410839244000,11.734244140625,0.0031526535749435425,0.008133376017212868,0.012015165761113167
1733698410849199400,11.744199462890625,0.006692572496831417,0.017568785697221756,0.01016337051987648
1733698410859154200,11.754154296875,0.013654874637722969,0.026150554418563843,0.00767864054068923
1733698410869110000,11.764110107421875,0.016486430540680885,0.029267236590385437,0.0034581106156110764
1733698410879065300,11.7740654296875,0.018178602680563927,0.030398814007639885,0.003240796737372875
1733698410889020200,11.784020263671875,0.018547728657722473,0.028487304225564003,0.005064100027084351
1733698410898976300,11.793976318359375,0.0202803798019886,0.021698907017707825,0.006347743794322014
1733698410908931300,11.803931396484375,0.02051032893359661,0.02027728408575058,0.00771671999245882
1733698410918886100,11.81388623046875,0.018652241677045822,0.016749927774071693,0.00729167927056551
