time,seconds_elapsed,z,y,x
1733698512204140000,0.01514013671875,-0.009204309433698654,-0.24234093725681305,0.0024577216245234013
1733698512214094800,0.0250947265625,-0.05331319943070412,-0.1235780268907547,-0.004035836085677147
1733698512224050000,0.0350498046875,-0.07222110778093338,-0.03274106606841087,-0.01503628771752119
1733698512234005000,0.0450048828125,-0.0723743885755539,0.031292907893657684,-0.022951489314436913
1733698512243960800,0.0549609375,-0.05791155993938446,0.06948823481798172,-0.02648630365729332
1733698512253916000,0.064916015625,-0.03217318654060364,0.08987531065940857,-0.023059051483869553
1733698512263871000,0.07487109375,-0.005752498749643564,0.09201675653457642,-0.015131087973713875
1733698512273825800,0.08482568359375,0.0045699067413806915,0.07780927419662476,-0.006506774574518204
1733698512283781000,0.094781005859375,0.0021339135710150003,0.06680002808570862,0.005228178109973669
1733698512293737000,0.104737060546875,-0.005287153646349907,0.07368254661560059,0.011441281996667385
1733698512303691800,0.11469189453125,-0.013615656644105911,0.0983964130282402,0.008603418245911598
1733698512313647000,0.124647216796875,-0.016384031623601913,0.1234302744269371,0.007726034615188837
1733698512323602000,0.134601806640625,-0.02028396725654602,0.12568305432796478,0.006685005035251379
1733698512333557800,0.144557861328125,-0.023094044998288155,0.10597394406795502,0.0026641448494046926
1733698512343513000,0.15451318359375,-0.019668420776724815,0.073884978890419,0.003983474802225828
1733698512353468000,0.164468017578125,-0.011205324903130531,0.03604520857334137,0.005358840338885784
1733698512363423000,0.174423095703125,-0.0001481460640206933,-0.0071187750436365604,0.00479265209287405
1733698512373378000,0.1843779296875,0.012783444486558437,-0.051799170672893524,0.006815401371568441
1733698512383334000,0.194333984375,0.028186902403831482,-0.09223979711532593,0.007185580674558878
1733698512393289000,0.2042890625,0.03869686648249626,-0.11723645776510239,0.0026372764259576797
1733698512403244000,0.214244140625,0.043833039700984955,-0.12563127279281616,0.002629020484164357
1733698512413198800,0.22419873046875,0.037309903651475906,-0.11300143599510193,0.0031473408453166485
1733698512423154000,0.23415380859375,0.027544092386960983,-0.08471520245075226,0.002520965179428458
1733698512433110000,0.244110107421875,0.012330717407166958,-0.0475899875164032,0.0009775549406185746
1733698512443064800,0.25406494140625,-0.006310078781098127,-0.007416734006255865,0.0005706239026039839
1733698512453020000,0.26402001953125,-0.02017476037144661,0.024831749498844147,-0.0010909223929047585
1733698512462974500,0.273974365234375,-0.02686808630824089,0.04982738196849823,-0.002547138836234808
1733698512472929500,0.283929443359375,-0.024041812866926193,0.06472007185220718,-0.008878390304744244
1733698512482885600,0.2938857421875,-0.017134904861450195,0.06381459534168243,-0.00927759800106287
1733698512492840400,0.30384033203125,-0.010398109443485737,0.05885327234864235,-0.009370867162942886
1733698512502795500,0.31379541015625,-0.002056555822491646,0.047752149403095245,-0.006136192474514246
1733698512512750600,0.32375048828125,0.0021467888727784157,0.034033238887786865,-0.0029383571818470955
1733698512522705700,0.33370556640625,0.0035382905043661594,0.022852754220366478,-0.0010933191515505314
1733698512532661800,0.343661865234375,0.003753866069018841,0.014684597961604595,0.002947909291833639
1733698512542616600,0.353616455078125,0.0033112484961748123,0.008837361820042133,0.006838254630565643
1733698512552571600,0.363571533203125,0.0019181712996214628,0.0037044978234916925,0.006748911924660206
1733698512562526500,0.3735263671875,0.0013858054298907518,-0.0043723369017243385,0.007999798282980919
1733698512572481500,0.3834814453125,-0.001165582798421383,-0.014044768176972866,0.00936928391456604
1733698512582437600,0.393437744140625,-0.0004790198290720582,-0.02084195427596569,0.008736517280340195
1733698512592392400,0.403392333984375,-0.0028895149007439613,-0.024142451584339142,0.008843733929097652
1733698512602347500,0.413347412109375,-0.003082061419263482,-0.022290755063295364,0.007016539108008146
1733698512612302600,0.423302490234375,-0.002092445269227028,-0.015155032277107239,0.00505222100764513
1733698512622258700,0.4332587890625,-0.003408046904951334,-0.004514905158430338,0.0021112922113388777
1733698512632213500,0.443213623046875,-0.00005399412475526333,0.003785675624385476,-0.002434881404042244
1733698512642168600,0.45316845703125,-0.0008279086323454976,0.012039344757795334,-0.007735903840512037
1733698512652123400,0.463123291015625,0.002307179383933544,0.018016761168837547,-0.01061161421239376
1733698512662078700,0.47307861328125,0.004818273708224297,0.019868990406394005,-0.00946432538330555
1733698512672034600,0.48303466796875,0.007376686204224825,0.014680732041597366,-0.008466418832540512
1733698512681989600,0.49298974609375,0.010455567389726639,0.0076617044396698475,-0.006143609993159771
1733698512691944700,0.50294482421875,0.010076096281409264,0.00006494129775092006,-0.005252041853964329
1733698512701899500,0.5128994140625,0.008091775700449944,-0.004359101876616478,-0.0003446349874138832
1733698512711854300,0.522854248046875,-0.00005770230200141668,-0.007768335286527872,0.003231398295611143
1733698512721810700,0.532810791015625,-0.003739256178960204,-0.012755370698869228,0.0038551106117665768
1733698512731765500,0.542765625,-0.008519181050360203,-0.018888356164097786,0.004049974959343672
1733698512741720600,0.552720458984375,-0.010275536216795444,-0.01922258362174034,0.004452378489077091
1733698512751675600,0.562675537109375,-0.010201359167695045,-0.018840443342924118,0.003741699270904064
1733698512761630500,0.57263037109375,-0.007102238945662975,-0.017387157306075096,0.004359286278486252
1733698512771586600,0.582586669921875,-0.005092859733849764,-0.017080780118703842,0.0036856457591056824
1733698512781541600,0.592541748046875,-0.0044387876987457275,-0.01388365589082241,0.0033926982432603836
1733698512791496400,0.602496337890625,-0.005424985196441412,-0.01124500297009945,0.0032842664513736963
1733698512801451500,0.612451416015625,-0.007671627681702375,-0.005912023596465588,0.0034299413673579693
1733698512811406600,0.622406494140625,-0.009549281559884548,0.004379738122224808,-0.00026401085779070854
1733698512821362400,0.632362548828125,-0.009118914604187012,0.014067785814404488,-0.0021130433306097984
1733698512831317800,0.64231787109375,-0.009188778698444366,0.021340830251574516,-0.002715597627684474
1733698512841272600,0.6522724609375,-0.007246802095323801,0.024958999827504158,-0.005299663171172142
1733698512851227600,0.6622275390625,-0.0022857761941850185,0.030297888442873955,-0.006149596534669399
1733698512861183700,0.672183837890625,0.00230950815603137,0.022273516282439232,-0.005969833582639694
1733698512871138600,0.682138671875,0.007137632928788662,0.011604991741478443,-0.007135586813092232
1733698512881093400,0.69209326171875,0.008754171431064606,-0.003552390029653907,-0.004858850501477718
1733698512891048700,0.702048583984375,0.004086592234671116,-0.01745118573307991,-0.006124531850218773
1733698512901003500,0.71200341796875,-0.0007435831939801574,-0.027424991130828857,-0.004453931003808975
1733698512910959400,0.72195947265625,-0.003852253081277013,-0.036768123507499695,-0.004622973967343569
1733698512920914700,0.731914794921875,-0.001731577911414206,-0.03867947682738304,-0.004376631695777178
1733698512930869500,0.741869384765625,-0.001713734702207148,-0.035572100430727005,-0.004676503594964743
1733698512940824600,0.751824462890625,-0.003444523084908724,-0.030376804992556572,-0.003528947476297617
1733698512950779600,0.761779541015625,-0.005651353858411312,-0.021275267004966736,-0.003926241770386696
1733698512960735500,0.771735595703125,-0.005084366537630558,-0.014368624426424503,-0.0011999642010778189
1733698512970690600,0.781690673828125,-0.006404229439795017,-0.006696058437228203,0.0016458897152915597
1733698512980645600,0.791645751953125,-0.0068724132142961025,-0.004289892036467791,0.0006389485206454992
1733698512990600700,0.8016005859375,-0.009967557154595852,-0.0037426212802529335,-0.0006282215472310781
1733698513000555500,0.811555419921875,-0.013443781062960625,-0.007894222624599934,-0.0034053658600896597
1733698513010511600,0.82151171875,-0.01199234090745449,-0.008619392290711403,-0.004925993271172047
1733698513020466700,0.831466796875,-0.0065949116833508015,-0.003652065061032772,-0.007946283556520939
1733698513030421500,0.84142138671875,-0.0054338364861905575,0.0031316597014665604,-0.00927753932774067
1733698513040376600,0.85137646484375,-0.005853284150362015,0.008436144329607487,-0.012253355234861374
1733698513050331600,0.86133154296875,-0.01016647182404995,0.0070300353690981865,-0.011104891076683998
1733698513060287500,0.87128759765625,-0.009341690689325333,0.005621755961328745,-0.009648675099015236
1733698513070242600,0.88124267578125,-0.007797540165483952,-0.00103542092256248,-0.00935442466288805
1733698513080197600,0.89119775390625,-0.00730485562235117,-0.013583969324827194,-0.00829901359975338
1733698513090152400,0.90115234375,-0.007776664104312658,-0.023667924106121063,-0.006083312444388866
1733698513100107800,0.911107666015625,-0.0058338879607617855,-0.031260862946510315,-0.005011124070733786
1733698513110063600,0.921063720703125,-0.002718089148402214,-0.04071289673447609,-0.0035445713438093662
1733698513120018400,0.931018310546875,0.0034726951271295547,-0.04208282753825188,-0.0023842323571443558
1733698513129973800,0.940973876953125,0.0037814187817275524,-0.03521758317947388,-0.0074568139389157295
1733698513139928600,0.950928466796875,0.006394246127456427,-0.02121814526617527,-0.007391832768917084
1733698513149883400,0.96088330078125,0.0006496224086731672,-0.01281295157968998,-0.008830128237605095
1733698513159839700,0.97083984375,-0.007243987172842026,-0.009441922418773174,-0.00694966921582818
1733698513169794600,0.980794677734375,-0.011633371002972126,-0.013939565047621727,-0.007119369693100452
1733698513179749400,0.990749267578125,-0.011212058365345001,-0.023016950115561485,-0.00683334656059742
1733698513189704700,1.00070458984375,-0.007282665465027094,-0.03710725158452988,-0.005506443325430155
1733698513199660500,1.01066064453125,-0.008440341800451279,-0.04761368781328201,-0.007325648330152035
1733698513209615400,1.020615478515625,-0.007201816886663437,-0.0492701418697834,-0.007928665727376938
1733698513219570700,1.03057080078125,-0.007496628910303116,-0.04262848198413849,-0.005064169876277447
1733698513229525500,1.040525390625,-0.007418475113809109,-0.028401054441928864,-0.005567626561969519
1733698513239480600,1.05048046875,-0.012985548004508018,-0.010000476613640785,-0.008754098787903786
1733698513249436700,1.060436767578125,-0.015600709244608879,0.010486568324267864,-0.008743504993617535
1733698513259391500,1.0703916015625,-0.01940024085342884,0.02626899443566799,-0.013087120838463306
1733698513269346600,1.0803466796875,-0.016480475664138794,0.037244122475385666,-0.012504035606980324
1733698513279301600,1.090301513671875,-0.008739197626709938,0.04058585688471794,-0.011024916544556618
1733698513289256400,1.10025634765625,-0.005264298990368843,0.03678888455033302,-0.010980806313455105
1733698513299212500,1.110212646484375,-0.004658962599933147,0.019656768068671227,-0.008637757040560246
1733698513309167600,1.120167724609375,-0.005760260857641697,-0.0005676401196978986,-0.00763498991727829
1733698513319122400,1.130122314453125,-0.006429512985050678,-0.024444211274385452,-0.004763302393257618
1733698513329077500,1.140077392578125,-0.006336705293506384,-0.04428777098655701,-0.003485735272988677
1733698513339032600,1.150032470703125,-0.005635494831949472,-0.057214755564928055,-0.004888688214123249
1733698513348988400,1.159988525390625,-0.007000443525612354,-0.06351456046104431,-0.004381534177809954
1733698513358943500,1.169943603515625,-0.008846013806760311,-0.06093315780162811,-0.004457167815417051
1733698513368898600,1.179898681640625,-0.01027724239975214,-0.050240494310855865,-0.005083246156573296
1733698513378853600,1.189853515625,-0.011804564855992794,-0.03548338636755943,-0.004092817194759846
1733698513388808400,1.199808349609375,-0.011864813975989819,-0.01740732416510582,-0.004354545846581459
1733698513398764500,1.2097646484375,-0.013842477463185787,-0.002032096264883876,-0.0012631486169993877
1733698513408719600,1.2197197265625,-0.01569453254342079,0.00952613539993763,-0.0029158880934119225
1733698513418674400,1.22967431640625,-0.01366893108934164,0.01759098656475544,-0.0033166934736073017
1733698513428629800,1.239629638671875,-0.009006200358271599,0.02473522163927555,-0.005124338902533054
1733698513438584600,1.24958447265625,-0.007298581767827272,0.028837556019425392,-0.0053384569473564625
1733698513448540400,1.25954052734375,-0.006745380349457264,0.024754010140895844,-0.004711874760687351
1733698513458496300,1.269496337890625,-0.004765053745359182,0.01792140305042267,-0.005227995105087757
1733698513468451300,1.279451416015625,-0.0008338307961821556,0.009567786008119583,-0.003775990102440119
1733698513478406100,1.28940625,0.002202172763645649,0.004490202758461237,-0.003909680992364883
1733698513488361200,1.299361328125,0.0013560187071561813,0.0008184623438864946,0.0003853567177429795
1733698513498317300,1.3093173828125,-0.0031090369448065758,-0.002756298752501607,0.0008029403397813439
1733698513508272000,1.319272216796875,-0.00798871275037527,-0.009129606187343597,0.0014734665164723992
1733698513518227500,1.3292275390625,-0.008542650379240513,-0.014647409319877625,0.003287611762061715
1733698513528182300,1.339182373046875,-0.0036807223223149776,-0.016870738938450813,0.00226010475307703
1733698513538137000,1.34913720703125,-0.0012841436546295881,-0.0177016444504261,0.0016806008061394095
1733698513548093400,1.359093505859375,0.0016537944320589304,-0.015863142907619476,0.0025927932001650333
1733698513558048300,1.36904833984375,0.0019499377813190222,-0.015103609301149845,0.002397849690169096
1733698513568003000,1.379003173828125,0.002588687464594841,-0.010896855033934116,0.002570836106315255
1733698513577958400,1.38895849609375,0.001222485676407814,-0.0021049620117992163,0.0012624250957742333
1733698513587913200,1.398913330078125,-0.0007970368023961782,0.006819468457251787,-0.0006424044258892536
1733698513597869000,1.408869140625,-0.0035667242482304573,0.012849929742515087,-0.004301055334508419
1733698513607824400,1.418824462890625,-0.0066805193200707436,0.017935389652848244,-0.0016353707760572433
1733698513617779200,1.428779296875,-0.006198753137141466,0.01972103863954544,-0.001920861890539527
1733698513627734300,1.438734375,-0.002677595242857933,0.021666277199983597,-0.0002438791561871767
1733698513637689000,1.448689208984375,-0.0003353450447320938,0.023036474362015724,0.002625410445034504
1733698513647645200,1.458645263671875,0.0013797986321151257,0.023202160373330116,0.00473527517169714
1733698513657600300,1.468600341796875,0.0019289425108581781,0.024870632216334343,0.003780798288062215
1733698513667555300,1.478555419921875,0.0020970054902136326,0.023304644972085953,0.0045333788730204105
1733698513677510100,1.48851025390625,0.0007308041676878929,0.020562654361128807,0.00621676305308938
1733698513687465200,1.49846533203125,0.0022254828363656998,0.017958316951990128,0.005640799179673195
1733698513697421300,1.50842138671875,0.002390332520008087,0.013469825498759747,0.0054338714107871056
1733698513707376000,1.518376220703125,0.0012915120460093021,0.010559522546827793,0.007330042310059071
1733698513717331200,1.528331298828125,0.003912328742444515,0.012395505793392658,0.006010179407894611
1733698513727286300,1.538286376953125,0.003615856636315584,0.013870486058294773,0.005778277292847633
1733698513737241300,1.548241455078125,0.0027266270481050014,0.0067800856195390224,0.005945524200797081
1733698513747197200,1.558197265625,0.0017325265798717737,-0.002322615124285221,0.0044331541284918785
1733698513757152300,1.56815234375,-0.0017887050053104758,-0.01106950081884861,0.006265142932534218
1733698513767107300,1.578107421875,-0.00007842294871807098,-0.01576678454875946,0.003637135261669755
1733698513777062100,1.588062255859375,-0.00010718510020524263,-0.014328943565487862,0.0011771733406931162
1733698513787017500,1.598017578125,-0.0017146328464150429,-0.00765569182112813,0.0007376947905868292
1733698513796973300,1.607973388671875,-0.001384933479130268,0.0031873686239123344,-0.0022077616304159164
1733698513806928100,1.61792822265625,-0.0032096155919134617,0.013697129674255848,-0.0028512021526694298
1733698513816883200,1.62788330078125,-0.00090118742082268,0.018002130091190338,-0.002498066984117031
1733698513826838300,1.63783837890625,-0.0032887172419577837,0.017835253849625587,-0.0006385496817529202
1733698513836793000,1.64779296875,-0.002261003479361534,0.014767825603485107,0.0011159408604726195
1733698513846749200,1.657749267578125,-0.0021696723997592926,0.011274339631199837,0.002880314365029335
1733698513856704300,1.667704345703125,0.002496984787285328,0.006437240168452263,0.0036736701149493456
1733698513866659000,1.6776591796875,0.006041223183274269,0.0022717334795743227,0.0047970423474907875
1733698513876614400,1.687614501953125,0.007073463872075081,0.0015886325854808092,0.006113442592322826
1733698513886569200,1.6975693359375,0.011825342662632465,0.0017375033348798752,0.003963739611208439
1733698513896525000,1.707525146484375,0.011579000391066074,0.009636438451707363,0.0034406944178044796
1733698513906480400,1.71748046875,0.004275997634977102,0.017754722386598587,0.004134535789489746
1733698513916435200,1.727435302734375,0.002748408354818821,0.015893172472715378,0.005190744996070862
1733698513926390300,1.737390380859375,-0.0009865385945886374,0.005055253393948078,0.00326709495857358
1733698513936346400,1.747346435546875,0.0039847842417657375,-0.010436355136334896,0.0035845437087118626
1733698513946301200,1.75730126953125,0.008627194911241531,-0.024576731026172638,0.0032854012679308653
1733698513956256300,1.76725634765625,0.013344984501600266,-0.035089559853076935,0.004602867178618908
1733698513966211300,1.77721142578125,0.014861859381198883,-0.033106718212366104,0.0033722794614732265
1733698513976166100,1.787166259765625,0.01063488982617855,-0.022828510031104088,0.003201038111001253
1733698513986122200,1.797122314453125,0.005299525335431099,-0.004766896367073059,0.005253606475889683
1733698513996077300,1.807077392578125,-0.002417516428977251,0.02259761653840542,0.005212061107158661
1733698514006032100,1.8170322265625,-0.005767500028014183,0.0498882532119751,0.003074243664741516
1733698514015987200,1.8269873046875,-0.009999794885516167,0.07100605219602585,0.001988206524401903
1733698514025942300,1.8369423828125,-0.007959254086017609,0.08038195967674255,0.002060110215097666
1733698514035897300,1.8468974609375,-0.0060955737717449665,0.07438771426677704,0.004655360709875822
1733698514045853200,1.856853271484375,-0.0018313477048650384,0.057447902858257294,0.00597202917560935
1733698514055808300,1.866808349609375,0.0011284896172583103,0.03767979145050049,0.007737970910966396
1733698514065763300,1.876763427734375,0.005059822462499142,0.016278516501188278,0.008600695058703423
1733698514075718100,1.88671826171875,0.009725946933031082,-0.0016869022510945797,0.009012153372168541
1733698514085673200,1.896673095703125,0.01361020840704441,-0.016188975423574448,0.008241378702223301
1733698514095629300,1.90662939453125,0.013641100376844406,-0.024907100945711136,0.007025912404060364
1733698514105584000,1.916584228515625,0.01051366701722145,-0.0292580034583807,0.006565539166331291
1733698514115539200,1.926539306640625,0.0038168823812156916,-0.027864370495080948,0.005851545371115208
1733698514125494300,1.936494384765625,-0.001197324600070715,-0.024099621921777725,0.005235920660197735
1733698514135449000,1.946448974609375,-0.005272493697702885,-0.0144054489210248,0.004233240615576506
1733698514145405200,1.9564052734375,-0.0036537060514092445,0.0003275531344115734,0.0013660610420629382
1733698514155360300,1.9663603515625,0.0010089562274515629,0.015486531890928745,0.0008653867989778519
1733698514165315000,1.976315185546875,0.002756692934781313,0.027228763327002525,-0.00019615632481873035
1733698514175270400,1.9862705078125,0.006682725623250008,0.03249942511320114,-0.00290299323387444
1733698514185225200,1.99622509765625,0.0075437529012560844,0.031789567321538925,-0.004765976220369339
1733698514195181000,2.00618115234375,0.008098489604890347,0.03253684937953949,-0.005340952426195145
1733698514205136400,2.016136474609375,0.006945732049643993,0.026232371106743813,-0.0049085733480751514
1733698514215091200,2.02609130859375,0.00527113676071167,0.017340341582894325,-0.004316819366067648
1733698514225046300,2.03604638671875,0.005951808765530586,0.007693703286349773,-0.0027843359857797623
1733698514235001300,2.04600146484375,0.008648792281746864,0.0027348974253982306,-0.0010823095217347145
1733698514244957200,2.055957275390625,0.008981352671980858,0.0015002156142145395,0.0027474737726151943
1733698514254912300,2.065912353515625,0.006734443828463554,0.0016674621729180217,0.0047424472868442535
1733698514264867300,2.075867431640625,-0.00027500989381223917,-0.0008916258229874074,0.005864100996404886
1733698514274822100,2.085822265625,-0.008567560464143753,-0.0025286709424108267,0.004022258799523115
1733698514284777200,2.095777099609375,-0.011006074026226997,-0.0059231603518128395,0.004041818901896477
1733698514294733300,2.1057333984375,-0.010411390103399754,-0.004672539886087179,0.002971494570374489
1733698514304688000,2.115688232421875,-0.004423019476234913,-0.005583131220191717,0.004542956128716469
1733698514314643200,2.125643310546875,-0.0008285512449219823,-0.006405781488865614,0.0029376023449003696
1733698514324598300,2.135598388671875,0.003438354004174471,-0.004095279145985842,0.004101067781448364
1733698514334553300,2.14555322265625,0.004320126958191395,-0.0012528877705335617,0.0022882542107254267
1733698514344509200,2.15550927734375,0.005294257774949074,0.005135067272931337,-0.00021348241716623306
1733698514354464300,2.16546435546875,0.0037155356258153915,0.008803571574389935,-0.002296074526384473
1733698514364419300,2.17541943359375,0.002807122655212879,0.009737566113471985,-0.003088342258706689
1733698514374374100,2.1853740234375,0.0033187158405780792,0.006728993728756905,-0.0029296178836375475
1733698514384329200,2.1953291015625,0.002903486369177699,0.0026485708076506853,-0.002107735490426421
1733698514394285300,2.205285400390625,0.003777535865083337,0.0029969122260808945,-0.0016672485508024693
1733698514404240100,2.215240234375,0.004283878952264786,0.0010343643371015787,-0.0019458041060715914
1733698514414195200,2.2251953125,0.0066604833118617535,0.0017174652311950922,-0.002309059491381049
1733698514424150300,2.235150390625,0.00802321545779705,0.00124619051348418,-0.0008950892370194197
1733698514434105000,2.24510498046875,0.009071435779333115,0.003619865979999304,0.00010279705747961998
1733698514444061200,2.255061279296875,0.0048370640724897385,0.003256328171119094,0.001386212999932468
1733698514454016300,2.265016357421875,0.002135021146386862,0.0018672235310077667,-0.0007685506716370583
1733698514463971000,2.27497119140625,-0.0015321518294513226,-0.0008324229274876416,0.000306301168166101
1733698514473926100,2.284926025390625,-0.0016455958830192685,-0.0005606189952231944,0.0038388860411942005
1733698514483881000,2.294880859375,-0.0016919644549489021,0.00012833246728405356,0.007030910346657038
1733698514493837000,2.304837158203125,0.00020207557827234268,0.0011017178185284138,0.009132410399615765
1733698514503792000,2.314792236328125,0.0018241684883832932,0.004678577184677124,0.01107112504541874
1733698514513747000,2.324746826171875,0.0009988548699766397,0.004234894644469023,0.012769687920808792
1733698514523702300,2.334702392578125,0.0037777768447995186,0.0011882465332746506,0.010464375838637352
1733698514533657000,2.344656982421875,0.004756754729896784,-0.003514896146953106,0.008352489210665226
1733698514543613000,2.354613037109375,0.004139193333685398,-0.0033549934159964323,0.0050013065338134766
1733698514553568000,2.364568115234375,0.0035612869542092085,-0.0005842404789291322,0.0011375928297638893
1733698514563523000,2.374523193359375,0.0032935028430074453,0.006392361596226692,-0.0013500167988240719
1733698514573478000,2.384477783203125,0.0003752107731997967,0.011439318768680096,-0.005071251653134823
1733698514583433200,2.39443310546875,0.0001249285414814949,0.01741037704050541,-0.00429809745401144
1733698514593389000,2.40438916015625,-0.0012894762912765145,0.016420744359493256,-0.003376111388206482
1733698514603344000,2.41434375,0.0005944501608610153,0.012549735605716705,-0.0019034813158214092
1733698514613299200,2.42429931640625,0.00037926691584289074,0.008133415132761002,0.00006113247945904732
1733698514623254000,2.43425390625,0.00404797587543726,0.002649821573868394,0.0008897015359252691
1733698514633209000,2.444208984375,0.006493823602795601,-0.004102623555809259,0.004492159467190504
1733698514643165200,2.454165283203125,0.008721810765564442,-0.010505984537303448,0.006785071454942226
1733698514653120000,2.4641201171875,0.008191308937966824,-0.01153875794261694,0.00806578528136015
1733698514663075000,2.474074951171875,0.00828920491039753,-0.00463288277387619,0.006483791396021843
1733698514673030100,2.484030029296875,0.008900666609406471,0.0037685914430767298,0.004867251962423325
1733698514682985000,2.49398486328125,0.0045573096722364426,0.008259318768978119,0.003938705660402775
1733698514692941000,2.503941162109375,-0.0012254784815013409,0.001192620606161654,0.005601849406957626
1733698514702896000,2.513896240234375,-0.0016116977203637362,-0.011387232691049576,0.006032275967299938
1733698514712851000,2.523850830078125,0.000893804244697094,-0.025871898978948593,0.006178749725222588
1733698514722806000,2.533805908203125,0.00520338537171483,-0.037208192050457,0.003279405180364847
1733698514732761000,2.543760986328125,0.006348278373479843,-0.039042845368385315,0.0013896259479224682
1733698514742717000,2.553717041015625,0.00725930742919445,-0.029250063002109528,0.00031427398789674044
1733698514752672000,2.563672119140625,0.0012512165121734142,-0.01042524166405201,0.002585683949291706
1733698514762627000,2.573626953125,-0.0038359775207936764,0.012726464308798313,0.002114065457135439
1733698514772582100,2.58358203125,-0.010710394941270351,0.03628532215952873,-0.0007496315520256758
1733698514782537000,2.593536865234375,-0.01344170980155468,0.05598946660757065,0.00005301786586642265
1733698514792493000,2.6034931640625,-0.012166853994131088,0.06552837789058685,-0.0009336832445114851
1733698514802448100,2.6134482421875,-0.007462929002940655,0.06585322320461273,-0.001984903821721673
1733698514812403000,2.62340283203125,-0.0009216726757586002,0.05452760308980942,-0.0022189959418028593
1733698514822358000,2.63335791015625,0.004627535119652748,0.03486047312617302,-0.0034647947177290916
1733698514832313000,2.64331298828125,0.004818217363208532,0.008018205873668194,-0.0036986200138926506
1733698514842269200,2.653269287109375,0.005905683618038893,-0.0160872433334589,-0.0008314780425280333
1733698514852224000,2.66322412109375,0.0069927857257425785,-0.03811398148536682,0.00114804960321635
1733698514862179000,2.673178955078125,0.0072801001369953156,-0.05176471546292305,0.004903695546090603
1733698514872134000,2.6831337890625,0.00658528134226799,-0.060886576771736145,0.005151103250682354
1733698514882089200,2.693089111328125,0.0028457031585276127,-0.06054434925317764,0.004285617731511593
1733698514892045000,2.703045166015625,0.0006784228608012199,-0.0536787211894989,0.003061096416786313
1733698514901999900,2.712999755859375,-0.0026932833716273308,-0.03981507942080498,0.0018662827787920833
1733698514911955200,2.722955078125,-0.004955638665705919,-0.024479534476995468,0.0008007519645616412
1733698514921910000,2.732909912109375,-0.008277734741568565,-0.007528554182499647,0.0004328609211370349
1733698514931865000,2.742864990234375,-0.0065618595108389854,0.002822886686772108,-0.0002965787425637245
1733698514941821200,2.7528212890625,-0.005627349019050598,0.011280182749032974,-0.0024865944869816303
1733698514951776000,2.76277587890625,-0.0028320951387286186,0.012239187024533749,-0.004912467673420906
1733698514961731000,2.77273095703125,0.0000618326012045145,0.011643784120678902,-0.008753594011068344
1733698514971686100,2.78268603515625,0.0014615901745855808,0.008202181197702885,-0.008895274251699448
1733698514981641000,2.792640869140625,-0.0004412912530824542,0.002200764138251543,-0.009233001619577408
1733698514991596000,2.802595947265625,-0.0019049645634368062,-0.0037996042519807816,-0.009721425361931324
1733698515001552100,2.81255224609375,-0.0011947292368859053,-0.012674967758357525,-0.010145274922251701
1733698515011507000,2.8225068359375,-0.0037130145356059074,-0.018479593098163605,-0.008968424052000046
1733698515021462000,2.8324619140625,-0.007865127176046371,-0.024184664711356163,-0.0045366850681602955
1733698515031417000,2.8424169921875,-0.014044459909200668,-0.029968785122036934,-0.0069681513123214245
1733698515041372200,2.8523720703125,-0.01981096714735031,-0.039351604878902435,-0.00670070294290781
1733698515051328300,2.862328369140625,-0.020921774208545685,-0.047654539346694946,-0.005681244656443596
1733698515061283000,2.872282958984375,-0.016401242464780807,-0.05484338104724884,-0.007098400965332985
1733698515071238100,2.882238037109375,-0.012182529084384441,-0.05711904913187027,-0.006010766141116619
1733698515081193000,2.89219287109375,-0.011205552145838737,-0.05576544627547264,-0.006969987880438566
1733698515091148000,2.90214794921875,-0.008041982538998127,-0.05190306529402733,-0.009744469076395035
1733698515101104000,2.912104248046875,-0.008825051598250866,-0.047550734132528305,-0.011157450266182423
1733698515111059000,2.922058837890625,-0.010841064155101776,-0.037926334887742996,-0.012262395583093166
1733698515121014000,2.932013916015625,-0.01627354696393013,-0.031847067177295685,-0.014582367613911629
1733698515130969000,2.941968994140625,-0.02191944792866707,-0.022463681176304817,-0.01615629531443119
1733698515140924000,2.951923828125,-0.028029533103108406,-0.01894335448741913,-0.014546512626111507
1733698515150880000,2.9618798828125,-0.029836488887667656,-0.01853642426431179,-0.014688991941511631
1733698515160835000,2.9718349609375,-0.033930037170648575,-0.02248525246977806,-0.015746701508760452
1733698515170790000,2.981789794921875,-0.032074615359306335,-0.024916719645261765,-0.01446785219013691
1733698515180745200,2.9917451171875,-0.026731140911579132,-0.028107671067118645,-0.01788107305765152
1733698515190700000,3.001699951171875,-0.020708667114377022,-0.025520674884319305,-0.015734300017356873
1733698515200656100,3.01165625,-0.019808633252978325,-0.023451875895261765,-0.01657458022236824
1733698515210611200,3.021611083984375,-0.018968673422932625,-0.02240472100675106,-0.01687471754848957
1733698515220566000,3.03156591796875,-0.01694118045270443,-0.019670074805617332,-0.01645832508802414
1733698515230521000,3.04152099609375,-0.016723867505788803,-0.0180820319801569,-0.016116907820105553
1733698515240476200,3.05147607421875,-0.023559492081403732,-0.0189821720123291,-0.013751570135354996
1733698515250432000,3.061431884765625,-0.02816702611744404,-0.0189060065895319,-0.013759292662143707
1733698515260387000,3.071386962890625,-0.029420828446745872,-0.017943482846021652,-0.01209421455860138
1733698515270342100,3.081342041015625,-0.030768919736146927,-0.015857430174946785,-0.01324336789548397
1733698515280297000,3.091296875,-0.030509058386087418,-0.017288224771618843,-0.013639586977660656
1733698515290252000,3.101251953125,-0.030542347580194473,-0.01967335119843483,-0.018610376864671707
1733698515300208000,3.1112080078125,-0.032994594424963,-0.030293133109807968,-0.015416083857417107
1733698515310163000,3.121162841796875,-0.03752543032169342,-0.04278149455785751,-0.011733997613191605
1733698515320118000,3.131117919921875,-0.03456632047891617,-0.0501680001616478,-0.01285081822425127
1733698515330073000,3.141072998046875,-0.028182990849018097,-0.04717859998345375,-0.012406603433191776
1733698515340028200,3.151028076171875,-0.020239397883415222,-0.041537586599588394,-0.0108272610232234
1733698515349984300,3.160984375,-0.01607261598110199,-0.035052523016929626,-0.010158275254070759
1733698515359939000,3.17093896484375,-0.017194734886288643,-0.02597292885184288,-0.011443831026554108
1733698515369894100,3.18089404296875,-0.01784108392894268,-0.018404491245746613,-0.010852610692381859
1733698515379849000,3.190848876953125,-0.016694653779268265,-0.010509963147342205,-0.012747390195727348
1733698515389804000,3.200803955078125,-0.018496016040444374,-0.002464553341269493,-0.013733558356761932
1733698515399760100,3.210760009765625,-0.022781148552894592,0.0002729422994889319,-0.015327004715800285
1733698515409715200,3.220715087890625,-0.021310018375515938,-0.00015582662308588624,-0.015188252553343773
1733698515419670000,3.230669921875,-0.022539563477039337,-0.0029349077958613634,-0.01329477783292532
1733698515429625000,3.240625,-0.01653892919421196,-0.003415075596421957,-0.013273738324642181
1733698515439580000,3.250579833984375,-0.007464275229722261,-0.0003913631080649793,-0.01667310670018196
1733698515449535200,3.26053515625,-0.0017464683623984456,0.0065959724597632885,-0.016560189425945282
1733698515459491300,3.2704912109375,-0.001987675204873085,0.010468410328030586,-0.01317583303898573
1733698515469446100,3.280446044921875,-0.009018420241773129,0.011531277559697628,-0.014276251196861267
1733698515479401200,3.290401123046875,-0.018844731152057648,0.006082362029701471,-0.01420954056084156
1733698515489356300,3.300356201171875,-0.025157487019896507,-0.01042630709707737,-0.014013266190886497
1733698515499311000,3.31031103515625,-0.02670224942266941,-0.030607663094997406,-0.013095589354634285
1733698515509267200,3.32026708984375,-0.026904117316007614,-0.04652590677142143,-0.012932870537042618
1733698515519222300,3.33022216796875,-0.021832186728715897,-0.05790334194898605,-0.013436947017908096
1733698515529177000,3.340177001953125,-0.018824946135282516,-0.06016649678349495,-0.015107814222574234
1733698515539132200,3.350132080078125,-0.01496569998562336,-0.04818665608763695,-0.013390667736530304
1733698515549087200,3.360087158203125,-0.008416719734668732,-0.022064240649342537,-0.015434110537171364
1733698515559043000,3.37004296875,-0.008461400866508484,0.005082038231194019,-0.01481365505605936
1733698515568998100,3.379998046875,-0.00931387860327959,0.025352422147989273,-0.012595774605870247
1733698515578953200,3.389953125,-0.012007832527160645,0.041550640016794205,-0.009632833302021027
1733698515588908300,3.399908203125,-0.0131806880235672,0.0514107272028923,-0.008012832142412663
1733698515598863000,3.409863037109375,-0.01595497876405716,0.05396023392677307,-0.0065062930807471275
1733698515608819200,3.419819091796875,-0.020090069621801376,0.051146868616342545,-0.010588652454316616
1733698515618774300,3.429774169921875,-0.02506949007511139,0.04382374510169029,-0.015850603580474854
1733698515628729000,3.43972900390625,-0.026562191545963287,0.030526313930749893,-0.016154468059539795
1733698515638684200,3.44968408203125,-0.022050796076655388,0.018786834552884102,-0.021441910415887833
1733698515648639200,3.45963916015625,-0.01898922584950924,0.0038337178993970156,-0.022060826420783997
1733698515658595000,3.469594970703125,-0.014092130586504936,-0.009082412347197533,-0.018767552450299263
1733698515668550100,3.479550048828125,-0.00839189998805523,-0.019928401336073875,-0.015273485332727432
1733698515678505200,3.489505126953125,-0.005698203109204769,-0.023709814995527267,-0.01407327875494957
1733698515688460000,3.4994599609375,-0.00324303493835032,-0.021118028089404106,-0.010206103324890137
1733698515698415400,3.509415283203125,-0.005566035397350788,-0.01804533787071705,-0.0038296859711408615
1733698515708371200,3.51937109375,-0.003149482887238264,-0.01299917884171009,-0.0008482772391289473
1733698515718326000,3.529325927734375,-0.0060314638540148735,-0.005949799902737141,-0.0012087877839803696
1733698515728281300,3.53928125,-0.011748204939067364,-0.0005931176128797233,0.0004759278381243348
1733698515738236200,3.549236083984375,-0.018687576055526733,0.007704711053520441,0.00046045519411563873
1733698515748191200,3.559191162109375,-0.022686580196022987,0.018199430778622627,0.0047824992798268795
1733698515758147300,3.569147216796875,-0.02560516446828842,0.026852088049054146,0.007466193288564682
1733698515768102100,3.57910205078125,-0.026053374633193016,0.03614092618227005,0.006291205994784832
1733698515778057200,3.58905712890625,-0.01785539835691452,0.04483683407306671,0.005970953032374382
1733698515788012300,3.59901220703125,-0.010621186345815659,0.05096796527504921,0.0034745060838758945
1733698515797967000,3.608967041015625,-0.0006027473136782646,0.056498583406209946,0.005840115714818239
1733698515807922200,3.618922119140625,0.0010409557726234198,0.05772284045815468,0.0038688438944518566
1733698515817878300,3.628878173828125,-0.001961370697245002,0.049458008259534836,0.0023448632564395666
1733698515827833000,3.6388330078125,-0.0033536714036017656,0.03514644876122475,0.0025384752079844475
1733698515837788200,3.6487880859375,-0.0030352259054780006,0.023401867598295212,0.002116255695000291
1733698515847743200,3.6587431640625,-0.003741496242582798,0.014309035614132881,0.0035841900389641523
1733698515857698300,3.6686982421875,-0.003485962050035596,0.014550665393471718,0.00444886926561594
1733698515867654100,3.678654052734375,-0.00038817315362393856,0.019834110513329506,0.001602749340236187
1733698515877609200,3.688609130859375,-0.0002823005197569728,0.03153787925839424,0.00036156922578811646
1733698515887564300,3.698564208984375,0.00144502567127347,0.044563669711351395,-0.0024206351954489946
1733698515897519000,3.70851904296875,0.0023679398000240326,0.056932639330625534,0.00002765771932899952
1733698515907474200,3.71847412109375,0.0015287778805941343,0.06494155526161194,0.0007477764738723636
1733698515917430300,3.72843017578125,0.001572970999404788,0.06501607596874237,0.0040268562734127045
1733698515927385000,3.738385009765625,0.004696059972047806,0.05975819379091263,0.0069270385429263115
1733698515937340200,3.748340087890625,0.0024172007106244564,0.052145179361104965,0.006051826290786266
1733698515947295200,3.758295166015625,0.0058444226160645485,0.046068377792835236,0.008639886043965816
1733698515957250000,3.76825,0.008536591194570065,0.03628211095929146,0.007000206038355827
1733698515967206100,3.7782060546875,0.010894820094108582,0.02739087864756584,0.007291821762919426
1733698515977161200,3.7881611328125,0.012562323361635208,0.018871845677495003,0.00757276825606823
1733698515987116000,3.798115966796875,0.015564771369099617,0.01382781844586134,0.009161077439785004
1733698515997071400,3.8080712890625,0.01741197146475315,0.009985175915062428,0.01005569938570261
1733698516007026200,3.818026123046875,0.017622094601392746,0.0065520950593054295,0.011475697159767151
1733698516016982000,3.82798193359375,0.016927357763051987,0.00372790964320302,0.012892144732177258
1733698516026937300,3.837937255859375,0.011315012350678444,0.001219744561240077,0.01438244991004467
1733698516036892200,3.84789208984375,0.006125196348875761,-0.0027953663375228643,0.013504426926374435
1733698516046847200,3.85784716796875,0.008026959374547005,-0.00647692009806633,0.013822142034769058
1733698516056802300,3.86780224609375,0.004782783333212137,-0.002693270333111286,0.013286760076880455
1733698516066757000,3.877757080078125,0.0024125701747834682,0.003049303777515888,0.009262723848223686
1733698516076713000,3.887712890625,0.003393652383238077,0.010323510505259037,0.005984665360301733
1733698516086668300,3.897668212890625,0.00265941908583045,0.017505258321762085,0.003973179962486029
1733698516096623000,3.907623046875,0.004073604010045528,0.021144287660717964,0.006768303457647562
1733698516106578200,3.917578125,0.008680606260895729,0.022282790392637253,0.009586194530129433
1733698516116533200,3.927533203125,0.008844705298542976,0.022698145359754562,0.012773411348462105
1733698516126489000,3.937489013671875,0.011377371847629547,0.019951362162828445,0.0122351860627532
1733698516136444200,3.947444091796875,0.01172329019755125,0.014883948490023613,0.012938819825649261
1733698516146399200,3.957399169921875,0.015214693732559681,0.006705912761390209,0.011796058155596256
1733698516156354300,3.967354248046875,0.022044546902179718,0.003726642346009612,0.0140580665320158
1733698516166309000,3.97730908203125,0.02783186174929142,0.00497273588553071,0.01633773185312748
1733698516176265200,3.98726513671875,0.029514065012335777,0.014614048413932323,0.017499957233667374
1733698516186220300,3.99722021484375,0.027583805844187737,0.025409437716007233,0.014869552105665207
1733698516196175000,4.007175048828125,0.02430584281682968,0.035541195422410965,0.01784498244524002
1733698516206130200,4.017130126953125,0.02087116427719593,0.038906097412109375,0.0172383151948452
1733698516216085200,4.027085205078125,0.015654046088457108,0.03126050904393196,0.015479641035199165
1733698516226041000,4.037041015625,0.01159804966300726,0.012727037072181702,0.015058329328894615
1733698516235996200,4.04699609375,0.008500796742737293,-0.010829179547727108,0.016782717779278755
1733698516245951200,4.056951171875,0.00989069975912571,-0.03031153231859207,0.01646234095096588
1733698516255906000,4.066906005859375,0.014364195987582207,-0.041170403361320496,0.014254400506615639
1733698516265861400,4.076861328125,0.015862222760915756,-0.03940579295158386,0.011329451575875282
1733698516275817200,4.086817138671875,0.01895695924758911,-0.023662272840738297,0.006949734874069691
1733698516285772000,4.09677197265625,0.01624719426035881,-0.0007455070153810084,0.0006399076664820313
1733698516295727400,4.106727294921875,0.013510812073946,0.02928568609058857,-0.0005304806400090456
1733698516305682200,4.11668212890625,0.00704545620828867,0.05365946516394615,-0.0017416863702237606
1733698516315637000,4.126636962890625,0.003372523467987776,0.06464987248182297,-0.00008342810906469822
1733698516325592300,4.13659228515625,0.0045198132283985615,0.06552845239639282,0.0033690938726067543
1733698516335548200,4.146548095703125,0.015225543640553951,0.05562707409262657,0.009837727062404156
1733698516345503000,4.1565029296875,0.02149862051010132,0.03521554172039032,0.009538654237985611
1733698516355458300,4.166458251953125,0.02365890145301819,0.011213070712983608,0.012438825331628323
1733698516365413000,4.1764130859375,0.026107678189873695,-0.012040053494274616,0.012027899734675884
1733698516375368200,4.1863681640625,0.024426035583019257,-0.02888457290828228,0.013770525343716145
1733698516385324300,4.19632421875,0.02396184578537941,-0.04025920107960701,0.012263708747923374
1733698516395279000,4.206279052734375,0.019925666972994804,-0.04442335292696953,0.013579653576016426
1733698516405234200,4.216234130859375,0.01814933866262436,-0.03833216801285744,0.014620949514210224
1733698516415189200,4.226189208984375,0.013485557399690151,-0.02579984813928604,0.012532459571957588
1733698516425144300,4.236144287109375,0.005457724444568157,-0.003642614698037505,0.011277844198048115
1733698516435100200,4.24610009765625,0.0007143071852624416,0.01976030133664608,0.010831558145582676
1733698516445055200,4.25605517578125,0.0018408242613077164,0.04338493570685387,0.010037936270236969
1733698516455010000,4.266010009765625,0.00206637941300869,0.05993961915373802,0.007289217785000801
1733698516464965400,4.27596533203125,-0.0012410003691911697,0.06436126679182053,0.00535869225859642
1733698516474920200,4.285920166015625,-0.0007291790097951889,0.06005421280860901,0.006515335291624069
1733698516484876000,4.2958759765625,-0.0013970998115837574,0.044329311698675156,0.010421926155686378
1733698516494831400,4.305831298828125,0.002239751163870096,0.02671215869486332,0.011866126209497452
1733698516504786200,4.3157861328125,0.005657651927322149,-0.00008723005885258317,0.013454968109726906
1733698516514741200,4.3257412109375,0.011596471071243286,-0.020746733993291855,0.011013317853212357
1733698516524696000,4.335696044921875,0.021421140059828758,-0.0351424515247345,0.010482549667358398
1733698516534652200,4.345652099609375,0.025304611772298813,-0.03593422472476959,0.010197894647717476
1733698516544607200,4.355607177734375,0.02379167079925537,-0.030830278992652893,0.01112760417163372
1733698516554562300,4.365562255859375,0.018987534567713737,-0.025234855711460114,0.01046134065836668
1733698516564517400,4.375517333984375,0.009870468638837337,-0.015437350608408451,0.006563272327184677
1733698516574472200,4.38547216796875,0.005056161433458328,-0.0046769785694777966,0.0021312623284757137
1733698516584428300,4.39542822265625,-0.0006509927334263921,0.006105894222855568,0.0013019540347158909
1733698516594383400,4.40538330078125,0.0005994036328047514,0.013330606743693352,0.0020712101832032204
1733698516604338200,4.415338134765625,0.00448255892843008,0.018282756209373474,0.0044337003491818905
1733698516614293200,4.425293212890625,0.006250777747482061,0.020447349175810814,0.004118501674383879
1733698516624248300,4.435248291015625,0.01329483836889267,0.021840447559952736,0.003696656785905361
1733698516634203100,4.445203125,0.012960739433765411,0.022885389626026154,0.0023052042815834284
1733698516644159200,4.4551591796875,0.012987105175852776,0.018152954056859016,0.0023432874586433172
1733698516654114300,4.4651142578125,0.01032872125506401,0.01575125940144062,0.004061487969011068
1733698516664069000,4.475069091796875,0.00959981419146061,0.01102334912866354,0.006875118240714073
1733698516674024400,4.4850244140625,0.008855864405632019,0.006977821234613657,0.008446600288152695
1733698516683979300,4.494979248046875,0.010813288390636444,0.005465678405016661,0.01116009522229433
1733698516693935000,4.50493505859375,0.013521768152713776,0.008213535882532597,0.01166187971830368
1733698516703890400,4.514890380859375,0.015449896454811096,0.01160773541778326,0.009617903269827366
1733698516713845200,4.52484521484375,0.012360242195427418,0.019933631643652916,0.010184834711253643
1733698516723800000,4.534800048828125,0.012702192179858685,0.021359488368034363,0.008308105170726776
1733698516733755100,4.544755126953125,0.01094830222427845,0.019017811864614487,0.007548680528998375
1733698516743711200,4.554711181640625,0.01112939789891243,0.01711791194975376,0.007577442564070225
1733698516753666000,4.564666015625,0.010543769225478172,0.012762311846017838,0.00854390300810337
1733698516763621400,4.574621337890625,0.010547572746872902,0.011261289939284325,0.007107671350240707
1733698516773576200,4.584576171875,0.011357526294887066,0.013238783925771713,0.00808736216276884
1733698516783531300,4.59453125,0.012592700310051441,0.013618018478155136,0.008107068948447704
1733698516793487400,4.6044873046875,0.012139459140598774,0.013270508497953415,0.00689086876809597
1733698516803442200,4.614442138671875,0.0115703409537673,0.010274452157318592,0.007881298661231995
1733698516813397200,4.624397216796875,0.010625801049172878,0.010094785131514072,0.00594962015748024
1733698516823352300,4.634352294921875,0.011677484028041363,0.008463067002594471,0.005800217390060425
1733698516833307400,4.644307373046875,0.00963798351585865,0.010229291394352913,0.005567419342696667
1733698516843262200,4.65426220703125,0.011545339599251747,0.012200296856462955,0.003046737052500248
1733698516853218300,4.66421826171875,0.008547427132725716,0.01681758090853691,0.002950765658169985
1733698516863173000,4.674173095703125,0.010107241570949554,0.01861894316971302,0.0038325381465256214
1733698516873128200,4.684128173828125,0.01126017514616251,0.019981399178504944,0.006172429770231247
1733698516883083300,4.694083251953125,0.010909169912338257,0.024459239095449448,0.007979383692145348
1733698516893038300,4.704038330078125,0.010399853810667992,0.02524511329829693,0.008331307210028172
1733698516902994200,4.713994140625,0.00875881314277649,0.025939665734767914,0.00729826744645834
1733698516912949200,4.72394921875,0.008992286399006844,0.023119281977415085,0.007025646045804024
1733698516922904300,4.733904296875,0.011365430429577827,0.01810161955654621,0.009907186031341553
1733698516932859100,4.743859130859375,0.014761948958039284,0.010230977088212967,0.01088775135576725
1733698516942814200,4.753814208984375,0.018484249711036682,0.010483711026608944,0.008198224939405918
1733698516952770300,4.763770263671875,0.016744963824748993,0.008276169188320637,0.005785107612609863
1733698516962725000,4.77372509765625,0.014451716095209122,0.005266264081001282,0.0028505707159638405
1733698516972680400,4.783680419921875,0.01037755236029625,-0.003858935786411166,0.004741208627820015
1733698516982635300,4.79363525390625,0.008130110800266266,-0.014830361120402813,0.007528206799179316
1733698516992590000,4.803590087890625,0.007240004371851683,-0.030706197023391724,0.008438996970653534
1733698517002546400,4.81354638671875,0.007614444475620985,-0.040472544729709625,0.010074710473418236
1733698517012501200,4.823501220703125,0.008885305374860764,-0.045044925063848495,0.007346302270889282
1733698517022456000,4.8334560546875,0.012135212309658527,-0.04054712876677513,0.006520493421703577
1733698517032411400,4.843411376953125,0.013186328113079071,-0.026740161702036858,0.0056198458187282085
1733698517042366200,4.8533662109375,0.009306369349360466,-0.006897747982293367,0.005459257401525974
1733698517052322000,4.863322021484375,0.005413523409515619,0.016657225787639618,0.00393940694630146
1733698517062277400,4.87327734375,0.0026390422135591507,0.03977266699075699,0.0013279111590236425
1733698517072232200,4.883232177734375,-0.00008494243957102299,0.05873546749353409,-0.0008769957348704338
1733698517082187300,4.893187255859375,-0.0011728437384590507,0.06674253195524216,-0.0035851644352078438
1733698517092142300,4.903142333984375,0.0004703267477452755,0.0618889182806015,-0.002438406925648451
1733698517102097200,4.91309716796875,0.0011835212353616953,0.048197340220212936,-0.00324641028419137
1733698517112053200,4.92305322265625,0.0013782409951090813,0.02504017762839794,-0.0039008797612041235
1733698517122008300,4.93300830078125,0.002756692934781313,0.0013332517119124532,-0.0010864511132240295
1733698517131963100,4.942963134765625,0.004574155434966087,-0.016046514734625816,-0.00006631365977227688
1733698517141918200,4.952918212890625,0.007068471983075142,-0.029025429859757423,0.002195242792367935
1733698517151873000,4.962873046875,0.007261300925165415,-0.03926442563533783,0.004425444640219212
1733698517161829000,4.9728291015625,0.009051477536559105,-0.045312464237213135,0.005305885337293148
1733698517171784200,4.9827841796875,0.008362716063857079,-0.04353005439043045,0.0067827655002474785
1733698517181739300,4.9927392578125,0.007344855461269617,-0.03803541883826256,0.005590468645095825
1733698517191694300,5.0026943359375,0.00763033889234066,-0.027998926118016243,0.003184933215379715
1733698517201649200,5.012649169921875,0.006856690160930157,-0.012401855550706387,0.0031239469535648823
1733698517211605200,5.022605224609375,0.006399494130164385,0.000006117857992649078,0.0032699964940547943
1733698517221560300,5.032560302734375,0.0027597518637776375,0.007731681689620018,0.0021085920743644238
1733698517231515100,5.04251513671875,0.005288005340844393,0.011389396153390408,0.0042803785763680935
1733698517241470500,5.052470458984375,0.004877345636487007,0.012300464324653149,0.002920035971328616
1733698517251425300,5.06242529296875,0.0046489909291267395,0.015457883477210999,0.0005624587647616863
1733698517261381000,5.072381103515625,0.006856217980384827,0.014212589710950851,0.002408561995252967
1733698517271336200,5.082336181640625,0.0071731084026396275,0.0141507713124156,0.0010590736055746675
1733698517281291300,5.092291259765625,0.01216040924191475,0.010104364715516567,0.0030409982427954674
1733698517291246000,5.10224609375,0.016354268416762352,0.006712466012686491,0.004827799275517464
1733698517301201400,5.112201416015625,0.014755306765437126,0.007370266597718,0.004169465973973274
1733698517311156200,5.12215625,0.008671162649989128,0.007488640025258064,0.003883953206241131
1733698517321112000,5.132112060546875,0.002399950986728072,0.007993308827280998,0.005588908679783344
1733698517331067400,5.1420673828125,-0.004229277838021517,0.007128322497010231,0.002209543250501156
1733698517341022200,5.152022216796875,-0.007011215668171644,0.005040670745074749,0.0029373853467404842
1733698517350977300,5.161977294921875,-0.004779786337167025,0.00036173054832033813,0.0006720342207700014
1733698517360932000,5.17193212890625,0.002011008094996214,-0.0033142308238893747,0.00041104445699602365
1733698517370888200,5.18188818359375,0.005047708284109831,-0.009914044290781021,0.0014642492169514298
1733698517380843300,5.19184326171875,0.009129801765084267,-0.0169391967356205,0.002405144041404128
1733698517390798300,5.20179833984375,0.009045852348208427,-0.020777756348252296,0.002146610990166664
1733698517400753200,5.211753173828125,0.008238915354013443,-0.020823830738663673,0.0023138574324548244
1733698517410708200,5.221708251953125,0.005060464609414339,-0.018615607172250748,0.0006876980187371373
1733698517420664300,5.231664306640625,0.0013200549874454737,-0.013037084601819515,0.00045653560664504766
1733698517430619100,5.241619140625,-0.0007928198901936412,-0.007759829051792622,-0.00010617938823997974
1733698517440574200,5.25157421875,-0.0007395566208288074,-0.002972797490656376,-0.0011671825777739286
1733698517450529300,5.261529296875,-0.0015058941207826138,0.001724776579067111,-0.0021497427951544523
1733698517460484000,5.271484130859375,-0.0005149318603798747,0.002779122209176421,-0.003877069102600217
1733698517470440200,5.281440185546875,0.0007269773632287979,0.0029460377991199493,-0.000914557371288538
1733698517480395000,5.29139501953125,0.0029350039549171925,0.0011385503457859159,-0.001352114835754037
1733698517490350000,5.30135009765625,-0.0008023980772122741,0.00007082452066242695,-0.0003438310232013464
1733698517500305200,5.31130517578125,-0.00004898977931588888,-0.002601125044748187,-0.0012509035877883434
1733698517510260200,5.32126025390625,-0.0007311274530366063,-0.0033000914845615625,0.0018149433890357614
1733698517520215000,5.331215087890625,0.0004145645070821047,-0.003730991156771779,0.00043702381663024426
1733698517530171100,5.341171142578125,0.002863098867237568,-0.00389482406899333,0.0004215504741296172
1733698517540126200,5.351126220703125,0.0024622930213809013,-0.0022452622652053833,-0.00021707545965909958
1733698517550081000,5.3610810546875,0.0036999559961259365,0.0015869378112256527,0.00004977919161319733
1733698517560036000,5.3710361328125,0.0018376074731349945,-0.0006929943920113146,0.0007107757264748216
1733698517569991200,5.3809912109375,0.0015475251711905003,-0.0006295708590187132,0.0021190231200307608
1733698517579947000,5.390947021484375,-0.0003984465729445219,-0.0020383831579238176,0.0011067554587498307
1733698517589902000,5.400902099609375,-0.0017963158898055553,-0.005127350799739361,0.0033891487400978804
1733698517599857200,5.410857177734375,-0.0015920514706522226,-0.0074158054776489735,0.0042637307196855545
1733698517609812000,5.42081201171875,-0.0004164710408076644,-0.008628464303910732,0.0011970410123467445
1733698517619767000,5.43076708984375,-0.00046733743511140347,-0.004317338578402996,0.0015256749466061592
1733698517629723100,5.44072314453125,-0.0008898094529286027,0.002080833073705435,-0.0034205210395157337
1733698517639678000,5.450677978515625,-0.0011262980988249183,0.008638867177069187,-0.004445038735866547
1733698517649633300,5.46063330078125,-0.0005054206121712923,0.011234456673264503,-0.004557783715426922
1733698517659588000,5.470588134765625,-0.0004167373990640044,0.008919903077185154,-0.00605421420186758
1733698517669543000,5.48054296875,-0.0013091466389596462,0.004727611783891916,-0.006011532619595528
1733698517679499300,5.490499267578125,-0.00304579408839345,-0.0033428315073251724,-0.0024285155814141035
1733698517689454000,5.5004541015625,-0.0027020717971026897,-0.005614500027149916,0.001130717690102756
1733698517699409000,5.510408935546875,-0.000314281671307981,-0.0058981264010071754,0.0027919975109398365
1733698517709364200,5.5203642578125,0.002288836520165205,-0.004700527060776949,0.0031250121537595987
1733698517719319000,5.530319091796875,0.004165299702435732,-0.003442982444539666,0.005008399486541748
1733698517729274000,5.540274169921875,0.006734810769557953,0.00267349136993289,0.003467043861746788
1733698517739230200,5.550230224609375,0.004618396982550621,0.013385257683694363,0.00242441613227129
1733698517749185000,5.56018505859375,0.0032173360232263803,0.014408210292458534,-0.0009558689780533314
1733698517759140000,5.57014013671875,0.002274310914799571,0.009561523795127869,0.00027797347865998745
1733698517769095200,5.58009521484375,0.0019537764601409435,-0.0048639727756381035,0.00023844477254897356
1733698517779050000,5.590050048828125,0.0040494175627827644,-0.02335110493004322,-0.0019424178171902895
1733698517789006000,5.600006103515625,0.007540666963905096,-0.040493208914995193,-0.00015252921730279922
1733698517798961200,5.609961181640625,0.009699957445263863,-0.051458243280649185,0.0004996787756681442
1733698517808916000,5.619916015625,0.011891266331076622,-0.051401905715465546,0.000412533525377512
1733698517818871000,5.62987109375,0.010864884592592716,-0.045809533447027206,0.0019100289791822433
1733698517828825900,5.639825927734375,0.004037346690893173,-0.030163034796714783,0.0034202097449451685
1733698517838782000,5.649781982421875,-0.005801701918244362,-0.008586103096604347,0.0032447073608636856
1733698517848737000,5.659737060546875,-0.013919265940785408,0.014579192735254765,0.00005244743078947067
1733698517858692000,5.669692138671875,-0.013374116271734238,0.03580964729189873,-0.0012607572134584188
1733698517868647200,5.679647216796875,-0.009485823102295399,0.050485994666814804,-0.0036370845045894384
1733698517878602000,5.68960205078125,-0.0022542753722518682,0.05489272624254227,-0.0053473664447665215
1733698517888557000,5.69955712890625,0.001521762926131487,0.049961820244789124,-0.005704877898097038
1733698517898513200,5.70951318359375,0.005739410873502493,0.03798505291342735,-0.0026169423945248127
1733698517908468000,5.719468017578125,0.006987573578953743,0.020071422681212425,-0.0012861010618507862
1733698517918423300,5.72942333984375,0.006956680677831173,0.0010713660158216953,0.0005645296769216657
1733698517928378000,5.739378173828125,0.008175710216164589,-0.014575351029634476,0.001759473467245698
1733698517938333000,5.7493330078125,0.007327493745833635,-0.027249867096543312,0.0038050475995987654
1733698517948289300,5.759289306640625,0.006843434646725655,-0.032399389892816544,0.005354284308850765
1733698517958244000,5.769244140625,0.005468178540468216,-0.03268061950802803,0.004340685438364744
1733698517968199000,5.779198974609375,0.0037670813035219908,-0.026995114982128143,0.00418121088296175
1733698517978154200,5.789154296875,0.0007803458720445633,-0.016819443553686142,0.00250395224429667
1733698517988109000,5.799109130859375,-0.0019939225167036057,-0.006442153360694647,0.0009209309937432408
1733698517998065000,5.80906494140625,-0.004247755743563175,0.004244046285748482,0.0004953579045832157
1733698518008020200,5.819020263671875,-0.00391211174428463,0.012371045537292957,0.0005250984104350209
1733698518017975000,5.82897509765625,-0.004872180987149477,0.01584673672914505,-0.0019223466515541077
1733698518027930000,5.83893017578125,-0.003833814524114132,0.015603589825332165,-0.004162863828241825
1733698518037885000,5.848885009765625,-0.001269989414140582,0.016418518498539925,-0.008131506852805614
1733698518047841000,5.858841064453125,-0.002613407326862216,0.015019535087049007,-0.007041088305413723
1733698518057796000,5.868796142578125,0.0003400384448468685,0.010499351657927036,-0.0024639135226607323
1733698518067751200,5.878751220703125,0.0015776511281728745,0.006447440944612026,-0.0029021345544606447
1733698518077706000,5.8887060546875,0.006141776219010353,-0.0024539087899029255,-0.003581240540370345
1733698518087661000,5.8986611328125,0.005174662917852402,-0.006598344072699547,-0.0004276717081665993
1733698518097616000,5.908615966796875,0.002016952494159341,-0.00996378157287836,0.0037004943005740643
1733698518107572000,5.918572021484375,-0.002827088348567486,-0.015092287212610245,0.00509325647726655
1733698518117527000,5.928527099609375,-0.001417477149516344,-0.016059545800089836,0.004794183187186718
1733698518127482000,5.938482177734375,0.0018781162798404694,-0.016612458974123,0.005309396423399448
1733698518137437200,5.948437255859375,0.0024709361605346203,-0.012078160420060158,0.002793774474412203
1733698518147392000,5.95839208984375,0.0024000960402190685,-0.006079124752432108,0.0010834925342351198
1733698518157348000,5.96834814453125,0.003079468384385109,0.00020620191935449839,-0.0006712642498314381
1733698518167303200,5.97830322265625,0.0040808431804180145,0.004081585444509983,-0.0025275142397731543
1733698518177258000,5.988258056640625,0.003322374541312456,0.004585455171763897,-0.001422835048288107
1733698518187213000,5.998213134765625,0.00003683287650346756,0.006996947806328535,-0.0018119227606803179
1733698518197168000,6.008168212890625,-0.004915048833936453,0.0088814003393054,-0.0004166928119957447
1733698518207124000,6.0181240234375,-0.005864011123776436,0.010777370072901249,-0.0019043455831706524
1733698518217079000,6.0280791015625,-0.005938047077506781,0.011420256458222866,-0.00017009512521326542
1733698518227034000,6.0380341796875,-0.007967856712639332,0.01143355667591095,-0.0002510175108909607
1733698518236989000,6.047989013671875,-0.004425053484737873,0.011217041872441769,0.00033168215304613113
1733698518246944000,6.057944091796875,-0.0014500438701361418,0.01006719283759594,-0.00010684272274374962
1733698518256899000,6.067899169921875,0.0007523903623223305,0.005442347843199968,-0.00000431109219789505
1733698518266855000,6.07785498046875,0.00285017816349864,-0.0006610282580368221,-0.001517181983217597
1733698518276810200,6.087810302734375,0.0048960186541080475,-0.007588176056742668,-0.002273786114528775
1733698518286765000,6.09776513671875,0.0065067233517766,-0.011739108711481094,-0.0023604410234838724
1733698518296720100,6.10772021484375,0.008874007500708103,-0.014163117855787277,-0.002204912481829524
1733698518306675000,6.117675048828125,0.007062329910695553,-0.015074064023792744,-0.0015565145295113325
1733698518316631000,6.127631103515625,0.006389349699020386,-0.01405567117035389,-0.0005173489917069674
1733698518326586000,6.137586181640625,0.0024491148069500923,-0.007464976981282234,0.0009203114314004779
1733698518336541200,6.147541259765625,-0.0005927475867792964,-0.0003173191216774285,0.002059345366433263
1733698518346496000,6.15749609375,-0.0015090976376086473,0.0066197714768350124,0.002379060722887516
1733698518356451000,6.167451171875,-0.0040090070106089115,0.011392955668270588,0.0017473589396104217
1733698518366407200,6.1774072265625,-0.007197180297225714,0.013244682922959328,0.0035294704139232635
1733698518376362000,6.187362060546875,-0.007879748940467834,0.009913600981235504,0.002995506627485156
1733698518386317000,6.197317138671875,-0.007021574769169092,0.004054881166666746,0.0038938666693866253
1733698518396272000,6.207272216796875,-0.0036537412088364363,-0.004688276909291744,0.0024661461357027292
1733698518406227200,6.217227294921875,-0.0005788477137684822,-0.011157199740409851,-0.0001470455899834633
1733698518416183000,6.22718310546875,0.002544241491705179,-0.013406772166490555,-0.0017960749100893736
1733698518426138000,6.23713818359375,0.0036329086869955063,-0.008316067047417164,-0.004293020814657211
1733698518436093200,6.24709326171875,0.0014128973707556725,-0.0007316505652852356,-0.004814734682440758
1733698518446048000,6.257048095703125,-0.0022303422447293997,0.004836373496800661,-0.0054199472069740295
1733698518456003000,6.267003173828125,-0.006861845497041941,0.0076643843203783035,-0.008789378218352795
1733698518465958700,6.276958740234375,-0.00674053467810154,0.0037472215481102467,-0.007910317741334438
1733698518475914500,6.28691455078125,-0.003331688465550542,-0.00046190450666472316,-0.0021118170116096735
1733698518485869600,6.29686962890625,-0.002709117950871587,-0.006386042106896639,-0.001777334837242961
1733698518495824600,6.30682470703125,0.0008728336542844772,-0.010143228806555271,-0.0009996916633099318
1733698518505779500,6.316779541015625,0.004234300926327705,-0.015072522684931755,0.0019167090067639947
1733698518515734800,6.32673486328125,0.006148314103484154,-0.01793462224304676,0.005652058869600296
1733698518525690600,6.336690673828125,0.005541225429624319,-0.013980763964354992,0.005147367715835571
1733698518535645400,6.3466455078125,0.005926584824919701,-0.00257471133954823,0.0025174960028380156
1733698518545600800,6.356600830078125,0.0031496547162532806,0.009822053834795952,-0.00025995238684117794
1733698518555555600,6.3665556640625,-0.0010970216244459152,0.013561131432652473,-0.0009134921710938215
1733698518565510400,6.376510498046875,-0.003118132706731558,0.009329359978437424,-0.0008978226687759161
1733698518575466800,6.386466796875,-0.002737566828727722,-0.004614684730768204,-0.0021724116522818804
1733698518585421600,6.396421630859375,-0.0011192793026566505,-0.01971600204706192,-0.002023253357037902
1733698518595376400,6.40637646484375,0.005358061287552118,-0.03482944145798683,-0.0018520120065659285
1733698518605331700,6.416331787109375,0.009616076946258545,-0.0419258289039135,0.001388277974911034
1733698518615286500,6.42628662109375,0.010940732434391975,-0.038721781224012375,0.0018143837805837393
1733698518625242400,6.436242431640625,0.005876267794519663,-0.025794222950935364,0.004818538203835487
1733698518635197700,6.44619775390625,-0.004255994223058224,-0.005344874691218138,0.006518433801829815
1733698518645152500,6.456152587890625,-0.009895283728837967,0.018528863787651062,0.006359498016536236
1733698518655107600,6.466107666015625,-0.013639154843986034,0.04278520122170448,0.0022952479775995016
1733698518665062700,6.476062744140625,-0.010908955708146095,0.05954594910144806,-0.0010000825859606266
1733698518675017500,6.486017578125,-0.008420232683420181,0.06856607645750046,-0.0029657615814357996
1733698518684973600,6.4959736328125,-0.0025270262267440557,0.06756909936666489,-0.004163635894656181
1733698518694928600,6.5059287109375,0.0007918050978332758,0.05628608912229538,-0.0037644279655069113
1733698518704883500,6.515883544921875,0.005299600772559643,0.03525235876441002,-0.004374509211629629
1733698518714838500,6.525838623046875,0.007647177204489708,0.010153931565582752,-0.0028791441582143307
1733698518724793600,6.535793701171875,0.006347357295453548,-0.01591331511735916,0.0009572479175403714
1733698518734749400,6.54574951171875,0.008468298241496086,-0.03265714272856712,0.004042520187795162
1733698518744704500,6.55570458984375,0.007732010446488857,-0.04352317005395889,0.004724832717329264
1733698518754659600,6.56565966796875,0.00805079098790884,-0.04508218541741371,0.0053224461153149605
1733698518764614700,6.57561474609375,0.005982252769172192,-0.03760337084531784,0.0063965581357479095
1733698518774569500,6.585569580078125,0.00494841393083334,-0.028497494757175446,0.00394724914804101
1733698518784525600,6.595525634765625,0.0004328954964876175,-0.013230043463408947,0.002826808486133814
1733698518794480600,6.605480712890625,-0.004389290232211351,-0.0008079944527707994,0.000218775006942451
1733698518804435500,6.615435546875,-0.004116985946893692,0.012936766259372234,0.00010990048758685589
1733698518814390800,6.625390869140625,-0.002137458650395274,0.019846869632601738,-0.001484267646446824
1733698518824345600,6.635345703125,-0.003102092072367668,0.021985113620758057,-0.0036143064498901367
1733698518834301400,6.645301513671875,-0.005861393176019192,0.024216042831540108,-0.007316366769373417
1733698518844256500,6.655256591796875,-0.0018043738091364503,0.01940751262009144,-0.006194877438247204
1733698518854211600,6.665211669921875,-0.0007252609357237816,0.016740357503294945,-0.003945838660001755
1733698518864166400,6.67516650390625,0.0012726278509944677,0.009428857825696468,-0.003659085836261511
1733698518874121700,6.685121826171875,0.002609001938253641,0.0017110169865190983,-0.0024926215410232544
1733698518884076500,6.69507666015625,0.0015263983514159918,-0.005325086880475283,-0.0006758782546967268
1733698518894032400,6.705032470703125,-0.0015306442510336637,-0.009385875426232815,0.0016000592149794102
1733698518903987700,6.71498779296875,-0.0013163606636226177,-0.013188489712774754,0.005277900956571102
1733698518913942500,6.724942626953125,-0.005727887153625488,-0.019067417830228806,0.003918889909982681
1733698518923897600,6.734897705078125,-0.004884873516857624,-0.022960668429732323,0.0033310106955468655
1733698518933852700,6.744852783203125,-0.007663615979254246,-0.0250504519790411,0.0016614750493317842
1733698518943808500,6.75480859375,-0.004547177813947201,-0.021166866645216942,0.0003005018224939704
1733698518953763600,6.764763671875,-0.0012041119625791907,-0.016434164717793465,-0.0010462587233632803
1733698518963718700,6.77471875,0.0014937014784663916,-0.013726681470870972,-0.004179326817393303
1733698518973673500,6.784673583984375,0.00013628811575472355,-0.008375326171517372,-0.006443279795348644
1733698518983628500,6.794628662109375,-0.002736371709033847,-0.0047295475378632545,-0.00566802779212594
1733698518993584600,6.804584716796875,-0.0040663545951247215,0.002817051950842142,-0.006474699359387159
1733698519003539500,6.81453955078125,-0.0073982831090688705,0.011426962912082672,-0.003726986004039645
1733698519013494500,6.82449462890625,-0.010432954877614975,0.016394024714827538,-0.004962959326803684
1733698519023449600,6.83444970703125,-0.01005903072655201,0.01793551817536354,-0.000573200173676014
1733698519033404700,6.84440478515625,-0.01111737173050642,0.019211972132325172,-0.0006885151378810406
1733698519043360500,6.854360595703125,-0.010559537447988987,0.013341412879526615,-0.00008502602577209473
1733698519053315600,6.864315673828125,-0.005823371931910515,0.006219853647053242,0.0025781351141631603
1733698519063270700,6.874270751953125,-0.0011320834746584296,-0.0017159145791083574,0.0010535245528444648
1733698519073225500,6.8842255859375,0.00024130870588123798,-0.00996319204568863,-0.0002650064416229725
1733698519083180500,6.8941806640625,-0.0009195421589538455,-0.01439101155847311,0.00016533234156668186
1733698519093136600,6.90413671875,-0.00010701175779104233,-0.018000127747654915,0.00017891451716423035
1733698519103091500,6.914091552734375,-0.00039748637937009335,-0.015945030376315117,-0.0014847514685243368
1733698519113046500,6.924046630859375,-0.0009405049495398998,-0.011922325938940048,-0.00010416866280138493
1733698519123001600,6.934001708984375,-0.003934131469577551,-0.004327490925788879,0.0005265340441837907
1733698519132956400,6.943956298828125,-0.00662046205252409,0.0031554591841995716,-0.0002670879475772381
1733698519142912500,6.95391259765625,-0.007676813285797834,0.006646088324487209,0.0004478521877899766
1733698519152867600,6.96386767578125,-0.006364407483488321,0.006767528597265482,0.000016153790056705475
1733698519162822400,6.973822509765625,-0.005655081942677498,0.004255126696079969,0.000311379786580801
1733698519172777700,6.98377783203125,-0.006411686073988676,-0.0029071790631860495,0.004677898716181517
1733698519182732500,6.993732666015625,-0.0034184474498033524,-0.011634519323706627,0.006273085717111826
1733698519192688400,7.0036884765625,-0.002792071783915162,-0.020424814894795418,0.006383340805768967
1733698519202643700,7.013643798828125,-0.0032516722567379475,-0.02609799988567829,0.005002431571483612
1733698519212598500,7.0235986328125,-0.0012042340822517872,-0.02584872953593731,0.0025762920267879963
1733698519222553600,7.0335537109375,-0.0017567926552146673,-0.014296114444732666,0.00026267440989613533
1733698519232508700,7.0435087890625,-0.004963238723576069,-0.0036200343165546656,-0.0034063623752444983
1733698519242464500,7.053464599609375,-0.004674694500863552,0.0044664121232926846,-0.006019840948283672
1733698519252419600,7.063419677734375,-0.0038536416832357645,0.007487501949071884,-0.006334094330668449
1733698519262374700,7.073374755859375,-0.00709106307476759,0.007033174391835928,-0.005353863816708326
1733698519272329500,7.08332958984375,-0.005131509155035019,0.0015856786631047726,-0.0053040627390146255
1733698519282284500,7.093284423828125,-0.00591521430760622,-0.007317923009395599,-0.0034782588481903076
1733698519292240600,7.10324072265625,-0.00482997577637434,-0.010430625639855862,-0.0013083152007311583
1733698519302195500,7.113195556640625,0.009588115848600864,-0.01073619443923235,0.002210687380284071
1733698519312150500,7.123150634765625,-0.0010501472279429436,-0.01618076115846634,0.0022061599884182215
1733698519322105600,7.133105712890625,0.000003995141014456749,-0.020503725856542587,-0.00064241630025208
1733698519332060700,7.143060791015625,0.0005728462710976601,-0.014124922454357147,0.0019323277520015836
1733698519342016500,7.1530166015625,0.006764370948076248,-0.001860782504081726,0.0052239554934203625
1733698519351971600,7.1629716796875,0.0016537648625671864,-0.005026482045650482,-0.0033314493484795094
1733698519361926700,7.1729267578125,-0.004719788674265146,-0.01721906289458275,0.0006268954603001475
1733698519371881500,7.182881591796875,-0.011416306719183922,-0.031023824587464333,-0.000904155895113945
1733698519381836500,7.19283642578125,-0.011300251819193363,-0.0505644865334034,-0.0005987307522445917
1733698519391792600,7.202792724609375,-0.007515368051826954,-0.06861752271652222,-0.0026666750200092793
1733698519401747500,7.21274755859375,-0.005748933181166649,-0.08062282204627991,-0.002229718491435051
1733698519411702500,7.22270263671875,-0.0018894800450652838,-0.07516786456108093,-0.00010717916302382946
1733698519421657600,7.23265771484375,0.0032577295787632465,-0.059875864535570145,-0.00025899987667798996
1733698519431612400,7.2426123046875,-0.013262923806905746,-0.040139976888895035,-0.0037437460850924253
1733698519441568500,7.252568603515625,-0.0120603758841753,-0.01537638995796442,-0.0036696610040962696
1733698519451523600,7.262523681640625,-0.014141903258860111,0.012111161835491657,-0.011125713586807251
1733698519461478400,7.272478515625,-0.006463873665779829,0.03834417834877968,-0.005261748097836971
1733698519471433500,7.28243359375,-0.0013838940067216754,0.05430476740002632,-0.009322802536189556
1733698519481388300,7.29238818359375,0.0010277966503053904,0.05719159543514252,-0.011050770059227943
1733698519491344400,7.302344482421875,-0.004874301142990589,0.04274581000208855,-0.010750098153948784
1733698519501299500,7.312299560546875,-0.015086849220097065,0.025055738165974617,-0.004222572315484285
1733698519511254500,7.322254638671875,-0.0008147028274834156,0.0012856938410550356,-0.004277167376130819
1733698519521209600,7.332209716796875,0.0016623600386083126,-0.026096945628523827,-0.003322651144117117
1733698519531165400,7.34216552734375,0.011420714668929577,-0.037402596324682236,0.0009442653972655535
1733698519541120500,7.35212060546875,0.027678044512867928,-0.03800938278436661,0.005185290239751339
1733698519551075600,7.36207568359375,0.01776762306690216,-0.03701602295041084,-0.005792792420834303
1733698519561030400,7.372030517578125,-0.01136203296482563,-0.04346194118261337,-0.004338173661381006
1733698519570985500,7.3819853515625,-0.02251349948346615,-0.03945622965693474,-0.0020920338574796915
1733698519580941300,7.39194140625,-0.0005752379074692726,-0.024952374398708344,0.0006067738868296146
1733698519590896400,7.401896484375,0.02655544877052307,-0.008555823937058449,-0.001894999761134386
1733698519600851500,7.4118515625,0.030911926180124283,0.0038564675487577915,-0.004200853407382965
1733698519610806500,7.421806640625,0.014461847022175789,0.017212219536304474,-0.00262000085785985
1733698519620761300,7.43176123046875,-0.017140202224254608,0.021186448633670807,-0.009557988494634628
1733698519630717400,7.441717529296875,-0.04801955446600914,0.012006265111267567,-0.01618419960141182
1733698519640672500,7.451672607421875,-0.05958089604973793,-0.00145042990334332,-0.015216979198157787
1733698519650627300,7.46162744140625,-0.05509480461478233,-0.016578515991568565,-0.011370309628546238
1733698519660582700,7.471582763671875,-0.02211640402674675,-0.02360844612121582,-0.007395049091428518
1733698519670537500,7.481537353515625,-0.0010859542526304722,-0.027670832350850105,-0.010172193869948387
1733698519680493300,7.491493408203125,0.015162179246544838,-0.026688488200306892,-0.0060101160779595375
1733698519690448600,7.50144873046875,0.014490796253085136,-0.026772111654281616,-0.0038585481233894825
1733698519700403500,7.511403564453125,0.006574232131242752,-0.031008491292595863,0.00015789340250194073
1733698519710358300,7.521358154296875,-0.005562858656048775,-0.0317230150103569,0.005220296327024698
1733698519720313600,7.531313720703125,-0.014246050268411636,-0.02987555041909218,0.006350344978272915
1733698519730269400,7.54126953125,-0.015306521207094193,-0.02114837057888508,0.0058715082705020905
1733698519740224300,7.551224365234375,-0.006720160134136677,-0.009051083587110043,0.0034250696189701557
1733698519750179600,7.5611796875,-0.003477495163679123,0.0014175361720845103,-0.0013393256813287735
1733698519760134400,7.571134521484375,0.0001724518369883299,0.010199729353189468,-0.002890637144446373
1733698519770089500,7.58108935546875,-0.0028118863701820374,0.01538170874118805,-0.004459239076822996
1733698519780045600,7.591045654296875,-0.004433431662619114,0.010530316270887852,-0.0043075671419501305
1733698519790000400,7.60100048828125,-0.003043527714908123,0.009002727456390858,-0.0011996582616120577
1733698519799955500,7.61095556640625,-0.0033714845776557922,0.004947669338434935,-0.004457483533769846
1733698519809910500,7.62091064453125,-0.004497735295444727,0.005392950028181076,-0.002493668347597122
1733698519819866400,7.630866455078125,-0.004760606214404106,0.0038101200480014086,-0.003890101332217455
1733698519829821400,7.640821533203125,-0.0051752603612840176,0.008710868656635284,-0.0032472144812345505
1733698519839776500,7.650776611328125,-0.0006713001057505608,0.01357966847717762,-0.0013640541583299637
1733698519849731300,7.6607314453125,-0.00031177327036857605,0.01821756362915039,0.001675145234912634
1733698519859686400,7.670686279296875,-0.0011134713422507048,0.022132789716124535,0.0038893173914402723
1733698519869642500,7.680642578125,-0.0037478702142834663,0.022120805457234383,0.0026546758599579334
1733698519879597300,7.690597412109375,-0.002207842655479908,0.018847892060875893,0.00245575956068933
1733698519889552400,7.700552490234375,-0.0025820168666541576,0.01654106192290783,0.0015106038190424442
1733698519899507500,7.710507568359375,-0.001745119341649115,0.012939056381583214,0.0014826905680820346
1733698519909462500,7.720462646484375,-0.0002609397051855922,0.013687671162188053,0.00023926061112433672
1733698519919418400,7.73041845703125,-0.00008967588655650616,0.01674637757241726,-0.00038647674955427647
1733698519929373400,7.74037353515625,0.00024321931414306164,0.020891321823000908,0.001635395223274827
1733698519939328500,7.75032861328125,-0.0015171702252700925,0.019356507807970047,0.0025487912353128195
1733698519949283300,7.760283447265625,-0.005961719900369644,0.014812890440225601,0.009003761224448681
1733698519959238700,7.77023876953125,-0.0030359355732798576,0.00843182671815157,0.011339254677295685
1733698519969194500,7.780194580078125,0.0026278092991560698,0.005386502016335726,0.009591154754161835
1733698519979149300,7.7901494140625,0.0058876583352684975,0.007265870459377766,0.002697946969419718
1733698519989104400,7.8001044921875,0.0053824568167328835,0.013132281601428986,0.001839343924075365
1733698519999059500,7.8100595703125,0.006648518145084381,0.019098399206995964,0.00367089849896729
1733698520009015300,7.820015380859375,0.0020313963759690523,0.022491000592708588,0.0025252066552639008
1733698520018970400,7.829970458984375,-0.0017739898758009076,0.026301879435777664,-0.00009837211109697819
1733698520028925400,7.839925537109375,-0.001460003200918436,0.029495276510715485,-0.001474160933867097
1733698520038880300,7.84988037109375,0.002557160332798958,0.032799649983644485,-0.0005380890797823668
1733698520048835600,7.859835693359375,0.006944452412426472,0.030954882502555847,0.0011913677444681525
1733698520058791400,7.86979150390625,0.004855134524405003,0.027788875624537468,0.000526800868101418
1733698520068746200,7.879746337890625,0.008907932788133621,0.021681448444724083,0.002037878381088376
1733698520078701600,7.88970166015625,0.010419433936476707,0.01297832652926445,0.004041630309075117
1733698520088656400,7.899656494140625,0.013603509403765202,0.005343310534954071,0.006082676816731691
1733698520098611500,7.909611572265625,0.013011537492275238,0.001604425604455173,0.008191337808966637
1733698520108567600,7.919567626953125,0.006580003537237644,0.0003471472882665694,0.007986275479197502
1733698520118522400,7.9295224609375,0.003841145196929574,-0.0026932626497000456,0.007235056255012751
1733698520128477400,7.9394775390625,0.0026706859935075045,-0.00988486222922802,0.007887531071901321
1733698520138432500,7.9494326171875,0.005441303364932537,-0.017468027770519257,0.006817255634814501
1733698520148387300,7.95938720703125,0.008873052895069122,-0.023406609892845154,0.005191662348806858
1733698520158343700,7.96934375,0.012107611633837223,-0.02751237340271473,0.0037265783175826073
1733698520168298500,7.979298583984375,0.012645304203033447,-0.02229177951812744,0.003862932091578841
1733698520178253300,7.98925341796875,0.008074447512626648,-0.01468839030712843,0.003395803738385439
1733698520188208400,7.99920849609375,0.002465297468006611,-0.002285782713443041,0.00435241125524044
1733698520198164500,8.00916455078125,-0.0011620717123150826,0.014317291788756847,0.004673035815358162
1733698520208119300,8.019119384765625,-0.0021876550745218992,0.03321374952793121,0.002558752428740263
1733698520218074400,8.029074462890625,0.00020747515372931957,0.050812482833862305,0.004316626116633415
1733698520228029400,8.039029541015625,0.007338355295360088,0.0622028224170208,0.0017767695244401693
1733698520237984500,8.048984619140626,0.010182387195527554,0.06649091094732285,0.0012743996921926737
1733698520247940600,8.058940673828126,0.014059949666261673,0.06250789016485214,0.0018294024048373103
1733698520257895400,8.0688955078125,0.014360027387738228,0.051256854087114334,0.006631041876971722
1733698520267850500,8.0788505859375,0.01467134989798069,0.03659775108098984,0.007413744926452637
1733698520277805300,8.088805419921876,0.01094268262386322,0.019076287746429443,0.01089959591627121
1733698520287760400,8.098760498046875,0.012876670807600021,0.007687545847147703,0.012150748632848263
1733698520297716500,8.108716552734375,0.016474256291985512,0.002875649370253086,0.015127984806895256
1733698520307671600,8.118671630859374,0.019380297511816025,0.0030884360894560814,0.017885422334074974
1733698520317626400,8.12862646484375,0.02232920564711094,0.006476985290646553,0.022848153486847878
1733698520327581400,8.13858154296875,0.02275797538459301,0.01963886059820652,0.021739747375249863
1733698520337536300,8.148536376953125,0.02004868909716606,0.043568868190050125,0.015485440380871296
1733698520347492400,8.158492431640624,0.012460543774068356,0.058380573987960815,0.008176927454769611
1733698520357447400,8.168447509765626,0.00826119352132082,0.06344714015722275,0.005056324414908886
1733698520367402500,8.178402587890625,0.004916530102491379,0.0593850202858448,0.0005670335376635194
1733698520377357600,8.188357666015625,0.0005696595180779696,0.049029868096113205,-0.0016895022708922625
1733698520387313400,8.1983134765625,-0.0002364792162552476,0.033506836742162704,-0.0026804646477103233
1733698520397268500,8.2082685546875,-0.002890172181650996,0.02081940695643425,-0.003668211167678237
1733698520407223600,8.2182236328125,-0.0003812081413343549,0.011754806153476238,-0.0011406047269701958
1733698520417178400,8.228178466796875,0.0033338728826493025,-0.00162481889128685,0.0005822533275932074
1733698520427133400,8.238133544921874,0.009010400623083115,-0.013648725114762783,-0.000407111132517457
1733698520437089500,8.248089599609376,0.013886578381061554,-0.02421528473496437,0.0005494871875271201
1733698520447044400,8.25804443359375,0.015683678910136223,-0.030030827969312668,0.0018693498568609357
1733698520456999400,8.26799951171875,0.014234752394258976,-0.032343678176403046,0.00488080270588398
1733698520466954200,8.277954345703124,0.008836258202791214,-0.03424038365483284,0.008138114586472511
1733698520476909000,8.287908935546875,0.002753264270722866,-0.033223897218704224,0.009733771905303001
1733698520486865400,8.297865478515625,-0.001549605163745582,-0.027824334800243378,0.008183280006051064
1733698520496820200,8.3078203125,0.0020095468498766422,-0.022336876019835472,0.006641951389610767
1733698520506775000,8.317775146484376,0.0005674452986568213,-0.013954310677945614,0.006206790916621685
1733698520516730400,8.32773046875,0.004622918553650379,0.0007321758894249797,0.005637376569211483
1733698520526685200,8.337685302734375,0.008397682569921017,0.012264994904398918,0.0074190315790474415
1733698520536641000,8.34764111328125,0.013651488348841667,0.01879613846540451,0.004214105196297169
1733698520546596400,8.357596435546874,0.012629101052880287,0.03040166199207306,0.0016201864928007126
1733698520556551200,8.36755126953125,0.006711577996611595,0.040554437786340714,0.0010106274858117104
1733698520566506200,8.37750634765625,0.003231625072658062,0.046525776386260986,-0.0005678280722349882
1733698520576462300,8.38746240234375,0.001773999771103263,0.04928312078118324,-0.002284413203597069
1733698520586417200,8.397417236328126,-0.005464738234877586,0.0478799007833004,-0.0023709656670689583
1733698520596372200,8.407372314453125,-0.00994037464261055,0.039192602038383484,-0.001158685190603137
1733698520606327300,8.417327392578125,-0.0030308032874017954,0.03159593790769577,0.0020565493032336235
1733698520616282000,8.4272822265625,0.009956760331988335,0.023978786543011665,0.002028734190389514
1733698520626238500,8.437238525390624,0.004159325268119574,0.012960757128894329,0.003891082713380456
1733698520636193300,8.447193359375,-0.0008881678804755211,0.0000858103740029037,0.005141003057360649
1733698520646148000,8.457148193359375,0.011956257745623589,-0.013481397181749344,0.003385713789612055
1733698520656103200,8.467103271484374,0.015530756674706936,-0.01937827467918396,0.0008641338208690286
1733698520666058200,8.477058349609376,0.0044714477844536304,-0.023028401657938957,0.0018998371670022607
1733698520676014000,8.48701416015625,-0.0007875497685745358,-0.02247588336467743,0.0030113025568425655
1733698520685969200,8.49696923828125,0.00399122666567564,-0.021664684638381004,0.00030553084798157215
1733698520695924200,8.50692431640625,0.0020383838564157486,-0.015064485371112823,-0.0004141833633184433
1733698520705879300,8.51687939453125,-0.0010985536500811577,-0.006019857246428728,-0.0001337525900453329
1733698520715834000,8.526834228515625,-0.0012625998351722956,-0.0007322560413740575,0.00041555892676115036
1733698520725790200,8.536790283203125,-0.0011898954398930073,0.0005854760529473424,0.003656625747680664
1733698520735745300,8.546745361328124,-0.004853182006627321,-0.003038892289623618,0.0009400247363373637
1733698520745700000,8.5567001953125,-0.006685170810669661,-0.012317079119384289,0.0016862425254657865
1733698520755655200,8.5666552734375,-0.00375685328617692,-0.01680375449359417,0.0002959237899631262
1733698520765610200,8.5766103515625,-0.0024612252600491047,-0.01632864773273468,-0.0012380569241940975
1733698520775566300,8.58656640625,-0.00326320668682456,-0.012417173944413662,0.0011638390133157372
1733698520785521200,8.596521240234376,-0.003032310400158167,-0.004285211209207773,-0.0010899940971285105
1733698520795476200,8.606476318359375,-0.005144165828824043,0.0011803696397691965,-0.0042916471138596535
1733698520805431000,8.61643115234375,-0.00006391957867890596,0.0055314418859779835,-0.004048500210046768
1733698520815387100,8.62638720703125,-0.0035110474564135075,0.008529668673872948,-0.0018600726034492254
1733698520825342200,8.63634228515625,-0.002715827664360404,0.004894454497843981,-0.0023149403277784586
1733698520835297300,8.64629736328125,-0.0030045732855796814,0.004504051059484482,-0.002091008238494396
1733698520845252400,8.65625244140625,-0.0005789663409814239,0.0014222412137314677,0.0035722036845982075
1733698520855207200,8.666207275390626,0.002089656423777342,-0.0010839789174497128,0.004790017381310463
1733698520865163300,8.676163330078126,0.0012518260627985,-0.0021841307170689106,0.005857146345078945
1733698520875118300,8.686118408203125,0.00419414509087801,0.0029762601479887962,0.0020525942090898752
1733698520885073200,8.6960732421875,0.004140881821513176,0.011277332901954651,0.00020489294547587633
1733698520895028200,8.7060283203125,0.0031878813169896603,0.010487844236195087,0.003614824265241623
1733698520904983300,8.7159833984375,0.0008578815031796694,0.004884019959717989,0.005367716774344444
1733698520914939100,8.725939208984375,-0.0036241640336811543,-0.012493549846112728,0.0042983293533325195
1733698520924894200,8.735894287109375,0.0038436059840023518,-0.030918097123503685,0.008353524841368198
1733698520934849300,8.745849365234376,0.03247426450252533,-0.03131907060742378,0.011717008426785469
1733698520944804000,8.75580419921875,0.047731779515743256,-0.005947403144091368,0.01942872442305088
1733698520954759200,8.76575927734375,0.04255245253443718,0.0009475689148530364,0.009348156861960888
1733698520964715300,8.77571533203125,0.01053299754858017,-0.0060943616554141045,-0.008255871012806892
1733698520974670000,8.785670166015626,-0.028462648391723633,0.001742756925523281,-0.0065144989639520645
1733698520984625400,8.79562548828125,-0.03159239515662193,0.032125964760780334,-0.006020482629537582
1733698520994580200,8.805580322265625,-0.026226209476590157,0.0505148321390152,-0.01023341529071331
1733698521004535300,8.815535400390624,-0.020036490634083748,0.050796326249837875,-0.009353240951895714
1733698521014491400,8.825491455078126,-0.017215054482221603,0.03657024726271629,-0.012697559781372547
1733698521024446200,8.8354462890625,-0.007352570537477732,0.02005119062960148,-0.010955319739878178
1733698521034401300,8.8454013671875,0.003956798929721117,0.008408859372138977,-0.008842171169817448
1733698521044356400,8.8553564453125,0.013852307572960854,-0.0020195473916828632,-0.004963010549545288
1733698521054312200,8.865312255859376,0.02005634270608425,-0.021797392517328262,-0.0014145555905997753
1733698521064267300,8.875267333984375,0.020420663058757782,-0.03903203830122948,-0.0008563569281250238
1733698521074222300,8.885222412109375,0.01067853718996048,-0.04716331511735916,-0.001977951731532812
1733698521084177200,8.89517724609375,-0.007540147285908461,-0.044727589935064316,0.003624540288001299
1733698521094132200,8.90513232421875,-0.004036135971546173,-0.036057617515325546,0.004083816893398762
1733698521104088300,8.91508837890625,0.0011482394766062498,-0.028042035177350044,-0.0017517015803605318
1733698521114043100,8.925043212890625,-0.009840019047260284,-0.015533951111137867,-0.0025536182802170515
1733698521123998200,8.934998291015624,-0.0242551788687706,-0.0006479465519078076,-0.00003773020580410957
1733698521133953300,8.944953369140626,-0.02727421000599861,0.014399510808289051,-0.006914821453392506
1733698521143908400,8.954908447265625,-0.02414632961153984,0.02153118886053562,-0.007417626678943634
1733698521153864200,8.9648642578125,-0.024347718805074692,0.020891249179840088,-0.005669033154845238
1733698521163819300,8.9748193359375,-0.02475704625248909,0.008830590173602104,-0.010842755436897278
1733698521173774300,8.9847744140625,-0.013086424209177494,0.002188796177506447,-0.01168859750032425
1733698521183729200,8.994729248046875,-0.008050919510424137,0.004082303494215012,-0.010279517620801926
1733698521193684200,9.004684326171875,-0.004378295037895441,0.0017579207196831703,-0.008415956050157547
1733698521203640300,9.014640380859374,0.003910793922841549,-0.007205214351415634,-0.011190971359610558
1733698521213595100,9.02459521484375,0.00722669530659914,-0.014873785898089409,-0.009496932849287987
1733698521223550200,9.03455029296875,0.00686370674520731,-0.015107344835996628,-0.0033812508918344975
1733698521233505300,9.04450537109375,0.007155056111514568,-0.012305966578423977,-0.00029890798032283783
1733698521243460000,9.054460205078126,0.00344207719899714,-0.013113437220454216,0.0036668051034212112
1733698521253416200,9.064416259765625,-0.004219220019876957,-0.012217025272548199,0.004449853673577309
1733698521263371300,9.074371337890625,-0.01028217189013958,-0.016008567065000534,0.003814689815044403
1733698521273326000,9.084326171875,-0.009424906224012375,-0.019902536645531654,0.00132579798810184
1733698521283281400,9.094281494140626,-0.007264550309628248,-0.023801404982805252,0.000730581465177238
1733698521293236200,9.104236328125,-0.002933383686468005,-0.025589676573872566,-0.0011039616074413061
1733698521303192000,9.114192138671875,0.004591377917677164,-0.030201205983757973,-0.0034036014694720507
1733698521313147400,9.1241474609375,0.006454644724726677,-0.03093797340989113,-0.0030811126343905926
1733698521323102200,9.134102294921876,0.003659923793748021,-0.03145116567611694,-0.0036393110640347004
1733698521333057300,9.144057373046875,-0.0008967831963673234,-0.03308078646659851,-0.006301207933574915
1733698521343012400,9.154012451171875,-0.004230261780321598,-0.02831772156059742,-0.005091600585728884
1733698521352968200,9.16396826171875,-0.007458632346242666,-0.02132691629230976,-0.0042988574132323265
1733698521362923300,9.17392333984375,-0.008776098489761353,-0.01241837628185749,-0.007428071927279234
1733698521372878300,9.18387841796875,-0.010730642825365067,-0.0064436630345880985,-0.011056233197450638
1733698521382833200,9.193833251953125,-0.012204967439174652,-0.00012131856055930257,-0.011396585032343864
1733698521392789200,9.203789306640624,-0.012521975673735142,0.0024450162891298532,-0.012388061732053757
1733698521402744300,9.213744384765626,-0.012370708398520947,0.00004284497117623687,-0.012272214516997337
1733698521412699100,9.22369921875,-0.01205106545239687,-0.00194479338824749,-0.008992323651909828
1733698521422654200,9.233654296875,-0.007442731410264969,-0.0052031707018613815,-0.004706765059381723
1733698521432609300,9.243609375,-0.006718069780617952,-0.011382019147276878,-0.0038623062428086996
1733698521442565000,9.253565185546876,-0.00909733772277832,-0.018994398415088654,-0.005923327058553696
1733698521452520200,9.263520263671875,-0.01252003200352192,-0.024180371314287186,-0.002932064002379775
1733698521462475300,9.273475341796875,-0.011722948402166367,-0.025209683924913406,-0.003770160721614957
1733698521472430300,9.283430419921874,-0.012142081744968891,-0.021068807691335678,-0.00241117924451828
1733698521482385400,9.293385498046876,-0.012759136036038399,-0.013714222237467766,-0.003254069946706295
1733698521492341200,9.30334130859375,-0.015875812619924545,-0.0093047134578228,-0.005442783236503601
1733698521502296300,9.31329638671875,-0.016159705817699432,-0.004103825427591801,-0.006865443661808968
1733698521512251400,9.32325146484375,-0.017419664189219475,-0.0033679462503641844,-0.006137306336313486
1733698521522206200,9.333206298828125,-0.017835650593042374,-0.0066500259563326836,-0.008956795558333397
1733698521532161300,9.343161376953125,-0.01809629425406456,-0.014252721332013607,-0.011367843486368656
1733698521542117400,9.353117431640625,-0.021937374025583267,-0.019558802247047424,-0.01415963564068079
1733698521552072200,9.363072265625,-0.0234029833227396,-0.02033398486673832,-0.01759485714137554
1733698521562027300,9.37302734375,-0.025048283860087395,-0.014293668791651726,-0.019617261365056038
1733698521571982300,9.382982421875,-0.026479259133338928,-0.0051904357969760895,-0.02333693765103817
1733698521581937400,9.3929375,-0.027643859386444092,-0.0013650713954120874,-0.023799529299139977
1733698521591893200,9.402893310546874,-0.031245216727256775,0.0020717461593449116,-0.02539844810962677
1733698521601848300,9.412848388671875,-0.028489641845226288,-0.00013494899030774832,-0.029445653781294823
1733698521611803400,9.422803466796875,-0.027382398024201393,-0.005008420906960964,-0.0279550664126873
1733698521621758200,9.43275830078125,-0.02573816291987896,-0.01154195424169302,-0.029316740110516548
1733698521631713300,9.44271337890625,-0.01993226632475853,-0.020632000640034676,-0.026975495740771294
1733698521641669400,9.45266943359375,-0.016768964007496834,-0.0355699397623539,-0.025914225727319717
1733698521651624200,9.462624267578125,-0.015514935366809368,-0.0511760450899601,-0.02559761516749859
1733698521661579300,9.472579345703124,-0.017759181559085846,-0.05882890522480011,-0.0263369083404541
1733698521671534300,9.482534423828126,-0.02148689702153206,-0.05797296017408371,-0.02664671465754509
1733698521681489200,9.4924892578125,-0.026747971773147583,-0.050290003418922424,-0.0260499007999897
1733698521691445200,9.5024453125,-0.030492981895804405,-0.040633849799633026,-0.022955317050218582
1733698521701400300,9.512400390625,-0.032589420676231384,-0.02903125435113907,-0.022673821076750755
1733698521711355100,9.522355224609376,-0.030582405626773834,-0.020488116890192032,-0.02211771346628666
1733698521721310500,9.532310546875,-0.027681423351168633,-0.012851236388087273,-0.02031049132347107
1733698521731265300,9.542265380859375,-0.029078612104058266,-0.004387194290757179,-0.017649833112955093
1733698521741221400,9.552221435546874,-0.02662557363510132,0.002064313506707549,-0.016699884086847305
1733698521751176400,9.562176513671876,-0.02767808735370636,0.007058797404170036,-0.017043206840753555
1733698521761131300,9.57213134765625,-0.028856538236141205,0.011230905540287495,-0.01834229752421379
1733698521771086300,9.58208642578125,-0.02563079446554184,0.018756594508886337,-0.01905524544417858
1733698521781042400,9.59204248046875,-0.015851400792598724,0.0220839474350214,-0.020166050642728806
1733698521790997200,9.601997314453126,-0.00701680826023221,0.034226518124341965,-0.017153503373265266
1733698521800952300,9.611952392578125,-0.005730501376092434,0.043061818927526474,-0.01807389035820961
1733698521810907400,9.621907470703125,-0.0010670511983335018,0.041729386895895004,-0.014374030753970146
1733698521820862200,9.6318623046875,-0.00399040337651968,0.027452178299427032,-0.011463994160294533
1733698521830818300,9.641818359375,-0.004690346773713827,0.008186807855963707,-0.006724232342094183
1733698521840773400,9.6517734375,-0.008318371139466763,-0.014664978720247746,-0.00021014036610722542
1733698521850728200,9.661728271484375,-0.011377585120499134,-0.04237091541290283,-0.0027971784584224224
1733698521860683300,9.671683349609374,-0.013346193358302116,-0.06554201990365982,-0.003686141688376665
1733698521870638300,9.681638427734375,-0.017542237415909767,-0.0814121887087822,-0.003953889477998018
1733698521880594200,9.69159423828125,-0.01678616553544998,-0.07024341821670532,0.011875406838953495
1733698521890549500,9.701549560546875,-0.019120793789625168,-0.06422645598649979,0.004705903120338917
1733698521900504300,9.71150439453125,-0.01179097592830658,-0.06189405918121338,0.001498391735367477
1733698521910459400,9.72145947265625,-0.01921650767326355,-0.04822109267115593,-0.0037561014760285616
1733698521920414200,9.731414306640625,-0.010364427231252193,-0.015887917950749397,-0.0003400647547096014
1733698521930370300,9.741370361328125,-0.02441905438899994,0.013085126876831055,-0.002642450388520956
1733698521940325400,9.751325439453124,-0.02720259130001068,0.029277412220835686,0.0022633587941527367
1733698521950280400,9.761280517578125,-0.020688967779278755,0.04054033383727074,-0.0049799662083387375
1733698521960235300,9.7712353515625,-0.020743297412991524,0.0482158288359642,-0.012806463055312634
1733698521970190300,9.7811904296875,-0.028991496190428734,0.04933236539363861,-0.01872292160987854
1733698521980146400,9.791146484375,-0.045312412083148956,0.0399353988468647,-0.028563302010297775
1733698521990101200,9.801101318359375,-0.05900739133358002,0.013808869756758213,-0.03253226727247238
1733698522000056300,9.811056396484375,-0.060068659484386444,-0.013907979242503643,-0.03551154583692551
1733698522010011100,9.82101123046875,-0.04679708555340767,-0.03661859408020973,-0.02632337436079979
1733698522019966500,9.830966552734376,-0.012576266191899776,-0.048072315752506256,-0.017859848216176033
1733698522029922300,9.84092236328125,0.0023845992982387543,-0.05662774667143822,-0.016302701085805893
1733698522039877400,9.85087744140625,-0.00020665640477091074,-0.06775443255901337,-0.015551423653960228
1733698522049832400,9.86083251953125,-0.008712634444236755,-0.0714254081249237,-0.013789651915431023
1733698522059787300,9.870787353515626,-0.014175044372677803,-0.06843920797109604,-0.015320170670747757
1733698522069742000,9.8807421875,-0.018569152802228928,-0.0626763179898262,-0.017470497637987137
1733698522079698400,9.890698486328125,-0.01325907465070486,-0.05693294480443001,-0.016150634735822678
1733698522089653200,9.9006533203125,0.00825629010796547,-0.03973603993654251,-0.003043857403099537
1733698522099608300,9.9106083984375,0.030724046751856804,-0.01352627482265234,-0.005753356963396072
1733698522109563400,9.9205634765625,0.018199468031525612,-0.0044049485586583614,-0.011886350810527802
1733698522119518200,9.930518310546875,-0.005801551043987274,-0.007845317013561726,-0.015102029778063297
1733698522129474300,9.940474365234374,-0.022032378241419792,-0.016985883936285973,-0.01596168801188469
1733698522139429400,9.950429443359376,-0.017432566732168198,-0.021646682173013687,-0.012339788489043713
1733698522149384200,9.96038427734375,-0.008385431952774525,-0.020040052011609077,-0.013901947066187859
1733698522159339500,9.970339599609375,0.01156484056264162,-0.011857223697006702,-0.009949815459549427
1733698522169294300,9.98029443359375,0.017175551503896713,0.0006995725561864674,-0.009638801217079163
1733698522179250200,9.990250244140626,0.016056491062045097,0.01196554210036993,-0.005610503256320953
1733698522189205500,10.00020556640625,0.011239303275942802,0.02121056243777275,-0.0014247535727918148
1733698522199160300,10.010160400390625,0.007950566709041595,0.028462614864110947,0.007906430400907993
1733698522209115400,10.020115478515624,0.012611952610313892,0.03330768644809723,0.012674592435359955
1733698522219070200,10.0300703125,0.012082782573997974,0.038566894829273224,0.016221124678850174
1733698522229026300,10.0400263671875,0.010647072456777096,0.04716038331389427,0.018570298328995705
1733698522238981000,10.049981201171875,0.01006463821977377,0.053839061409235,0.018687210977077484
1733698522248936400,10.0599365234375,0.008451703935861588,0.05595651641488075,0.015783686190843582
1733698522258891300,10.069891357421875,0.0021171094849705696,0.04972578212618828,0.01330002211034298
1733698522268846300,10.079846435546875,0.0036146666388958693,0.03554220125079155,0.015882961452007294
1733698522278802400,10.089802490234375,0.018445810303092003,0.022836793214082718,0.0214694757014513
1733698522288757200,10.09975732421875,0.03855779767036438,0.020289890468120575,0.022889679297804832
1733698522298712300,10.10971240234375,0.047015465795993805,0.020351143553853035,0.019480301067233086
1733698522308667400,10.11966748046875,0.0438406765460968,0.024974092841148376,0.017742788419127464
1733698522318622500,10.12962255859375,0.03647011145949364,0.030377913266420364,0.013512622565031052
1733698522328578300,10.139578369140626,0.028082191944122314,0.03211817517876625,0.01204268354922533
1733698522338533400,10.149533447265625,0.019138231873512268,0.03222363442182541,0.014103970490396023
1733698522348488400,10.159488525390625,0.010088818147778511,0.03016996756196022,0.01604212075471878
1733698522358443300,10.169443359375,0.007088766898959875,0.025074008852243423,0.019297568127512932
1733698522368398300,10.1793984375,0.014068737626075745,0.022224118933081627,0.020182045176625252
1733698522378354400,10.1893544921875,0.01699129119515419,0.017050130292773247,0.016654154285788536
1733698522388309200,10.199309326171875,0.022528640925884247,0.012303312309086323,0.018999719992280006
1733698522398264300,10.209264404296874,0.03487478941679001,0.008174613118171692,0.024207264184951782
1733698522408219400,10.219219482421876,0.04679926484823227,0.014191977679729462,0.030949439853429794
1733698522418174200,10.22917431640625,0.05488089099526405,0.026650510728359222,0.034926872700452805
1733698522428130300,10.23913037109375,0.05986989289522171,0.04003124311566353,0.04341042414307594
1733698522438085400,10.24908544921875,0.05801846459507942,0.05043834447860718,0.04623284190893173
1733698522448040200,10.259040283203126,0.05523514747619629,0.05011734366416931,0.04817787557840347
1733698522457995500,10.26899560546875,0.06058703735470772,0.03898746147751808,0.047471869736909866
1733698522467949600,10.278949462890624,0.055013809353113174,0.01624874584376812,0.04247138276696205
1733698522477905400,10.288905517578126,0.042494289577007294,-0.016587499529123306,0.04303863272070885
1733698522487860700,10.29886083984375,0.03705865144729614,-0.04692881181836128,0.04076983779668808
1733698522497815600,10.308815673828125,0.03643600270152092,-0.06452484428882599,0.04125746339559555
1733698522507770600,10.3187705078125,0.035143353044986725,-0.06746488809585571,0.03733423352241516
1733698522517725400,10.328725341796876,0.035809677094221115,-0.0473732054233551,0.036135539412498474
1733698522527681500,10.338681640625,0.03727905824780464,-0.011979987844824791,0.030230160802602768
1733698522537636600,10.34863671875,0.039990685880184174,0.034813083708286285,0.023844700306653976
1733698522547591400,10.35859130859375,0.029930278658866882,0.08983512967824936,0.017398813739418983
1733698522557546500,10.36854638671875,0.031691960990428925,0.1388615220785141,0.011879412457346916
1733698522567501600,10.37850146484375,0.04592031240463257,0.17539143562316895,0.006791462656110525
1733698522577457700,10.388457763671875,0.05845900997519493,0.17840507626533508,0.0015458345878869295
1733698522587412500,10.39841259765625,0.05764620006084442,0.1420067995786667,-0.0010087389964610338
1733698522597367600,10.408367431640626,0.04758584499359131,0.07344824820756912,-0.00520348409190774
1733698522607322400,10.418322265625,0.03599223494529724,-0.010335639119148254,-0.002915671095252037
1733698522617277700,10.428277587890625,0.036076124757528305,-0.07950112968683243,0.004853302612900734
1733698522627233500,10.438233642578124,0.02912789210677147,-0.1214437186717987,0.014071333222091198
1733698522637188600,10.448188720703126,0.015683457255363464,-0.1352252960205078,0.0212221872061491
1733698522647143700,10.458143798828125,-0.005661848001182079,-0.12275029718875885,0.026396598666906357
1733698522657098500,10.468098388671875,-0.03679366782307625,-0.09248107671737671,0.019588228315114975
1733698522667053600,10.478053466796876,-0.052766378968954086,-0.05465282127261162,0.017119793221354485
1733698522677009700,10.488009765625,-0.04672952741384506,-0.006840820889919996,0.01405529398471117
1733698522686964500,10.497964599609375,-0.026820320636034012,0.04212327301502228,0.018033485859632492
1733698522696919600,10.50791943359375,0.0050989966839551926,0.07859686017036438,0.01879248581826687
1733698522706874600,10.51787451171875,0.027361072599887848,0.1064644604921341,0.015091144479811192
1733698522716829400,10.527829345703125,0.027386371046304703,0.12367327511310577,0.00975576788187027
1733698522726785500,10.53778564453125,0.01729574240744114,0.1279979795217514,0.006103855557739735
1733698522736740600,10.54774072265625,0.005064907483756542,0.11790458858013153,0.003933379426598549
1733698522746695400,10.5576953125,0.00482221832498908,0.09402541816234589,0.007078828290104866
1733698522756650500,10.567650390625,0.011300889775156975,0.06973259896039963,0.004707816056907177
1733698522766605600,10.57760546875,0.016447007656097412,0.04262853413820267,0.007439235225319862
1733698522776561400,10.5875615234375,0.023727556690573692,0.0188763327896595,0.009005440399050713
1733698522786516700,10.597516845703124,0.024705782532691956,-0.002927943365648389,0.005659581162035465
1733698522796471600,10.607471435546875,0.02383732609450817,-0.02218845672905445,0.0037543554790318012
1733698522806426600,10.617426513671875,0.018038682639598846,-0.040267299860715866,0.004024547059088945
1733698522816381400,10.62738134765625,0.014574708417057991,-0.051629677414894104,0.0044945948757231236
1733698522826337500,10.637337646484376,0.007252254988998175,-0.05579371005296707,0.0036865859292447567
1733698522836292600,10.647292724609375,0.007184876594692469,-0.05007696524262428,0.007176658138632774
1733698522846247700,10.65724755859375,0.011328471824526787,-0.03889733552932739,0.004441521130502224
1733698522856202500,10.667202392578124,0.0113495122641325,-0.02757783979177475,0.003213803982362151
1733698522866157600,10.677157470703126,0.013154061511158943,-0.011228854767978191,0.0026892591267824173
1733698522876113700,10.68711376953125,0.014476054348051548,0.007283842656761408,0.0018540918827056885
1733698522886068500,10.697068359375,0.01600576750934124,0.02065088599920273,0.00658795889467001
1733698522896023600,10.7070234375,0.01143738068640232,0.03307186812162399,0.010101201012730598
1733698522905978600,10.716978515625,0.005798533093184233,0.04140588268637657,0.010878093540668488
1733698522915933700,10.72693359375,0.0005630250088870525,0.04644378647208214,0.009718554094433784
1733698522925889500,10.7368896484375,-0.01278428640216589,0.046794693917036057,0.008820357732474804
1733698522935844600,10.7468447265625,-0.011980810202658176,0.040218550711870193,0.009390274062752724
1733698522945799700,10.756799560546876,0.0008681619074195623,0.031083593145012856,0.008085030131042004
1733698522955754500,10.76675439453125,0.008267754688858986,0.019510027021169662,0.005467941984534264
1733698522965709600,10.77670947265625,0.008899016305804253,0.008125401102006435,0.004646030254662037
1733698522975665700,10.786665771484374,0.003956988453865051,-0.003122991882264614,0.006697196513414383
1733698522985620500,10.796620361328126,0.0044651636853814125,-0.007389948237687349,0.009205106645822525
1733698522995575600,10.806575439453125,0.008230874314904213,-0.011272571049630642,0.006339811719954014
1733698523005530600,10.816530517578125,0.012097669765353203,-0.009762687608599663,0.0037411206867545843
1733698523015485400,10.8264853515625,0.013937115669250488,-0.0048584770411252975,0.0003328070743009448
1733698523025441500,10.836441650390626,0.0069724484346807,-0.0036387171130627394,-0.0029406845569610596
1733698523035396600,10.846396728515625,0.0042445724830031395,-0.005346868187189102,-0.0039809150621294975
1733698523045351400,10.856351318359375,0.0038834763690829277,-0.012470977380871773,-0.005177066661417484
1733698523055306800,10.866306640625,0.011282537132501602,-0.019181611016392708,-0.001830538036301732
1733698523065261600,10.876261474609375,0.00853894092142582,-0.02367452345788479,-0.0008543920703232288
1733698523075217400,10.886217529296875,0.0026621432043612003,-0.022140543907880783,0.0002968924818560481
1733698523085172700,10.8961728515625,-0.00033151626121252775,-0.01487251091748476,-0.0001875364687293768
1733698523095127600,10.90612744140625,-0.0048370519652962685,-0.0039373054169118404,-0.0009494668338447809
1733698523105082600,10.91608251953125,-0.005829756148159504,0.004762466996908188,-0.002006860915571451
1733698523115037700,10.92603759765625,-0.005468632094562054,0.01003792230039835,-0.003603692166507244
1733698523124993500,10.93599365234375,-0.0070576961152255535,0.011799797415733337,-0.002204498276114464
1733698523134948600,10.945948486328126,-0.0060531520284712315,0.010103629902005196,-0.0019456390291452408
1733698523144903700,10.955903564453125,-0.0072074164636433125,0.006637703627347946,0.0015552149852737784
1733698523154858500,10.9658583984375,-0.005328023806214333,0.007041438948363066,0.0011179238790646195
1733698523164813600,10.9758134765625,-0.00001933285966515541,0.004486418329179287,0.004472935572266579
1733698523174769700,10.985769775390626,0.005180222913622856,0.001769993919879198,0.008133983239531517
1733698523184724500,10.995724365234375,0.007476355880498886,0.003961153794080019,0.005728746764361858
1733698523194679600,11.005679443359375,0.005613474175333977,0.013378623872995377,0.002702330471947789
1733698523204634600,11.015634521484374,0.006329377181828022,0.013439965434372425,0.0017056451179087162
1733698523214589700,11.025589599609376,0.004006833769381046,0.006030785385519266,0.0004960373044013977
1733698523224545500,11.035545654296875,0.003674061968922615,-0.009051737375557423,0.001889284118078649
1733698523234500600,11.04550048828125,0.0069883656688034534,-0.02873356267809868,0.003953766543418169
1733698523244455700,11.05545556640625,0.009747407399117947,-0.046384297311306,0.003751534502953291
1733698523254410500,11.065410400390626,0.011855832301080227,-0.05842764675617218,0.0030300840735435486
1733698523264365600,11.075365478515625,0.01344393566250801,-0.060270410031080246,0.0026715630665421486
1733698523274321700,11.08532177734375,0.01157945767045021,-0.05092404782772064,0.0020819392520934343
1733698523284276500,11.0952763671875,0.0034730485640466213,-0.031705670058727264,0.0030062526930123568
1733698523294231600,11.1052314453125,-0.0077894595451653,-0.00799527671188116,0.0023002487141638994
1733698523304186600,11.1151865234375,-0.01568150520324707,0.016656775027513504,0.001100161811336875
1733698523314141400,11.125141357421874,-0.02001473307609558,0.037711989134550095,-0.0016777815762907267
1733698523324097500,11.13509765625,-0.01842316798865795,0.05274701490998268,-0.003940463066101074
1733698523334052600,11.145052490234375,-0.009134062565863132,0.06069521605968475,-0.0031617546919733286
1733698523344007400,11.15500732421875,0.0006095920689404011,0.05716254934668541,-0.002793743973597884
1733698523353962800,11.164962646484375,0.005731116980314255,0.043597206473350525,-0.0016613679472357035
1733698523363917600,11.17491748046875,0.005009247921407223,0.027259642258286476,0.0005311910063028336
1733698523373872600,11.18487255859375,0.006653483957052231,0.010591448284685612,0.0042681386694312096
1733698523383828700,11.194828857421875,0.008215116336941719,-0.00433352729305625,0.006236345507204533
1733698523393783600,11.204783447265624,0.008554669097065926,-0.013771770521998405,0.003648018930107355
1733698523403738600,11.214738525390626,0.004106778651475906,-0.022068291902542114,0.006711333058774471
1733698523413693700,11.224693603515625,0.002799699082970619,-0.025700043886899948,0.0042694807052612305
1733698523423648500,11.2346484375,0.0023341639898717403,-0.027099857106804848,0.001771898358128965
1733698523433604400,11.244604248046874,0.0013344131875783205,-0.02151467651128769,0.0023119873367249966
1733698523443559700,11.2545595703125,0.003551091533154249,-0.016353286802768707,0.0018941862508654594
1733698523453514500,11.264514404296875,0.005498661193996668,-0.008322522975504398,0.0010851179249584675
1733698523463469600,11.274469482421875,0.002055528573691845,-0.0016557916533201933,0.0008434116607531905
1733698523473425700,11.28442578125,-0.0019938074983656406,0.004537655506283045,0.0024050893262028694
1733698523483381500,11.294381591796874,-0.0036970421206206083,0.009459733963012695,0.0015564871719107032
1733698523493336600,11.304336669921875,-0.0032139448449015617,0.013784441165626049,-0.005355747416615486
1733698523503291600,11.314291748046875,-0.0032704586628824472,0.0167474914342165,-0.005063637159764767
1733698523513246500,11.32424658203125,-0.0025293007493019104,0.019613051787018776,-0.004375476390123367
1733698523523201800,11.334201904296876,0.0006949882954359055,0.018146982416510582,-0.005013037007302046
1733698523533157600,11.34415771484375,0.0023392238654196262,0.014313893392682076,-0.0035168733447790146
1733698523543112400,11.354112548828125,0.0027641961351037025,0.01291888952255249,-0.0008322491776198149
1733698523553067800,11.36406787109375,-0.00048805633559823036,0.01195855438709259,0.005267721135169268
1733698523563022600,11.374022705078126,-0.003484476823359728,0.00791873224079609,0.00499750254675746
1733698523572977700,11.383977783203125,-0.007350587751716375,0.002022493863478303,0.00644413148984313
1733698523582933800,11.393933837890625,-0.006695345044136047,-0.003383489092811942,0.0056279487907886505
1733698523592888600,11.403888671875,-0.002791950013488531,-0.0032375480514019728,0.004764818120747805
1733698523602843600,11.41384375,0.001704902620986104,-0.0005849669105373323,0.003006508806720376
1733698523612798700,11.423798828125,0.0035664523020386696,0.0024307966232299805,0.0009721200913190842
1733698523622753500,11.43375341796875,0.0006690188311040401,0.0052979476749897,-0.000052850693464279175
1733698523632709400,11.44370947265625,-0.0003182151122018695,0.006938188802450895,0.00020467687863856554
1733698523642664700,11.453664794921876,0.0010706305038183928,0.0012562298215925694,0.0004075118340551853
1733698523652619500,11.46361962890625,-0.0007469769334420562,-0.007193980738520622,-0.0001251203939318657
1733698523662574600,11.47357470703125,0.0023534619249403477,-0.015764355659484863,-0.0026767649687826633
1733698523672529700,11.48352978515625,0.0023643807508051395,-0.02115565724670887,-0.002509784884750843
1733698523682485500,11.493485595703126,0.0034343302249908447,-0.023326635360717773,-0.004523743875324726
1733698523692440600,11.503440673828125,0.0037232832983136177,-0.017012812197208405,-0.002664857776835561
1733698523702395600,11.513395751953125,0.0053109233267605305,-0.008390643633902073,-0.0031140840146690607
1733698523712350700,11.523350830078124,0.0018413569778203964,0.0009328171145170927,-0.004340203478932381
1733698523722305500,11.533305419921875,0.00234967190772295,0.00853631179779768,-0.005464236252009869
1733698523732261600,11.54326171875,0.0006298022344708443,0.012488975189626217,-0.0027965479530394077
1733698523742216700,11.553216796875,0.0016399533487856388,0.009638916701078415,-0.0015503845643252134
1733698523752171500,11.563171630859374,-0.00006020872388035059,0.005127255339175463,-0.0007517025806009769
1733698523762126600,11.573126708984375,-0.0009934413246810436,-0.0013233323115855455,-0.0022075928281992674
1733698523772081700,11.58308154296875,-0.0016832000110298395,-0.003188343718647957,-0.0002544308081269264
1733698523782037500,11.59303759765625,-0.0032846955582499504,-0.006853999570012093,0.0020436597988009453
1733698523791992600,11.60299267578125,-0.005719623528420925,-0.003704012604430318,0.003476706799119711
1733698523801947600,11.61294775390625,-0.0018913507228717208,0.0020953351631760597,0.001684693736024201
1733698523811902500,11.62290234375,0.0004562258254736662,0.0031717848032712936,0.003874078392982483
1733698523821857800,11.63285791015625,0.0002913761418312788,0.0070384289138019085,0.004409640096127987
1733698523831813600,11.642813720703124,-0.003941984847187996,0.0015216903993859887,0.0007414020365104079
1733698523841768400,11.6527685546875,-0.003324669785797596,-0.0065361312590539455,0.0002466851146891713
1733698523851723800,11.662723876953125,0.00015821214765310287,-0.011493072845041752,-0.0036444596480578184
1733698523861678600,11.6726787109375,0.0006005691830068827,-0.00999488402158022,-0.0015041753649711609
1733698523871633400,11.68263330078125,-0.001148328767158091,-0.003185447072610259,-0.004608888644725084
1733698523881589800,11.69258984375,0.00019562686793506145,0.0030887185130268335,-0.004319521598517895
1733698523891544600,11.702544677734375,-0.003928810823708773,0.009423579089343548,-0.0057805320248007774
1733698523901499400,11.71249951171875,-0.003649282269179821,0.010773463174700737,-0.0062587447464466095
1733698523911454700,11.722454833984376,-0.005482069682329893,0.00938196200877428,-0.002512476174160838
1733698523921409500,11.732409423828125,-0.005930641200393438,0.004689052235335112,-0.0030355032067745924
