time,seconds_elapsed,z,y,x
1733698716954560000,0.02656005859375,-0.06259407848119736,0.036614641547203064,0.007928431034088135
1733698716964516000,0.03651611328125,-0.0610397569835186,-0.05685193091630936,0.008026402443647385
1733698716974472000,0.046471923828125,-0.030062399804592133,-0.09157475084066391,-0.0035058839712291956
1733698716984427300,0.05642724609375,0.006300298497080803,-0.07417749613523483,-0.005692624486982822
1733698716994383000,0.066383056640625,0.029579520225524902,-0.0326569527387619,0.0033506713807582855
1733698717004339200,0.076339111328125,0.03867455571889877,-0.0008887972799129784,0.017926093190908432
1733698717014295000,0.086294921875,0.03383106738328934,0.01545502245426178,0.022977309301495552
1733698717024250400,0.09625048828125,0.020140327513217926,0.01345075573772192,0.018534911796450615
1733698717034206200,0.106206298828125,-0.0032257139682769775,0.00854574516415596,0.007298236712813377
1733698717044162300,0.116162353515625,-0.018353991210460663,0.015235023573040962,-0.006665257271379232
1733698717054118100,0.1261181640625,-0.02802952378988266,0.02664906531572342,-0.01466832309961319
1733698717064073000,0.136072998046875,-0.023265166208148003,0.030485929921269417,-0.015128165483474731
1733698717074029300,0.146029296875,-0.010024196468293667,0.025069061666727066,-0.004785778932273388
1733698717083985200,0.155985107421875,0.001917837536893785,0.02274337410926819,0.002861152635887265
1733698717093941200,0.165941162109375,0.005834015551954508,0.024234212934970856,0.0047448063269257545
1733698717103896000,0.17589599609375,0.0076573314145207405,0.019413679838180542,0.005404592026025057
1733698717113852200,0.18585205078125,0.0051566231995821,0.010480107739567757,0.0003994470462203026
1733698717123808300,0.195808349609375,0.00301175145432353,0.0007110188016667962,0.002604780253022909
1733698717133764400,0.205764404296875,-0.0008983014849945903,-0.012141929008066654,0.0021440533455461264
1733698717143719200,0.21571923828125,-0.004447423852980137,-0.015458179637789726,-0.0000828341580927372
1733698717153675000,0.225675048828125,-0.007909000851213932,-0.014199835248291492,-0.0017430487787351012
1733698717163631000,0.235631103515625,-0.007933694869279861,-0.009135051630437374,-0.003020363161340356
1733698717173587200,0.245587158203125,-0.00506813358515501,-0.006185866426676512,-0.0030826812144368887
1733698717183542300,0.255542236328125,0.003483765060082078,-0.0023967039305716753,-0.0013781164307147264
1733698717193498000,0.265498046875,0.008867344819009304,-0.0015349050518125296,0.0012962298933416605
1733698717203454200,0.2754541015625,0.013857094570994377,-0.00032215588726103306,0.002014396246522665
1733698717213410000,0.28541015625,0.01342353131622076,-0.000631615286692977,-0.0007289261557161808
1733698717223365000,0.295365234375,0.0072051649913191795,-0.003162016160786152,-0.0010552018648013473
1733698717233321200,0.3053212890625,0.0034293350763618946,-0.00853680819272995,-0.002883994486182928
1733698717243277000,0.315277099609375,-0.0007161819958128035,-0.013613620772957802,-0.004765272606164217
1733698717253233200,0.325233154296875,-0.0022973008453845978,-0.015241344459354877,-0.004565801937133074
1733698717263188200,0.335188232421875,-0.0009035136317834258,-0.012599513866007328,-0.0040682340040802956
1733698717273144300,0.345144287109375,-0.0021858257241547108,-0.011294032447040081,-0.0017837741179391742
1733698717283100200,0.35510009765625,-0.002259257948026061,-0.009907405823469162,-0.0008817133493721485
1733698717293056300,0.36505615234375,-0.003529585897922516,-0.009057324379682541,-0.0019999747164547443
1733698717303011000,0.375010986328125,-0.0042652226984500885,-0.013243011198937893,-0.001286136219277978
1733698717312967200,0.38496728515625,-0.006345417816191912,-0.016550656408071518,-0.0017404714599251747
1733698717322923300,0.39492333984375,-0.003586420789361,-0.017797313630580902,-0.0032704793848097324
1733698717332879000,0.404879150390625,-0.003592546097934246,-0.017099032178521156,-0.00011383462697267532
1733698717342834200,0.414834228515625,0.004670252092182636,-0.01594068482518196,0.003010470885783434
1733698717352790000,0.4247900390625,0.02205616608262062,-0.00012789928587153554,0.007176720071583986
1733698717362746000,0.43474609375,0.059474535286426544,0.016616057604551315,0.015197400003671646
1733698717372702200,0.4447021484375,0.04204947128891945,0.06922946870326996,-0.00394193921238184
1733698717382657000,0.454656982421875,-0.12957824766635895,-0.07188694179058075,-0.05236542224884033
1733698717392613000,0.464613037109375,-0.01911379210650921,-0.100839763879776,0.01943899504840374
1733698717402569000,0.47456884765625,0.06535353511571884,0.03356052562594414,0.02879144437611103
1733698717412525000,0.484525146484375,-0.018161863088607788,-0.02310222201049328,-0.01959179900586605
1733698717422480100,0.494480224609375,-0.01268278993666172,0.02234315499663353,-0.011569786816835403
1733698717432436200,0.504436279296875,0.03395874798297882,-0.014569588005542755,0.012924103997647762
1733698717442392000,0.51439208984375,0.014871149323880672,-0.014350383542478085,0.006684949155896902
1733698717452348200,0.52434814453125,0.0006482716416940093,0.011609045788645744,0.004516337066888809
1733698717462303200,0.53430322265625,0.012821847572922707,0.002804101910442114,0.0027591835241764784
1733698717472259000,0.544259033203125,0.009047881700098515,-0.0001978131476789713,-0.0072945160791277885
1733698717482215200,0.554215087890625,-0.008963609114289284,-0.005601977463811636,-0.013083536177873611
1733698717492171000,0.5641708984375,-0.01863620989024639,-0.020067470148205757,-0.0022165076807141304
1733698717502126300,0.574126220703125,0.005093883257359266,-0.002430527936667204,0.008563384413719177
1733698717512082200,0.584082275390625,-0.00909597147256136,0.01177956722676754,-0.0008152032969519496
1733698717522038300,0.594038330078125,-0.004899815656244755,-0.007164615672081709,-0.0034967493265867233
1733698717531994000,0.603994140625,0.006665227934718132,0.0050148190930485725,-0.001984606496989727
1733698717541949200,0.61394921875,-0.0023699651937931776,-0.00303064426407218,-0.0005496266530826688
1733698717551905300,0.6239052734375,-0.007140485569834709,-0.012654509395360947,0.001723115099593997
1733698717561861400,0.633861328125,0.002844618633389473,-0.009515384212136269,0.0037709404714405537
1733698717571816200,0.643816162109375,0.00006108265370130539,-0.006541432347148657,0.00022467505186796188
1733698717581772000,0.65377197265625,0.0028912238776683807,-0.006668465211987495,0.0016071218997240067
1733698717591728000,0.66372802734375,0.006718186661601067,0.0006589561235159636,0.002626047469675541
1733698717601684000,0.67368408203125,0.005245800130069256,0.003230420406907797,0.00013896811287850142
1733698717611640300,0.683640380859375,0.0042939865961670876,0.006119683850556612,0.0006319191306829453
1733698717621595100,0.69359521484375,0.0025113029405474663,0.006243174429982901,0.0016635979991406202
1733698717631551200,0.70355126953125,0.003108383622020483,0.004381624981760979,0.0011573310475796461
1733698717641507300,0.71350732421875,0.0016044965013861656,0.0031419233419001102,-0.0005207265494391322
1733698717651463200,0.723463134765625,-0.0004655785160139203,-0.0035511329770088196,-0.001029390492476523
1733698717661418200,0.733418212890625,-0.0006930173840373755,-0.009051544591784477,-0.0017898809164762497
1733698717671374300,0.743374267578125,-0.001316463341936469,-0.009455546736717224,0.0004903175868093967
1733698717681330200,0.753330078125,-0.0018996881553903222,-0.01205495186150074,0.0018701517255976796
1733698717691285200,0.76328515625,-0.004991884343326092,-0.010148128494620323,-0.0002510560443624854
1733698717701241300,0.773241455078125,-0.00465411925688386,-0.00578690879046917,-0.00034470087848603725
1733698717711197400,0.783197509765625,-0.005989694502204657,-0.005398886278271675,-0.0006275284104049206
1733698717721153300,0.7931533203125,-0.0041546630673110485,-0.006148353219032288,-0.0012919183354824781
1733698717731109400,0.803109375,-0.0010185246355831623,-0.009483696892857552,-0.00033424561843276024
1733698717741064200,0.813064208984375,-0.0007121084490790963,-0.013151880353689194,-0.0005700041074305773
1733698717751020300,0.823020263671875,0.0019550472497940063,-0.012695148587226868,0.00022521568462252617
1733698717760976400,0.832976318359375,0.0023055574856698513,-0.013183197937905788,0.0005111020291224122
1733698717770931200,0.84293115234375,0.004658460151404142,-0.01292087696492672,-0.0007991731399670243
1733698717780887300,0.85288720703125,0.004694526083767414,-0.013426476158201694,0.0004013414727523923
1733698717790843100,0.862843017578125,0.004171214997768402,-0.01204429566860199,0.0023952501360327005
1733698717800799500,0.872799560546875,0.005203302949666977,-0.012217031791806221,0.0009731390746310353
1733698717810754300,0.88275439453125,0.004706090781837702,-0.008911516517400742,0.0006386460736393929
1733698717820710100,0.892710205078125,0.004872121382504702,0.0016765464097261429,-0.002251188736408949
1733698717830666200,0.902666259765625,0.0034081819467246532,0.014527097344398499,-0.0011225412599742413
1733698717840622000,0.9126220703125,0.0028496696613729,0.029806038364768028,-0.0002210838720202446
1733698717850577400,0.922577392578125,0.0037466222420334816,0.03867090120911598,-0.0012440041173249483
1733698717860533200,0.932533203125,0.00865261722356081,0.05569932982325554,-0.00282564340159297
1733698717870489300,0.9424892578125,0.0022818034049123526,0.03116176277399063,-0.009075016714632511
1733698717880445200,0.952445068359375,-0.0007851552800275385,0.005273172631859779,-0.013763935305178165
1733698717890400300,0.962400146484375,-0.011793863959610462,-0.0245816633105278,-0.016092604026198387
1733698717900356400,0.9723564453125,-0.029126517474651337,-0.05594669654965401,-0.014361174777150154
1733698717910312200,0.982312255859375,-0.037178851664066315,-0.06758257746696472,-0.010177348740398884
1733698717920268300,0.992268310546875,-0.03522276133298874,-0.06079578027129173,-0.003483493346720934
1733698717930223000,1.00222314453125,-0.021057140082120895,-0.03826863318681717,0.002299560932442546
1733698717940179500,1.012179443359375,0.0013369208900257945,-0.010852081701159477,0.0056902384385466576
1733698717950135300,1.02213525390625,0.024442773312330246,0.012550179846584797,0.0058998288586735725
1733698717960091400,1.03209130859375,0.041830822825431824,0.0274499524384737,0.0041859764605760574
1733698717970046200,1.042046142578125,0.04734383150935173,0.024576934054493904,0.0031454795971512794
1733698717980002300,1.052002197265625,0.04439517483115196,0.016557438299059868,0.004805003292858601
1733698717989958400,1.06195849609375,0.02765055187046528,0.0022248378954827785,0.006468680687248707
1733698717999914200,1.071914306640625,0.010830480605363846,-0.002889523282647133,0.00452820211648941
1733698718009869300,1.081869384765625,-0.007047586143016815,-0.009411870501935482,0.00045915856026113033
1733698718019825200,1.0918251953125,-0.01959521509706974,-0.007142693269997835,-0.0043740407563745975
1733698718029781200,1.10178125,-0.02428584173321724,-0.0023926785215735435,-0.006852379068732262
1733698718039737300,1.1117373046875,-0.019715968519449234,0.0017854965990409255,-0.010624867863953114
1733698718049692400,1.1216923828125,-0.01443412248045206,0.009185356087982655,-0.012604128569364548
1733698718059648300,1.131648193359375,-0.00852985680103302,0.012437261641025543,-0.01139748003333807
1733698718069604400,1.141604248046875,-0.0035686539486050606,0.009426558390259743,-0.010080014355480671
1733698718079560200,1.151560302734375,0.0020021460950374603,0.0026253771502524614,-0.0070152487605810165
1733698718089515300,1.161515380859375,0.0017957513919100165,-0.007687980309128761,-0.005011219996958971
1733698718099471400,1.171471435546875,0.004959358833730221,-0.012633174657821655,-0.0012066066265106201
1733698718109427200,1.18142724609375,0.005717027932405472,-0.015342408791184425,-0.0010438875760883093
1733698718119383300,1.19138330078125,0.009323131293058395,-0.02916826494038105,-0.006009926088154316
1733698718129338400,1.20133837890625,0.009943913668394089,-0.03765176609158516,-0.009710654616355896
1733698718139294500,1.21129443359375,0.006732909008860588,-0.048394158482551575,-0.008790610358119011
1733698718149250300,1.221250244140625,-0.00002113357186317444,-0.05030364170670509,-0.0050166454166173935
1733698718159206400,1.231206298828125,-0.007507509086281061,-0.04271211847662926,-0.0032744351774454117
1733698718169161200,1.2411611328125,-0.009658277966082096,-0.027947286143898964,0.002677996177226305
1733698718179117300,1.251117431640625,-0.008122242987155914,-0.0063456143252551556,0.0067650508135557175
1733698718189073400,1.261073486328125,0.00018708559218794107,0.01295458059757948,0.007393556647002697
1733698718199029200,1.271029296875,0.011458955705165863,0.027576427906751633,0.005551735404878855
1733698718208984300,1.280984375,0.020142724737524986,0.02985129877924919,0.0026395688764750957
1733698718218940200,1.290940185546875,0.023617807775735855,0.026426637545228004,0.0020358909387141466
1733698718228896300,1.300896240234375,0.013795270584523678,0.01961054466664791,0.002194615313783288
1733698718238852400,1.310852294921875,-0.0001747205387800932,0.009915170259773731,0.0023320727050304413
1733698718248807200,1.32080712890625,-0.013744059018790722,0.00604293355718255,0.001473735785111785
1733698718258763300,1.33076318359375,-0.026657385751605034,0.008037213236093521,-0.0004121087258681655
1733698718268719000,1.340718994140625,-0.02742917090654373,0.012886830605566502,0.000060602324083447456
1733698718278675200,1.35067529296875,-0.021208904683589935,0.020965848118066788,0.0004278614651411772
1733698718288630300,1.36063037109375,-0.01160847395658493,0.025271113961935043,0.004886525683104992
1733698718298586400,1.37058642578125,-0.0007397671579383314,0.024184679612517357,0.010386103764176369
1733698718308542200,1.380542236328125,0.009119788184762001,0.01620132103562355,0.012970169074833393
1733698718318498300,1.390498291015625,0.016928061842918396,0.0023803692311048508,0.01732916198670864
1733698718328453400,1.400453369140625,0.017540588974952698,-0.015197292901575565,0.021700739860534668
1733698718338409200,1.4104091796875,0.015119009651243687,-0.03481512516736984,0.022821584716439247
1733698718348365300,1.420365234375,0.008472559042274952,-0.053306516259908676,0.02348977141082287
1733698718358321200,1.430321044921875,0.00447656586766243,-0.06657230854034424,0.022192003205418587
1733698718368276500,1.4402763671875,-0.0006614710437133908,-0.0758126750588417,0.020858559757471085
1733698718378232300,1.450232421875,-0.0016760590951889753,-0.07794424891471863,0.01950310915708542
1733698718388188400,1.4601884765625,0.004878513049334288,-0.07271459698677063,0.02377375401556492
1733698718398144300,1.470144287109375,0.01816871389746666,-0.06616082042455673,0.029748212546110153
1733698718408099000,1.48009912109375,0.033054452389478683,-0.055038128048181534,0.03254612907767296
1733698718418055200,1.49005517578125,0.04692769795656204,-0.03963395208120346,0.030759915709495544
1733698718428011300,1.50001123046875,0.05291927605867386,-0.021296225488185883,0.026969172060489655
1733698718437967400,1.50996728515625,0.05275598540902138,-0.009240013547241688,0.027344975620508194
1733698718447922200,1.519922119140625,0.044091127812862396,-0.006235701497644186,0.023668482899665833
1733698718457878300,1.529878173828125,0.02766885608434677,-0.014533289708197117,0.011295611038804054
1733698718467834000,1.539834228515625,0.007870118133723736,-0.02066628262400627,-0.00013361067976802588
1733698718477790500,1.54979052734375,-0.009720292873680592,-0.024243440479040146,-0.007504363544285297
1733698718487745300,1.559745361328125,-0.023196954280138016,-0.022543812170624733,-0.011573940515518188
1733698718497701000,1.569701171875,-0.03188379853963852,-0.019119542092084885,-0.015184375457465649
1733698718507657200,1.5796572265625,-0.03154611214995384,-0.015080059878528118,-0.01525095384567976
1733698718517612300,1.5896123046875,-0.0283671747893095,-0.011622880585491657,-0.013933371752500534
1733698718527568400,1.599568359375,-0.02077503502368927,-0.00577138364315033,-0.010796967893838882
1733698718537524200,1.609524169921875,-0.008893302641808987,-0.0036789854057133198,-0.009953363798558712
1733698718547480300,1.619480224609375,-0.0036671156994998455,-0.007377583999186754,-0.006095508113503456
1733698718557435400,1.629435302734375,0.003959251567721367,-0.01445875596255064,-0.002840872621163726
1733698718567391500,1.6393916015625,0.010630203410983086,-0.01881888322532177,-0.0005588098429143429
1733698718577347300,1.649347412109375,0.014938641339540482,-0.021264614537358284,0.005461454391479492
1733698718587303400,1.659303466796875,0.019670546054840088,-0.020684845745563507,0.007327797822654247
1733698718597258200,1.66925830078125,0.022630952298641205,-0.014948663301765919,0.006073260214179754
1733698718607214300,1.67921435546875,0.024081043899059296,-0.0019143541576340795,0.003911039792001247
1733698718617170400,1.68917041015625,0.02240298129618168,0.014527428895235062,0.002176894573494792
1733698718627126300,1.699126220703125,0.017986927181482315,0.036090511828660965,0.0005078914109617472
1733698718637081300,1.709081298828125,0.01365705206990242,0.05410061031579971,-0.0010645613074302673
1733698718647037700,1.71903759765625,0.009315567091107368,0.06425603479146957,-0.004701374098658562
1733698718656993500,1.72899365234375,-0.008905556052923203,0.06309948116540909,-0.008415332064032555
1733698718666949600,1.73894970703125,-0.035086557269096375,0.026609646156430244,-0.011300334706902504
1733698718676904700,1.74890478515625,-0.037540238350629807,-0.006802742835134268,-0.0054049124009907246
1733698718686860500,1.758860595703125,-0.0094295097514987,-0.0002465727739036083,0.004326544236391783
1733698718696816600,1.768816650390625,0.020362550392746925,-0.0071645621210336685,0.0004808790981769562
1733698718706772500,1.7787724609375,0.08369199186563492,-0.08112587034702301,-0.015109797939658165
1733698718716727800,1.788727783203125,0.0702303946018219,0.09145006537437439,-0.0758807510137558
1733698718726683600,1.79868359375,-0.08033408224582672,0.03001892752945423,-0.08181347697973251
1733698718736639700,1.8086396484375,-0.09181108325719833,-0.01199550461024046,0.025005685165524483
1733698718746595600,1.818595703125,-0.022328417748212814,-0.012793120928108692,0.06693661957979202
1733698718756550700,1.828550537109375,-0.03830506280064583,0.002389342989772558,0.0041081346571445465
1733698718766506800,1.8385068359375,-0.0028663775883615017,0.00852180365473032,-0.016954008489847183
1733698718776462600,1.848462646484375,0.008684128522872925,0.004604619927704334,-0.016406873241066933
1733698718786418700,1.858418701171875,0.010766187682747841,-0.019141722470521927,0.002375337528064847
1733698718796373500,1.86837353515625,0.012220881879329681,-0.0457567498087883,0.011827157810330391
1733698718806329600,1.87832958984375,0.02352093905210495,-0.058187853544950485,0.01248336024582386
1733698718816285700,1.88828564453125,0.027872927486896515,-0.046575237065553665,0.00594334164634347
1733698718826241800,1.89824169921875,0.03632020577788353,-0.02290239930152893,0.008738595992326736
1733698718836196600,1.908196533203125,0.031617794185876846,-0.016003698110580444,0.007587851490825415
1733698718846152400,1.91815234375,0.026089070364832878,-0.007884252816438675,0.002726783510297537
1733698718856108500,1.928108642578125,0.009841333143413067,0.006383758503943682,-0.003694917308166623
1733698718866063600,1.938063720703125,0.0014654252445325255,0.016561562195420265,-0.00730749499052763
1733698718876019700,1.948019775390625,-0.010463082231581211,0.027030399069190025,-0.01119984406977892
1733698718885975600,1.9579755859375,-0.022065144032239914,0.03447819873690605,-0.01791367307305336
1733698718895931600,1.967931640625,-0.03275279700756073,0.036398548632860184,-0.021315181627869606
1733698718905886700,1.97788671875,-0.039646122604608536,0.03126184269785881,-0.0208552535623312
1733698718915842800,1.9878427734375,-0.03784719482064247,0.025722237303853035,-0.015131719410419464
1733698718925798700,1.997798583984375,-0.02635086141526699,0.01786271668970585,-0.008774488233029842
1733698718935754800,2.007754638671875,-0.004321415442973375,0.008549636229872704,-0.003393229329958558
1733698718945709800,2.017709716796875,0.015567071735858917,-0.0034447088837623596,0.002643890678882599
1733698718955665700,2.027665771484375,0.03107168711721897,-0.0091782221570611,0.008420743979513645
1733698718965621800,2.037621826171875,0.040238816291093826,-0.015335982665419579,0.013393132016062737
1733698718975577600,2.04757763671875,0.037838783115148544,-0.017452511936426163,0.012100380845367908
1733698718985532700,2.05753271484375,0.02788255736231804,-0.014435948804020882,0.010583709925413132
1733698718995488800,2.06748876953125,0.012990796007215977,-0.007309077773243189,0.005871528759598732
1733698719005444900,2.07744482421875,-0.0005740150809288025,-0.0016621111426502466,-0.002394390758126974
1733698719015400700,2.087400634765625,-0.013392341323196888,0.006781441159546375,-0.00553159462288022
1733698719025355500,2.09735546875,-0.016609707847237587,0.017393605783581734,-0.006904719863086939
1733698719035311600,2.1073115234375,-0.014689752832055092,0.024258004501461983,-0.00867125578224659
1733698719045267500,2.117267333984375,-0.012794647365808487,0.025480661541223526,-0.006453908514231443
1733698719055223800,2.127223876953125,-0.007870495319366455,0.02133389748632908,-0.0016335031250491738
1733698719065178600,2.1371787109375,-0.003329805564135313,0.010934519581496716,0.00019555597100406885
1733698719075134700,2.147134765625,0.00281984219327569,-0.0025423134211450815,0.0017387362895533442
1733698719085090600,2.157090576171875,0.0059035164304077625,-0.017153214663267136,0.00012139859609305859
1733698719095046700,2.167046630859375,0.007059185765683651,-0.02964414283633232,-0.0030834348872303963
1733698719105001700,2.177001708984375,0.0065981922671198845,-0.03754254803061485,-0.0032786447554826736
1733698719114957600,2.18695751953125,0.0027357335202395916,-0.03902774304151535,-0.0031555984169244766
1733698719124913700,2.19691357421875,-0.0020563583821058273,-0.03765301778912544,-0.0032357596792280674
1733698719134869500,2.206869384765625,-0.004649972543120384,-0.034985486418008804,-0.0016609036829322577
1733698719144824800,2.216824951171875,-0.004376731812953949,-0.02960483729839325,-0.002630826784297824
1733698719154780700,2.22678076171875,-0.005432752426713705,-0.02535346895456314,-0.0038611467462033033
1733698719164736800,2.23673681640625,-0.0036835880018770695,-0.019432196393609047,-0.003974596969783306
1733698719174691600,2.246691650390625,-0.0018355060601606965,-0.014696541242301464,-0.005907344166189432
1733698719184647700,2.256647705078125,-0.00018621038179844618,-0.013547120615839958,-0.004948339890688658
1733698719194603800,2.266603759765625,0.0008618861902505159,-0.011458576656877995,-0.0033079537097364664
1733698719204559600,2.2765595703125,-0.0023072753101587296,-0.011412237770855427,-0.0022189875598996878
1733698719214514700,2.2865146484375,-0.0029446526896208525,-0.007752888835966587,-0.0027366436552256346
1733698719224470500,2.296470458984375,-0.0032210887875407934,-0.003673991421237588,-0.0022127998527139425
1733698719234426600,2.306426513671875,-0.002812356222420931,0.0010135588236153126,-0.001636379980482161
1733698719244382700,2.3163828125,-0.0034097032621502876,0.009216094389557838,0.000482164672575891
1733698719254337500,2.326337646484375,0.0006000630091875792,0.019089901819825172,0.003381244372576475
1733698719264293600,2.336293701171875,0.005884840153157711,0.027953434735536575,0.0062508005648851395
1733698719274249500,2.34624951171875,0.014673074707388878,0.03760761395096779,0.008401296101510525
1733698719284205600,2.35620556640625,0.022894784808158875,0.04380851611495018,0.008301960304379463
1733698719294160600,2.36616064453125,0.0267996396869421,0.046966928988695145,0.004725455306470394
1733698719304116700,2.37611669921875,0.01349235512316227,0.035178713500499725,-0.0022672065533697605
1733698719314072600,2.386072509765625,0.0007028128020465374,0.018343692645430565,-0.0036711471620947123
1733698719324028700,2.396028564453125,0.010677415877580643,0.027143575251102448,0.0020282838959246874
1733698719333983700,2.405983642578125,0.009880597703158855,0.022840173915028572,-0.0004846749361604452
1733698719343939600,2.415939697265625,0.007248329930007458,0.018408674746751785,-0.005117509514093399
1733698719353895700,2.425895751953125,0.003100548405200243,0.008703832514584064,-0.009770435281097889
1733698719363851500,2.4358515625,-0.000570885487832129,0.006206320598721504,-0.006508328951895237
1733698719373806600,2.445806640625,-0.0022751339711248875,0.0002824007533490658,-0.006945236586034298
1733698719383762700,2.4557626953125,-0.0008261080947704613,-0.00137674855068326,-0.004604850895702839
1733698719393718800,2.46571875,-0.0027896566316485405,-0.0035083426628261805,-0.006197688169777393
1733698719403674600,2.475674560546875,-0.0022306591272354126,-0.003361868904903531,-0.005312453024089336
1733698719413629700,2.485629638671875,-0.0026246770285069942,-0.0002915295772254467,-0.0031052646227180958
1733698719423585500,2.49558544921875,0.00007843144703656435,0.00668648537248373,-0.0029396158643066883
1733698719433542000,2.5055419921875,0.002850740682333708,0.014489741064608097,-0.0026511126197874546
1733698719443497700,2.515497802734375,0.005949861370027065,0.021668292582035065,-0.0060951123014092445
1733698719453452500,2.52545263671875,0.004880246706306934,0.02432515285909176,-0.007067476399242878
1733698719463408600,2.53540869140625,0.0005126630421727896,0.026875661686062813,-0.0066855791956186295
1733698719473364500,2.545364501953125,-0.001600691699422896,0.03855626657605171,-0.009575947187840939
1733698719483319800,2.55531982421875,-0.00884049478918314,0.03931073844432831,-0.009431603364646435
1733698719493275600,2.565275634765625,-0.009391771629452705,0.02402084693312645,-0.0025352956727147102
1733698719503231700,2.575231689453125,-0.011194730177521706,0.010856575332581997,0.00048392999451607466
1733698719513187600,2.5851875,-0.008612796664237976,0.0037691041361540556,-0.0009661611402407289
1733698719523142700,2.595142578125,-0.006471082102507353,-0.0014703988563269377,-0.006489290855824947
1733698719533098800,2.6050986328125,-0.0019989097490906715,-0.00001839397009462118,-0.005050643812865019
1733698719543054600,2.6150546875,0.0024371175095438957,0.0010300924768671393,-0.0018884061137214303
1733698719553010700,2.6250107421875,0.0056941574439406395,0.009887614287436008,0.0031111997086554766
1733698719562965500,2.634965576171875,0.005440890789031982,0.01858390122652054,0.0038749943487346172
1733698719572921900,2.644921875,0.0047698174603283405,0.028698846697807312,0.0012843467993661761
1733698719582877700,2.654877685546875,0.0048118955455720425,0.03464781492948532,0.001131747616454959
1733698719592833800,2.664833740234375,0.0027048687916249037,0.035101231187582016,-0.0020071668550372124
1733698719602788600,2.67478857421875,0.0008558360859751701,0.02971818298101425,-0.0022354000248014927
1733698719612744400,2.684744384765625,0.0004236168460920453,0.025097565725445747,-0.0022357450798153877
1733698719622700800,2.69470068359375,0.000624685431830585,0.022603515535593033,-0.004311413038522005
1733698719632656600,2.70465673828125,-0.00005469867028295994,0.018131833523511887,0.00020725151989609003
1733698719642611700,2.71461181640625,-0.0013106453698128462,0.014349078759551048,-0.0011725322110578418
1733698719652567300,2.7245673828125,-0.0049071284011006355,0.009848281741142273,-0.000972993322648108
1733698719662523400,2.7345234375,-0.006298896390944719,0.0019176548812538385,-0.004575717728585005
1733698719672478500,2.744478515625,-0.011253094300627708,-0.008267502300441265,-0.0053395736031234264
1733698719682434300,2.754434326171875,-0.013008915819227695,-0.01064543891698122,-0.004108128137886524
1733698719692390400,2.764390380859375,-0.013557125814259052,-0.01213530357927084,-0.0010449725668877363
1733698719702346200,2.77434619140625,-0.010459602810442448,-0.008266529068350792,0.0011055299546569586
1733698719712301600,2.784301513671875,-0.0034440578892827034,-0.0019167173886671662,0.0022395846899598837
1733698719722257400,2.79425732421875,0.0034782965667545795,0.00530151417478919,0.0015293196775019169
1733698719732213500,2.804213623046875,0.01142037007957697,0.008290572091937065,0.0026581278070807457
1733698719742169300,2.81416943359375,0.011257384903728962,0.005850317422300577,0.0010186857543885708
1733698719752124400,2.82412451171875,0.009663433767855167,0.0015365388244390488,0.0019166296115145087
1733698719762080500,2.83408056640625,0.004738982766866684,-0.0050633070059120655,0.0026636463589966297
1733698719772036400,2.844036376953125,-0.0015767364529892802,-0.007251204457134008,0.002602263120934367
1733698719781992400,2.853992431640625,-0.005506230518221855,-0.005768356379121542,0.0013748120982199907
1733698719791947300,2.863947265625,-0.005215360317379236,-0.0018059539142996073,-0.00019682885613292456
1733698719801903400,2.8739033203125,-0.0067669181153178215,0.0023131573107093573,-0.00038218486588448286
1733698719811859500,2.883859375,-0.009114914573729038,0.008248482830822468,-0.0015375306829810143
1733698719821814300,2.893814208984375,-0.00821716245263815,0.01484646461904049,-0.0015758802182972431
1733698719831770400,2.903770263671875,-0.008160761557519436,0.015494992956519127,-0.0010604190174490213
1733698719841726200,2.913726318359375,-0.007504825480282307,0.014603366144001484,0.0008836885681375861
1733698719851682300,2.923682373046875,-0.004103490617126226,0.01193888671696186,0.0005773520097136497
1733698719861637400,2.933637451171875,-0.0021649757400155067,0.005916414316743612,0.0015874889213591814
1733698719871593500,2.943593505859375,0.0002802973613142967,0.002759499941021204,0.0027955537661910057
1733698719881549300,2.95354931640625,0.00398448808118701,-0.002232595579698682,0.0025606630370020866
1733698719891505400,2.96350537109375,0.00429931515827775,-0.0043245055712759495,0.0014213076792657375
1733698719901460500,2.97346044921875,0.004457773175090551,-0.0077019259333610535,0.004019487649202347
1733698719911416300,2.983416259765625,0.0009336003568023443,-0.00749949412420392,0.004545008298009634
1733698719921372400,2.993372314453125,0.0030135291162878275,-0.006360726431012154,0.0038943979889154434
1733698719931328300,3.003328369140625,-0.0020883576944470406,-0.0028783301822841167,0.0019361822633072734
1733698719941283600,3.01328369140625,-0.002705678576603532,0.00002851017052307725,0.001042958116158843
1733698719951239400,3.023239501953125,-0.005181408952921629,0.002479619812220335,-0.000757784815505147
1733698719961195500,3.033195556640625,-0.006428833585232496,0.0044407714158296585,0.001039849012158811
1733698719971151400,3.0431513671875,-0.0065163676626980305,0.004643005318939686,0.00056973856408149
1733698719981106400,3.0531064453125,-0.006277215667068958,0.0039431266486644745,0.0008650831296108663
1733698719991062500,3.0630625,-0.00552552193403244,0.0006837391410954297,0.0001113406615331769
1733698720001018600,3.0730185546875,-0.005944437347352505,-0.0030364305712282658,0.0027430763002485037
1733698720010973400,3.082973388671875,-0.008157053962349892,-0.0051042549312114716,0.002480867085978389
1733698720020929300,3.09292919921875,-0.0036557791754603386,-0.004228341393172741,0.004429235588759184
1733698720030885400,3.102885498046875,-0.0018527151551097631,-0.007170804776251316,0.003012290922924876
1733698720040841200,3.11284130859375,-0.0008495023939758539,-0.005552668124437332,0.0031017730943858624
1733698720050796500,3.122796630859375,-0.0006899993750266731,-0.004652396310120821,0.0026520220562815666
1733698720060752400,3.13275244140625,0.0009526383364573121,-0.005014586262404919,0.0016815662384033203
1733698720070708500,3.14270849609375,-0.0027853541541844606,0.00027512729866430163,0.0016394314588978887
1733698720080664300,3.152664306640625,-0.005046910606324673,0.0035588049795478582,-0.0003720540553331375
1733698720090619400,3.162619384765625,-0.007036759052425623,-0.003855479881167412,-0.003694619983434677
1733698720100575500,3.172575439453125,-0.014175095595419407,-0.0096531817689538,-0.007474178448319435
1733698720110531300,3.18253125,-0.018929455429315567,-0.013305539265275002,-0.006119898054748774
1733698720120486400,3.192486328125,-0.020469829440116882,-0.014984396286308765,-0.003036489710211754
1733698720130442500,3.2024423828125,-0.01693951152265072,-0.012094041332602501,0.00007130741141736507
1733698720140398600,3.212398681640625,-0.0094613553956151,-0.0071914284490048885,0.005244497675448656
1733698720150354400,3.2223544921875,0.0008885423885658383,0.000576019985601306,0.006656554527580738
1733698720160309200,3.232309326171875,0.010498825460672379,0.005536423996090889,0.006403554230928421
1733698720170265300,3.242265380859375,0.016219431534409523,0.0034045488573610783,0.004772196523845196
1733698720180221400,3.252221435546875,0.01728309877216816,-0.0020541325211524963,0.004266195930540562
1733698720190177500,3.262177490234375,0.014866992831230164,-0.0053039840422570705,0.006094967946410179
1733698720200132400,3.27213232421875,0.00663356389850378,-0.007511478383094072,0.0061455680988729
1733698720210088400,3.28208837890625,-0.003235983196645975,-0.0032699736766517162,0.00402081198990345
1733698720220044300,3.292044189453125,-0.010415865108370781,0.0058745224960148335,0.0022697835229337215
1733698720230000400,3.30200048828125,-0.014862938784062862,0.016810372471809387,-0.0005538800032809377
1733698720239955500,3.31195556640625,-0.014418191276490688,0.026918934658169746,-0.0033885487355291843
1733698720249911300,3.321911376953125,-0.011220286600291729,0.030140414834022522,-0.0044777244329452515
1733698720259867400,3.331867431640625,-0.0057536158710718155,0.02789297327399254,-0.005350708961486816
1733698720269822500,3.341822509765625,-0.0015514427796006203,0.01721755415201187,-0.0037498236633837223
1733698720279778600,3.351778564453125,-0.002216700464487076,0.0022689644247293472,-0.004093105439096689
1733698720289734400,3.361734375,-0.0049166129902005196,-0.014553957618772984,-0.0011465837014839053
1733698720299690500,3.3716904296875,-0.006612514145672321,-0.02804606407880783,0.002215657150372863
1733698720309645300,3.381645263671875,-0.009278235957026482,-0.03147578239440918,0.0004638698883354664
1733698720319601400,3.391601318359375,-0.006687778513878584,-0.03178177773952484,0.0010271284263581038
1733698720329557500,3.4015576171875,-0.006266380660235882,-0.025742430239915848,0.0001370373647660017
1733698720339513300,3.411513427734375,-0.004855438135564327,-0.01594492606818676,-0.00058787502348423
1733698720349468400,3.421468505859375,-0.0012504463084042072,-0.005722664762288332,0.0021629980765283108
1733698720359424300,3.43142431640625,0.00006701948586851358,0.003308114130049944,0.0011861505918204784
1733698720369380400,3.44138037109375,0.0038267220370471478,0.010877294465899467,0.0024349745362997055
1733698720379335400,3.45133544921875,0.005475484766066074,0.01188290398567915,0.004461373668164015
1733698720389291500,3.46129150390625,0.007074062712490559,0.011006247252225876,0.003654900938272476
1733698720399247400,3.471247314453125,0.006703350692987442,0.005910821724683046,0.004753720946609974
1733698720409203200,3.481203125,0.003467269241809845,-0.001831548404879868,0.0012278629001230001
1733698720419158500,3.491158447265625,-0.0007988483994267881,-0.0059914058074355125,-0.0006765634752810001
1733698720429114400,3.5011142578125,-0.004251082893460989,-0.008116998709738255,-0.002339498372748494
1733698720439070500,3.511070556640625,-0.009719617664813995,-0.008533516898751259,-0.0028343137819319963
1733698720449026300,3.5210263671875,-0.010239960625767708,-0.0058353859931230545,-0.0012534084962680936
1733698720458981600,3.530981689453125,-0.011740651912987232,-0.006369350012391806,-0.0009423511801287532
1733698720468937500,3.5409375,-0.007630432490259409,-0.00713381776586175,-0.0012757431250065565
1733698720478893600,3.5508935546875,-0.001946181757375598,-0.004433904774487019,-0.0004155421629548073
1733698720488848400,3.560848388671875,-0.0010248024482280016,-0.0010213586501777172,0.000021116924472153187
1733698720498804200,3.57080419921875,0.003495380748063326,0.0023810958955436945,0.0018099622102454305
1733698720508760600,3.580760498046875,0.0039012026973068714,0.00515699340030551,0.002237164881080389
1733698720518716400,3.59071630859375,0.007085810881108046,0.0033266025129705667,0.0032156105153262615
1733698720528671500,3.60067138671875,0.009731956757605076,0.001970101147890091,0.001904400996863842
1733698720538627300,3.61062744140625,0.006616856902837753,-0.0015085197519510984,0.0019049335969612002
1733698720548583400,3.62058349609375,0.004680824466049671,-0.007533453404903412,0.0013772154925391078
1733698720558539300,3.630539306640625,0.0009353549685329199,-0.01014175359159708,0.0026834961026906967
1733698720568494300,3.640494384765625,-0.004081897437572479,-0.013965538702905178,-0.0005865066777914762
1733698720578450400,3.650450439453125,-0.004561265930533409,-0.011204373091459274,-0.0009090155363082886
1733698720588406300,3.66040625,-0.0059681180864572525,-0.006883859168738127,-0.00026786758098751307
1733698720598361600,3.670361572265625,-0.0062352330423891544,0.0016720783896744251,-0.0028247684240341187
1733698720608317400,3.6803173828125,-0.006298896856606007,0.00764867477118969,-0.00337801082059741
1733698720618273500,3.6902734375,-0.004069564864039421,0.012964344583451748,-0.003198780119419098
1733698720628229400,3.7002294921875,-0.0044500273652374744,0.015134695917367935,-0.0015681622317060828
1733698720638184200,3.71018408203125,-0.001690459786914289,0.012959958054125309,-0.001240593264810741
1733698720648140500,3.720140625,0.00019931618589907885,0.009094939567148685,-0.0011875198688358068
1733698720658096400,3.730096435546875,-0.000041699851863086224,0.0037624919787049294,-0.0012823285069316626
1733698720668052500,3.740052490234375,0.005655780900269747,-0.0004467326798476279,0.000856785278301686
1733698720678007300,3.75000732421875,0.00782066397368908,-0.004985025152564049,-0.0002532202051952481
1733698720687963100,3.759963134765625,0.009287724271416664,-0.006227176170796156,0.0008835085318423808
1733698720697919500,3.76991943359375,0.008487710729241371,-0.009782230481505394,0.0005636628484353423
1733698720707874300,3.779874267578125,0.005399156827479601,-0.007314085494726896,0.001993919024243951
1733698720717830400,3.789830322265625,0.003281144890934229,-0.0076110283844172955,0.0001339673763141036
1733698720727786200,3.7997861328125,0.00025904783979058266,-0.0035657265689224005,-0.0007701797876507044
1733698720737742300,3.809742431640625,-0.0017652208916842937,-0.0020943302661180496,-0.0007917513139545918
1733698720747697400,3.819697509765625,-0.001227114931680262,0.00024291669251397252,-0.0003406793111935258
1733698720757653200,3.8296533203125,-0.0022007666993886232,0.003546568099409342,-0.0007601272081956267
1733698720767609300,3.839609375,0.000023802043870091438,0.006430109962821007,0.0011245323112234473
1733698720777564200,3.849564208984375,0.002905342262238264,0.009826173074543476,0.002427350729703903
1733698720787520500,3.8595205078125,0.005957162939012051,0.016762251034379005,0.005722709931433201
1733698720797476400,3.869476318359375,0.007275960873812437,0.02202279306948185,0.003849975299090147
1733698720807432400,3.879432373046875,0.012639256194233894,0.022317422553896904,0.00354187935590744
1733698720817387300,3.88938720703125,0.009319093078374863,0.017188705503940582,0.0036529330536723137
1733698720827343000,3.899343017578125,0.008097855374217033,0.006571313366293907,0.0012810584157705307
1733698720837299500,3.909299560546875,0.0033987080678343773,-0.00618336396291852,-0.00093469163402915
1733698720847255300,3.91925537109375,-0.002271000761538744,-0.02083916962146759,-0.004461821634322405
1733698720857210400,3.92921044921875,-0.00914888083934784,-0.03232458606362343,-0.007253880146890879
1733698720867166200,3.939166259765625,-0.015323314815759659,-0.03661690279841423,-0.0081989960744977
1733698720877122300,3.949122314453125,-0.019336964935064316,-0.03752850368618965,-0.007908179424703121
1733698720887077400,3.959077392578125,-0.017355572432279587,-0.03141305595636368,-0.008232862688601017
1733698720897033200,3.969033203125,-0.009572217240929604,-0.0268100518733263,-0.007184376008808613
1733698720906989300,3.9789892578125,-0.0014800818171352148,-0.02092638798058033,-0.0042471084743738174
1733698720916945200,3.988945068359375,0.004866497125476599,-0.016010992228984833,-0.000011883443221449852
1733698720926900500,3.998900390625,0.011865622363984585,-0.009884386323392391,0.0037329315673559904
1733698720936856300,4.008856201171875,0.014022517018020153,-0.003883219789713621,0.005066376179456711
1733698720946812400,4.0188125,0.013704145327210426,-0.002132423222064972,0.0052262903191149235
1733698720956767200,4.028767333984375,0.01219173613935709,-0.00013505248352885246,0.004720821976661682
1733698720966723300,4.038723388671875,0.009775042533874512,0.0033728554844856262,0.0018907784251496196
1733698720976679400,4.048679443359375,0.0060665905475616455,0.006840557791292667,0.002534730825573206
1733698720986635300,4.05863525390625,0.0005743016954511404,0.011085938662290573,-0.0009425565367564559
1733698720996590300,4.06859033203125,-0.0043264469131827354,0.018973156809806824,-0.003538606222718954
1733698721006546200,4.078546142578125,-0.009924751706421375,0.029990626499056816,-0.002576505532488227
1733698721016502300,4.088502197265625,-0.011134891770780087,0.03921528160572052,-0.002200999530032277
1733698721026458400,4.098458251953125,-0.010674064978957176,0.04482564330101013,-0.002271874574944377
1733698721036413400,4.108413330078125,-0.006509413942694664,0.04584323614835739,-0.0018833193462342024
1733698721046369300,4.118369384765625,-0.003989079501479864,0.03819402679800987,-0.002727137878537178
1733698721056325400,4.128325439453125,-0.004140613134950399,0.021235285326838493,-0.0018690674332901835
1733698721066280400,4.138280517578125,-0.00359165295958519,0.005983222275972366,-0.00024890643544495106
1733698721076236300,4.148236328125,-0.0014094585785642266,-0.007823670282959938,-0.0001703430898487568
1733698721086192400,4.1581923828125,-0.00323184160515666,-0.014174762181937695,0.0005399928195402026
1733698721096148200,4.168148193359375,-0.0014280827017500997,-0.014798208139836788,-0.0009393930668011308
1733698721106103300,4.178103271484375,0.0025799283757805824,-0.009468338452279568,-0.0026272721588611603
1733698721116059400,4.188059326171875,0.004058249294757843,0.00183118786662817,-0.004898415878415108
1733698721126015500,4.198015380859375,0.0025748470798134804,0.011065366677939892,-0.0033251221757382154
1733698721135970300,4.20797021484375,0.0022004067432135344,0.015766911208629608,-0.002085953252390027
1733698721145926100,4.217926025390625,-0.00023931509349495173,0.018643125891685486,0.0004501749062910676
1733698721155882200,4.22788232421875,-0.00043266057036817074,0.0160145852714777,-0.0005634240806102753
1733698721165838300,4.23783837890625,0.000852387398481369,0.008854439482092857,-0.0007406910881400108
1733698721175793400,4.24779345703125,0.0014729041140526533,-0.0007265483145602047,0.00015279953368008137
1733698721185749200,4.257749267578125,0.0013272539945319295,-0.010146033950150013,-0.0006646586116403341
1733698721195705300,4.267705322265625,0.0002563969464972615,-0.018065208569169044,0.00038009940180927515
1733698721205660400,4.277660400390625,-0.0022963741794228554,-0.019540907815098763,-0.00034547282848507166
1733698721215616300,4.2876162109375,-0.003556315554305911,-0.015516872517764568,-0.0016187302535399795
1733698721225572400,4.297572265625,-0.006816190201789141,-0.006881429348140955,-0.0013782820897176862
1733698721235528200,4.307528076171875,-0.008920886553823948,0.01362491026520729,-0.0024592592380940914
1733698721245483500,4.3174833984375,-0.009612316265702248,0.0194404274225235,-0.004369111731648445
1733698721255439400,4.327439453125,-0.002365322317928076,0.015937836840748787,-0.0068671563640236855
1733698721265395500,4.3373955078125,-0.004619101993739605,0.0032752687111496925,-0.009773733094334602
1733698721275350300,4.347350341796875,-0.009359262883663177,-0.0015852665528655052,-0.003818372031673789
1733698721285306000,4.35730615234375,-0.009987941011786461,-0.0008530693012289703,0.001103883609175682
1733698721295262500,4.367262451171875,-0.00501768384128809,0.0024995841085910797,0.0013366438215598464
1733698721305218300,4.37721826171875,0.005933021195232868,0.007480509579181671,0.002263985574245453
1733698721315173400,4.38717333984375,0.01491106953471899,0.00024496729020029306,0.004523677751421928
1733698721325129200,4.397129150390625,0.018561292439699173,-0.007612647023051977,0.0027866680175065994
1733698721335085300,4.407085205078125,0.01583128608763218,-0.016264192759990692,0.003502259263768792
1733698721345040400,4.417040283203125,0.006537937559187412,-0.023097530007362366,0.0011984610464423895
1733698721354996500,4.42699658203125,-0.002784457989037037,-0.027896814048290253,-0.001826357445679605
1733698721364952300,4.436952392578125,-0.006830492988228798,-0.0321560800075531,-0.002019441220909357
1733698721374908200,4.446908203125,-0.0033630570396780968,-0.02734135277569294,-0.0019704392179846764
1733698721384863500,4.456863525390625,-0.0018647881224751472,-0.019777825102210045,-0.0033048151526600122
1733698721394819300,4.4668193359375,0.003261530539020896,-0.008656462654471397,-0.004854775033891201
1733698721404775400,4.476775390625,0.0034831720404326916,-0.001457958947867155,-0.005732482764869928
1733698721414730200,4.486730224609375,0.0011561020510271192,0.0014329024124890566,-0.0067745777778327465
1733698721424686300,4.496686279296875,-0.0028297975659370422,-0.0003975254949182272,-0.006692023016512394
1733698721434642400,4.506642333984375,-0.007385134231299162,-0.005213585682213306,-0.007576991803944111
1733698721444598500,4.5165986328125,-0.008216535672545433,-0.01143033616244793,-0.00596450874581933
1733698721454553300,4.52655322265625,-0.007766195572912693,-0.017483435571193695,-0.005251580383628607
1733698721464509200,4.53650927734375,-0.0005544658051803708,-0.025280000641942024,-0.0036806194111704826
1733698721474465300,4.54646533203125,0.002970227738842368,-0.028710685670375824,-0.0008329013362526894
1733698721484420400,4.55642041015625,0.010649608448147774,-0.03205474093556404,0.0007713929517194629
1733698721494376400,4.56637646484375,0.011310871690511703,-0.03258257731795311,0.0029916702769696712
1733698721504332300,4.576332275390625,0.00981590524315834,-0.03187642991542816,0.004309060052037239
1733698721514288400,4.586288330078125,0.006719981785863638,-0.03024231269955635,0.003222756553441286
1733698721524243500,4.596243408203125,0.0026150611229240894,-0.026173613965511322,0.0022917508613318205
1733698721534199300,4.60619921875,0.0003793372306972742,-0.020586568862199783,-0.00019697309471666813
1733698721544155400,4.6161552734375,-0.002612651325762272,-0.016551265493035316,-0.0015129762468859553
1733698721554110200,4.626110107421875,-0.005710972473025322,-0.012036408297717571,-0.0017076533986255527
1733698721564066300,4.63606640625,-0.0028699617832899094,-0.008099636062979698,-0.0011797816259786487
1733698721574022400,4.6460224609375,-0.002326943213120103,-0.005449790507555008,0.0007560701342299581
1733698721583978500,4.655978515625,-0.000855669321026653,-0.002523022936657071,-0.0007644582074135542
1733698721593933300,4.665933349609375,-0.00040559505578130484,-0.003085748990997672,0.0011753883445635438
1733698721603889200,4.67588916015625,0.0007480406202375889,-0.004310398828238249,0.0014793185982853174
1733698721613845200,4.68584521484375,0.0019525883253663778,-0.007172497920691967,0.001954160165041685
1733698721623800300,4.69580029296875,0.0017147681210190058,-0.009517411701381207,0.00040739623364061117
1733698721633756400,4.70575634765625,-0.002746559213846922,-0.00866200402379036,-0.0015441682189702988
1733698721643712300,4.715712158203125,-0.022413499653339386,0.03504030406475067,-0.0008804053068161011
1733698721653667300,4.725667236328125,-0.008201539516448975,0.007136233150959015,0.010682772845029831
1733698721663623200,4.735623046875,0.0009361557895317674,0.003030217718333006,0.0059970710426568985
1733698721673579300,4.745579345703125,0.00008607469499111176,-0.006650372873991728,-0.00509552750736475
1733698721683535000,4.75553515625,-0.0063578542321920395,-0.011515759862959385,-0.01067824475467205
1733698721693490200,4.765490234375,-0.013715369626879692,-0.01808178424835205,-0.013588281348347664
1733698721703446300,4.7754462890625,-0.014711465686559677,-0.03577058017253876,-0.010450676083564758
1733698721713402400,4.78540234375,-0.018290752544999123,-0.04461760073900223,-0.015356752090156078
1733698721723357200,4.795357177734375,-0.018473859876394272,-0.055135708302259445,-0.013430887833237648
1733698721733313000,4.80531298828125,-0.01972527988255024,-0.05758315324783325,-0.012232199311256409
1733698721743269000,4.81526904296875,-0.022713029757142067,-0.0575028657913208,-0.011581389233469963
1733698721753225200,4.82522509765625,-0.025297626852989197,-0.05291157588362694,-0.01222693920135498
1733698721763180300,4.83518017578125,-0.02140132524073124,-0.04444742575287819,-0.014955946244299412
1733698721773136100,4.84513623046875,-0.01659298874437809,-0.03565686568617821,-0.018549080938100815
1733698721783092200,4.85509228515625,-0.012991982512176037,-0.02191723883152008,-0.023510053753852844
1733698721793047300,4.86504736328125,-0.0067234341986477375,-0.003948624711483717,-0.022846659645438194
1733698721803003400,4.87500341796875,-0.0066587431356310844,0.016640689224004745,-0.02081373706459999
1733698721812959200,4.884959228515625,-0.004629148170351982,0.04035800322890282,-0.016214990988373756
1733698721822915300,4.894915283203125,0.0005186699563637376,0.0592040978372097,-0.011086640879511833
1733698721832870100,4.9048701171875,0.0059517850168049335,0.06846684217453003,-0.006862867157906294
1733698721842826200,4.914826171875,0.012901981361210346,0.072768434882164,-0.004918826278299093
1733698721852782300,4.9247822265625,0.01454994548112154,0.06315815448760986,-0.003371796105057001
1733698721862737200,4.934737060546875,0.010769899934530258,0.04332369565963745,-0.0028450232930481434
1733698721872693200,4.944693359375,0.005512554664164782,0.023551588878035545,-0.0007174236234277487
1733698721882649000,4.954649169921875,-0.002165046986192465,0.012395615689456463,-0.001413771416991949
1733698721892604200,4.964604248046875,-0.008838928304612637,0.007620302494615316,-0.0015788874588906765
1733698721902560300,4.974560302734375,-0.014246114529669285,0.010575277730822563,-0.004959506448358297
1733698721912516000,4.98451611328125,-0.017119931057095528,0.02517206408083439,-0.009837884455919266
1733698721922472200,4.99447216796875,-0.024310756474733353,0.03608473017811775,-0.014090584591031075
1733698721932427300,5.00442724609375,-0.03458309918642044,0.046096619218587875,-0.018920227885246277
1733698721942383400,5.01438330078125,-0.037481896579265594,0.0530223622918129,-0.020206600427627563
1733698721952339200,5.024339111328125,-0.03997807577252388,0.06349550932645798,-0.02476699836552143
1733698721962294000,5.0342939453125,-0.038885559886693954,0.07335977256298065,-0.0299830324947834
1733698721972250000,5.04425,-0.03939928114414215,0.07699472457170486,-0.03629365935921669
1733698721982206200,5.054206298828125,-0.038411274552345276,0.07608620077371597,-0.03847891464829445
1733698721992161300,5.064161376953125,-0.037315648049116135,0.0710538923740387,-0.03698887676000595
1733698722002117000,5.0741171875,-0.03421568125486374,0.06370806694030762,-0.030270524322986603
1733698722012073200,5.0840732421875,-0.038285523653030396,0.059902142733335495,-0.02391834929585457
1733698722022029000,5.094029052734375,-0.03818463906645775,0.06929992884397507,-0.018660737201571465
1733698722031984000,5.103984130859375,-0.03886507824063301,0.08257019519805908,-0.019621871411800385
1733698722041940200,5.113940185546875,-0.038818906992673874,0.09060163795948029,-0.023794014006853104
1733698722051896000,5.12389599609375,-0.03855285793542862,0.08803941309452057,-0.028566131368279457
1733698722061851100,5.13385107421875,-0.03351840376853943,0.08277185261249542,-0.029352929443120956
1733698722071807200,5.14380712890625,-0.028497278690338135,0.07336370646953583,-0.025788022205233574
1733698722081763300,5.153763427734375,-0.025027340278029442,0.0640203058719635,-0.015084612183272839
1733698722091719200,5.16371923828125,-0.020781463012099266,0.032393936067819595,0.0004243069561198354
1733698722101674200,5.17367431640625,-0.01069074496626854,-0.03106492944061756,0.018321815878152847
1733698722111630000,5.183630126953125,-0.003657869528979063,-0.08184235543012619,0.024797026067972183
1733698722121586200,5.193586181640625,0.00788833200931549,-0.12519241869449615,0.023637617006897926
1733698722131541200,5.203541259765625,0.021947158500552177,-0.1256805658340454,0.01030316948890686
1733698722141497000,5.2134970703125,0.03448164463043213,-0.09262736141681671,-0.007887052372097969
1733698722151453200,5.223453125,0.03846679627895355,-0.042589232325553894,-0.029335886240005493
1733698722161408300,5.233408203125,0.04117107391357422,0.03237612545490265,-0.05073128640651703
1733698722171364400,5.2433642578125,0.03877422586083412,0.10809911787509918,-0.05668957903981209
1733698722181320200,5.2533203125,0.02658308669924736,0.14782385528087616,-0.05091830715537071
1733698722191276300,5.2632763671875,0.009361223317682743,0.15107664465904236,-0.04388197138905525
1733698722201231400,5.2732314453125,-0.0030946345068514347,0.1262015402317047,-0.041900381445884705
1733698722211187200,5.283187255859375,0.010495476424694061,0.12671393156051636,-0.03851150721311569
1733698722221143300,5.293143310546875,0.05542386323213577,0.14362621307373047,-0.03508518263697624
1733698722231098000,5.30309814453125,0.11208820343017578,0.11668567359447479,-0.03839549049735069
1733698722241054200,5.31305419921875,0.16735301911830902,0.07246077805757523,-0.03888974338769913
1733698722251010300,5.32301025390625,0.20820429921150208,0.019192229956388474,-0.01747446320950985
1733698722260965000,5.332965087890625,0.23927916586399078,-0.05922561138868332,0.02155023068189621
1733698722270921200,5.342921142578125,0.2498287558555603,-0.1499730944633484,0.05436330288648605
1733698722280877000,5.352876953125,0.23625154793262482,-0.2138272374868393,0.07185395061969757
1733698722290833200,5.362833251953125,0.19384869933128357,-0.23468723893165588,0.06378350406885147
1733698722300788200,5.372788330078125,0.1298987716436386,-0.20039600133895874,0.04543658718466759
1733698722310744300,5.382744384765625,0.06226165592670441,-0.14948035776615143,0.02380000241100788
1733698722320700200,5.3927001953125,0.012315887957811356,-0.08792794495820999,0.005851396359503269
1733698722330655000,5.402655029296875,-0.012968963012099266,-0.01825805939733982,-0.016993731260299683
1733698722340611300,5.412611328125,-0.018605709075927734,0.08606471121311188,-0.04644995555281639
1733698722350567200,5.422567138671875,-0.02062571607530117,0.2232835441827774,-0.07265307009220123
1733698722360522200,5.432522216796875,-0.03092103637754917,0.32543066143989563,-0.09212859719991684
1733698722370478000,5.44247802734375,-0.04021946340799332,0.3576040267944336,-0.11451033502817154
1733698722380434200,5.45243408203125,-0.038547053933143616,0.3299696445465088,-0.14291580021381378
1733698722390390300,5.462390380859375,-0.02185036800801754,0.280947744846344,-0.17202416062355042
1733698722400345000,5.472344970703125,0.029287902638316154,0.2638559341430664,-0.1919487714767456
1733698722410301200,5.48230126953125,0.11294364929199219,0.20504909753799438,-0.191975399851799
1733698722420257000,5.492257080078125,0.22458317875862122,0.1422431766986847,-0.15611512959003448
1733698722430212400,5.50221240234375,0.33327236771583557,0.075360007584095,-0.09621904790401459
1733698722440168200,5.512168212890625,0.4130937457084656,-0.039771515876054764,-0.02883208356797695
1733698722450124300,5.522124267578125,0.43682998418807983,-0.16983817517757416,0.03941461816430092
1733698722460079000,5.5320791015625,0.40107056498527527,-0.2848109304904938,0.1086968183517456
1733698722470035200,5.54203515625,0.32605889439582825,-0.3957180082798004,0.15930727124214172
1733698722479991300,5.5519912109375,0.22792676091194153,-0.47080326080322266,0.17868752777576447
1733698722489947400,5.561947509765625,0.10356911271810532,-0.491215318441391,0.15180477499961853
1733698722499902200,5.571902099609375,-0.010789616964757442,-0.4465104043483734,0.0987110286951065
1733698722509858000,5.581858154296875,-0.08618050813674927,-0.33027273416519165,0.047196973115205765
1733698722519814100,5.591814208984375,-0.09949038177728653,-0.16719403862953186,0.011053716763854027
1733698722529769200,5.601769287109375,-0.05752189829945564,-0.006779597140848637,-0.025461683049798012
1733698722539725300,5.611725341796875,0.005896430928260088,0.14936889708042145,-0.05988850072026253
1733698722549681200,5.62168115234375,0.1225719079375267,0.29401689767837524,-0.04973306879401207
1733698722559636200,5.63163623046875,0.27195146679878235,0.3459552228450775,-0.027126891538500786
1733698722569592300,5.64159228515625,0.3888450562953949,0.28158795833587646,-0.0107260812073946
1733698722579548200,5.651548095703125,0.43978697061538696,0.14369817078113556,0.0167548805475235
1733698722589504300,5.661504150390625,0.4243720471858978,-0.011923106387257576,0.05804452672600746
1733698722599459000,5.671458984375,0.33703431487083435,-0.22176377475261688,0.08639923483133316
1733698722609415200,5.681415283203125,0.19397568702697754,-0.4498973488807678,0.09878000617027283
1733698722619371300,5.691371337890625,0.0391036793589592,-0.6156461834907532,0.0961645171046257
1733698722629326000,5.701326171875,-0.08584704995155334,-0.6722383499145508,0.08102817833423615
1733698722639282200,5.7112822265625,-0.15125098824501038,-0.6195846199989319,0.05680639296770096
1733698722649237800,5.72123779296875,-0.13557589054107666,-0.4851038157939911,0.04526984691619873
1733698722659192800,5.73119287109375,-0.07316586375236511,-0.2923984229564667,0.03480977565050125
1733698722669149000,5.74114892578125,0.0015704322140663862,-0.07177922129631042,0.02139517106115818
1733698722679104800,5.751104736328125,0.07445717602968216,0.1271267980337143,0.01405083853751421
1733698722689059800,5.761059814453125,0.11432043462991714,0.30365869402885437,-0.01218183059245348
1733698722699016000,5.771015869140625,0.1231328547000885,0.47320815920829773,-0.030626749619841576
1733698722708971800,5.7809716796875,0.13365447521209717,0.5924767851829529,-0.03591179475188255
1733698722718928000,5.790927978515625,0.1666788011789322,0.65138840675354,-0.02626509591937065
1733698722728882700,5.800882568359375,0.22042565047740936,0.6506357789039612,-0.022847993299365044
1733698722738838800,5.8108388671875,0.2862067222595215,0.5327950716018677,-0.02378109283745289
1733698722748795000,5.820794921875,0.35733842849731445,0.2839199900627136,-0.00956114660948515
1733698722758749700,5.830749755859375,0.4139502942562103,-0.059333886951208115,0.033786460757255554
1733698722768705800,5.840705810546875,0.4353698194026947,-0.457609623670578,0.08895491063594818
1733698722778661600,5.85066162109375,0.4069999158382416,-0.8514701128005981,0.13812288641929626
1733698722788617000,5.860616943359375,0.3260400891304016,-1.1449350118637085,0.17375092208385468
1733698722798572800,5.87057275390625,0.19695989787578583,-1.3003793954849243,0.18975186347961426
1733698722808529000,5.88052880859375,0.044364504516124725,-1.327811598777771,0.19071219861507416
1733698722818483700,5.890483642578125,-0.10573691874742508,-1.2443289756774902,0.18352794647216797
1733698722828439800,5.900439697265625,-0.22023287415504456,-1.0503448247909546,0.16575054824352264
1733698722838396000,5.91039599609375,-0.29238447546958923,-0.7491210699081421,0.13832911849021912
1733698722848351700,5.920351806640625,-0.3266220688819885,-0.377961128950119,0.09444262087345123
1733698722858306800,5.930306884765625,-0.3312148451805115,-0.00576519500464201,0.03937280923128128
1733698722868262700,5.9402626953125,-0.3248046338558197,0.28306180238723755,-0.027159346267580986
1733698722878219000,5.950218994140625,-0.32711052894592285,0.42454153299331665,-0.1025971844792366
1733698722888173800,5.960173828125,-0.36697059869766235,0.4229188561439514,-0.18079452216625214
1733698722898130000,5.9701298828125,-0.46026378870010376,0.338483601808548,-0.25787651538848877
1733698722908085800,5.980085693359375,-0.6036084890365601,0.1348540484905243,-0.33741527795791626
1733698722918040800,5.990040771484375,-0.7844700813293457,0.04991072788834572,-0.4003605842590332
1733698722927997000,5.999996826171875,-0.9540788531303406,0.24330389499664307,-0.4195140302181244
1733698722937952800,6.009952880859375,-1.0666285753250122,0.42562177777290344,-0.41768717765808105
1733698722947907800,6.019907958984375,-1.0902767181396484,0.521037220954895,-0.41685760021209717
1733698722957863700,6.02986376953125,-1.038766622543335,0.5870315432548523,-0.3974692225456238
1733698722967820000,6.039820068359375,-0.9020482301712036,0.5342660546302795,-0.370737224817276
1733698722977775900,6.04977587890625,-0.7041219472885132,0.35671448707580566,-0.3304612338542938
1733698722987730700,6.059730712890625,-0.4956166446208954,0.14054757356643677,-0.25713828206062317
1733698722997686800,6.069686767578125,-0.28979915380477905,-0.07486434280872345,-0.15541309118270874
1733698723007642600,6.079642578125,-0.07970904558897018,-0.2796454429626465,-0.050858981907367706
1733698723017598000,6.089597900390625,0.1293969452381134,-0.4502429962158203,0.023867657408118248
1733698723027553800,6.0995537109375,0.3137734532356262,-0.5711163878440857,0.06704708933830261
1733698723037510000,6.109510009765625,0.4494844973087311,-0.6249083876609802,0.09349197894334793
1733698723047465000,6.11946484375,0.5366878509521484,-0.6220998167991638,0.11477409303188324
1733698723057420800,6.1294208984375,0.5272985100746155,-0.5439088344573975,0.08933557569980621
1733698723067377000,6.139376953125,0.4090273082256317,-0.4716130793094635,0.023626072332262993
1733698723077331700,6.149331787109375,0.23649558424949646,-0.4135390520095825,-0.0269149336963892
1733698723087287800,6.159287841796875,0.0706419125199318,-0.3374940752983093,-0.012643586844205856
1733698723097244000,6.169243896484375,-0.007872585207223892,-0.20215654373168945,0.07698852568864822
1733698723107198700,6.17919873046875,-0.025202574208378792,-0.053020328283309937,0.14033155143260956
1733698723117154800,6.18915478515625,-0.02559627592563629,0.07655047625303268,0.1470884531736374
1733698723127110700,6.199110595703125,-0.012402976863086224,0.1411166936159134,0.12953129410743713
1733698723137066000,6.20906591796875,0.02076665870845318,0.10367134213447571,0.10586218535900116
1733698723147021800,6.219021728515625,0.0563851073384285,0.025469746440649033,0.07631388306617737
1733698723156978000,6.22897802734375,0.08021484315395355,-0.049379486590623856,0.03298238664865494
1733698723166933800,6.238933837890625,0.08067743480205536,-0.09959099441766739,-0.015599263831973076
1733698723176888800,6.248888916015625,0.04781888797879219,-0.12022798508405685,-0.05994869023561478
1733698723186845000,6.258844970703125,-0.01944829896092415,-0.12880869209766388,-0.07699691504240036
1733698723196800800,6.26880078125,-0.0917057916522026,-0.08994244039058685,-0.05069928616285324
1733698723206755800,6.278755859375,-0.1337597817182541,-0.009865712374448776,-0.0003269263543188572
1733698723216711700,6.288711669921875,-0.1400054544210434,0.07290463894605637,0.03429852053523064
1733698723226667800,6.298667724609375,-0.12296947091817856,0.137047678232193,0.03715582564473152
1733698723236622800,6.308622802734375,-0.08973579853773117,0.17880451679229736,0.019037414342164993
1733698723246579000,6.318578857421875,-0.048001669347286224,0.22837845981121063,-0.008335086517035961
1733698723256534800,6.32853466796875,-0.008271650411188602,0.30650967359542847,-0.03992404416203499
1733698723266489900,6.33848974609375,0.027286609634757042,0.39427173137664795,-0.07325536757707596
1733698723276446000,6.348446044921875,0.06549021601676941,0.4595659375190735,-0.09215405583381653
1733698723286401800,6.35840185546875,0.11359702795743942,0.48373547196388245,-0.09099584817886353
1733698723296356900,6.36835693359375,0.17012226581573486,0.45651334524154663,-0.07234298437833786
1733698723306312700,6.378312744140625,0.21838966012001038,0.39741674065589905,-0.0452173613011837
1733698723316268800,6.388268798828125,0.24587209522724152,0.33787405490875244,-0.022067882120609283
1733698723326225000,6.398224853515625,0.24255777895450592,0.2911542057991028,-0.010864763520658016
1733698723336179700,6.4081796875,0.2134011685848236,0.26189085841178894,-0.0061763278208673
1733698723346135800,6.4181357421875,0.17840218544006348,0.21455346047878265,-0.0007165815914049745
1733698723356091600,6.428091552734375,0.145722433924675,0.1370348036289215,0.01464243233203888
1733698723366047000,6.438046875,0.12069351971149445,0.031954195350408554,0.03270292282104492
1733698723376002800,6.4480029296875,0.1100928783416748,-0.08097224682569504,0.04294909909367561
1733698723385959000,6.457958984375,0.10339529812335968,-0.1964072287082672,0.035973213613033295
1733698723395913700,6.467913818359375,0.09033001959323883,-0.3004806637763977,0.019847674295306206
1733698723405869800,6.477869873046875,0.07021356374025345,-0.36567243933677673,0.007399793714284897
1733698723415826000,6.487825927734375,0.0419602170586586,-0.3967705965042114,0.0034668087027966976
1733698723425780700,6.49778076171875,0.00742114894092083,-0.40718328952789307,0.012415296398103237
1733698723435736800,6.50773681640625,-0.022164298221468925,-0.3912266194820404,0.029489820823073387
1733698723445692700,6.517692626953125,-0.04543206840753555,-0.3634490668773651,0.03431680053472519
1733698723455648000,6.52764794921875,-0.05200057476758957,-0.32487812638282776,0.019687555730342865
1733698723465603800,6.537603759765625,-0.03713374584913254,-0.2710612118244171,-0.00709026213735342
1733698723475559700,6.5475595703125,0.00010920560453087091,-0.19594669342041016,-0.026680970564484596
1733698723485514800,6.5575146484375,0.0634937658905983,-0.1053030788898468,-0.028340918943285942
1733698723495470800,6.567470947265625,0.14191238582134247,-0.011795209720730782,-0.016640324145555496
1733698723505427000,6.577427001953125,0.22298140823841095,0.056112200021743774,0.0025267128366976976
1733698723515381800,6.5873818359375,0.28884831070899963,0.05560566857457161,0.03687989339232445
1733698723525337900,6.597337890625,0.3195185959339142,-0.01996898278594017,0.07870350778102875
1733698723535293700,6.607293701171875,0.29968583583831787,-0.14452773332595825,0.12405475229024887
1733698723545250000,6.61725,0.2409609854221344,-0.28624439239501953,0.16167722642421722
1733698723555204900,6.627204833984375,0.16669508814811707,-0.3960723578929901,0.17958223819732666
1733698723565160700,6.63716064453125,0.07577316462993622,-0.43708184361457825,0.1633894294500351
1733698723575116800,6.64711669921875,-0.02453318051993847,-0.3997980058193207,0.13027501106262207
1733698723585071900,6.65707177734375,-0.11336664855480194,-0.31481069326400757,0.09510397911071777
1733698723595028000,6.667028076171875,-0.18445321917533875,-0.20121607184410095,0.061373159289360046
1733698723604983800,6.67698388671875,-0.23312434554100037,-0.06982024013996124,0.021337326616048813
1733698723614938600,6.686938720703125,-0.2642994225025177,0.08156326413154602,-0.028146306052803993
1733698723624895000,6.69689501953125,-0.27746686339378357,0.2429492324590683,-0.08010324835777283
1733698723634850800,6.706850830078125,-0.27717897295951843,0.38126128911972046,-0.12520787119865417
1733698723644806000,6.716805908203125,-0.26683977246284485,0.4778701364994049,-0.15505658090114594
1733698723654762500,6.726762451171875,-0.2389962524175644,0.5369973182678223,-0.16401423513889313
1733698723664718300,6.73671826171875,-0.19835641980171204,0.5686511397361755,-0.15969404578208923
1733698723674673400,6.74667333984375,-0.15183298289775848,0.5658984184265137,-0.1400451809167862
1733698723684629500,6.75662939453125,-0.09986939281225204,0.5206465125083923,-0.10863905400037766
1733698723694585300,6.76658544921875,-0.04561508074402809,0.43123969435691833,-0.06878415495157242
1733698723704540400,6.77654052734375,0.0051932381466031075,0.3146720826625824,-0.02859545685350895
1733698723714496300,6.786496337890625,0.05153422802686691,0.18127451837062836,0.019733473658561707
1733698723724452600,6.79645263671875,0.09526839852333069,0.036608677357435226,0.06150835007429123
1733698723734407400,6.806407470703125,0.13100267946720123,-0.10701096802949905,0.08897175639867783
1733698723744363300,6.81636328125,0.15136466920375824,-0.23135370016098022,0.09749732911586761
1733698723754319400,6.8263193359375,0.14696353673934937,-0.32307949662208557,0.09640903770923615
1733698723764274400,6.8362744140625,0.1315840482711792,-0.36896684765815735,0.09034741669893265
1733698723774230500,6.84623046875,0.10271554440259933,-0.36762735247612,0.07941573858261108
1733698723784186400,6.856186279296875,0.06975600123405457,-0.32197144627571106,0.06304875016212463
1733698723794142500,6.866142578125,0.0365738645195961,-0.2514289319515228,0.043288860470056534
1733698723804097500,6.87609765625,0.002492859959602356,-0.16085773706436157,0.023853376507759094
1733698723814053400,6.886053466796875,-0.026804253458976746,-0.07499725371599197,0.007308186963200569
1733698723824009500,6.896009521484375,-0.05542711168527603,0.007628912106156349,-0.0001691705547273159
1733698723833964300,6.90596435546875,-0.08214105665683746,0.09145510196685791,-0.002927990397438407
1733698723843920400,6.91592041015625,-0.10678967088460922,0.13654348254203796,-0.005526969209313393
1733698723853876500,6.92587646484375,-0.11926783621311188,0.14365240931510925,-0.003925107419490814
1733698723863831600,6.93583154296875,-0.1220652163028717,0.16330388188362122,0.0019359774887561798
1733698723873787400,6.945787353515625,-0.11512123048305511,0.2032620757818222,0.011703572236001492
1733698723883743500,6.955743408203125,-0.10438469797372818,0.18849217891693115,0.022276854142546654
1733698723893698600,6.965698486328125,-0.08941781520843506,0.1621064990758896,0.029684467241168022
1733698723903654400,6.975654296875,-0.08187361061573029,0.14777736365795135,0.04058265686035156
1733698723913610500,6.985610595703125,-0.07639005780220032,0.13276363909244537,0.045528117567300797
1733698723923565300,6.9955654296875,-0.07351917028427124,0.10910731554031372,0.04961926490068436
1733698723933521400,7.005521484375,-0.07341817766427994,0.08057408034801483,0.04260042682290077
1733698723943477500,7.0154775390625,-0.07306238263845444,0.05954202637076378,0.014413264580070972
1733698723953432300,7.025432373046875,-0.07037881016731262,0.06279831379652023,-0.022687559947371483
1733698723963388400,7.035388427734375,-0.05966784060001373,0.08823149651288986,-0.06353965401649475
1733698723973344300,7.04534423828125,-0.05297958105802536,0.12685266137123108,-0.09470423310995102
1733698723983299600,7.055299560546875,-0.051027216017246246,0.17926473915576935,-0.11699488759040833
1733698723993255400,7.06525537109375,-0.0564250648021698,0.260563462972641,-0.12799137830734253
1733698724003211500,7.07521142578125,-0.07399127632379532,0.3633846342563629,-0.13028381764888763
1733698724013166300,7.085166259765625,-0.0958547294139862,0.4639764130115509,-0.12505367398262024
1733698724023122400,7.095122314453125,-0.11065764725208282,0.5577144026756287,-0.11919206380844116
1733698724033078500,7.10507861328125,-0.1142214760184288,0.6167961955070496,-0.12518669664859772
1733698724043033300,7.115033447265625,-0.10170967876911163,0.6281790733337402,-0.133998304605484
1733698724052989400,7.124989501953125,-0.0732085183262825,0.6018727421760559,-0.1404707133769989
1733698724062945300,7.1349453125,-0.04017306864261627,0.5507360696792603,-0.13182049989700317
1733698724072900400,7.144900390625,-0.008576592430472374,0.4844687581062317,-0.11291064321994781
1733698724082856400,7.1548564453125,0.01973813585937023,0.40535396337509155,-0.08413918316364288
1733698724092812300,7.164812255859375,0.04384675994515419,0.31167659163475037,-0.05921313539147377
1733698724102767400,7.174767333984375,0.05493509769439697,0.19730208814144135,-0.04363364353775978
1733698724112723500,7.184723388671875,0.0601327084004879,0.06311696022748947,-0.035106439143419266
1733698724122679600,7.194679443359375,0.05525326356291771,-0.0882861465215683,-0.03849957138299942
1733698724132634400,7.20463427734375,0.04401778057217598,-0.24036362767219543,-0.04377416521310806
1733698724142590500,7.214590576171875,0.034711360931396484,-0.3881818354129791,-0.05216525122523308
1733698724152546300,7.22454638671875,0.03062376193702221,-0.5145961046218872,-0.052762094885110855
1733698724162501400,7.23450146484375,0.04158932715654373,-0.6075031161308289,-0.0460975356400013
1733698724172457500,7.24445751953125,0.05482031777501106,-0.6604619026184082,-0.033310431987047195
1733698724182413300,7.254413330078125,0.07641615718603134,-0.685733437538147,-0.008241831324994564
1733698724192369400,7.264369384765625,0.1031874418258667,-0.6769378781318665,0.016746673732995987
1733698724202324500,7.274324462890625,0.11725772172212601,-0.6512923836708069,0.02855086885392666
1733698724212280600,7.284280517578125,0.12014936655759811,-0.6194607615470886,0.02425483614206314
1733698724222236400,7.294236328125,0.11741642653942108,-0.5838258266448975,0.010317448526620865
1733698724232191200,7.304191162109375,0.1104583889245987,-0.5425229072570801,0.0005097781540825963
1733698724242147300,7.314147216796875,0.10509958118200302,-0.5141834020614624,-0.008650964125990868
1733698724252103400,7.324103515625,0.10391940921545029,-0.47358185052871704,-0.009118946269154549
1733698724262058500,7.33405859375,0.10764836519956589,-0.4191868007183075,-0.00249220198020339
1733698724272014300,7.344014404296875,0.11805497854948044,-0.36460182070732117,0.006982621271163225
1733698724281970400,7.353970458984375,0.12816300988197327,-0.3136976361274719,0.006953592877835035
1733698724291925500,7.363925537109375,0.1314210146665573,-0.2820728123188019,-0.004248787648975849
1733698724301881300,7.37388134765625,0.11723808199167252,-0.2523130476474762,-0.029166655614972115
1733698724311837400,7.38383740234375,0.10288394242525101,-0.22146819531917572,-0.05038604885339737
1733698724321792300,7.393792236328125,0.08083856105804443,-0.17639286816120148,-0.06367974728345871
1733698724331748600,7.40374853515625,0.05334644019603729,-0.11560112237930298,-0.07258270680904388
1733698724341704400,7.413704345703125,0.026997124776244164,-0.043330658227205276,-0.06924709677696228
1733698724351659300,7.4236591796875,0.014581376686692238,0.03833800554275513,-0.05449124425649643
1733698724361615400,7.433615478515625,0.00563022680580616,0.11944510787725449,-0.03583047538995743
1733698724371571200,7.4435712890625,-0.004654044285416603,0.1794670671224594,-0.027609333395957947
1733698724381526500,7.453526611328125,-0.014452612958848476,0.22966445982456207,-0.029868490993976593
1733698724391482400,7.463482421875,-0.019055018201470375,0.25961732864379883,-0.04927537962794304
1733698724401438500,7.4734384765625,-0.015392106957733631,0.24819210171699524,-0.07280360162258148
1733698724411393300,7.483393310546875,0.0017483446281403303,0.22322699427604675,-0.0967092365026474
1733698724421349600,7.493349609375,0.025851815938949585,0.1910264492034912,-0.10121743381023407
1733698724431305500,7.503305419921875,0.047176606953144073,0.15916135907173157,-0.08278892934322357
1733698724441260300,7.51326025390625,0.060303062200546265,0.13259845972061157,-0.04473848268389702
1733698724451216400,7.52321630859375,0.05793055146932602,0.11426486819982529,0.0010316467378288507
1733698724461172200,7.533172119140625,0.05015731602907181,0.09161068499088287,0.04064057767391205
1733698724471127600,7.54312744140625,0.03658391535282135,0.05988636612892151,0.05643389746546745
1733698724481083400,7.55308349609375,0.025659628212451935,0.0194071177393198,0.05264182388782501
1733698724491039500,7.56303955078125,0.026593171060085297,-0.004300205502659082,0.030347680673003197
1733698724500994600,7.57299462890625,0.049266792833805084,-0.033848244696855545,0.004368011839687824
1733698724510950400,7.582950439453125,0.07274001091718674,-0.08530069887638092,-0.029589228332042694
1733698724520906500,7.592906494140625,0.09243941307067871,-0.149271160364151,-0.06134502962231636
1733698724530861300,7.602861328125,0.10839684307575226,-0.21105346083641052,-0.08158863335847855
1733698724540817400,7.6128173828125,0.12992583215236664,-0.2687489688396454,-0.08586620539426804
1733698724550773500,7.6227734375,0.16346068680286407,-0.32215026021003723,-0.08648915588855743
1733698724560728300,7.632728271484375,0.20531626045703888,-0.3706432282924652,-0.08508353680372238
1733698724570684400,7.642684326171875,0.24281707406044006,-0.4346103072166443,-0.0801045224070549
1733698724580640300,7.65264013671875,0.26223844289779663,-0.5100307464599609,-0.07111023366451263
1733698724590595600,7.662595703125,0.26109012961387634,-0.5679535269737244,-0.040898311883211136
1733698724600551400,7.672551513671875,0.24647684395313263,-0.5557655692100525,0.03145764395594597
1733698724610507500,7.682507568359375,0.23230014741420746,-0.42513909935951233,0.1403866410255432
1733698724620462300,7.69246240234375,0.21844105422496796,-0.2553090751171112,0.22796575725078583
1733698724630418200,7.702418212890625,0.18099159002304077,-0.11435063183307648,0.26048576831817627
1733698724640374500,7.71237451171875,0.12762024998664856,0.003305689198896289,0.24092724919319153
1733698724650329300,7.722329345703125,0.06424371153116226,0.10769651085138321,0.19002653658390045
1733698724660285400,7.732285400390625,0.007922113873064518,0.21021009981632233,0.1298295110464096
1733698724670241300,7.7422412109375,-0.03429654240608215,0.29267632961273193,0.07915490120649338
1733698724680196600,7.752196533203125,-0.06372181326150894,0.3456796407699585,0.03962932899594307
1733698724690152400,7.76215234375,-0.08303675055503845,0.3816749155521393,0.015290327370166779
1733698724700108500,7.772108642578125,-0.10186716169118881,0.4105113446712494,0.011200777254998684
1733698724710063400,7.7820634765625,-0.11963172256946564,0.4381401538848877,0.02493191882967949
1733698724720019500,7.79201953125,-0.14429259300231934,0.463748037815094,0.038618702441453934
1733698724729975600,7.8019755859375,-0.16830845177173615,0.47554078698158264,0.04279586300253868
1733698724739930400,7.811930419921875,-0.19249555468559265,0.471403568983078,0.03345722332596779
1733698724749886500,7.821886474609375,-0.21108953654766083,0.44763070344924927,0.011613213457167149
1733698724759842300,7.83184228515625,-0.22868983447551727,0.40723320841789246,-0.02360229752957821
1733698724769797600,7.841797607421875,-0.23919788002967834,0.35041067004203796,-0.052232611924409866
1733698724779753500,7.85175341796875,-0.23829160630702972,0.2776307463645935,-0.0730247050523758
1733698724789709600,7.86170947265625,-0.2218400090932846,0.19460280239582062,-0.08063653111457825
1733698724799664400,7.871664306640625,-0.19259557127952576,0.10892172157764435,-0.07306702435016632
1733698724809620500,7.881620361328125,-0.14513751864433289,0.02809027209877968,-0.05470586568117142
1733698724819576600,7.89157666015625,-0.09193050116300583,-0.052369680255651474,-0.033038120716810226
1733698724829531400,7.901531494140625,-0.04368387162685394,-0.12776856124401093,-0.01458694227039814
1733698724839487500,7.911487548828125,-0.0055063944309949875,-0.19269269704818726,0.0008689789683558047
1733698724849443300,7.921443359375,0.01642511412501335,-0.25715211033821106,0.01614312082529068
1733698724859398400,7.9313984375,0.02309047430753708,-0.3203904628753662,0.02390330471098423
1733698724869354500,7.9413544921875,0.014021267183125019,-0.37868112325668335,0.026494324207305908
1733698724879310300,7.951310302734375,-0.005053091794252396,-0.42063602805137634,0.026217356324195862
1733698724889265700,7.961265625,-0.022993844002485275,-0.4453592896461487,0.0255668256431818
1733698724899221500,7.971221435546875,-0.035512566566467285,-0.44383037090301514,0.0259212926030159
1733698724909177600,7.981177490234375,-0.03646295517683029,-0.43107226490974426,0.03244289010763168
1733698724919132400,7.99113232421875,-0.030092142522335052,-0.4016563296318054,0.03567783161997795
1733698724929088300,8.001088134765626,-0.024408670142292976,-0.3532525897026062,0.03796682879328728
1733698724939044400,8.01104443359375,-0.01757233589887619,-0.2904834747314453,0.03935300186276436
1733698724948999400,8.02099951171875,-0.0075888060964643955,-0.2125720977783203,0.041637662798166275
1733698724958955500,8.03095556640625,-0.000002525513991713524,-0.12017000466585159,0.04108745604753494
1733698724968910300,8.040910400390626,0.013145944103598595,-0.013173796236515045,0.04111397638916969
1733698724978866400,8.050866455078125,0.021801484748721123,0.07039326429367065,0.03538738191127777
1733698724988822500,8.060822509765625,0.026196300983428955,0.13496164977550507,0.03111390955746174
1733698724998777300,8.07077734375,0.024978971108794212,0.16832253336906433,0.027948474511504173
1733698725008733400,8.0807333984375,0.014981741085648537,0.1735975742340088,0.02315465547144413
1733698725018689300,8.090689208984376,0.004751740023493767,0.1755390167236328,0.018737802281975746
1733698725028644600,8.10064453125,-0.01049297396093607,0.16021090745925903,0.008781316690146923
1733698725038600400,8.110600341796875,-0.031022749841213226,0.14117011427879333,-0.003802386112511158
1733698725048556500,8.120556640625,-0.051239993423223495,0.125603586435318,-0.01780121959745884
1733698725058511600,8.13051171875,-0.06830153614282608,0.12339076399803162,-0.02382262609899044
1733698725068467500,8.140467529296876,-0.07608912140130997,0.1297793686389923,-0.024446390569210052
1733698725078423600,8.150423583984375,-0.07962420582771301,0.13137033581733704,-0.026007268577814102
1733698725088378400,8.16037841796875,-0.07790491729974747,0.1245557963848114,-0.02262142114341259
1733698725098334500,8.17033447265625,-0.05748246982693672,0.11136941611766815,-0.019053051248192787
1733698725108290600,8.18029052734375,-0.03333195671439171,0.1058332696557045,-0.019108492881059647
1733698725118245400,8.190245361328126,-0.015801962465047836,0.09819905459880829,-0.02442336268723011
1733698725128201500,8.200201416015625,-0.0014748249668627977,0.08054729551076889,-0.026627862825989723
1733698725138157300,8.2101572265625,0.006852880120277405,0.04830440133810043,-0.027341322973370552
1733698725148112600,8.220112548828125,0.017950307577848434,0.014634117484092712,-0.027926869690418243
1733698725158068500,8.230068359375,0.021373268216848373,-0.029943205416202545,-0.03287901356816292
1733698725168024600,8.240024658203126,0.009839409030973911,-0.07858625799417496,-0.041053175926208496
1733698725177979400,8.2499794921875,-0.005100391339510679,-0.11450431495904922,-0.03887417912483215
1733698725187935200,8.259935302734375,-0.022269826382398605,-0.14166027307510376,-0.036579884588718414
1733698725197891600,8.2698916015625,-0.033642590045928955,-0.1575537472963333,-0.028883345425128937
1733698725207846400,8.279846435546874,-0.03185863792896271,-0.14792197942733765,-0.017017552629113197
1733698725217802500,8.289802490234376,-0.023616157472133636,-0.12264113873243332,-0.005092982202768326
1733698725227758300,8.29975830078125,-0.00876596663147211,-0.07735561579465866,0.004436809103935957
1733698725237713400,8.30971337890625,0.002507993718609214,-0.026289768517017365,0.007039516232907772
1733698725247669500,8.31966943359375,0.006790665909647942,0.024491040036082268,0.0076088556088507175
1733698725257625300,8.329625244140624,0.0031418688595294952,0.07872258871793747,0.0012327153235673904
1733698725267580400,8.339580322265626,-0.0054635945707559586,0.11212754249572754,-0.007113493978977203
1733698725277536500,8.34953662109375,-0.00778693612664938,0.13923506438732147,-0.012082153931260109
1733698725287492600,8.35949267578125,-0.014524709433317184,0.1564999222755432,-0.01809755712747574
1733698725297447400,8.369447509765624,-0.020588727667927742,0.16964954137802124,-0.023008957505226135
1733698725307403500,8.379403564453124,-0.026320330798625946,0.17416897416114807,-0.025827821344137192
1733698725317359400,8.389359375,-0.028852730989456177,0.1819203644990921,-0.026505595073103905
1733698725327314400,8.399314453125,-0.02555784583091736,0.19055098295211792,-0.027491886168718338
1733698725337270500,8.4092705078125,-0.021368693560361862,0.19371268153190613,-0.027870051562786102
1733698725347226400,8.419226318359375,-0.0128102358430624,0.19040590524673462,-0.027599282562732697
1733698725357181400,8.429181396484376,-0.0037078168243169785,0.1853664070367813,-0.025841863825917244
1733698725367137500,8.439137451171876,-0.0006761676049791276,0.17157962918281555,-0.02474142424762249
1733698725377092400,8.44909228515625,-0.0007704435265623033,0.14265209436416626,-0.02449827827513218
1733698725387048400,8.45904833984375,-0.0008385515538975596,0.1068563163280487,-0.021830489858984947
1733698725397004300,8.46900439453125,-0.00002495583612471819,0.06704232096672058,-0.019605152308940887
1733698725406959600,8.478959716796876,0.0011504581198096275,0.027392026036977768,-0.015887297689914703
1733698725416915500,8.48891552734375,0.003817081218585372,-0.007296446245163679,-0.01385131198912859
1733698725426871600,8.49887158203125,0.008725272491574287,-0.038471393287181854,-0.01086538378149271
1733698725436826400,8.508826416015625,0.012239313684403896,-0.06648679077625275,-0.0069982074201107025
1733698725446782500,8.518782470703124,0.015697313472628593,-0.08332963287830353,-0.0036778338253498077
1733698725456738600,8.528738525390626,0.01777750812470913,-0.09314950555562973,-0.0032490650191903114
1733698725466693400,8.538693359375,0.014646277762949467,-0.09715735167264938,-0.001827147789299488
1733698725476649500,8.5486494140625,0.009999861009418964,-0.09508673846721649,-0.0013568333815783262
1733698725486605300,8.558605224609375,0.0061242831870913506,-0.07956522703170776,-0.0008085612207651138
1733698725496560400,8.568560302734374,0.0035322285257279873,-0.06147756800055504,-0.0001861806958913803
1733698725506516500,8.5785166015625,0.003777146805077791,-0.036316391080617905,0.00006744335405528545
1733698725516472300,8.588472412109375,0.006062139291316271,-0.007142793387174606,0.0009454875835217535
1733698725526427400,8.598427490234375,0.005374688655138016,0.016746679320931435,0.0007817213190719485
1733698725536383500,8.608383544921875,0.0031525467056781054,0.03605752810835838,-0.002863080706447363
1733698725546339600,8.618339599609374,-0.004139781929552555,0.0459027960896492,-0.006414902396500111
1733698725556294400,8.62829443359375,-0.014134891331195831,0.05434874817728996,-0.007386690005660057
1733698725566250500,8.63825048828125,-0.019879037514328957,0.05543072149157524,-0.008571050129830837
1733698725576206300,8.648206298828125,-0.02253740467131138,0.059120532125234604,-0.0077063217759132385
1733698725586161400,8.658161376953124,-0.019933469593524933,0.06480042636394501,-0.008342203684151173
1733698725596117500,8.668117431640624,-0.014107536524534225,0.06976695358753204,-0.009995494969189167
1733698725606072300,8.678072265625,-0.009797957725822926,0.0746067687869072,-0.011391696520149708
1733698725616028700,8.688028564453125,-0.0036772149614989758,0.07958661019802094,-0.00981350801885128
1733698725625984500,8.697984619140625,-0.0021786782890558243,0.08272561430931091,-0.010794956237077713
1733698725635939300,8.707939208984374,-0.0020127634052187204,0.07738490402698517,-0.01204397901892662
1733698725645895400,8.7178955078125,-0.0030994825065135956,0.07262791693210602,-0.012896401807665825
1733698725655851000,8.72785107421875,0.00011149072088301182,0.06518198549747467,-0.01268761046230793
1733698725665806000,8.73780615234375,-0.0008107619942165911,0.048488225787878036,-0.013596813194453716
1733698725675762000,8.747761962890625,-0.0009969170205295086,0.028577366843819618,-0.011712361127138138
1733698725685718000,8.757718017578124,0.003022850723937154,0.01882687583565712,-0.004407980479300022
1733698725695673000,8.767673095703126,0.0056676361709833145,0.010951907373964787,0.0033822981640696526
1733698725705629200,8.777629150390625,0.008279282599687576,-0.001330539584159851,0.007188166491687298
1733698725715585000,8.7875849609375,0.008780223317444324,-0.0032594671938568354,0.009105908684432507
1733698725725539800,8.797539794921875,0.013895821757614613,-0.0030464462470263243,0.00824001431465149
1733698725735496000,8.807495849609374,0.014453752897679806,-0.0057990895584225655,0.006621344946324825
1733698725745452000,8.8174521484375,0.014135323464870453,-0.00658297399058938,0.0046548498794436455
1733698725755407000,8.827406982421875,0.011041795834898949,-0.00752679817378521,0.0011972677893936634
1733698725765363000,8.837363037109375,0.004562983289361,-0.003379383822903037,-0.0016025877557694912
1733698725775319000,8.847319091796875,-0.0026014524046331644,0.0019349539652466774,-0.003493964672088623
1733698725785274000,8.857274169921874,-0.009205524809658527,0.004006821196526289,-0.006849070079624653
1733698725795230200,8.867230224609376,-0.009876641444861889,0.002282158238813281,-0.010142602026462555
1733698725805186000,8.87718603515625,-0.010887611657381058,-0.0035223958548158407,-0.011792641133069992
1733698725815140900,8.887140869140625,-0.012343029491603374,-0.016203569248318672,-0.012762830592691898
1733698725825097000,8.897096923828125,-0.012884058989584446,-0.028504103422164917,-0.012933346442878246
1733698725835052000,8.907052001953126,-0.014823639765381813,-0.04066969081759453,-0.009513048455119133
1733698725845008100,8.917008056640626,-0.015300345607101917,-0.0443672239780426,-0.007804099004715681
1733698725854964000,8.9269638671875,-0.010858459398150444,-0.04124600067734718,-0.0036682095378637314
1733698725864919000,8.9369189453125,-0.00698762945830822,-0.033465199172496796,-0.0022585708647966385
1733698725874875100,8.946875244140625,-0.00351326959207654,-0.018297165632247925,0.0009593265713192523
1733698725884831000,8.9568310546875,0.00012149929534643888,-0.0007198873208835721,0.00020856410264968872
1733698725894786000,8.9667861328125,0.00126745761372149,0.016929946839809418,0.0018032649531960487
1733698725904742000,8.976741943359375,-0.000009578419849276543,0.03432402387261391,0.003075291868299246
1733698725914698200,8.9866982421875,-0.0017763194628059864,0.051157865673303604,0.003088075201958418
1733698725924653000,8.996653076171874,-0.0036606788635253906,0.06274861842393875,0.0023098799865692854
1733698725934609000,9.00660888671875,-0.004765357822179794,0.06729038059711456,0.0029780669137835503
1733698725944565000,9.01656494140625,-0.00686072651296854,0.06825856119394302,0.0028900541365146637
1733698725954520000,9.02652001953125,-0.005650852341204882,0.0637945756316185,0.0036511854268610477
1733698725964476200,9.03647607421875,-0.007293472532182932,0.05585181340575218,0.005675868596881628
1733698725974431000,9.046430908203124,-0.007406123913824558,0.042142391204833984,0.006918232887983322
1733698725984386800,9.05638671875,-0.007720228284597397,0.02945048362016678,0.005887942388653755
1733698725994343200,9.06634326171875,-0.008594810962677002,0.01862047240138054,0.003714003600180149
1733698726004298000,9.076298095703125,-0.008705133572220802,0.01282726600766182,0.0020092129707336426
1733698726014254000,9.086254150390625,-0.007098714355379343,0.008396830409765244,0.0013287754263728857
1733698726024210000,9.0962099609375,-0.009818260557949543,0.0024691929575055838,0.001364308875054121
1733698726034165200,9.106165283203126,-0.013097943738102913,-0.002508255187422037,0.0012404718436300755
1733698726044121000,9.11612109375,-0.014878353103995323,-0.007398231886327267,0.0024884322192519903
1733698726054077200,9.1260771484375,-0.014013092033565044,-0.01274719089269638,0.0008476586081087589
1733698726064032000,9.136031982421875,-0.01368020847439766,-0.01836884766817093,0.0014359408523887396
1733698726073987800,9.14598779296875,-0.010500394739210606,-0.02349463291466236,0.0005789357237517834
1733698726083944200,9.155944091796876,-0.006698083132505417,-0.030876968055963516,0.00036913331132382154
1733698726093899000,9.16589892578125,-0.0014766892418265343,-0.03593963757157326,0.0022101765498518944
1733698726103855000,9.175855224609375,0.0013047469547018409,-0.036699328571558,0.005480695981532335
1733698726113811000,9.18581103515625,0.004332228563725948,-0.03166888281702995,0.006826391443610191
1733698726123766000,9.19576611328125,0.006818550638854504,-0.021186014637351036,0.007410017773509026
1733698726133722000,9.20572216796875,0.007290995679795742,-0.013374696485698223,0.008414030075073242
1733698726143677000,9.215677001953125,0.005431508645415306,-0.004128499422222376,0.009061875753104687
1733698726153633000,9.225633056640625,0.0022895110305398703,0.0024425843730568886,0.004724118858575821
1733698726163589000,9.235589111328125,-0.0008894904749467969,0.005027302540838718,0.0035772447008639574
1733698726173544000,9.2455439453125,-0.005637107416987419,0.007093116641044617,-0.0006087119691073895
1733698726183500000,9.2555,-0.009497368708252907,0.018039515241980553,-0.0034987851977348328
1733698726193455900,9.265455810546875,-0.010700318962335587,0.03321021422743797,-0.0006638503400608897
1733698726203411200,9.2754111328125,-0.011040551587939262,0.043258000165224075,0.002218542853370309
1733698726213367000,9.285366943359374,-0.010220031253993511,0.046917982399463654,0.003095521591603756
1733698726223323100,9.2953232421875,-0.006277722772210836,0.04196300730109215,0.006639295723289251
1733698726233278000,9.30527783203125,-0.0102293211966753,0.024240469560027122,0.004227004013955593
1733698726243233800,9.31523388671875,-0.017631515860557556,-0.0003497891593724489,0.0014246492646634579
1733698726253190100,9.325190185546875,-0.022195640951395035,-0.028739087283611298,-0.003228159621357918
1733698726263145000,9.33514501953125,-0.02433602139353752,-0.05215267091989517,-0.005333515349775553
1733698726273101000,9.34510107421875,-0.02710704132914543,-0.06870235502719879,-0.008468322455883026
1733698726283056000,9.35505615234375,-0.021744970232248306,-0.07063815742731094,-0.007253298535943031
1733698726293012200,9.36501220703125,-0.010912030935287476,-0.054950546473264694,-0.005230095237493515
1733698726302968000,9.374968017578125,-0.000588891445659101,-0.02794039621949196,-0.004297429695725441
1733698726312923000,9.3849228515625,0.00732815358787775,0.0041389768011868,0.0007513909367844462
1733698726322879000,9.39487890625,0.012165185064077377,0.03509126603603363,0.002794733038172126
1733698726332835000,9.4048349609375,0.015903465449810028,0.05364471301436424,0.0068051875568926334
1733698726342790100,9.4147900390625,0.020097486674785614,0.06614428758621216,0.0041935378685593605
1733698726352746000,9.42474609375,0.022914312779903412,0.06990253925323486,0.0025511663407087326
1733698726362702000,9.4347021484375,0.024534711614251137,0.06253749877214432,0.0002563842572271824
1733698726372657200,9.4446572265625,0.02484310418367386,0.048929546028375626,-0.0005686631193384528
1733698726382613000,9.454613037109375,0.021413534879684448,0.03566864877939224,0.00023063120897859335
1733698726392568000,9.464568115234375,0.015073347836732864,0.021193303167819977,-0.0006048023933544755
1733698726402524000,9.47452392578125,0.007517253048717976,0.010098052211105824,-0.0025754068046808243
1733698726412480000,9.48447998046875,-0.00024559570010751486,0.004414599388837814,-0.0038209669291973114
1733698726422435000,9.49443505859375,-0.0057680136524140835,-0.001151287229731679,-0.006509691476821899
1733698726432391000,9.504390869140625,-0.010903386399149895,-0.0054104807786643505,-0.00630303006619215
1733698726442347000,9.514346923828125,-0.013367004692554474,-0.0019998757634311914,-0.004881993867456913
1733698726452302000,9.524302001953124,-0.01394251361489296,0.003360002301633358,-0.003605274250730872
1733698726462258200,9.534258056640626,-0.01331027876585722,0.01107677724212408,-0.003620987059548497
1733698726472214000,9.544214111328126,-0.009282514452934265,0.01676156185567379,-0.00038444739766418934
1733698726482169000,9.554169189453125,-0.003943061456084251,0.018999433144927025,-0.00013638241216540337
1733698726492125000,9.564125,0.0020099026151001453,0.025908738374710083,0.001060708425939083
1733698726502081000,9.5740810546875,0.005478664301335812,0.022796042263507843,0.0014524473808705807
1733698726512036000,9.5840361328125,0.007836893200874329,0.01970038376748562,0.002801604801788926
1733698726521992000,9.593991943359375,0.008369386196136475,0.0203193761408329,0.004444699734449387
1733698726531947000,9.603947021484375,0.006363227032124996,0.021348686888813972,0.003911535255610943
1733698726541903000,9.613903076171875,0.0006909002549946308,0.021981680765748024,0.002886660862714052
1733698726551859200,9.623859130859374,-0.003948059864342213,0.031082766130566597,-0.0011853121686726809
1733698726561814000,9.63381396484375,-0.004468374419957399,0.03609912842512131,-0.004541592672467232
1733698726571769900,9.643769775390625,-0.0034121645148843527,0.04147951304912567,-0.004992732312530279
1733698726581726000,9.653725830078125,-0.003531350288540125,0.05113101750612259,-0.0023769233375787735
1733698726591681000,9.663680908203125,0.0017800580244511366,0.052247945219278336,-0.0013654547510668635
1733698726601637000,9.67363720703125,0.0025863954797387123,0.046391360461711884,-0.0020332103595137596
1733698726611593000,9.683593017578126,0.00329426396638155,0.04178941622376442,-0.0023927369620651007
1733698726621548000,9.693548095703125,0.004075588192790747,0.035445842891931534,-0.0028344811871647835
1733698726631504100,9.703504150390625,0.002233213512226939,0.026487238705158234,-0.0031460709869861603
1733698726641459000,9.713458984375,0.002431074157357216,0.022183982655405998,-0.004029339645057917
1733698726651416300,9.723416259765624,0.004300080239772797,0.01774609088897705,-0.004963309969753027
1733698726661372200,9.7333720703125,0.0068239495158195496,0.015335407108068466,-0.0018112040124833584
1733698726671327200,9.7433271484375,0.008850349113345146,0.01464005559682846,-0.002750501036643982
1733698726681283300,9.753283447265625,0.009358427487313747,0.013242114335298538,-0.000989697058685124
1733698726691239400,9.763239501953125,0.0081666624173522,0.008056140504777431,-0.002134324051439762
1733698726701194200,9.7731943359375,0.006001375149935484,-0.0015527390642091632,-0.0025037797167897224
1733698726711150000,9.783150146484376,0.004495890345424414,-0.015971360728144646,-0.003440946340560913
1733698726721105400,9.79310546875,-0.0003028513165190816,-0.030222875997424126,-0.005426980089396238
1733698726731061200,9.803061279296875,-0.002814744831994176,-0.04240976646542549,-0.006952705327421427
1733698726741017300,9.813017333984375,-0.005109590478241444,-0.05107942223548889,-0.006990521680563688
1733698726750972200,9.82297216796875,-0.007604706101119518,-0.05520838499069214,-0.005493293050676584
1733698726760928500,9.832928466796876,-0.006122733000665903,-0.053125154227018356,-0.0037963129580020905
1733698726770884400,9.84288427734375,-0.008575504645705223,-0.04634660854935646,-0.005265312734991312
1733698726780839200,9.852839111328125,-0.006073124706745148,-0.04120481759309769,-0.0067222146317362785
1733698726790795300,9.862795166015625,-0.006669406779110432,-0.03470590338110924,-0.005071321036666632
1733698726800751000,9.872751220703124,-0.0033485745079815388,-0.027778560295701027,-0.006388977635651827
1733698726810706400,9.88270654296875,0.0008291262201964855,-0.01966976746916771,-0.0028549623675644398
1733698726820662300,9.892662353515625,0.0038200505077838898,-0.011282701976597309,-0.00038153259083628654
1733698726830617000,9.9026171875,0.0073753707110881805,-0.0036404950078576803,0.000810764729976654
1733698726840573200,9.9125732421875,0.011035417206585407,0.0016937190666794777,0.0018283207900822163
1733698726850529300,9.922529296875,0.01369644794613123,0.003123304108157754,0.0017582796281203628
1733698726860484400,9.932484375,0.014587009325623512,0.00423650536686182,0.002015807433053851
1733698726870440200,9.942440185546875,0.011513987556099892,0.0007213989738374949,0.0023881173692643642
1733698726880396300,9.952396240234375,0.008328987285494804,0.0017411825247108936,-0.0021528899669647217
1733698726890351400,9.962351318359374,0.0019685588777065277,0.005294904578477144,-0.0024748663417994976
1733698726900307200,9.97230712890625,-0.001246553030796349,0.014683423563838005,-0.003917588386684656
1733698726910263300,9.98226318359375,-0.005334238987416029,0.03185894712805748,-0.0017580307321622968
1733698726920218000,9.992218017578125,-0.004582551307976246,0.04709508270025253,-0.0007850904949009418
1733698726930174500,10.002174560546875,-0.0011827596463263035,0.05602652579545975,-0.003635205328464508
1733698726940129300,10.01212939453125,0.001235039671882987,0.057860761880874634,-0.0025331866927444935
1733698726950085400,10.02208544921875,0.004278500098735094,0.049916550517082214,-0.0073532420210540295
1733698726960041200,10.032041259765625,0.00014022598043084145,0.035353709012269974,-0.0073054214008152485
1733698726969996300,10.041996337890625,-0.003097645239904523,0.01679520681500435,-0.006073709111660719
1733698726979952400,10.051952392578125,-0.003586592385545373,-0.001162765664048493,-0.004994571208953857
1733698726989908200,10.061908203125,-0.005632432643324137,-0.01427244208753109,-0.0034083924256265163
1733698726999863300,10.07186328125,-0.003336931811645627,-0.02210884727537632,0.0003693397156894207
1733698727009819400,10.0818193359375,0.001804567058570683,-0.026663651689887047,-0.0008208268554881215
1733698727019774200,10.091774169921875,0.007160393055528402,-0.02131740003824234,-0.000480285263620317
1733698727029730300,10.101730224609375,0.008088771253824234,-0.01746300794184208,-0.0012059964938089252
1733698727039686100,10.11168603515625,0.007728577125817537,-0.009663206525146961,0.0014803973026573658
1733698727049641500,10.121641357421876,0.008071592077612877,-0.0038039861246943474,0.002739806193858385
1733698727059597300,10.131597412109375,0.00700865825638175,0.0000037689460441470146,0.0031570219434797764
1733698727069553400,10.141553466796875,0.003853078465908766,0.0008032498881220818,0.0007455296581611037
1733698727079508200,10.15150830078125,0.0017513150814920664,-0.0007483120425604284,0.0012805717997252941
1733698727089464000,10.161464111328126,0.001467688474804163,-0.004405897576361895,-0.0010254594963043928
1733698727099419400,10.17141943359375,0.002037936821579933,-0.006782867014408112,-0.00019805331248790026
1733698727109375200,10.181375244140625,0.0011630882509052753,-0.005121587309986353,-0.0023136683739721775
1733698727119331300,10.191331298828125,0.00011533638462424278,-0.0028913605492562056,-0.00017909309826791286
1733698727129286400,10.201286376953124,-0.000957917480263859,0.0021590578835457563,0.00027843809220939875
1733698727139242200,10.2112421875,-0.0009740375680848956,0.00097962177824229,-0.0001925117103382945
1733698727149198300,10.2211982421875,-0.004098990932106972,-0.0012305356794968247,0.0017918095691129565
1733698727159153200,10.231153076171875,-0.00629436643794179,-0.0037178630009293556,0.001527560641989112
1733698727169109200,10.241109130859375,-0.007956445217132568,-0.008031117729842663,0.0007917291950434446
1733698727179065300,10.2510654296875,-0.009041877463459969,-0.010016879066824913,0.0005949094193056226
1733698727189020400,10.2610205078125,-0.008765441365540028,-0.009286107495427132,0.0032657936681061983
1733698727198976300,10.270976318359375,-0.003954040817916393,-0.008254202082753181,0.004012901335954666
1733698727208931300,10.280931396484375,0.0008292628917843103,-0.006422214210033417,0.004371363203972578
1733698727218887400,10.290887451171875,0.003176905680447817,-0.0046347975730896,0.004114315379410982
1733698727228843300,10.30084326171875,0.004845376126468182,-0.0023010699078440666,0.00401178328320384
1733698727238798300,10.31079833984375,0.0030671777203679085,-0.0032914909534156322,0.004814433865249157
1733698727248754200,10.320754150390625,0.002622429747134447,-0.0013822707114741206,0.004885540343821049
1733698727258710300,10.330710205078125,0.001213819021359086,0.0028304154984652996,0.004488767124712467
1733698727268665300,10.340665283203125,-0.0007215001969598234,0.010513102635741234,0.00292762229219079
1733698727278621200,10.35062109375,-0.0016534707974642515,0.013945580460131168,0.0020355398301035166
1733698727288576300,10.360576171875,-0.004762977361679077,0.022007500752806664,0.0015295392367988825
1733698727298532400,10.370532470703125,-0.0040220958180725574,0.024390775710344315,0.004032885655760765
1733698727308488400,10.380488525390625,-0.006182718090713024,0.02472313866019249,0.002725273370742798
1733698727318443300,10.390443359375,-0.00455165421590209,0.022446587681770325,0.002767719328403473
1733698727328399000,10.400399169921876,-0.005391082726418972,0.016005467623472214,0.002036947989836335
1733698727338355200,10.410355224609376,-0.0070996368303895,0.012133701704442501,0.0005456277867779136
1733698727348310300,10.420310302734375,-0.007211489602923393,0.007303259801119566,0.00009661877993494272
1733698727358266400,10.430266357421875,-0.007129270117729902,0.0028112789150327444,0.0010797439608722925
1733698727368221200,10.44022119140625,-0.005634970031678677,0.00009964831406250596,0.0027370289899408817
1733698727378177300,10.45017724609375,-0.002406412037089467,-0.002131291665136814,0.0024417098611593246
1733698727388133400,10.46013330078125,-0.0018655239837244153,-0.005827493034303188,0.0030214800499379635
1733698727398088200,10.470088134765625,-0.003091242630034685,-0.008168614469468594,0.003858728799968958
1733698727408044300,10.480044189453125,-0.00313518475741148,-0.011046959087252617,0.003407323034480214
1733698727418000100,10.490000244140624,-0.002813741099089384,-0.01274432335048914,0.0029509831219911575
1733698727427955500,10.49995556640625,-0.0023042785469442606,-0.013963518664240837,0.002881474792957306
1733698727437911300,10.509911376953125,0.001072936225682497,-0.015932362526655197,0.00386512721888721
1733698727447866000,10.5198662109375,0.005927613005042076,-0.017530258744955063,0.003888563020154834
1733698727457822200,10.529822265625,0.008850833401083946,-0.021768072620034218,0.005706301424652338
1733698727467778300,10.5397783203125,0.011509200558066368,-0.02484588697552681,0.004250883590430021
1733698727477733400,10.5497333984375,0.009470153599977493,-0.027696073055267334,0.005615830421447754
1733698727487689200,10.559689208984375,0.006668774411082268,-0.02706250734627247,0.004480524454265833
1733698727497644300,10.569644287109375,0.0010678158141672611,-0.023248231038451195,0.0042238482274115086
1733698727507600400,10.579600341796874,-0.006258007138967514,-0.01852351799607277,0.003287480678409338
1733698727517556200,10.58955615234375,-0.010202351026237011,-0.010932805016636848,0.0004490313585847616
1733698727527511300,10.59951123046875,-0.0130221052095294,-0.0018889768980443478,0.00000534870196133852
1733698727537467100,10.609467041015625,-0.012227283790707588,0.0058652800507843494,0.0005670861573889852
1733698727547423500,10.619423583984375,-0.010772398672997952,0.012143149971961975,0.0016371442470699549
1733698727557378300,10.62937841796875,-0.006111201364547014,0.01562170498073101,0.0017426686827093363
1733698727567334100,10.639334228515626,-0.004517831839621067,0.01729869842529297,0.004008752293884754
1733698727577289200,10.649289306640625,-0.002473855158314109,0.014728478156030178,0.0034396490082144737
1733698727587245300,10.659245361328125,-0.0009452007943764329,0.008622116409242153,0.005496141966432333
1733698727597201400,10.669201416015625,0.0029806308448314667,0.0025639929808676243,0.004894088953733444
1733698727607156200,10.67915625,0.0011899214005097747,-0.005834817886352539,0.004656268283724785
1733698727617112300,10.6891123046875,-0.00019032799173146486,-0.009269732981920242,0.0033772680908441544
1733698727627068200,10.699068115234375,0.0007361856987699866,-0.008849219419062138,0.005091811064630747
1733698727637023200,10.709023193359375,-0.0004702942678704858,0.0014936652733013034,0.004742317833006382
1733698727646979300,10.718979248046875,0.0016759473364800215,0.014516256749629974,0.006017705425620079
1733698727656933600,10.72893359375,0.0031638562213629484,0.02650514245033264,0.0038494854234158993
1733698727666889700,10.7388896484375,0.004304754547774792,0.03361551836133003,0.002431884640827775
1733698727676845600,10.748845458984375,-0.0016577969072386622,0.0330413393676281,0.0018308092840015888
1733698727686800600,10.758800537109375,-0.009328233078122139,0.023358086124062538,-0.0009260950610041618
1733698727696756500,10.768756591796874,-0.015862831845879555,0.012009958736598492,-0.003179550636559725
1733698727706712800,10.778712890625,-0.018643436953425407,0.00008778570918366313,-0.004491690080612898
1733698727716667600,10.788667724609375,-0.018793240189552307,-0.007050751708447933,-0.0025585645344108343
1733698727726623700,10.798623779296875,-0.013745218515396118,-0.013542473316192627,-0.003208908485248685
1733698727736578800,10.808578857421875,-0.0030202693305909634,-0.014802082441747189,-0.0015370387118309736
1733698727746534700,10.81853466796875,0.0026919448282569647,-0.012260095216333866,0.001802298822440207
1733698727756490800,10.82849072265625,0.007739299908280373,-0.009192600846290588,0.004300295375287533
1733698727766445600,10.838445556640625,0.011143884621560574,-0.005706523545086384,0.00532215042039752
1733698727776401700,10.848401611328125,0.007915069349110126,-0.003878926858305931,0.003916645422577858
1733698727786356700,10.858356689453124,0.007229572162032127,-0.0012647679541260004,0.00500934012234211
1733698727796312600,10.8683125,0.005730874836444855,-0.0015818862011656165,0.003846571082249284
1733698727806268700,10.8782685546875,0.0038536128122359514,-0.00046761962585151196,0.0025349643547087908
1733698727816223700,10.8882236328125,0.002532355021685362,-0.0010139993391931057,0.0006606404203921556
1733698727826179800,10.898179931640625,0.000007678288966417313,-0.0003348932368680835,-0.0008682804182171822
1733698727836135700,10.9081357421875,-0.0034246037248522043,0.002505900803953409,-0.004504027776420116
1733698727846090500,10.918090576171876,-0.006395359989255667,0.004354134667664766,-0.005331738386303186
1733698727856046600,10.928046630859376,-0.008926630020141602,0.006121440324932337,-0.003876736853271723
1733698727866001700,10.938001708984375,-0.007990261539816856,0.0025115255266427994,-0.003826935775578022
1733698727875957800,10.947957763671875,-0.008021419867873192,-0.004077000077813864,-0.005186900962144136
1733698727885913600,10.95791357421875,-0.004967573098838329,-0.010199340991675854,-0.0038918056525290012
1733698727895868700,10.96786865234375,-0.004907984286546707,-0.012239089235663414,-0.0022396822459995747
1733698727905824800,10.97782470703125,-0.002236567670479417,-0.014882275834679604,-0.0019019934115931392
1733698727915779600,10.987779541015625,0.0036166608333587646,-0.013949439860880375,0.001174567500129342
1733698727925735700,10.997735595703125,0.011510802432894707,-0.009817278943955898,0.0024701952934265137
1733698727935691500,11.00769140625,0.014950540848076344,-0.009722470305860043,0.002587374532595277
1733698727945646800,11.017646728515626,0.016739387065172195,-0.005711749196052551,0.002727723214775324
1733698727955602700,11.027602783203125,0.013615699484944344,-0.007700497284531593,0.0007277133408933878
1733698727965558800,11.037558837890625,0.007883245125412941,-0.010419052094221115,0.0023634268436580896
1733698727975513600,11.047513671875,0.004679194185882807,-0.01090441457927227,0.0011438543442636728
1733698727985469700,11.0574697265625,-0.000274285557679832,-0.007902232930064201,0.0003118828171864152
1733698727995424800,11.0674248046875,-0.003524406347423792,-0.00608195923268795,-0.0024511758238077164
1733698728005380600,11.077380615234375,-0.003265547100454569,-0.0017412733286619186,-0.005362543743103743
1733698728015336700,11.087336669921875,-0.0013149151345714927,0.0011894658673554659,-0.0019240445690229535
1733698728025291800,11.097291748046874,-0.0001649621408432722,0.0001681435969658196,-0.0029727970249950886
1733698728035247600,11.10724755859375,-0.0026596158277243376,-0.0024448498152196407,-0.002330121584236622
1733698728045203700,11.11720361328125,-0.004010104574263096,-0.0022879894822835922,-0.0010371571406722069
1733698728055158500,11.127158447265625,-0.005606465041637421,-0.003732919692993164,-0.00122917746193707
1733698728065114600,11.137114501953125,-0.004546793177723885,-0.007448561489582062,-0.003481945488601923
1733698728075069700,11.147069580078124,-0.0015489546349272132,-0.007317431271076202,-0.0034469556994736195
1733698728085025500,11.157025634765626,0.002557906089350581,-0.0065645561553537846,-0.005029140040278435
1733698728094981600,11.166981689453126,0.008119333535432816,-0.0065032076090574265,-0.002589176408946514
1733698728104936700,11.176936767578125,0.010856530629098415,-0.010245215147733688,0.00033923552837222815
1733698728114892800,11.186892822265625,0.013401903212070465,-0.01424504816532135,0.0020273588597774506
1733698728124847600,11.19684765625,0.014813379384577274,-0.01959347538650036,0.0018454649252817035
1733698728134803700,11.2068037109375,0.015321383252739906,-0.01966198720037937,-0.000766251003369689
1733698728144759600,11.216759521484375,0.011413193307816982,-0.019817516207695007,0.000003136228770017624
1733698728154714600,11.226714599609375,0.01212618313729763,-0.018326109275221825,0.000836291117593646
1733698728164670700,11.236670654296875,0.01260608434677124,-0.010562196373939514,0.0023132802452892065
1733698728174625500,11.24662548828125,0.012422198429703712,-0.002502606948837638,0.004734281450510025
1733698728184581600,11.25658154296875,0.011551344767212868,0.007499427068978548,0.004862645640969276
1733698728194537700,11.266537841796875,0.00834769755601883,0.01461292989552021,0.0025468075182288885
1733698728204492500,11.276492431640625,0.004811819177120924,0.015306416898965836,0.002959064906463027
1733698728214448600,11.28644873046875,0.0011366559192538261,0.012584798969328403,0.0015815526712685823
1733698728224404500,11.296404541015624,-0.003930540755391121,0.011399692855775356,0.000729074701666832
1733698728234359800,11.30635986328125,-0.007230072282254696,0.005990748293697834,-0.0011379726929590106
1733698728244315600,11.316315673828125,-0.011678616516292095,0.0026016095653176308,-0.004119647666811943
1733698728254270500,11.3262705078125,-0.018000686541199684,-0.0012806160375475883,-0.003325117751955986
1733698728264226600,11.3362265625,-0.01768163964152336,-0.00437387777492404,-0.004378664307296276
1733698728274182700,11.3461826171875,-0.012598199769854546,-0.0056762960739433765,-0.0009726067073643208
1733698728284137700,11.3561376953125,-0.008160841651260853,-0.0059652491472661495,-0.000499629182741046
1733698728294093600,11.366093505859375,-0.0014095248188823462,-0.004245147109031677,0.0014994882512837648
1733698728304049000,11.376048828125,0.002547932555899024,-0.004839831031858921,0.0019684708677232265
1733698728314004700,11.386004638671874,0.0024237572215497494,-0.003862616140395403,0.006494834087789059
1733698728323960600,11.395960693359376,0.003881305456161499,-0.009111440740525723,0.011754844337701797
1733698728333915600,11.40591552734375,0.0049945092760026455,-0.03244539350271225,0.01827971450984478
1733698728343871500,11.41587158203125,0.0036083338782191277,-0.06278705596923828,0.024065697565674782
1733698728353826800,11.425826904296875,-0.0012847030302509665,-0.09772346168756485,0.01877136528491974
1733698728363782700,11.43578271484375,-0.0054855733178555965,-0.12048656493425369,0.01065351814031601
1733698728373738800,11.44573876953125,-0.010387187823653221,-0.12260513752698898,-0.004656563512980938
1733698728383693600,11.455693603515625,-0.017677057534456253,-0.10605039447546005,-0.016533728688955307
1733698728393649700,11.465649658203125,-0.019831683486700058,-0.07910686731338501,-0.028077280148863792
1733698728403604700,11.475604736328124,-0.018832199275493622,-0.05671607702970505,-0.03131914511322975
1733698728413560600,11.485560546875,-0.015135866589844227,-0.05223524197936058,-0.031798042356967926
1733698728423516700,11.4955166015625,-0.015202178619801998,-0.06721605360507965,-0.039928141981363297
1733698728433471700,11.5054716796875,-0.010591773316264153,-0.08890926837921143,-0.057004060596227646
1733698728443427600,11.515427490234375,-0.0019956219475716352,-0.09772379696369171,-0.08274298161268234
1733698728453383700,11.5253837890625,0.020083175972104073,-0.07368151098489761,-0.11111074686050415
1733698728463338500,11.53533837890625,0.06537129729986191,-0.030656546354293823,-0.1308026909828186
1733698728473294800,11.545294921875,0.11985990405082703,0.006392319221049547,-0.14023363590240479
1733698728483249700,11.555249755859375,0.17614980041980743,0.02745392918586731,-0.13046756386756897
1733698728493205500,11.56520556640625,0.21800597012043,0.024189723655581474,-0.10535041242837906
1733698728503161600,11.57516162109375,0.22393444180488586,-0.01843470148742199,-0.07746764272451401
1733698728513116700,11.58511669921875,0.19726301729679108,-0.08329645544290543,-0.052806854248046875
1733698728523072800,11.59507275390625,0.15082068741321564,-0.1501961350440979,-0.029225895181298256
1733698728533027600,11.605027587890625,0.10361302644014359,-0.22126267850399017,-0.00400709779933095
1733698728542983700,11.614983642578125,0.0681580975651741,-0.26441389322280884,0.025888482108712196
1733698728552939800,11.624939697265624,0.05459074303507805,-0.25074541568756104,0.053328052163124084
1733698728562894600,11.63489453125,0.05025298893451691,-0.19799403846263885,0.06536660343408585
1733698728572850700,11.6448505859375,0.05063268169760704,-0.13117428123950958,0.07061933726072311
1733698728582805800,11.6548056640625,0.050117626786231995,-0.06076031178236008,0.060335543006658554
1733698728592761900,11.664761962890625,0.044989198446273804,0.011214137077331543,0.044464241713285446
1733698728602717700,11.6747177734375,0.02992982044816017,0.058037567883729935,0.020995933562517166
1733698728612672500,11.684672607421875,0.008731921203434467,0.07294024527072906,-0.015701383352279663
1733698728622628600,11.694628662109375,-0.02372721955180168,0.08372259140014648,-0.05244821310043335
1733698728632583700,11.704583740234375,-0.050302572548389435,0.10387982428073883,-0.08459379523992538
1733698728642539800,11.714539794921874,-0.046754706650972366,0.13771289587020874,-0.09787764400243759
1733698728652496100,11.72449609375,-0.0018910986836999655,0.1600193977355957,-0.09510169178247452
1733698728662451000,11.734450927734375,0.07956887781620026,0.15364885330200195,-0.0740981325507164
1733698728672407000,11.744406982421875,0.1710478663444519,0.1159825325012207,-0.04221634566783905
1733698728682362000,11.754362060546875,0.24225972592830658,0.03050517663359642,-0.00923975557088852
1733698728692318000,11.76431787109375,0.274364709854126,-0.07829410582780838,0.014648260548710823
1733698728702274000,11.774274169921876,0.25833195447921753,-0.18461255729198456,0.031191550195217133
1733698728712229000,11.78422900390625,0.19130177795886993,-0.27599653601646423,0.04068014398217201
1733698728722185200,11.794185302734375,0.09918836504220963,-0.32941022515296936,0.04200506955385208
1733698728732141000,11.80414111328125,0.007935091853141785,-0.3233429193496704,0.03905191272497177
1733698728742096000,11.814095947265624,-0.0620325431227684,-0.26321911811828613,0.03031700849533081
1733698728752052000,11.824052001953126,-0.09454772621393204,-0.1476190835237503,0.018569299951195717
1733698728762007000,11.834007080078125,-0.10173693299293518,-0.004210792016237974,0.008029574528336525
