time,seconds_elapsed,z,y,x
1733359824124286500,0.027286376953125,0.08472175896167755,0.5008320212364197,-0.19186384975910187
1733359824134252300,0.037252197265625,0.10853920876979828,0.4739493131637573,-0.17300574481487274
1733359824144217300,0.04721728515625,0.12319242209196091,0.4337009787559509,-0.16596563160419464
1733359824154183400,0.057183349609375,0.12400255352258682,0.33450037240982056,-0.14942340552806854
1733359824164149200,0.067149169921875,0.11990904062986374,0.29812905192375183,-0.14797508716583252
1733359824174114600,0.077114501953125,0.0928926020860672,0.35248178243637085,-0.12817075848579407
1733359824184080400,0.087080322265625,0.06196267902851105,0.36930784583091736,-0.11030204594135284
1733359824194045200,0.097045166015625,0.04745990410447121,0.3735364079475403,-0.10053596645593643
1733359824204011500,0.107011474609375,0.04176924005150795,0.3725427985191345,-0.09421452134847641
1733359824213976300,0.116976318359375,0.027081910520792007,0.3993302285671234,-0.09467924386262894
1733359824223942400,0.1269423828125,0.050630662590265274,0.3769039809703827,-0.0780559554696083
1733359824233908500,0.136908447265625,0.08807763457298279,0.30771955847740173,-0.05056707188487053
1733359824243873300,0.146873291015625,0.11143514513969421,0.3056882917881012,-0.05872631072998047
1733359824253839400,0.15683935546875,0.10986680537462234,0.315786749124527,-0.07727949321269989
1733359824263804400,0.166804443359375,0.11716597527265549,0.30708396434783936,-0.08205077797174454
1733359824273770200,0.176770263671875,0.1312551498413086,0.30578115582466125,-0.07767360657453537
1733359824283735300,0.1867353515625,0.1299917846918106,0.3808712065219879,-0.1081513911485672
1733359824293701400,0.196701416015625,0.1098574846982956,0.5078778862953186,-0.14537012577056885
1733359824303666400,0.20666650390625,0.0753253623843193,0.6271025538444519,-0.18759603798389435
1733359824313632300,0.21663232421875,0.044455599039793015,0.6757733821868896,-0.21220046281814575
1733359824323598300,0.226598388671875,0.0541800819337368,0.6468977928161621,-0.20353420078754425
1733359824333563400,0.2365634765625,0.07817276567220688,0.49786651134490967,-0.15274424850940704
1733359824343529500,0.246529541015625,0.07010580599308014,0.3673279881477356,-0.13729341328144073
1733359824353494500,0.25649462890625,0.031854819506406784,0.2518903315067291,-0.10425370931625366
1733359824363460400,0.26646044921875,-0.007662463933229446,0.14812128245830536,-0.05781407281756401
1733359824373425200,0.276425048828125,-0.012877466157078743,0.1270729899406433,-0.01581522263586521
1733359824383391500,0.2863916015625,0.003482061205431819,0.1465139240026474,-0.0124290082603693
1733359824393357300,0.296357421875,0.021478373557329178,0.12114491313695908,-0.003997973166406155
1733359824403322400,0.306322265625,0.02267621085047722,0.11821655929088593,0.0044436464086174965
1733359824413288400,0.316288330078125,0.012084020301699638,0.08703041076660156,0.00033465493470430374
1733359824423253200,0.326253173828125,-0.005381768569350243,-0.03041580691933632,-0.002360621700063348
1733359824433219300,0.33621923828125,-0.03847181051969528,-0.24441678822040558,-0.05162377655506134
1733359824443184400,0.346184326171875,-0.11259341239929199,-0.40838590264320374,-0.09346447885036469
1733359824453150700,0.356150634765625,-0.270060271024704,-0.46809372305870056,-0.0927765816450119
1733359824463115800,0.36611572265625,-0.31743791699409485,-0.6086641550064087,0.008841410279273987
1733359824473081600,0.37608154296875,-0.29763439297676086,-0.6554705500602722,0.10845295339822769
1733359824483047700,0.386047607421875,-0.2484239637851715,-0.5551121234893799,0.14488713443279266
1733359824493012700,0.3960126953125,-0.1804017722606659,-0.46218886971473694,0.13727502524852753
1733359824502978800,0.405978759765625,-0.12370199710130692,-0.37919706106185913,0.11568796634674072
1733359824512943900,0.41594384765625,-0.09382026642560959,-0.2793242335319519,0.08397610485553741
1733359824522909700,0.42590966796875,-0.06333719938993454,-0.18153685331344604,0.05333831533789635
1733359824532874500,0.43587451171875,-0.04152298718690872,-0.10076291859149933,0.02520335093140602
1733359824542840800,0.4458408203125,-0.027615727856755257,-0.03934013843536377,0.005334082059562206
1733359824552806700,0.455806640625,0.00044280424481257796,0.019916795194149017,-0.01922212727367878
1733359824562771700,0.465771728515625,0.023277565836906433,0.06844250857830048,-0.01980098895728588
1733359824572737800,0.47573779296875,0.04781699553132057,0.17295534908771515,-0.036618053913116455
1733359824582702600,0.48570263671875,0.05815058946609497,0.30687496066093445,-0.07323664426803589
1733359824592668700,0.495668701171875,0.06001080572605133,0.38184189796447754,-0.10443238168954849
1733359824602633700,0.5056337890625,0.06171656399965286,0.41785362362861633,-0.1303464025259018
1733359824612599600,0.515599609375,0.07210209220647812,0.4018520414829254,-0.14687637984752655
1733359824622565600,0.525565673828125,0.08521176874637604,0.3683420717716217,-0.16366055607795715
1733359824632530700,0.53553076171875,0.12007973343133926,0.3215838670730591,-0.16795890033245087
1733359824642496500,0.54549658203125,0.16799429059028625,0.32040977478027344,-0.17939242720603943
1733359824652461800,0.5554619140625,0.22980785369873047,0.41103607416152954,-0.24088667333126068
1733359824662427600,0.565427734375,0.2656044661998749,0.4851624369621277,-0.28266656398773193
1733359824672392700,0.575392822265625,0.31492355465888977,0.526522696018219,-0.2789144515991211
1733359824682358800,0.58535888671875,0.3573671579360962,0.6416748762130737,-0.3033190071582794
1733359824692323600,0.595323486328125,0.3993193805217743,0.6990324258804321,-0.32642486691474915
1733359824702289700,0.60528955078125,0.3961421847343445,0.6854550242424011,-0.31527429819107056
1733359824712255700,0.615255859375,0.2940714955329895,0.7913553714752197,-0.3535953164100647
1733359824722220500,0.625220458984375,0.057916752994060516,0.858481228351593,-0.39775586128234863
1733359824732187000,0.635186767578125,-0.1066996231675148,0.7464830875396729,-0.3350072503089905
1733359824742151700,0.645151611328125,-0.09866005927324295,0.6509439945220947,-0.29335954785346985
1733359824752117800,0.65511767578125,-0.08022832125425339,0.6211261749267578,-0.29283571243286133
1733359824762082600,0.66508251953125,-0.07322100549936295,0.5629783272743225,-0.28276485204696655
1733359824772048600,0.675048583984375,-0.06402937322854996,0.5312696099281311,-0.28691431879997253
1733359824782014700,0.6850146484375,-0.054801758378744125,0.5546486377716064,-0.30790257453918457
1733359824791979800,0.694979736328125,-0.0526677668094635,0.6136472225189209,-0.30449986457824707
1733359824801945600,0.704945556640625,-0.0454048328101635,0.66929692029953,-0.28114575147628784
1733359824811910700,0.71491064453125,-0.02767723612487316,0.6476563215255737,-0.2547442317008972
1733359824821876700,0.724876708984375,-0.013656780123710632,0.567524254322052,-0.26222556829452515
1733359824831841800,0.734841796875,-0.014322570525109768,0.4845641255378723,-0.2601850628852844
1733359824841807600,0.7448076171875,-0.03149266913533211,0.41992416977882385,-0.2699102461338043
1733359824851772700,0.754772705078125,-0.03887229040265083,0.5047301054000854,-0.3527470529079437
1733359824861738800,0.76473876953125,-0.028241798281669617,0.6893377900123596,-0.42705559730529785
1733359824871704600,0.77470458984375,0.011787908151745796,0.716727614402771,-0.45498284697532654
1733359824881669600,0.784669677734375,0.15419669449329376,0.7851166725158691,-0.6582421064376831
1733359824891635700,0.7946357421875,0.18258227407932281,1.1705580949783325,-0.6601734161376953
1733359824901600500,0.8046005859375,0.113505519926548,1.1750761270523071,-0.6331069469451904
1733359824911566800,0.81456689453125,0.04464096203446388,1.2458046674728394,-0.671312689781189
1733359824921531600,0.82453173828125,-0.07073868811130524,1.2267783880233765,-0.6705660820007324
1733359824931497500,0.83449755859375,-0.1370364874601364,1.0762532949447632,-0.6319276094436646
1733359824941462800,0.844462890625,-0.16031140089035034,0.9441878199577332,-0.5931601524353027
1733359824951428600,0.8544287109375,-0.1674705147743225,0.8168549537658691,-0.5536265969276428
1733359824961394700,0.864394775390625,-0.1537613719701767,0.7012704014778137,-0.49966004490852356
1733359824971359700,0.87435986328125,-0.10522446036338806,0.5740386843681335,-0.4242885708808899
1733359824981325600,0.88432568359375,-0.05790327489376068,0.4739241600036621,-0.3367302417755127
1733359824991291000,0.894290771484375,-0.040594059973955154,0.3777987062931061,-0.2532619833946228
1733359825001256700,0.904256591796875,-0.04119836539030075,0.2839636206626892,-0.16632410883903503
1733359825011221800,0.9142216796875,-0.04699074104428291,0.18376538157463074,-0.09573037177324295
1733359825021187800,0.924187744140625,-0.06509224325418472,0.08373606950044632,-0.03187510371208191
1733359825031153700,0.934153564453125,-0.07509906589984894,0.0004563555121421814,0.017486052587628365
1733359825041118700,0.94411865234375,-0.05911105498671532,-0.07032111287117004,0.03809959813952446
1733359825051084800,0.954084716796875,-0.0328885056078434,-0.11192208528518677,0.030509058386087418
1733359825061049600,0.964049560546875,-0.006371914409101009,-0.11332128942012787,0.008703192695975304
1733359825071015700,0.974015625,-0.015209081582725048,-0.0691991075873375,-0.03650796040892601
1733359825080980700,0.983980712890625,-0.02653740718960762,0.0483168326318264,-0.08518930524587631
1733359825090946600,0.993946533203125,-0.02557786926627159,0.20608729124069214,-0.10553745180368423
1733359825100913000,1.003912841796875,-0.014083895832300186,0.24076753854751587,-0.11107327789068222
1733359825110877700,1.013877685546875,0.004450639709830284,0.1655960977077484,-0.10368140786886215
1733359825120843800,1.02384375,0.01916111633181572,0.05134747177362442,-0.08085515350103378
1733359825130808600,1.03380859375,0.03004998341202736,-0.03648810833692551,-0.07003472745418549
1733359825140774700,1.043774658203125,0.014052637852728367,-0.05187392234802246,-0.07670261710882187
1733359825150739700,1.05373974609375,0.002772553125396371,-0.059739839285612106,-0.08441752940416336
1733359825160705800,1.063705810546875,-0.0049346196465194225,-0.05426506698131561,-0.09244072437286377
1733359825170670800,1.0736708984375,0.0110435476526618,0.021295471116900444,-0.11730532348155975
1733359825180636700,1.08363671875,0.046121638268232346,0.11186964064836502,-0.16613158583641052
1733359825190602800,1.093602783203125,0.05354227125644684,0.16869109869003296,-0.21857082843780518
1733359825200567800,1.10356787109375,0.048894252628088,0.22844450175762177,-0.26565802097320557
1733359825210533600,1.11353369140625,0.06262311339378357,0.32260751724243164,-0.32353144884109497
1733359825220498700,1.123498779296875,-0.015425068326294422,0.3056635856628418,-0.32864847779273987
1733359825230464800,1.13346484375,-0.12691964209079742,0.2589530646800995,-0.30733174085617065
1733359825240429600,1.1434296875,-0.14064745604991913,0.2427360862493515,-0.28432172536849976
1733359825250395600,1.153395751953125,-0.15050753951072693,0.24951596558094025,-0.21620072424411774
1733359825260361700,1.16336181640625,-0.2240648716688156,0.2756672501564026,-0.12017975747585297
1733359825270326500,1.173326416015625,-0.26898202300071716,0.2103670835494995,-0.06483606994152069
1733359825280292900,1.18329296875,-0.21711291372776031,0.10702238231897354,-0.04214959591627121
1733359825290257700,1.193257568359375,-0.053558073937892914,-0.049821022897958755,-0.034908726811409
1733359825300223500,1.203223388671875,0.16725285351276398,-0.16812042891979218,-0.051983289420604706
1733359825310188800,1.213188720703125,0.24597616493701935,-0.2921488881111145,-0.037040825933218
1733359825320154600,1.223154541015625,0.25736889243125916,-0.3517080545425415,-0.0019507724791765213
1733359825330119700,1.23311962890625,0.3201603591442108,-0.3119129538536072,0.030590659007430077
1733359825340085800,1.243085693359375,0.29503878951072693,-0.23685234785079956,0.018786316737532616
1733359825350051600,1.253051513671875,0.1619715541601181,-0.06887558847665787,-0.026033885776996613
1733359825360016600,1.2630166015625,0.14134804904460907,0.13817274570465088,-0.13668251037597656
1733359825369982700,1.272982666015625,0.13235002756118774,0.31036901473999023,-0.2678469121456146
1733359825379947800,1.28294775390625,0.10033957660198212,0.42549413442611694,-0.3396046757698059
1733359825389913900,1.292913818359375,0.02633379027247429,0.5055356621742249,-0.30758628249168396
1733359825399878700,1.302878662109375,-0.045280180871486664,0.5194534659385681,-0.22885262966156006
1733359825409844700,1.3128447265625,-0.09315849840641022,0.40593647956848145,-0.16457882523536682
1733359825419810800,1.322810791015625,-0.09188571572303772,0.249530628323555,-0.1333479881286621
1733359825429775600,1.332775634765625,0.020102068781852722,0.2364387959241867,-0.21426281332969666
1733359825439741700,1.34274169921875,0.22934392094612122,0.34823524951934814,-0.40315011143684387
1733359825449706800,1.352706787109375,0.3820943236351013,0.3910812437534332,-0.5495824813842773
1733359825459672600,1.362672607421875,0.3939158022403717,0.3563491106033325,-0.5421071648597717
1733359825469637600,1.3726376953125,0.3980937600135803,0.3560391366481781,-0.5072849988937378
1733359825479603500,1.382603515625,0.4475138187408447,0.396696537733078,-0.49970248341560364
1733359825489568800,1.39256884765625,0.500088632106781,0.4354974627494812,-0.5154873132705688
1733359825499534600,1.40253466796875,0.5096011757850647,0.47309285402297974,-0.5233744978904724
1733359825509500400,1.41250048828125,0.48956137895584106,0.4899080693721771,-0.531986653804779
1733359825519465700,1.4224658203125,0.443758487701416,0.5049514174461365,-0.533444344997406
1733359825529431600,1.432431640625,0.38202106952667236,0.46088674664497375,-0.49888715147972107
1733359825539396600,1.442396728515625,0.3074735999107361,0.3963213562965393,-0.4199356436729431
1733359825549362700,1.45236279296875,0.2757644057273865,0.3195938169956207,-0.3720717132091522
1733359825559327500,1.462327392578125,0.26366356015205383,0.21512724459171295,-0.34070590138435364
1733359825569293600,1.47229345703125,0.2513948976993561,0.14124661684036255,-0.27311861515045166
1733359825579259600,1.482259765625,0.23263724148273468,0.123341865837574,-0.20879201591014862
1733359825589224700,1.492224609375,0.20211182534694672,0.09287796169519424,-0.16809572279453278
1733359825599190800,1.502190673828125,0.21501238644123077,0.09544779360294342,-0.15871495008468628
1733359825609155600,1.512155517578125,0.324065625667572,0.07604506611824036,-0.1312931776046753
1733359825619121700,1.52212158203125,0.37072792649269104,-0.05694378539919853,-0.0838654562830925
1733359825629086500,1.53208642578125,0.39334750175476074,-0.10750230401754379,-0.05145611613988876
1733359825639052500,1.542052490234375,0.4278317391872406,-0.15445969998836517,-0.04301048070192337
1733359825649017600,1.552017578125,0.46503186225891113,-0.17142696678638458,-0.05933459848165512
1733359825658983700,1.561983642578125,0.4709751605987549,-0.14977118372917175,-0.05433259904384613
1733359825668949500,1.571949462890625,0.4225921928882599,-0.09471859782934189,-0.045996636152267456
1733359825678914600,1.58191455078125,0.3195784389972687,-0.059498131275177,-0.04275434836745262
1733359825688880600,1.591880615234375,0.20383799076080322,-0.05951331555843353,-0.03726184740662575
1733359825698845700,1.601845703125,0.09783995896577835,-0.043351106345653534,-0.03215940296649933
1733359825708811500,1.6118115234375,0.02648082561790943,-0.014147413894534111,-0.03185020759701729
1733359825718776600,1.621776611328125,0.02551887556910515,-0.033155038952827454,-0.03696785122156143
1733359825728742700,1.63174267578125,0.01621299237012863,-0.04824530705809593,-0.035356372594833374
1733359825738708500,1.64170849609375,0.014637758955359459,-0.07182193547487259,-0.04057327285408974
1733359825748673800,1.651673828125,0.011545563116669655,-0.10093321651220322,-0.03325996547937393
1733359825758639600,1.6616396484375,0.006760101765394211,-0.10743379592895508,-0.026039035990834236
1733359825768604400,1.6716044921875,0.0054785883985459805,-0.11452073603868484,-0.02089167758822441
1733359825778570800,1.68157080078125,0.004718285519629717,-0.12475419044494629,-0.02057999186217785
1733359825788535600,1.69153564453125,0.004362487234175205,-0.1436317414045334,-0.010594203136861324
1733359825798501400,1.70150146484375,0.01929325796663761,-0.14064033329486847,0.0033989455550909042
1733359825808467700,1.7114677734375,0.05372100695967674,-0.11016791313886642,0.013354374095797539
1733359825818432500,1.7214326171875,-0.009405791759490967,-0.15211224555969238,0.03341227024793625
1733359825828398600,1.731398681640625,0.013965310528874397,-0.17563727498054504,0.050596319139003754
1733359825838363600,1.74136376953125,0.010731962509453297,-0.14789846539497375,0.040211860090494156
1733359825848329500,1.75132958984375,-0.0006216256879270077,-0.12430472671985626,0.011922165751457214
1733359825858294800,1.761294677734375,-0.0018499111756682396,-0.10885290056467056,-0.01880694180727005
1733359825868260600,1.771260498046875,-0.0007992940954864025,-0.10314121842384338,-0.019322529435157776
1733359825878225700,1.7812255859375,-0.004555944819003344,-0.08562333136796951,-0.006057328544557095
1733359825888191700,1.791191650390625,-0.006124014034867287,-0.100250743329525,0.015406418591737747
1733359825898157600,1.801157470703125,-0.004679777659475803,-0.08113975822925568,0.021689340472221375
1733359825908122600,1.81112255859375,-0.005753297824412584,-0.08187985420227051,0.012536057271063328
1733359825918088700,1.821088623046875,-0.0027167699299752712,-0.10170097649097443,0.01748395524919033
1733359825928053500,1.831053466796875,0.00316535378806293,-0.08551375567913055,0.0026536104269325733
1733359825938019600,1.84101953125,0.0555335097014904,-0.08001572638750076,-0.018912162631750107
1733359825947984600,1.850984619140625,0.05499981343746185,-0.09715902805328369,-0.0403418205678463
1733359825957950700,1.86095068359375,-0.004095202311873436,-0.10217449814081192,-0.028683695942163467
1733359825967916800,1.870916748046875,0.008791301399469376,-0.07261048257350922,-0.022785061970353127
1733359825977881600,1.880881591796875,0.010062428191304207,-0.04797650873661041,-0.005815399345010519
1733359825987847700,1.89084765625,0.03131445124745369,-0.11530069261789322,0.030285080894827843
1733359825997812500,1.9008125,0.0364263579249382,-0.09976684302091599,0.03823785483837128
1733359826007778600,1.910778564453125,0.040166500955820084,-0.09339842200279236,0.042799849063158035
1733359826017743600,1.92074365234375,0.04216579347848892,-0.11351457983255386,0.0522388219833374
1733359826027709700,1.930709716796875,0.03739660605788231,-0.12931270897388458,0.053437240421772
1733359826037674800,1.9406748046875,0.034743331372737885,-0.16117367148399353,0.060517873615026474
1733359826047640600,1.950640625,0.030284669250249863,-0.16116328537464142,0.08303490281105042
1733359826057606700,1.960606689453125,0.025953002274036407,-0.14000962674617767,0.1179676279425621
1733359826067571700,1.97057177734375,0.0281855296343565,-0.11446565389633179,0.11742568016052246
1733359826077537500,1.98053759765625,0.030220672488212585,-0.12495596706867218,0.1127161979675293
1733359826087502600,1.990502685546875,0.02417449839413166,-0.14710494875907898,0.11733678728342056
1733359826097468700,2.00046875,0.014776485040783882,-0.13631130754947662,0.10891997814178467
1733359826107433500,2.01043359375,0.010737534612417221,-0.150066539645195,0.1068192720413208
1733359826117399800,2.02039990234375,0.010387584567070007,-0.16416287422180176,0.10309205949306488
1733359826127365600,2.03036572265625,0.013478715904057026,-0.17202453315258026,0.11237450689077377
1733359826137330400,2.040330322265625,0.010266417637467384,-0.16452018916606903,0.12492691725492477
1733359826147296800,2.050296875,0.009545499458909035,-0.17680294811725616,0.14400286972522736
1733359826157261600,2.060261474609375,0.005614929366856813,-0.1494935303926468,0.13710516691207886
1733359826167227400,2.070227294921875,0.0028034301940351725,-0.14604340493679047,0.12980836629867554
1733359826177192700,2.080192626953125,0.00016529833374079317,-0.1373928189277649,0.12608154118061066
1733359826187158500,2.090158447265625,-0.0023098436649888754,-0.12338832020759583,0.12203087657690048
1733359826197123600,2.10012353515625,-0.001935119042173028,-0.1054108589887619,0.10949135571718216
1733359826207089700,2.110089599609375,-0.0007486807880923152,-0.10204356163740158,0.10289550572633743
1733359826217055500,2.120055419921875,0.0010289793135598302,-0.09846161305904388,0.10138416290283203
1733359826227020500,2.1300205078125,0.0005754429148510098,-0.09737956523895264,0.10320629924535751
1733359826236986600,2.139986572265625,0.00048117138794623315,-0.0962797999382019,0.10245341807603836
1733359826246951700,2.14995166015625,0.0016915780724957585,-0.08797553181648254,0.09763682633638382
1733359826256917800,2.159917724609375,0.006495359353721142,-0.09931981563568115,0.09686095267534256
1733359826266882600,2.169882568359375,0.0008630399242974818,-0.09394369274377823,0.09674030542373657
1733359826276848600,2.1798486328125,0.0009634721791371703,-0.08448205888271332,0.09253674000501633
1733359826286814700,2.189814697265625,-0.00041684421012178063,-0.09034819900989532,0.09448084980249405
1733359826296779500,2.199779541015625,-0.0009481000597588718,-0.07932925224304199,0.08919920772314072
1733359826306745600,2.20974560546875,-0.002239466877654195,-0.06368663907051086,0.0807705745100975
1733359826316710700,2.219710693359375,-0.0017391258152201772,-0.050050776451826096,0.06767242401838303
1733359826326676500,2.229676513671875,-0.0013612232869490981,-0.04608213156461716,0.05284687504172325
1733359826336641500,2.2396416015625,-0.003587064566090703,-0.036535751074552536,0.044030845165252686
1733359826346607600,2.249607666015625,-0.0010107224807143211,-0.03515863046050072,0.03697187080979347
1733359826356573700,2.25957373046875,0.00014370700228028,-0.03563182055950165,0.0331277921795845
1733359826366538500,2.26953857421875,-0.0018443426815792918,-0.030518287792801857,0.02770213410258293
1733359826376504600,2.279504638671875,-0.0010970222065225244,-0.032073795795440674,0.023111732676625252
1733359826386469600,2.2894697265625,-0.0002493380452506244,-0.012650829739868641,0.009779946878552437
1733359826396435500,2.299435546875,0.003110503777861595,-0.006388080306351185,-0.0030795230995863676
1733359826406400800,2.30940087890625,0.00036371932947076857,-0.011262197978794575,0.0007290636422112584
1733359826416366600,2.31936669921875,-0.0004978331271559,-0.01466331072151661,0.003217412391677499
1733359826426332700,2.329332763671875,-0.0003348476311657578,-0.02184106409549713,0.0021446910686790943
1733359826436297700,2.339297607421875,0.0016329842619597912,-0.02801620215177536,-0.0024551476817578077
1733359826446263600,2.349263671875,0.001715808524750173,-0.027018047869205475,-0.003496976336464286
1733359826456228900,2.359228759765625,0.0019935762975364923,-0.022815313190221786,-0.0020492819603532553
1733359826466195000,2.36919482421875,0.0043992092832922935,-0.022769242525100708,-0.001685494091361761
1733359826476159700,2.37915966796875,0.004695091396570206,-0.019315775483846664,-0.0006633782759308815
1733359826486125800,2.389125732421875,0.007978501729667187,-0.016239559277892113,0.0005635400302708149
1733359826496092000,2.399091796875,0.010334889404475689,-0.010016885586082935,-0.0009219988714903593
1733359826506056700,2.409056640625,0.013314700685441494,-0.0048032160848379135,-0.0020727510564029217
1733359826516023000,2.41902294921875,0.01999651826918125,-0.013863709755241871,-0.005787528585642576
1733359826525987800,2.42898779296875,0.025495413690805435,-0.02141004428267479,-0.010411841794848442
1733359826535953700,2.43895361328125,0.029644107446074486,-0.016310159116983414,-0.0130228316411376
1733359826545919000,2.4489189453125,0.030076606199145317,-0.008315881714224815,-0.016745399683713913
1733359826555884800,2.458884765625,0.027085866779088974,-0.001800484023988247,-0.01911160722374916
1733359826565851000,2.468850830078125,0.02273479290306568,-0.0013834331184625626,-0.0191118735820055
1733359826575816000,2.47881591796875,0.017910214141011238,0.0004018312320113182,-0.017585087567567825
1733359826585781800,2.48878173828125,0.011723159812390804,0.0042543597519397736,-0.01630011387169361
1733359826595746800,2.498746826171875,0.010085034184157848,0.005250801332294941,-0.012939050793647766
1733359826605713000,2.508712890625,0.010959615930914879,0.015373209491372108,-0.010085207410156727
1733359826615678000,2.518677978515625,0.012581221759319305,0.020084694027900696,-0.010268308222293854
1733359826625644000,2.52864404296875,0.019456705078482628,0.014684868976473808,-0.008525002747774124
1733359826635608800,2.53860888671875,0.021961422637104988,0.0008099116384983063,-0.009646612219512463
1733359826645575000,2.548574951171875,0.017916614189743996,-0.004986458458006382,-0.007664155215024948
1733359826655541000,2.558541015625,0.006857285276055336,-0.004121720790863037,-0.006186742335557938
1733359826665505800,2.568505859375,-0.0004741309676319361,0.004878431558609009,0.0023359060287475586
1733359826675472000,2.578471923828125,-0.004253682680428028,0.013787058182060719,0.0031472300179302692
1733359826685437000,2.58843701171875,-0.003714392427355051,0.010945199057459831,-0.002419042866677046
1733359826695402800,2.59840283203125,-0.0028765553142875433,0.010997217148542404,-0.005414441227912903
1733359826705367800,2.608367919921875,-0.0006371031631715596,0.012161551043391228,-0.00626745168119669
1733359826715334000,2.618333984375,-0.002327668946236372,0.0129866236820817,-0.005942290648818016
1733359826725299700,2.6282998046875,-0.00017476952052675188,0.011820957995951176,-0.006281311623752117
1733359826735264800,2.6382646484375,-0.0007673492655158043,0.016823096200823784,-0.003557397983968258
1733359826745230800,2.64823095703125,-0.0009953159606084228,0.026704490184783936,0.0017564073204994202
1733359826755196000,2.65819580078125,0.002313162200152874,0.03051217459142208,0.00493418425321579
1733359826765161700,2.66816162109375,0.005773673765361309,0.024993039667606354,0.004773595370352268
1733359826775127000,2.678126953125,0.004046045709401369,0.013835886493325233,0.00037116697058081627
1733359826785092900,2.6880927734375,0.003259614109992981,0.015702495351433754,-0.0010083504021167755
1733359826795059000,2.698058837890625,0.003218363970518112,0.018272999674081802,-0.0008372773882001638
1733359826805024000,2.70802392578125,0.0023254060652107,0.010709621012210846,-0.0001765470951795578
1733359826814989800,2.71798974609375,-0.00017741940973792225,0.007802153006196022,-0.0006631230935454369
1733359826824954600,2.72795458984375,-0.0017106012674048543,0.0045317914336919785,0.0008194587426260114
1733359826834921000,2.7379208984375,-0.0032654162496328354,0.0015853522345423698,0.0024315444752573967
1733359826844885800,2.7478857421875,-0.0031125508248806,-0.0002591535449028015,0.00582041684538126
1733359826854851800,2.757851806640625,-0.004208107013255358,0.009700274094939232,0.008848748169839382
1733359826864818000,2.76781787109375,-0.002647761022672057,0.015789324417710304,0.005247621797025204
1733359826874782700,2.77778271484375,-0.002370037604123354,0.0004145009443163872,0.0027301895897835493
1733359826884749000,2.7877490234375,0.00010883271170314401,-0.0012521054595708847,0.0021088742651045322
1733359826894713900,2.7977138671875,0.0005352514563128352,-0.0005044871941208839,0.0039145732298493385
1733359826904679700,2.8076796875,-0.0003350695769768208,0.0025474950671195984,0.0010836332803592086
1733359826914645000,2.81764501953125,0.0007384439813904464,0.00905244704335928,0.0002432810142636299
1733359826924610800,2.82761083984375,0.0009957053698599339,0.008747514337301254,0.0004014727892354131
1733359826934576600,2.83757666015625,-0.00042564389877952635,0.008011693134903908,0.0004903138615190983
1733359826944542000,2.8475419921875,-0.00021285729599185288,0.009487350471317768,-0.0003421902656555176
1733359826954507800,2.8575078125,-0.000053087474952917546,0.00608623493462801,-0.0028446053620427847
1733359826964472800,2.867472900390625,0.00030936874100007117,0.003922416362911463,-0.0034336966928094625
1733359826974439000,2.87743896484375,0.0023600405547767878,0.0033706529065966606,-0.005063463933765888
1733359826984404000,2.887404052734375,0.0013871877454221249,0.003226309549063444,-0.002272737445309758
1733359826994369800,2.897369873046875,0.0012713071191683412,-0.001263410784304142,-0.001085060415789485
1733359827004334800,2.9073349609375,0.00271900137886405,-0.0027633029967546463,0.00004704948514699936
1733359827014301000,2.917301025390625,0.002818046836182475,-0.006536608561873436,-0.003810643684118986
1733359827024267000,2.92726708984375,0.0018947288626804948,-0.006783483549952507,-0.00392276281490922
1733359827034231800,2.937231689453125,0.0006225720280781388,-0.00061070267111063,-0.003656754968687892
1733359827044198000,2.947197998046875,0.0012577358866110444,0.0027283686213195324,-0.0038772651460021734
1733359827054162700,2.95716259765625,0.0015773086342960596,0.0019927164539694786,-0.004481128416955471
1733359827064128800,2.967128662109375,0.00024279860372189432,0.0018710102885961533,-0.008335521444678307
1733359827074093800,2.97709375,-0.00029221264412626624,0.0026564286090433598,-0.00859067402780056
1733359827084060000,2.987059814453125,0.0016199370147660375,0.00860326737165451,-0.008552057668566704
1733359827094025700,2.997025634765625,0.0028359030839055777,0.011864143423736095,-0.005278860218822956
1733359827103990800,3.00699072265625,0.0012651706347241998,0.009977560490369797,-0.003396005369722843
1733359827113956900,3.016956787109375,0.0033584486227482557,0.003353377804160118,-0.0023418329656124115
1733359827123922000,3.026921875,0.0015712011372670531,0.002589583396911621,-0.005031358916312456
1733359827133887700,3.0368876953125,0.0018470846116542816,0.0027794744819402695,-0.0069582657888531685
1733359827143853000,3.04685302734375,0.003547512926161289,-0.0025210147723555565,-0.004899641964584589
1733359827153819000,3.05681884765625,0.0026548367459326982,-0.005919364280998707,-0.0031524936202913523
1733359827163784700,3.06678466796875,0.001562674529850483,-0.00491348747164011,-0.004498455673456192
1733359827173750000,3.07675,0.0018042122246697545,-0.002371465787291527,-0.00555105647072196
1733359827183715800,3.0867158203125,0.0016713205259293318,0.00284406915307045,-0.006399539764970541
1733359827193680600,3.0966806640625,-0.0005715805455110967,0.002151552587747574,-0.0056269727647304535
1733359827203647000,3.10664697265625,-0.000018441984138917178,-0.0020983191207051277,-0.007595847360789776
1733359827213611800,3.11661181640625,0.0018731947056949139,-0.0052342768758535385,-0.009567776694893837
1733359827223577900,3.126577880859375,0.0010217821691185236,-0.004249440506100655,-0.009900672361254692
1733359827233544000,3.1365439453125,0.0016124580288305879,0.0012463517487049103,-0.007295285351574421
1733359827243508700,3.1465087890625,0.0011908796150237322,0.001720927655696869,-0.00417619151994586
1733359827253475000,3.15647509765625,0.00008410966256633401,-0.0037028836086392403,-0.0024779425002634525
1733359827263440000,3.16643994140625,-0.00044825623626820743,-0.0022597163915634155,-0.0017133487854152918
1733359827273405700,3.17640576171875,0.0008998159319162369,0.0016090674325823784,-0.0011139798443764448
1733359827283371000,3.18637109375,0.0011855731718242168,0.0025033564306795597,0.000932659488171339
1733359827293336800,3.1963369140625,0.002210617298260331,0.00363191869109869,0.00011920509859919548
1733359827303302700,3.206302734375,0.004446607083082199,0.0061624543741345406,0.0002004315610975027
1733359827313268000,3.21626806640625,0.005485198460519314,0.006335898768156767,-0.0006321559194475412
1733359827323233800,3.22623388671875,0.003626311896368861,0.008878152817487717,-0.0009695785120129585
1733359827333198800,3.23619873046875,0.003165598027408123,0.013948453590273857,-0.00043776072561740875
1733359827343165000,3.2461650390625,0.00006354808283504099,0.016443302854895592,-0.0005578692071139812
1733359827353130000,3.2561298828125,0.0009051399538293481,0.014503620564937592,-0.0009042529854923487
1733359827363095800,3.266095703125,0.00002097050310112536,0.006796964444220066,-0.0003356682136654854
1733359827373062000,3.276061767578125,0.0004992521135136485,0.004015893209725618,-0.0004823815543204546
1733359827383027000,3.28602685546875,-0.0013284753076732159,0.011819222010672092,-0.001185988774523139
1733359827392993000,3.295992919921875,-0.00020919874077662826,0.009970765560865402,0.00016788789071142673
1733359827402957800,3.305957763671875,0.0001428711402695626,0.004164807964116335,-0.0015075067058205605
1733359827412924000,3.315923828125,0.0015485488111153245,0.0001779785379767418,-0.005572361405938864
1733359827422888700,3.325888671875,0.0005136443651281297,0.005174068734049797,-0.0035235919058322906
1733359827432854800,3.335854736328125,-0.0004917035112157464,0.011332482099533081,-0.002292939927428961
1733359827442820900,3.34582080078125,0.0016201832331717014,0.00903763622045517,-0.0044751339592039585
1733359827452786000,3.355785888671875,-0.0009760390385054052,0.0039012571796774864,-0.004953834228217602
1733359827462751200,3.365751220703125,0.00019948022963944823,0.0031608985736966133,-0.00420335540547967
1733359827472716000,3.375716064453125,0.0015429132618010044,0.007629349362105131,-0.005177833139896393
1733359827482682000,3.38568212890625,0.0021732833702117205,0.0026441779918968678,-0.000997735420241952
1733359827492647200,3.395647216796875,0.0037304232828319073,-0.0017034504562616348,-0.0001426928211003542
1733359827502613200,3.40561328125,0.001531717600300908,-0.0005289968103170395,-0.00402238592505455
1733359827512579300,3.415579345703125,0.003782946616411209,-0.0019246656447649002,0.0009487357456237078
1733359827522544000,3.425544189453125,0.004073763731867075,0.003681554924696684,0.0030739381909370422
1733359827532510200,3.43551025390625,0.0015244601527228951,0.003421895671635866,-0.0013536165934056044
1733359827542475300,3.445475341796875,0.0009129984537139535,-0.003393399529159069,0.0000954093411564827
1733359827552441000,3.455441162109375,0.0010483149671927094,-0.0007594423368573189,0.000533781130798161
1733359827562406400,3.465406494140625,0.001615301938727498,0.0034230523742735386,0.0008690730901435018
1733359827572372200,3.475372314453125,0.0002848744043149054,-0.0003104452043771744,-0.0009690877050161362
1733359827582338000,3.485338134765625,0.0003123049682471901,0.004159138072282076,0.00000829249620437622
1733359827592303400,3.495303466796875,-0.00019097563927061856,0.007134688086807728,0.0008162955055013299
1733359827602269200,3.505269287109375,-0.0005979066481813788,0.0066816844046115875,0.0047545782290399075
1733359827612234200,3.515234130859375,-0.0003437513660173863,0.00019315816462039948,0.0024128605145961046
1733359827622200300,3.525200439453125,0.000267177791101858,-0.0013400232419371605,-0.0018836171366274357
1733359827632165000,3.5351650390625,-0.00023559408145956695,-0.0023927222937345505,-0.002941609127447009
1733359827642131200,3.545131103515625,-0.0008188263745978475,-0.0008957590907812119,-0.0011136152315884829
1733359827652097300,3.55509716796875,0.0020740306936204433,-0.004022419452667236,-0.00020409747958183289
1733359827662062000,3.56506201171875,0.0009357956005260348,-0.0053848931565880775,-0.00020356476306915283
1733359827672028400,3.5750283203125,0.0030546807684004307,-0.00636440422385931,-0.0014272872358560562
1733359827681993200,3.5849931640625,-0.000027129121008329093,-0.0018580686300992966,-0.0013412672560662031
1733359827691959000,3.594958984375,0.003001200035214424,0.0011860188096761703,0.001721117878332734
1733359827701924000,3.604924072265625,0.002946605207398534,-0.0021072467789053917,0.0011000687954947352
1733359827711890200,3.61489013671875,0.003983158152550459,-0.0039443159475922585,-0.000177016481757164
1733359827721856000,3.62485595703125,0.002853445243090391,-0.0036143502220511436,-0.0024036853574216366
1733359827731821300,3.6348212890625,0.00658969022333622,-0.004197312518954277,-0.004504069685935974
1733359827741787100,3.644787109375,0.0023768357932567596,-0.00716647133231163,-0.0019037595484405756
1733359827751752200,3.654752197265625,0.00315070734359324,-0.00882699340581894,-0.0008321902714669704
1733359827761718300,3.66471826171875,0.0009157827589660883,-0.006412040442228317,-0.00030062347650527954
1733359827771683300,3.674683349609375,-0.00047730264486745,-0.002786824479699135,0.001964133931323886
1733359827781649200,3.684649169921875,-0.00190848542843014,-0.006106189452111721,-0.00005986844189465046
1733359827791615200,3.694615234375,-0.0003126721130684018,-0.00495839212089777,0.0011404285905882716
1733359827801580300,3.704580322265625,-0.0019340045982971787,-0.004273427650332451,-0.00007210858166217804
1733359827811546000,3.714546142578125,-0.0029521046672016382,-0.002752949483692646,-0.00015150266699492931
1733359827821511200,3.72451123046875,-0.0023102827835828066,-0.003969214856624603,-0.0018964058253914118
1733359827831477200,3.734477294921875,-0.0032123285345733166,-0.0035358192399144173,-0.0011193887330591679
1733359827841442000,3.744442138671875,-0.0009265373228117824,-0.006729749031364918,0.00038662878796458244
1733359827851408100,3.754408203125,-0.00018721743253991008,-0.00690197478979826,0.00005197734571993351
1733359827861374200,3.764374267578125,0.00006072285759728402,-0.007901459001004696,-0.0025392784737050533
1733359827871339000,3.774339111328125,0.0005302226636558771,-0.004441592842340469,-0.002862747758626938
1733359827881305300,3.784305419921875,0.001249808818101883,-0.005913788452744484,-0.0010440750047564507
1733359827891270100,3.794270263671875,0.0010356733109802008,-0.0050666918978095055,-0.0007896246388554573
1733359827901236200,3.804236328125,0.001395998988300562,-0.00593381654471159,-0.0020037598442286253
1733359827911201300,3.814201171875,0.002427454339340329,-0.005188755691051483,-0.0040006134659051895
1733359827921167000,3.8241669921875,0.004349723923951387,-0.0029738042503595352,-0.0050355177372694016
1733359827931132200,3.834132080078125,0.0029907217249274254,-0.0003745332360267639,-0.004144168458878994
1733359827941098200,3.84409814453125,0.003448252798989415,0.0007168296724557877,-0.003120449371635914
1733359827951064000,3.85406396484375,0.010606260038912296,0.002406023908406496,-0.004474756307899952
1733359827961029400,3.864029296875,0.02587762475013733,0.005562402307987213,-0.010909752920269966
1733359827970995200,3.8739951171875,0.029651610180735588,0.0011311648413538933,-0.011043066158890724
1733359827980960300,3.883960205078125,0.0223739892244339,0.002541575115174055,-0.008682707324624062
1733359827990926300,3.89392626953125,0.012801294215023518,0.005262305960059166,-0.008915111422538757
1733359828000892200,3.90389208984375,0.0068605812266469,0.0061616552993655205,-0.006253815721720457
1733359828010857200,3.913857177734375,0.002483136486262083,0.004930389113724232,-0.0017263004556298256
1733359828020823300,3.9238232421875,0.0005859004450030625,0.0028374111279845238,-0.000725484685972333
1733359828030788000,3.9337880859375,-0.0018548757070675492,0.0021646618843078613,-0.0013855623546987772
1733359828040754200,3.943754150390625,-0.0010261000134050846,0.002193690277636051,0.00005920254625380039
1733359828050719200,3.95371923828125,-0.0026314733549952507,-0.0024737566709518433,0.0025584702380001545
1733359828060685000,3.96368505859375,-0.0037167114205658436,-0.007498076185584068,0.0028879032470285892
1733359828070650000,3.973650146484375,-0.001403223373927176,-0.009103963151574135,0.0023107961751520634
1733359828080616200,3.9836162109375,-0.00209404737688601,-0.009812630712985992,0.0005331361899152398
1733359828090582000,3.99358203125,-0.001631211955100298,-0.009352102875709534,0.0007177192019298673
1733359828100547000,4.003547119140625,-0.0007909846026450396,-0.005771482363343239,0.0020727356895804405
1733359828110513200,4.01351318359375,0.000395473325625062,-0.0067427437752485275,0.003161811735481024
1733359828120478200,4.023478271484375,0.001711074961349368,-0.0078114718198776245,-0.0006635526660829782
1733359828130444300,4.0334443359375,0.002071939641609788,-0.007391403429210186,-0.0017726339865475893
1733359828140410000,4.04341015625,0.002576076192781329,-0.007774633355438709,-0.0038355186115950346
1733359828150375200,4.053375244140625,0.0034030163660645485,-0.00987318716943264,-0.001398628344759345
1733359828160341200,4.06334130859375,0.0008202829048968852,-0.01185297966003418,0.0005966118769720197
1733359828170306300,4.073306396484375,-0.00034757485263980925,-0.011431319639086723,0.0016430423129349947
1733359828180272000,4.083272216796875,-0.00047753710532560945,-0.012472083792090416,0.00222387770190835
1733359828190237200,4.0932373046875,-0.004273599945008755,-0.014857389032840729,0.0025478436145931482
1733359828200203300,4.103203369140625,-0.0037508218083530664,-0.017965298146009445,0.004074101336300373
1733359828210169000,4.113169189453125,-0.005078616552054882,-0.018776994198560715,0.005285237450152636
1733359828220134100,4.123134033203125,-0.009177753701806068,-0.018226519227027893,0.008442681282758713
1733359828230100200,4.133100341796875,-0.010859079658985138,-0.023436076939105988,0.011126568540930748
1733359828240065000,4.14306494140625,-0.014377914369106293,-0.02470960095524788,0.015930378809571266
1733359828250031400,4.15303125,-0.018164630979299545,-0.026558466255664825,0.01824369467794895
1733359828259996200,4.16299609375,-0.01946771703660488,-0.028900716453790665,0.023681869730353355
1733359828269962200,4.172962158203125,-0.021116746589541435,-0.03534897044301033,0.03516475856304169
1733359828279927300,4.18292724609375,-0.018468232825398445,-0.038863543421030045,0.05498187243938446
1733359828289893000,4.19289306640625,-0.014507806859910488,-0.03903373330831528,0.062290068715810776
1733359828299859200,4.202859130859375,-0.01129976287484169,-0.04248412698507309,0.06654606759548187
1733359828309824300,4.21282421875,-0.009739185683429241,-0.03786125034093857,0.06905720382928848
1733359828319790000,4.2227900390625,-0.008457672782242298,-0.042707137763500214,0.07978121936321259
1733359828329755400,4.23275537109375,-0.006819086614996195,-0.03986425697803497,0.08234484493732452
1733359828339721200,4.24272119140625,-0.002751906868070364,-0.04187148064374924,0.08352302759885788
1733359828349686300,4.252686279296875,-0.003737763501703739,-0.04035206884145737,0.0848778560757637
1733359828359652400,4.26265234375,-0.001114017330110073,-0.04423122853040695,0.08831866085529327
1733359828369618200,4.2726181640625,-0.002022185828536749,-0.053429748862981796,0.09211289882659912
1733359828379583200,4.282583251953125,-0.00118675222620368,-0.06311407685279846,0.09320453554391861
1733359828389549300,4.29254931640625,-0.00041435626917518675,-0.0741204097867012,0.09376290440559387
1733359828399514000,4.30251416015625,-0.0016940050991252065,-0.07504239678382874,0.09385211765766144
1733359828409480200,4.312480224609375,-0.0014791388530284166,-0.06863664835691452,0.08210191875696182
1733359828419446300,4.3224462890625,-0.0024482631124556065,-0.07452116906642914,0.07760117948055267
1733359828429411000,4.3324111328125,-0.005265900865197182,-0.07634720206260681,0.07185275852680206
1733359828439377400,4.34237744140625,-0.00462407898157835,-0.06724318861961365,0.06948307901620865
1733359828449342200,4.35234228515625,-0.003586491569876671,-0.058764487504959106,0.06145455315709114
1733359828459308000,4.36230810546875,-0.003962796647101641,-0.05426907539367676,0.04886605963110924
1733359828469272800,4.37227294921875,-0.004760157782584429,-0.050123028457164764,0.034828949719667435
1733359828479238700,4.38223876953125,-0.00651305029168725,-0.04418444633483887,0.0231294147670269
1733359828489205000,4.392205078125,-0.005906113889068365,-0.033434655517339706,0.013543231412768364
1733359828499169800,4.402169677734375,-0.0035585369914770126,-0.019471436738967896,0.0012998811434954405
1733359828509136000,4.412135986328125,-0.002028302289545536,-0.017609940841794014,-0.0031981775537133217
1733359828519101000,4.422100830078125,-0.00259289238601923,-0.014837324619293213,0.0005385037511587143
1733359828529066800,4.432066650390625,-0.0029851235449314117,-0.014268046244978905,-0.0004890067502856255
1733359828539031800,4.44203173828125,-0.0016873651184141636,-0.009838409721851349,-0.0020967568270862103
1733359828548998000,4.451997802734375,-0.00009937699360307306,-0.008548209443688393,-0.0039035130757838488
1733359828558963700,4.461963623046875,0.0018505895277485251,-0.004024830646812916,-0.007712099701166153
1733359828568929000,4.471928955078125,0.002473267260938883,0.002553404774516821,-0.01163790188729763
1733359828578894800,4.481894775390625,0.0027606221847236156,0.009121558628976345,-0.018879035487771034
1733359828588860000,4.49185986328125,0.0054589021019637585,0.01376200933009386,-0.025409331545233727
1733359828598826000,4.501825927734375,0.0052184187807142735,0.019284339621663094,-0.0333293080329895
1733359828608790800,4.511790771484375,0.005096458829939365,0.018168650567531586,-0.038083598017692566
1733359828618756900,4.5217568359375,0.005947871599346399,0.016658904030919075,-0.03854565694928169
1733359828628723000,4.531722900390625,0.0057795667089521885,0.021813806146383286,-0.035662923008203506
1733359828638687700,4.541687744140625,0.005106585565954447,0.02237679809331894,-0.03368312865495682
1733359828648653800,4.55165380859375,0.0038791063707321882,0.014791027642786503,-0.030494097620248795
1733359828658619000,4.561618896484375,0.002205043099820614,0.013220828026533127,-0.021357856690883636
1733359828668584700,4.571584716796875,-0.00007216663652798161,0.012038099579513073,-0.014824259094893932
1733359828678549800,4.5815498046875,0.0017779313493520021,0.005759431514889002,-0.011107019148766994
1733359828688515800,4.591515869140625,-0.0021092097740620375,-0.0010491805151104927,-0.004751395899802446
1733359828698482000,4.60148193359375,-0.002873537130653858,0.0008794814348220825,0.0031557956244796515
1733359828708446700,4.61144677734375,-0.0018538344884291291,0.0035613523796200752,0.0029702000319957733
1733359828718412800,4.621412841796875,-0.002223481424152851,0.00593742448836565,0.0034029637463390827
1733359828728377900,4.6313779296875,-0.0027560917660593987,0.00548275513574481,0.0033997411374002695
1733359828738344000,4.641343994140625,-0.004907393362373114,0.0036446410231292248,0.005023470148444176
1733359828748309000,4.65130908203125,-0.005075995344668627,0.001984553411602974,0.008740874007344246
1733359828758274800,4.66127490234375,-0.005040043033659458,0.004694319795817137,0.010768870823085308
1733359828768241000,4.671240966796875,-0.0045244283974170685,-0.00026760250329971313,0.013659966178238392
1733359828778206000,4.6812060546875,-0.0038194898515939713,-0.006277292035520077,0.017339656129479408
1733359828788171800,4.691171875,-0.006429383065551519,-0.0029037194326519966,0.020509345456957817
1733359828798136800,4.70113671875,-0.005493814591318369,-0.0093624172732234,0.020178847014904022
1733359828808103000,4.71110302734375,-0.004794228356331587,-0.016789786517620087,0.020825760439038277
1733359828818067700,4.721067626953125,-0.005554294679313898,-0.01963803730905056,0.02505326271057129
1733359828828034000,4.731033935546875,-0.0069175404496490955,-0.020481646060943604,0.026386940851807594
1733359828837999900,4.740999755859375,-0.006450954359024763,-0.02161242440342903,0.024887049570679665
1733359828847964700,4.750964599609375,-0.005729567725211382,-0.019789885729551315,0.019584903493523598
1733359828857931000,4.760930908203125,-0.004470425192266703,-0.02072811871767044,0.018184879794716835
1733359828867895800,4.770895751953125,-0.003354794578626752,-0.01633559726178646,0.013332962058484554
1733359828877862000,4.78086181640625,-0.0016791335074231029,-0.010410064831376076,0.00915526133030653
1733359828887827000,4.790826904296875,-0.002164378995075822,-0.01535161305218935,0.012403273023664951
1733359828897792800,4.800792724609375,-0.0019515922758728266,-0.011908943764865398,0.014090651646256447
1733359828907758800,4.8107587890625,0.0003959885216318071,-0.010386002250015736,0.008688957430422306
1733359828917724000,4.820723876953125,-0.0006844559102319181,-0.00484662689268589,0.0019338491838425398
1733359828927689700,4.830689697265625,-0.0007992118480615318,-0.004626037552952766,0.003488571150228381
1733359828937655000,4.840655029296875,0.0002018703962676227,-0.002251296304166317,0.00401427922770381
1733359828947620900,4.850620849609375,-0.00017926513100974262,-0.0034630829468369484,0.005427530035376549
1733359828957586000,4.8605859375,0.0005344620440155268,-0.004289728589355946,0.003220035694539547
1733359828967552000,4.870552001953125,0.00026577964308671653,-0.002671363763511181,0.004047177266329527
1733359828977517800,4.880517822265625,0.0013883020728826523,-0.0013320595026016235,0.0010473924921825528
1733359828987483000,4.89048291015625,0.00185594882350415,-0.0011345995590090752,0.0005688276141881943
1733359828997449000,4.900448974609375,0.0011507438030093908,0.0034585543908178806,0.0017688480438664556
1733359829007413800,4.910413818359375,0.0010601982939988375,0.003659029956907034,0.0015077225398272276
1733359829017379800,4.9203798828125,0.0024612871930003166,0.0005026515573263168,0.0008270185207948089
1733359829027345000,4.930344970703125,0.0010615255450829864,-0.0013513220474123955,-0.0022470629774034023
1733359829037310700,4.940310791015625,-0.0008152039954438806,0.000600774772465229,-0.0014545060694217682
1733359829047277000,4.950277099609375,0.0008386058616451919,-0.0009501557797193527,-0.00041585788130760193
1733359829057241900,4.960241943359375,0.0004660296253859997,0.000659458339214325,-0.0018667480908334255
1733359829067208000,4.9702080078125,-0.00045643860357813537,-0.0003488631919026375,-0.001621132716536522
1733359829077172700,4.9801728515625,-0.0005693566054105759,-0.0027076248079538345,-0.006217482499778271
1733359829087138800,4.990138916015625,-0.0004761769960168749,0.000029081478714942932,-0.004155358765274286
1733359829097104000,5.000103759765625,-0.0013632759219035506,0.0021574804559350014,-0.0033095390535891056
1733359829107070000,5.010070068359375,-0.0005491673364304006,0.001928986981511116,-0.0031109768897295
1733359829117035800,5.020035888671875,0.0007222257554531097,0.0030118287540972233,-0.0018784659914672375
1733359829127000800,5.030000732421875,0.00021968723740428686,0.0009500095620751381,-0.003888886421918869
1733359829136967000,5.039966796875,0.0007874731672927737,0.002788922283798456,-0.00407610647380352
1733359829146932000,5.049931884765625,0.00019015019643120468,0.004441286902874708,-0.0025939529296010733
1733359829156897800,5.059897705078125,0.0003241071826778352,0.004573113285005093,-0.001498861238360405
1733359829166862800,5.06986279296875,0.001744617591612041,0.002954983152449131,-0.0027791522443294525
1733359829176829000,5.079828857421875,0.0012886844342574477,0.005569142289459705,-0.00265691289678216
1733359829186794800,5.089794677734375,0.0030961805023252964,0.009636081755161285,-0.004410082474350929
1733359829196760000,5.099760009765625,0.0015821736305952072,0.008298375643789768,-0.004507554229348898
1733359829206726000,5.109725830078125,0.0021134784910827875,0.007153097074478865,-0.004382390528917313
1733359829216690700,5.119690673828125,0.0004463396908249706,0.007666554301977158,-0.005167224444448948
1733359829226657000,5.129656982421875,0.0018578483723104,0.010517633520066738,-0.004193480126559734
1733359829236621800,5.139621826171875,0.001632012310437858,0.0055423155426979065,-0.002752177184447646
1733359829246587600,5.149587646484375,0.0020380914211273193,0.0018957583233714104,-0.0036836869549006224
1733359829256554000,5.159553955078125,0.0005025127320550382,0.001304803416132927,-0.004324709996581078
1733359829266518800,5.169518798828125,0.0008109264308586717,0.0008185021579265594,-0.00505989883095026
1733359829276484900,5.17948486328125,0.00019387202337384224,0.0006203632801771164,-0.005169088952243328
1733359829286450000,5.189449951171875,0.0003406233445275575,-0.0014042053371667862,-0.0030890400521457195
1733359829296415700,5.199415771484375,0.0019896526355296373,0.0008549541234970093,-0.0025614676997065544
1733359829306380800,5.209380859375,0.000641278806142509,0.0047441208735108376,-0.0015647609252482653
1733359829316347000,5.219346923828125,0.0035374662838876247,0.00250200554728508,-0.00334694841876626
1733359829326312700,5.229312744140625,0.0007056922768242657,0.0005223704501986504,-0.0040816739201545715
1733359829336278000,5.239278076171875,0.00014616214320994914,0.002373266965150833,-0.004649459850043058
1733359829346243800,5.249243896484375,0.00004498163616517559,0.00029173679649829865,-0.0028466556686908007
1733359829356209000,5.259208984375,-0.0006660823710262775,-0.0036563994362950325,-0.004937237128615379
1733359829366175000,5.269175048828125,-0.0005962634459137917,-0.0040163276717066765,-0.00558443833142519
1733359829376140800,5.279140869140625,0.000013866738299839199,-0.003883169963955879,-0.005239824764430523
1733359829386105900,5.28910595703125,0.0015387401217594743,-0.0030316514894366264,-0.003821095684543252
1733359829396072000,5.299072021484375,0.00026681434246711433,0.0016105053946375847,-0.0034860700834542513
1733359829406036700,5.30903662109375,0.0012232015142217278,0.00360075943171978,-0.0018998133018612862
1733359829416002800,5.3190029296875,0.002303113229572773,0.0030343052931129932,-0.002290499396622181
1733359829425967900,5.3289677734375,0.0025771174114197493,0.0031306054443120956,-0.004338694270700216
1733359829435934000,5.338933837890625,0.0018202470382675529,0.008843086659908295,-0.0026326728984713554
1733359829445900000,5.348900146484375,0.0005789806018583477,0.009810512885451317,-0.002403547754511237
1733359829455864800,5.35886474609375,0.0015949765220284462,0.0067124576307833195,-0.00027514947578310966
1733359829465831200,5.3688310546875,0.0005572419613599777,0.008019844070076942,-0.0008977099787443876
1733359829475796000,5.3787958984375,-0.00030508957570418715,0.005999570246785879,-0.001196516677737236
1733359829485761800,5.38876171875,0.00033722291118465364,0.006006752606481314,-0.0013368050567805767
1733359829495726800,5.398726806640625,-0.0024396551307290792,0.00674817617982626,-0.0040700072422623634
1733359829505693000,5.40869287109375,0.0005214257398620248,0.008108260110020638,-0.005116472952067852
1733359829515658800,5.41865869140625,0.0004939952050335705,0.009691775776445866,-0.003981433808803558
1733359829525624000,5.4286240234375,0.0005416067433543503,0.010574966669082642,-0.0016363949980586767
1733359829535590000,5.43858984375,-0.0011156783439218998,0.010817314498126507,-0.0008819212671369314
1733359829545555000,5.448554931640625,-0.0007674029329791665,0.005819572601467371,-0.0005969423800706863
1733359829555521000,5.45852099609375,-0.0013708751648664474,0.004951914772391319,-0.0007735099643468857
1733359829565486000,5.468486083984375,-0.000723400036804378,0.006495863199234009,0.000724899466149509
1733359829575452000,5.478451904296875,0.00013786621275357902,0.002790341153740883,0.0014370287535712123
1733359829585418000,5.48841796875,-0.001229825196787715,-0.00022260751575231552,-0.0009540724568068981
1733359829595383000,5.498383056640625,-0.0010050544515252113,-0.00014351122081279755,-0.003038528375327587
1733359829605348900,5.508348876953125,-0.0005573932430706918,0.005512238014489412,-0.003888198174536228
1733359829615314000,5.51831396484375,-0.0003946741344407201,0.005037662573158741,-0.003474875818938017
1733359829625280000,5.528280029296875,0.0005768748815171421,0.006222742144018412,-0.005460591055452824
1733359829635244800,5.538244873046875,-0.0004351262759882957,0.007698133587837219,-0.0029082177206873894
1733359829645211000,5.5482109375,0.002501905430108309,0.00952948909252882,-0.0009574634023010731
1733359829655177000,5.558177001953125,0.002151966094970703,0.005437808111310005,-0.0031332660000771284
1733359829665142000,5.56814208984375,0.0025403262116014957,0.004005852621048689,-0.0024988201912492514
1733359829675107800,5.57810791015625,0.0024268755223602057,0.0024335221387445927,-0.0031688713934272528
1733359829685073000,5.588072998046875,0.0021648635156452656,0.003144953865557909,-0.004654177464544773
1733359829695039000,5.5980390625,-0.000752363121137023,0.0038938350044190884,-0.00442594476044178
1733359829705004000,5.608004150390625,0.0009015300311148167,0.0074126869440078735,-0.005044805817306042
1733359829714969900,5.617969970703125,0.0010477375471964478,0.0030158082954585552,-0.003159553976729512
1733359829724936000,5.62793603515625,-0.001218607067130506,0.003162823151797056,-0.002027270384132862
1733359829734901000,5.63790087890625,-0.001185850240290165,0.00012974906712770462,-0.0009814468212425709
1733359829744866800,5.64786669921875,-0.0019658685196191072,-0.0008830409497022629,0.0022869014646857977
1733359829754832100,5.65783203125,-0.0026894493494182825,0.002150566317141056,0.003972948528826237
1733359829764798000,5.6677978515625,-0.0013459839392453432,0.003050763625651598,0.0031104404479265213
1733359829774762800,5.6777626953125,-0.0008951107156462967,0.002786311786621809,0.003927498124539852
1733359829784729000,5.68772900390625,-0.00008026482828427106,0.007431844249367714,0.003505527973175049
1733359829794695000,5.69769482421875,-0.0037471712566912174,0.00501875439658761,0.001920947222970426
1733359829804660000,5.707659912109375,-0.0003252932510804385,0.007640216499567032,0.0006304942071437836
1733359829814626000,5.7176259765625,0.00017617997946217656,0.007246867287904024,-0.00011785398237407207
1733359829824590800,5.7275908203125,-0.00012163536302978173,0.00881974771618843,-0.0025381988380104303
1733359829834557200,5.73755712890625,-0.0009597321040928364,0.010772909969091415,-0.0009698632638901472
1733359829844522000,5.74752197265625,0.0022395506966859102,0.013457251712679863,-0.0031972252763807774
1733359829854487800,5.75748779296875,0.002592419506981969,0.013223426416516304,-0.0029223873279988766
1733359829864454100,5.7674541015625,0.003044647630304098,0.013532880693674088,-0.002089773304760456
1733359829874419000,5.7774189453125,0.0029748729430139065,0.012773612514138222,-0.0016857716254889965
1733359829884384800,5.787384765625,0.002529059536755085,0.011540715582668781,-0.0009712509345263243
1733359829894350000,5.79735009765625,0.0015902952291071415,0.012776155956089497,-0.002241578884422779
1733359829904316000,5.80731591796875,0.001898116897791624,0.010144452564418316,-0.0018430235795676708
1733359829914281000,5.817281005859375,-0.00038075001793913543,0.007574768736958504,-0.0003860080614686012
1733359829924247000,5.8272470703125,0.00004643714419216849,0.008324493654072285,-0.0012980529572814703
1733359829934212900,5.837212890625,-0.0007218848331831396,0.004632554017007351,-0.0028666548896580935
1733359829944178000,5.847177978515625,0.0007249456830322742,0.0051776631735265255,-0.002279625739902258
1733359829954144000,5.85714404296875,-0.0003616240283008665,0.006065294612199068,-0.0011054379865527153
1733359829964109000,5.867109130859375,-0.00047132401959970593,0.0032739443704485893,0.0011798052582889795
1733359829974075000,5.877074951171875,-0.0006130041438154876,0.004444669932126999,-0.00016216165386140347
1733359829984041000,5.887041015625,0.000007300273864530027,0.004240165930241346,0.0007080860668793321
1733359829994006000,5.897006103515625,-0.0008305301889777184,0.002528818789869547,-0.000934018986299634
1733359830003972000,5.90697216796875,-0.0020690937526524067,-0.00065578892827034,-0.0001964867115020752
1733359830013937000,5.91693701171875,-0.00045681610936298966,-0.0017657950520515442,-0.0005741231143474579
1733359830023903000,5.926903076171875,-0.0010543351527303457,0.0011869892477989197,0.0003326358273625374
1733359830033867800,5.93686767578125,-0.0005531281931325793,-0.0005374075844883919,0.0007883027428761125
1733359830043833900,5.946833740234375,-0.0005136405234225094,0.00003766361624002457,0.001295651076361537
1733359830053800000,5.956800048828125,-0.0005368100246414542,0.0006789527833461761,0.0010618255473673344
1733359830063765000,5.966764892578125,0.00024253007723018527,0.0012480104342103004,0.0032502752728760242
1733359830073731000,5.97673095703125,-0.0004877086903434247,-0.003225834108889103,0.0033759765792638063
1733359830083695900,5.98669580078125,-0.0010620488319545984,-0.0009630266577005386,0.0025805216282606125
1733359830093662000,5.996661865234375,-0.0019153255270794034,-0.0005536992102861404,0.005902016069740057
1733359830103627000,6.006626953125,-0.002182251075282693,-0.0021064477041363716,0.004657625686377287
1733359830113592800,6.0165927734375,0.00047398588503710926,-0.0016071051359176636,0.0031417543068528175
1733359830123559000,6.026558837890625,-0.00007683049625484273,-0.004353698343038559,0.0035182456485927105
1733359830133524000,6.03652392578125,-0.000736495538149029,-0.002236485481262207,0.004245555028319359
1733359830143489800,6.04648974609375,-0.0022198520600795746,-0.0020927460864186287,0.007339433766901493
1733359830153455000,6.056455078125,-0.0009226261172443628,-0.004344714805483818,0.004135118797421455
1733359830163421000,6.0664208984375,-0.00159218511544168,-0.008751175366342068,0.0030859895050525665
1733359830173386000,6.076385986328125,-0.0019551741424947977,-0.007390831597149372,0.0017333700088784099
1733359830183352000,6.08635205078125,0.00035409274278208613,-0.0023399535566568375,0.0015267918352037668
1733359830193318000,6.09631787109375,-0.0012717670761048794,-0.0029442254453897476,0.0027545092161744833
1733359830203283000,6.106282958984375,-0.00043501550680957735,-0.0016195029020309448,0.005147119984030724
1733359830213249000,6.1162490234375,-0.0003745617577806115,-0.0018922099843621254,0.0025670493487268686
1733359830223213800,6.1262138671875,-0.00021526741329580545,-0.005585327744483948,0.0012449411442503333
1733359830233180200,6.13618017578125,-0.0009843884035944939,-0.004969071596860886,-0.00025681545957922935
1733359830243145000,6.14614501953125,-0.0019121208461001515,-0.002309972420334816,0.0006611502030864358
1733359830253110800,6.15611083984375,-0.0012135737342759967,-0.0009192703291773796,0.00015195365995168686
1733359830263077000,6.1660771484375,-0.00011462269321782514,0.0010275347158312798,0.003396629123017192
1733359830273042000,6.1760419921875,-0.0009460616274736822,0.0008728047832846642,0.00196304963901639
1733359830283007700,6.1860078125,0.0014986549504101276,-0.0023268908262252808,0.002132175723090768
1733359830292973000,6.19597314453125,-0.0003602314682211727,-0.004710686393082142,0.0020991526544094086
1733359830302939000,6.20593896484375,0.00018275051843374968,-0.0053831664845347404,0.0021722435485571623
1733359830312904000,6.215904052734375,0.0004488003032747656,-0.007259630598127842,0.000915764132514596
1733359830322870000,6.2258701171875,-0.0036510510835796595,-0.003660796210169792,0.0018302511889487505
1733359830332835800,6.2358359375,-0.0025082887150347233,-0.007721050642430782,0.0031059053726494312
1733359830342801000,6.24580078125,-0.0010327885393053293,-0.006733628921210766,0.004084116313606501
1733359830352767000,6.25576708984375,-0.0012780656106770039,-0.008288116194307804,0.0032297740690410137
1733359830362732000,6.26573193359375,-0.002614520723000169,-0.00760442391037941,0.0023348217364400625
1733359830372697900,6.27569775390625,-0.0001614829816389829,-0.006472580134868622,0.0018685022369027138
1733359830382663000,6.285662841796875,-0.0009318271768279374,-0.006303529255092144,0.0014068403979763389
1733359830392629000,6.29562890625,-0.0022652719635516405,-0.005511238239705563,0.0012361317640170455
1733359830402595000,6.305594970703125,-0.00000998520408757031,-0.0036712074652314186,0.0019391851965337992
1733359830412560000,6.315559814453125,-0.001385241630487144,-0.005284816958010197,0.000992697780020535
1733359830422526000,6.32552587890625,-0.0013348330976441503,-0.004940849728882313,0.003314859699457884
1733359830432490800,6.33549072265625,0.0005022154073230922,-0.0054614972323179245,0.002712186425924301
1733359830442457000,6.34545703125,-0.0011711830738931894,-0.005989027209579945,0.0034939113538712263
1733359830452422000,6.355421875,-0.000030284776585176587,-0.006719532422721386,0.0022006803192198277
1733359830462388500,6.365388427734375,0.0005834047915413976,-0.0066523924469947815,0.00021938304416835308
1733359830472354600,6.3753544921875,-0.0001385781797580421,-0.003639558330178261,0.0018974409904330969
1733359830482319600,6.385319580078125,0.0008982093422673643,-0.002238687127828598,-0.0004945206455886364
1733359830492285400,6.395285400390625,0.0007741060107946396,-0.0010173618793487549,0.0008426525164395571
1733359830502250800,6.405250732421875,0.0011840930674225092,-0.0015299413353204727,0.0017709669191390276
1733359830512216600,6.415216552734375,0.0017936906078830361,-0.00017625652253627777,0.0035614101216197014
1733359830522181600,6.425181640625,-0.00012184079241706058,-0.0007947217673063278,0.0015159515896812081
1733359830532147700,6.435147705078125,0.0004166503786109388,0.00247137900441885,0.0036456813104450703
1733359830542113500,6.445113525390625,-0.0008032960467971861,-0.00007855799049139023,0.0036992342211306095
1733359830552078800,6.455078857421875,-0.003733039600774646,-0.0008516740053892136,0.003829462919384241
1733359830562044700,6.465044677734375,-0.0005797244375571609,-0.0008420050144195557,0.0043863337486982346
1733359830572009500,6.475009521484375,-0.0006886476767249405,-0.0003059105947613716,0.0035295947454869747
1733359830581975800,6.484975830078125,-0.0033266327809542418,0.0004431772977113724,0.00774178933352232
1733359830591941600,6.494941650390625,-0.0012506988132372499,-0.0009749559685587883,0.009746083989739418
1733359830601906400,6.504906494140625,-0.0010217410745099187,-0.003598109818994999,0.00880497321486473
1733359830611872800,6.514872802734375,0.00008054137288127095,-0.0032532308250665665,0.009392466396093369
1733359830621837600,6.524837646484375,0.0002291949203936383,-0.006615437567234039,0.006849709432572126
1733359830631803400,6.534803466796875,-0.0008070410694926977,-0.007057256996631622,0.0038177003152668476
1733359830641768700,6.544768798828125,0.00030344881815835834,-0.00388123095035553,0.0028001631144434214
1733359830651734500,6.554734619140625,0.0010185075225308537,-0.0030314167961478233,0.0014107919996604323
1733359830661700600,6.56470068359375,0.002033822936937213,-0.0028686653822660446,0.0010165239218622446
1733359830671665700,6.574665771484375,0.00007959527283674106,-0.0038178162649273872,0.0002926767338067293
1733359830681631500,6.584631591796875,-0.0007384073687717319,-0.006699327379465103,0.000147524056956172
1733359830691596500,6.594596435546875,-0.0005788839189335704,-0.007111851125955582,-0.0003598080947995186
1733359830701562600,6.604562744140625,0.00070750224404037,-0.01177546102553606,-0.00021253013983368874
1733359830711527700,6.614527587890625,0.00022360587900038809,-0.01405565906316042,-0.00046845991164445877
1733359830721493800,6.62449365234375,0.0008950732881203294,-0.0120156304910779,-0.00012695393525063992
1733359830731459600,6.63445947265625,-0.00046287255827337503,-0.010017727501690388,-0.0010401520412415266
1733359830741424600,6.644424560546875,-0.0007028825348243117,-0.009705597534775734,-0.0013979237992316484
1733359830751390700,6.654390625,0.0008950140327215195,-0.007533522322773933,-0.002304996596649289
1733359830761355500,6.66435546875,0.00010426215885672718,-0.0076125673949718475,0.0007834502030164003
1733359830771321600,6.674321533203125,0.00018442330474499613,-0.008435750380158424,0.002385874278843403
1733359830781286700,6.68428662109375,0.000817752443253994,-0.009632892906665802,0.0014407394919544458
1733359830791252700,6.694252685546875,0.0017597125843167305,-0.010237431153655052,0.0020900180097669363
1733359830801218600,6.704218505859375,0.0018871488282456994,-0.014740982092916965,-0.0006615545134991407
1733359830811183600,6.71418359375,0.002430433640256524,-0.014837388880550861,0.001146731898188591
1733359830821149700,6.724149658203125,0.0046472069807350636,-0.012653389945626259,0.0006302092224359512
1733359830831114500,6.734114501953125,0.004559322260320187,-0.01109597459435463,0.0005705544026568532
1733359830841080600,6.74408056640625,0.006469910033047199,-0.006214027293026447,0.002082121791318059
1733359830851045600,6.754045654296875,0.008532527834177017,-0.004592429846525192,0.0014885033015161753
1733359830861011500,6.764011474609375,0.00830321665853262,-0.005290883593261242,-0.0008856886997818947
1733359830870977500,6.7739775390625,0.010667304508388042,-0.005232027731835842,-0.0028108879923820496
1733359830880942600,6.783942626953125,0.012438562698662281,-0.004940110258758068,-0.005166307091712952
1733359830890908700,6.79390869140625,0.010128003545105457,-0.00799555517733097,-0.0056693777441978455
1733359830900873700,6.803873779296875,0.007972944527864456,-0.00815536454319954,-0.005605828016996384
1733359830910839600,6.813839599609375,0.003032248467206955,-0.006072772666811943,-0.007644210942089558
1733359830920804600,6.8238046875,-0.0002527475298848003,-0.005427848547697067,-0.007838638499379158
1733359830930770700,6.833770751953125,-0.0009182714275084436,-0.003519427962601185,-0.007755281403660774
1733359830940736500,6.843736572265625,0.0012298939982429147,-0.002201720140874386,-0.005877424962818623
1733359830950701800,6.853701904296875,0.0007707650074735284,-0.003925051540136337,-0.0010696209501475096
1733359830960667600,6.863667724609375,-0.00006473922258010134,-0.007904290221631527,-0.0007627392187714577
1733359830970632400,6.873632568359375,-0.00012972034164704382,-0.010613524354994297,0.001235696952790022
1733359830980598800,6.883598876953125,0.0019108199048787355,-0.009959902614355087,0.003260999685153365
1733359830990563600,6.8935634765625,0.005441105924546719,-0.005902310833334923,-0.0010005906224250793
1733359831000529400,6.903529296875,0.010504061356186867,-0.0008412478491663933,-0.005014930851757526
1733359831010495700,6.913495849609375,0.015921197831630707,-0.005649051629006863,-0.007631219923496246
1733359831020460500,6.92346044921875,0.018085775896906853,-0.00011578761041164398,-0.011185959912836552
1733359831030426600,6.933426513671875,0.016246862709522247,0.0008410857990384102,-0.015147145837545395
1733359831040391700,6.9433916015625,0.015064164996147156,0.005454386118799448,-0.014050471596419811
1733359831050357500,6.953357421875,0.014661229215562344,0.0033544832840561867,-0.014845157973468304
1733359831060323800,6.96332373046875,0.01316824834793806,-0.0015416443347930908,-0.015122644603252411
1733359831070288600,6.97328857421875,0.010405484586954117,-0.003016768954694271,-0.012098358944058418
1733359831080254500,6.98325439453125,0.007843788713216782,-0.0030257636681199074,-0.004968142136931419
1733359831090219500,6.993219482421875,0.002279113046824932,-0.009515354409813881,-0.0008202686440199614
1733359831100185600,7.003185546875,0.00016054464504122734,-0.009614565409719944,0.0011192064266651869
1733359831110150700,7.013150634765625,-0.0022245824802666903,-0.008287246339023113,-0.0008866866119205952
1733359831120116700,7.02311669921875,-0.0007619219250045717,-0.009477251209318638,-0.0014822313096374273
1733359831130082600,7.03308251953125,-0.00011344220547471195,-0.007701988331973553,-0.003216482000425458
1733359831140047600,7.043047607421875,-0.0012708608992397785,-0.008959293365478516,-0.00019644666463136673
1733359831150013700,7.053013671875,-0.00213771965354681,-0.00477173924446106,-0.0002726130187511444
1733359831159978800,7.062978759765625,-0.000023409542336594313,-0.0040645906701684,0.0015343097038567066
1733359831169944600,7.072944580078125,-0.0016913473373278975,-0.0056739384308457375,-0.00013948697596788406
1733359831179909600,7.08290966796875,-0.0009225325775332749,-0.003132736310362816,0.00020384229719638824
1733359831189875700,7.092875732421875,0.0015528756193816662,-0.00021577626466751099,-0.00009869295172393322
1733359831199841500,7.102841552734375,0.001006689970381558,0.0011254120618104935,0.000998894451186061
1733359831209806600,7.112806640625,0.00003889722574967891,-0.0013374797999858856,0.0006321772234514356
1733359831219772700,7.122772705078125,0.0005550178466364741,-0.0002570347860455513,0.0018535028211772442
1733359831229737500,7.132737548828125,-0.00031370529904961586,0.0010114284232258797,0.0027179650496691465
1733359831239703600,7.14270361328125,-0.0008476866059936583,-0.0007095588371157646,0.00439231563359499
1733359831249668600,7.152668701171875,-0.001138503779657185,-0.0036901691928505898,0.004401370417326689
1733359831259634400,7.162634521484375,-0.001206154702231288,-0.0018159225583076477,0.006651350297033787
1733359831269600500,7.1726005859375,-0.002419757191091776,-0.0029421737417578697,0.005335481837391853
1733359831279565600,7.182565673828125,-0.0049076867289841175,-0.007951460778713226,0.006344559136778116
1733359831289531600,7.19253173828125,-0.004628587514162064,-0.007303779944777489,0.006392229348421097
1733359831299496700,7.20249658203125,-0.002832010155543685,-0.010901950299739838,0.004573546350002289
1733359831309462500,7.212462646484375,-0.0029878050554543734,-0.010760536417365074,0.004479536786675453
1733359831319427600,7.222427490234375,-0.004703688435256481,-0.008807666599750519,0.007094505243003368
1733359831329393700,7.2323935546875,-0.0027156388387084007,-0.004951142705976963,0.0062827738001942635
1733359831339359500,7.242359375,-0.0046629467979073524,-0.005352361127734184,0.006095025688409805
1733359831349324800,7.25232470703125,-0.004215535707771778,-0.008318857289850712,0.006234309636056423
1733359831359290600,7.26229052734375,-0.0022967434488236904,-0.0054882969707250595,0.006517021916806698
1733359831369255400,7.27225537109375,-0.00151537184137851,-0.003995329141616821,0.004078631289303303
1733359831379221800,7.2822216796875,-0.0018165159272029996,-0.004567395895719528,0.002668283646926284
1733359831389186600,7.2921865234375,-0.0010362097527831793,-0.006396721117198467,0.00002429727464914322
1733359831399152600,7.302152587890625,-0.0005382339004427195,-0.003472675569355488,-0.0007724778261035681
1733359831409118700,7.31211865234375,-0.0006362381973303854,-0.002864675596356392,-0.0019884773064404726
1733359831419083500,7.32208349609375,0.0002175953413825482,-0.000057297758758068085,-0.0022634780034422874
1733359831429049600,7.332049560546875,0.00026446697302162647,0.002495075576007366,0.002335268771275878
1733359831439014700,7.3420146484375,0.0014519484248012304,0.0011353325098752975,0.003116400446742773
1733359831448980500,7.35198046875,-0.0005909624742344022,-0.0026066750288009644,0.0022908204700797796
1733359831458945000,7.361945068359375,-0.00036754063330590725,-0.003295423462986946,-0.0003446228802204132
1733359831468910800,7.371910888671875,0.00017095054499804974,-0.0044584255665540695,-0.0021409248001873493
1733359831478877200,7.381877197265625,-0.0011613717069849372,-0.004757193848490715,0.0010936814360320568
1733359831488842000,7.391842041015625,-0.000314220116706565,-0.0032730139791965485,0.0008787643164396286
1733359831498807800,7.401807861328125,-0.00021175449364818633,-0.004100257530808449,0.0020738039165735245
1733359831508773000,7.411773193359375,-0.00010336384730180725,-0.0030640214681625366,0.001640507485717535
1733359831518739000,7.421739013671875,-0.00046550322440452874,-0.0013183653354644775,0.0013654760550707579
1733359831528704800,7.431704833984375,0.0012146851513534784,0.00030243489891290665,0.0015817247331142426
1733359831538670000,7.441670166015625,-0.00007245358574436978,-0.0022647520527243614,-0.00015368452295660973
1733359831548636000,7.451635986328125,0.000876963313203305,-0.0005060005933046341,-0.0018786140717566013
1733359831558601000,7.46160107421875,0.0011555319651961327,0.002669758629053831,0.00011702324263751507
1733359831568567000,7.471567138671875,0.0008002663380466402,0.0005754483863711357,0.00003446522168815136
1733359831578532000,7.481531982421875,0.0011640761513262987,0.0047674644738435745,-0.0006436018738895655
1733359831588498000,7.491497802734375,-0.00017842334636952728,0.004680112935602665,0.0014594964450225234
1733359831598464000,7.501464111328125,0.00005514476652024314,0.003265201114118099,-0.000799673842266202
1733359831608429000,7.511428955078125,-0.000362172577297315,-0.0007812054827809334,-0.0017672001849859953
1733359831618395100,7.52139501953125,-0.0016464059008285403,-0.00113651342689991,-0.0038830142002552748
1733359831628360000,7.53135986328125,-0.0020008725114166737,-0.00019641686230897903,-0.001926123397424817
1733359831638326000,7.541325927734375,-0.00318330735899508,-0.005647879093885422,0.003370095044374466
1733359831648290800,7.551290771484375,-0.0063287666998803616,-0.0039993831887841225,0.010141181759536266
1733359831658257000,7.5612568359375,-0.004646428860723972,0.005194376688450575,0.0035909810103476048
1733359831668223000,7.571222900390625,-0.0032115173526108265,0.003370910417288542,-0.0008439810480922461
1733359831678188000,7.58118798828125,-0.0014314537402242422,0.0012186281383037567,-0.0025703830178827047
1733359831688153900,7.59115380859375,0.0005225074710324407,0.0029387641698122025,-0.0031799806747585535
1733359831698119000,7.601118896484375,0.0008392593008466065,0.004929365124553442,-0.005862164776772261
1733359831708085000,7.6110849609375,0.0008600319852121174,0.0029461090452969074,-0.0038759796880185604
1733359831718050000,7.621050048828125,0.00041947036515921354,0.0030955979600548744,-0.0029496068600565195
1733359831728016000,7.631015869140625,0.00040402403101325035,0.001409284770488739,-0.0018835433293133974
1733359831737982000,7.64098193359375,0.0007207047892734408,0.002646815497428179,-0.001231105998158455
1733359831747947000,7.650947021484375,0.0005976667162030935,0.004183991812169552,-0.0003416102845221758
1733359831757912800,7.660912841796875,0.0017454868648201227,0.005244256928563118,-0.0019697309471666813
1733359831767878100,7.670878173828125,0.0022653359919786453,0.0038202647119760513,-0.0024749329313635826
1733359831777844000,7.680843994140625,-0.0004689203342422843,0.006911361124366522,-0.0027531131636351347
1733359831787808800,7.690808837890625,-0.0015086184721440077,0.006529730278998613,-0.004380837082862854
1733359831797775000,7.700775146484375,-0.00009745353600010276,0.005664070602506399,-0.0005751270800828934
1733359831807741000,7.710740966796875,-0.0010431420523673296,0.004881633911281824,-0.0027655770536512136
1733359831817706000,7.7207060546875,0.0011366552207618952,0.007814306765794754,-0.0008933749049901962
1733359831827672000,7.730672119140625,-0.00007854508294258267,0.007195921149104834,-0.001625744393095374
1733359831837636900,7.740636962890625,0.0008232364198192954,0.006785900332033634,-0.0024825253058224916
1733359831847603200,7.750603271484375,0.0004804876516573131,0.006014116108417511,-0.003170153358951211
1733359831857568000,7.760568115234375,0.0003947161021642387,0.00613417150452733,-0.003010875079780817
1733359831867533800,7.770533935546875,0.0011665001511573792,0.0031450395472347736,-0.004248978570103645
1733359831877500200,7.780500244140625,0.0005478238454088569,0.005239741876721382,-0.005665352568030357
1733359831887465000,7.79046484375,0.0021800752729177475,0.005712186452001333,-0.003553465474396944
1733359831897430800,7.8004306640625,0.0007933147135190666,0.006557116284966469,-0.00408078683540225
1733359831907396000,7.81039599609375,-0.00016782012244220823,0.00569132249802351,-0.005214228294789791
1733359831917362000,7.82036181640625,0.000266380375251174,0.005494507495313883,-0.0025685348082333803
1733359831927327000,7.830326904296875,0.0020083540584892035,0.004396752454340458,-0.0025738610420376062
1733359831937293000,7.84029296875,0.0006088432273827493,0.0049697174690663815,-0.0035589588806033134
1733359831947259000,7.8502587890625,0.0008056508377194405,0.006925809197127819,-0.0027996916323900223
1733359831957224000,7.860223876953125,0.0009586771484464407,0.00892699509859085,-0.00086611183360219
1733359831967190000,7.87018994140625,0.0009405676391907036,0.005753838922828436,-0.0016698536928743124
1733359831977155000,7.880155029296875,0.00024951124214567244,0.00494232727214694,-0.002945063868537545
1733359831987121000,7.890120849609375,0.0007121022790670395,0.003914080560207367,-0.0045386990532279015
1733359831997086000,7.9000859375,-0.00033576152054592967,0.007009983994066715,-0.003770316019654274
1733359832007052000,7.910052001953125,0.0011675929417833686,0.010303781367838383,0.0010428150417283177
1733359832017018000,7.92001806640625,-0.000979968230240047,0.010337070561945438,-0.0008749272674322128
1733359832026983000,7.92998291015625,-0.00007475972233805805,0.008368462324142456,-0.0018879938870668411
1733359832036949000,7.939948974609375,-0.0000503046321682632,0.008969639427959919,0.00022353394888341427
1733359832046914000,7.9499140625,-0.00024950908846221864,0.007446311414241791,-0.0007565093692392111
1733359832056879900,7.9598798828125,0.0014010705053806305,0.007562936283648014,-0.0012961651664227247
1733359832066845000,7.969844970703125,-0.0010727397166192532,0.008480128832161427,-0.0003283724654465914
1733359832076811000,7.97981103515625,-0.0009846006287261844,0.005272531416267157,-0.00041265389882028103
1733359832086777000,7.989777099609375,-0.0014517190866172314,0.008574318140745163,-0.0023040310479700565
1733359832096742000,7.999741943359375,0.000332894385792315,0.011854494921863079,-0.0023101919796317816
1733359832106708000,8.0097080078125,-0.0005568676861003041,0.016015417873859406,-0.0009160272311419249
1733359832116673000,8.019673095703125,-0.0009504280751571059,0.013741097413003445,0.0012087407521903515
1733359832126638800,8.029638916015625,-0.0008747943211346865,0.013022842817008495,-0.0007462857756763697
1733359832136605000,8.03960498046875,-0.0012133019044995308,0.010051514022052288,0.0002756374888122082
1733359832146570000,8.049570068359374,-0.002061784965917468,0.0110288942232728,0.0010924289235845208
1733359832156536000,8.0595361328125,-0.001832607202231884,0.012158406898379326,0.0030505722388625145
1733359832166501000,8.069501220703126,-0.0020613728556782007,0.010857452638447285,0.0019991560839116573
1733359832176467000,8.079467041015626,-0.0010698381811380386,0.013760590925812721,0.0013102905359119177
1733359832186432000,8.089431884765625,0.0006657439516857266,0.010872392915189266,-0.001981642795726657
1733359832196398000,8.099398193359375,-0.0007146444986574352,0.011863789521157742,-0.005301443859934807
1733359832206364000,8.109364013671875,0.000520529574714601,0.011421438306570053,-0.0068173157051205635
1733359832216329200,8.1193291015625,0.0008650356903672218,0.009055272676050663,-0.00552463810890913
1733359832226295000,8.129294921875,0.0005625006160698831,0.011951726861298084,-0.004958982579410076
1733359832236259800,8.139259765625,-0.0013988146092742682,0.010196317918598652,-0.0017373620066791773
1733359832246226200,8.14922607421875,-0.0020723280031234026,0.006011426914483309,-0.0007876788731664419
1733359832256191000,8.15919091796875,-0.0016185014974325895,0.005054286681115627,-0.002152815228328109
1733359832266156800,8.16915673828125,-0.0015591129194945097,0.00625963369384408,-0.0018731832969933748
1733359832276123100,8.179123046875,-0.0014517749659717083,0.007883988320827484,-0.002294716192409396
1733359832286088000,8.189087890625,-0.0008312583668157458,0.006669053807854652,0.0002571246586740017
1733359832296053800,8.1990537109375,-0.0009602110367268324,0.005972111131995916,-0.00020190677605569363
1733359832306019000,8.20901904296875,-0.002056900877505541,0.006068783812224865,-0.00007806974463164806
1733359832315985000,8.21898486328125,-0.002322626765817404,0.00416121631860733,0.0013565544504672289
1733359832325950000,8.228949951171876,-0.001368682598695159,0.004973214119672775,0.0012833174550905824
1733359832335916000,8.238916015625,-0.003206925466656685,0.002493665087968111,0.0011690730461850762
1733359832345881900,8.2488818359375,-0.0022010495886206627,0.0029237656854093075,0.0006231251172721386
1733359832355847000,8.258846923828125,-0.001033794367685914,0.005830511916428804,0.0011323057115077972
1733359832365813000,8.26881298828125,-0.0031976127065718174,0.007965302094817162,0.001199949998408556
1733359832375778000,8.278778076171875,-0.0011780847562476993,0.007352372631430626,0.002302283886820078
1733359832385744100,8.288744140625,-0.0004321332962717861,0.006549961864948273,0.00157018075697124
1733359832395709000,8.298708984375,-0.00185755779966712,0.004478665068745613,0.0014942397829145193
1733359832405675000,8.308675048828125,-0.0019254684448242188,0.003477849066257477,-0.0013034110888838768
1733359832415641000,8.31864111328125,-0.001534590614028275,0.0023999218828976154,0.000249217264354229
1733359832425606000,8.32860595703125,-0.000053873096476309,0.001967424526810646,-0.0017422945238649845
1733359832435572000,8.338572021484374,0.0002982086152769625,0.004930921830236912,-0.0021101036109030247
1733359832445537000,8.348537109375,-0.0009577381424605846,0.010515037924051285,0.0010982066160067916
1733359832455503000,8.358503173828124,-0.00024267986009363085,0.0058636292815208435,0.003664188552647829
1733359832465468400,8.368468505859376,0.00014374479360412806,0.00412565004080534,0.0020271434914320707
1733359832475434500,8.3784345703125,0.002220402704551816,0.0023597925901412964,0.0024858652614057064
1733359832485400300,8.388400390625,0.0015183936338871717,0.002488157246261835,0.002350043971091509
1733359832495365400,8.398365478515625,0.0018791474867612123,0.0008855341002345085,0.0033029490150511265
1733359832505331500,8.40833154296875,-0.0019467497477307916,0.0038533606566488743,0.002342080697417259
1733359832515296500,8.418296630859375,-0.00027502147713676095,0.001723984256386757,0.002415708964690566
1733359832525262300,8.428262451171875,0.0006584165384992957,0.00395411578938365,0.002731027314439416
1733359832535227600,8.4382275390625,0.000339186197379604,0.005127291195094585,0.002427938859909773
1733359832545193500,8.448193359375,-0.0023719118908047676,0.0023980834521353245,0.0018510982627049088
1733359832555159300,8.4581591796875,-0.000187735102372244,0.00229475274682045,0.00344899483025074
1733359832565124600,8.46812451171875,-0.002557682106271386,0.00012161396443843842,0.004862334579229355
1733359832575090400,8.47809033203125,-0.003931735642254353,-0.00007352791726589203,0.004799559712409973
1733359832585055200,8.48805517578125,-0.00023846409749239683,-0.0006458405405282974,0.0022666275035589933
1733359832595021600,8.498021484375,-0.0014021883253008127,-0.00040398258715867996,0.0031178120989352465
1733359832604987400,8.5079873046875,-0.0003164175432175398,0.00012119300663471222,0.0022496215533465147
1733359832614952400,8.517952392578126,-0.0009876041440293193,-0.0004839310422539711,0.0020613574888557196
1733359832624918500,8.52791845703125,-0.000046709334128536284,0.004565156530588865,0.003154585137963295
1733359832634883300,8.53788330078125,0.00017191097140312195,0.0062225884757936,0.004731969907879829
1733359832644849700,8.547849609375,-0.000009716619388200343,0.005399405490607023,0.0018645443487912416
1733359832654814500,8.557814453125,0.000018273916793987155,0.006299680098891258,-0.0001659539993852377
1733359832664780300,8.5677802734375,0.0017306865192949772,0.005195000674575567,0.002545410068705678
1733359832674746600,8.57774658203125,0.001587395090609789,0.003853027243167162,0.0011769216507673264
1733359832684711400,8.58771142578125,-0.001116778701543808,0.002315318211913109,0.003290938911959529
1733359832694677200,8.59767724609375,-0.0008516386151313782,-0.00019908417016267776,0.0031579320784658194
1733359832704642600,8.607642578125,0.00008100036211544648,0.004509384743869305,0.003805346554145217
1733359832714608400,8.6176083984375,-0.00033529000938870013,0.002183046191930771,0.00527032557874918
1733359832724573400,8.627573486328124,-0.0017547549214214087,-0.000044687651097774506,0.004738758318126202
1733359832734539500,8.63753955078125,-0.001592097687534988,0.000034407712519168854,0.0020913099870085716
1733359832744505300,8.64750537109375,0.0007275155512616038,0.0021257884800434113,0.0010438887402415276
1733359832754470400,8.657470458984376,-0.0014244160847738385,0.004869821947067976,0.001963885733857751
1733359832764436500,8.6674365234375,0.0006842748261988163,0.005952663253992796,0.005745574366301298
1733359832774401500,8.677401611328126,0.00037318270187824965,0.0003912458196282387,0.005812555551528931
1733359832784367400,8.687367431640626,-0.0033669606782495975,-0.00026549026370048523,0.007371569983661175
1733359832794332400,8.69733251953125,0.0020723510533571243,-0.0030906060710549355,0.004733296111226082
1733359832804298500,8.707298583984375,-0.0003447338822297752,-0.0010378407314419746,0.0035931970924139023
1733359832814264600,8.7172646484375,0.0010148911969736218,-0.003079892136156559,0.003675890853628516
1733359832824229400,8.7272294921875,0.0005496368976309896,-0.0024644359946250916,0.0021680090576410294
1733359832834195500,8.737195556640625,0.0006336870137602091,-0.0018412228673696518,-0.001041486393660307
1733359832844160500,8.747160400390625,0.00017881905660033226,-0.0009764945134520531,-0.0005189741495996714
1733359832854126300,8.757126220703125,0.0004218569665681571,0.0014841649681329727,-0.000013146782293915749
1733359832864091400,8.76709130859375,0.0013686107704415917,0.0009523313492536545,0.00014611007645726204
1733359832874057500,8.777057373046874,0.0013286764733493328,-0.0002230331301689148,0.002927254419773817
1733359832884023600,8.7870234375,0.0036568117793649435,0.0025543775409460068,0.0028689312748610973
1733359832893988400,8.79698828125,0.0037278744857758284,0.0011094920337200165,0.0019703167490661144
1733359832903954400,8.806954345703126,0.0033646193332970142,0.0011568963527679443,0.0011873474577441812
1733359832913919500,8.81691943359375,0.00006107663648435846,-0.001366475597023964,0.0015915959374979138
1733359832923885300,8.82688525390625,-0.000034530850825831294,-0.0036669140681624413,0.0025639161467552185
1733359832933850600,8.8368505859375,-0.002067552413791418,-0.004537560977041721,0.001820411765947938
1733359832943816400,8.84681640625,-0.002459835959598422,-0.005414539948105812,0.0033397451043128967
1733359832953782500,8.856782470703125,-0.0010787296341732144,-0.003949061967432499,0.003943705931305885
1733359832963747600,8.86674755859375,-0.0029788948595523834,-0.006945916451513767,0.000865357811562717
1733359832973713400,8.87671337890625,-0.0019865857902914286,-0.007468842901289463,0.0027036454994231462
1733359832983678500,8.886678466796875,-0.003076617605984211,-0.005459754727780819,0.0029364055953919888
1733359832993644500,8.89664453125,-0.0035553735215216875,-0.007504330016672611,0.004200813360512257
1733359833003609300,8.906609375,-0.0052683185786008835,-0.007227360270917416,0.00023483415134251118
1733359833013575700,8.91657568359375,-0.004140673670917749,-0.005785184912383556,0.0011004178086295724
1733359833023541500,8.92654150390625,-0.002303092507645488,-0.00366877019405365,0.0027720839716494083
1733359833033506300,8.93650634765625,-0.0017453362233936787,-0.0017132936045527458,0.0019247242016717792
1733359833043472600,8.94647265625,-0.0038942410610616207,0.0003317473456263542,0.003266424871981144
1733359833053437400,8.9564375,-0.002375734271481633,-0.0018979217857122421,0.002577641047537327
1733359833063403300,8.9664033203125,-0.0007512060692533851,-0.002289406955242157,0.0012971932301297784
1733359833073369600,8.97636962890625,0.0011421024100854993,-0.00012224633246660233,0.0034049884416162968
1733359833083334400,8.98633447265625,-0.0001260948774870485,0.0015867045149207115,0.0030089765787124634
1733359833093300200,8.99630029296875,-0.0005058292299509048,0.0010080980136990547,0.0030624649953097105
1733359833103265500,9.006265625,-0.0007915864116512239,-0.0017871558666229248,0.0027436846867203712
1733359833113231400,9.0162314453125,-0.0007307240157388151,-0.00009313132613897324,0.0002688090316951275
1733359833123196400,9.026196533203125,-0.0006913092220202088,-0.0008121849969029427,0.0015311475144699216
1733359833133162500,9.03616259765625,0.0006886391201987863,0.00114536564797163,0.003667119424790144
1733359833143128300,9.04612841796875,0.00040527875535190105,0.00023855920881032944,0.0038231806829571724
1733359833153093400,9.05609326171875,0.0004105125553905964,0.0035497546195983887,0.0013670806074514985
1733359833163059500,9.0660595703125,-0.0004507537232711911,0.0022887475788593292,0.0024445955641567707
1733359833173024500,9.0760244140625,-0.0009080159361474216,0.003286746796220541,0.00032445858232676983
1733359833182990600,9.085990478515624,-0.0007444978691637516,0.0037157819606363773,0.0008312580175697803
1733359833192955400,9.095955322265626,-0.0026463321410119534,0.000898490659892559,0.0010751790832728148
1733359833202921500,9.10592138671875,-0.002627423731610179,-0.0025351233780384064,0.000004588393494486809
1733359833212887600,9.115887451171876,-0.003776009427383542,-0.002802278846502304,0.0013786029303446412
1733359833222852400,9.125852294921875,-0.00034266189322806895,-0.001790810376405716,0.0011650174856185913
1733359833232818400,9.135818359375,-0.0019080628408119082,-0.0036198878660798073,0.001195445074699819
1733359833242783500,9.145783447265625,-0.0026950270403176546,-0.0017910944297909737,-0.00010817218571901321
1733359833252749600,9.15574951171875,-0.0025889193639159203,-0.000015214085578918457,0.0005943627329543233
1733359833262714400,9.16571435546875,-0.0030565704219043255,-0.0006213495507836342,-0.0011324307415634394
1733359833272680400,9.175680419921875,-0.0010048318654298782,0.0010399101302027702,-0.00009817210957407951
1733359833282646500,9.185646484375,-0.0011845951667055488,0.0006223265081644058,0.0008515112567692995
1733359833292611300,9.195611328125,-0.0000678374053677544,-0.0022722044959664345,0.00037517654709517956
1733359833302577400,9.205577392578125,0.00007117960194591433,-0.003659178502857685,0.00011551845818758011
1733359833312542500,9.21554248046875,-0.0010722335427999496,-0.00020687468349933624,-0.0006675724871456623
1733359833322508300,9.22550830078125,0.000289174378849566,0.00045492127537727356,0.00261770305223763
1733359833332473600,9.2354736328125,0.0015736513305455446,-0.0008924854919314384,0.002279111184179783
1733359833342439400,9.245439453125,0.00069400918437168,-0.0008594626560807228,0.0050149764865636826
1733359833352405500,9.255405517578126,-0.0010557023342698812,-0.0021154358983039856,0.001875486457720399
1733359833362370600,9.26537060546875,-0.0003243983373977244,-0.0005971677601337433,0.0023383437655866146
1733359833372336400,9.27533642578125,-0.0008615776314400136,-0.00006829574704170227,0.0000994345173239708
1733359833382301400,9.285301513671875,-0.0011523948051035404,-0.002625996246933937,0.0023657844867557287
1733359833392267500,9.295267578125,-0.000632885261438787,-0.006220938637852669,0.0004891015123575926
1733359833402232300,9.305232421875,-0.000338606012519449,-0.010373072698712349,-0.000017964281141757965
1733359833412198700,9.31519873046875,-0.0007871080888435245,-0.008048544637858868,0.00036982144229114056
1733359833422164500,9.32516455078125,-0.0010377115104347467,-0.006262362934648991,0.0031272585038095713
1733359833432129300,9.33512939453125,-0.0002788100391626358,-0.01254994049668312,0.006588970310986042
1733359833442095600,9.345095703125,-0.0018580646719783545,-0.01964753121137619,0.008669164963066578
1733359833452060400,9.355060302734374,-0.006245339754968882,-0.02776220440864563,0.016446560621261597
1733359833462026500,9.365026611328124,-0.005344392266124487,-0.02277011051774025,0.015650542452931404
1733359833471991600,9.374991455078124,-0.002487619873136282,-0.0224834606051445,0.0136546790599823
1733359833481957600,9.38495751953125,-0.004665020387619734,-0.025223586708307266,0.020428696647286415
1733359833491923500,9.39492333984375,-0.002458766335621476,-0.020572572946548462,0.021574148908257484
1733359833501888500,9.404888427734376,-0.002562629757449031,-0.01791207492351532,0.02094351314008236
1733359833511854600,9.4148544921875,-0.00211134715937078,-0.01766720414161682,0.018241100013256073
1733359833521819600,9.424819580078125,-0.002269006334245205,-0.01645040698349476,0.016634413972496986
1733359833531785500,9.434785400390625,-0.0011869801674038172,-0.009568709880113602,0.006383499130606651
1733359833541751600,9.44475146484375,0.0012775090290233493,-0.006248015910387039,0.0030345742125064135
1733359833551716600,9.454716552734375,-0.0006933033000677824,-0.004199245013296604,0.0050066448748111725
1733359833561682400,9.464682373046875,0.0005171033553779125,0.00004237145185470581,0.00491556478664279
1733359833571647700,9.474647705078125,-0.00043671485036611557,-0.0003720782697200775,0.005820371210575104
1733359833581613600,9.484613525390625,-0.0009056974668055773,0.00047347601503133774,0.005956725217401981
1733359833591578400,9.494578369140624,-0.000315462559228763,-0.0008736960589885712,0.006182566285133362
1733359833601544700,9.504544677734375,-0.0012052246602252126,-0.0007224287837743759,0.007218003273010254
1733359833611510500,9.514510498046874,-0.002217166591435671,-0.0005948450416326523,0.0070876069366931915
1733359833621475600,9.5244755859375,-0.0006413739756681025,-0.0038452325388789177,0.005135510116815567
1733359833631441700,9.534441650390624,-0.0013322477461770177,-0.005346557125449181,0.00636742077767849
1733359833641406500,9.544406494140626,-0.00218445947393775,-0.006510891020298004,0.005498165264725685
1733359833651372500,9.55437255859375,-0.00044677528785541654,-0.007162420079112053,0.0042235711589455605
1733359833661337600,9.564337646484375,-0.0019988655112683773,-0.006444165483117104,0.005129045806825161
1733359833671303400,9.574303466796875,0.00026560091646388173,-0.004749128594994545,0.004698653239756823
1733359833681269800,9.584269775390625,-0.002345095854252577,-0.003643650561571121,0.0074158767238259315
1733359833691234600,9.594234619140625,-0.002793954685330391,-0.002505676820874214,0.007005906198173761
1733359833701200400,9.604200439453125,-0.001479684840887785,-0.0034819915890693665,0.004875110927969217
1733359833711165700,9.614165771484375,-0.0015926952473819256,-0.0021484065800905228,0.006365254521369934
1733359833721131500,9.624131591796875,-0.0009945492492988706,-0.0033500250428915024,0.005816110409796238
1733359833731096600,9.6340966796875,-0.0010785519843921065,-0.0027232281863689423,0.005535830743610859
1733359833741062700,9.644062744140625,-0.0012396732345223427,-0.0026641059666872025,0.004566706717014313
1733359833751028500,9.654028564453125,-0.0020867029670625925,-0.000624033622443676,0.003989348188042641
1733359833760993500,9.66399365234375,-0.00012555118883028626,-0.0015769125893712044,0.0021475062239915133
1733359833770959600,9.673959716796874,-0.0009658458875492215,-0.002551623620092869,0.0004527218407019973
1733359833780924700,9.683924560546876,-0.00090805534273386,-0.0015824995934963226,-0.0010018968023359776
1733359833790890500,9.693890380859376,-0.0003881625016219914,-0.0012117726728320122,0.0013188302982598543
1733359833800855600,9.70385546875,0.0005679123569279909,-0.0006389264017343521,0.00047194515354931355
1733359833810821600,9.713821533203125,0.0020697452127933502,0.00003913324326276779,0.0012880358844995499
1733359833820787700,9.72378759765625,-0.000007254275260493159,0.0002846773713827133,0.0014827129198238254
1733359833830752500,9.73375244140625,0.0005395308835431933,-0.0006900327280163765,0.00240112841129303
1733359833840718600,9.743718505859375,-0.00040322812856175005,-0.0017454428598284721,0.002182482974603772
1733359833850683400,9.753683349609375,0.0001008981344057247,-0.0018361583352088928,0.002190378261730075
1733359833860649500,9.7636494140625,-0.0009784810245037079,-0.003375465050339699,0.001542164827696979
1733359833870615600,9.773615478515625,-0.0013227646704763174,-0.0069000935181975365,0.003450240008533001
1733359833880580600,9.78358056640625,-0.0032061522360891104,-0.009312118403613567,0.0046201664954423904
1733359833890546700,9.793546630859375,-0.0018693240126594901,-0.013721991330385208,0.010590792633593082
1733359833900511500,9.803511474609374,-0.0065634120255708694,-0.024473972618579865,0.030539466068148613
1733359833910477600,9.8134775390625,0.0012013543164357543,0.0036586434580385685,0.0012703503016382456
1733359833920442600,9.823442626953126,-0.0014223919715732336,-0.004946562461555004,0.0011326648527756333
1733359833930408400,9.833408447265626,-0.001555794384330511,-0.0037062084302306175,0.002532161073759198
1733359833940374500,9.84337451171875,-0.0021086668130010366,-0.0036585377529263496,0.002210184931755066
1733359833950339600,9.853339599609376,-0.001551679102703929,-0.0039056679233908653,0.0012203342048451304
1733359833960305400,9.863305419921875,-0.0007322244346141815,-0.005564285442233086,0.0020744099747389555
1733359833970270700,9.873270751953125,-0.002208221470937133,-0.0034385817125439644,0.004069771151989698
1733359833980236500,9.883236572265625,-0.00020685602794401348,-0.0062820399180054665,0.0014031478203833103
1733359833990201600,9.89320166015625,0.0005461887922137976,-0.003126426599919796,0.0016823926707729697
1733359834000167700,9.903167724609375,0.00003512814873829484,-0.0010587489232420921,0.004188959952443838
1733359834010133500,9.913133544921875,-0.0013415265129879117,-0.0017943140119314194,0.0029559163376688957
1733359834020098600,9.9230986328125,-0.001348184421658516,-0.002880617044866085,0.0030555184930562973
1733359834030064600,9.933064697265625,0.0007665286539122462,-0.0027950070798397064,0.0018553922418504953
1733359834040029400,9.943029541015624,0.0011428333818912506,-0.0024559861049056053,0.0025068013928830624
1733359834049995800,9.952995849609374,-0.00020556077652145177,0.0008471840992569923,0.003259501652792096
1733359834059960600,9.962960693359374,0.00017314072465524077,-0.0020652487874031067,0.0015137995360419154
1733359834069926400,9.972926513671876,-0.001732679083943367,-0.0018330812454223633,0.0002643750049173832
1733359834079892700,9.982892822265624,-0.0008327969699166715,-0.0005329260602593422,-0.0021298066712915897
1733359834089857500,9.992857421875,0.0009152899729087949,-0.0011586816981434822,-0.00015681167133152485
1733359834099823400,10.0028232421875,-0.0021529379300773144,-0.0012769261375069618,0.0008985990425571799
1733359834109788700,10.01278857421875,0.0004894029116258025,-0.0011264635249972343,-0.00004378403536975384
1733359834119754500,10.02275439453125,-0.0009095555869862437,-0.0021208878606557846,-0.0019665861036628485
1733359834129719600,10.032719482421875,0.0006599707994610071,-0.0027233436703681946,-0.0031451242975890636
1733359834139685600,10.042685546875,0.0011920704273507,-0.002454896457493305,-0.0006175180897116661
1733359834149651500,10.0526513671875,-0.0004406965454109013,-0.0012805480509996414,0.0011291864793747663
1733359834159616500,10.062616455078125,-0.0031672408804297447,-0.023949377238750458,0.013557360507547855
1733359834169582600,10.07258251953125,-0.004952666815370321,-0.011766524985432625,0.029416395351290703
1733359834179547600,10.082547607421875,0.0021467874757945538,-0.0062593743205070496,-0.005807904060930014
1733359834189513700,10.092513671875,0.001155466539785266,0.0026902910321950912,-0.0019643146079033613
1733359834199479600,10.1024794921875,0.0009706431883387268,0.0023171817883849144,-0.00282851024530828
1733359834209444600,10.112444580078124,0.0004529742291197181,0.002191786654293537,-0.0004649190232157707
1733359834219410700,10.12241064453125,0.001163771841675043,0.00381871173158288,-0.000649742316454649
1733359834229375500,10.13237548828125,0.0006749422755092382,0.003324262797832489,-0.0004874882288277149
1733359834239341600,10.142341552734376,0.0005108915502205491,0.004333600867539644,-0.00029653962701559067
1733359834249306600,10.152306640625,-0.0006712423637509346,0.0030783135443925858,-0.0002604241017252207
1733359834259272400,10.1622724609375,0.0008427647408097982,0.0031859055161476135,-0.0014194317627698183
1733359834269238500,10.172238525390625,0.0015847982140257955,0.0012590158730745316,-0.0031073594000190496
1733359834279203600,10.18220361328125,-0.0005276211304590106,0.003319503739476204,-0.0017605989705771208
1733359834289169700,10.192169677734375,0.001590975560247898,0.00184668879956007,-0.0020803033839911222
1733359834299134500,10.202134521484375,-0.0014911007601767778,0.0009302953258156776,-0.001850738888606429
1733359834309100500,10.2121005859375,-0.0021991750691086054,-0.00011132750660181046,-0.0012860179413110018
1733359834319065600,10.222065673828125,-0.0017067566514015198,0.0016351733356714249,-0.0003770811017602682
1733359834329031400,10.232031494140625,-0.00017804955132305622,0.00022994354367256165,-0.0011589801870286465
1733359834338997500,10.24199755859375,-0.0008502313867211342,0.0012659132480621338,-0.0010833463165909052
1733359834348962600,10.251962646484374,-0.001030236599035561,0.0030386121943593025,-0.0027220838237553835
1733359834358928600,10.2619287109375,0.0005905631696805358,0.0028354129754006863,-0.0015612116549164057
1733359834368893700,10.271893798828126,0.0012183324433863163,0.00045510660856962204,-0.0029457993805408478
1733359834378859500,10.281859619140626,-0.0011588050983846188,0.001429024152457714,-0.0006568124517798424
1733359834388824600,10.291824462890625,-0.00026551916380412877,0.005359018687158823,-0.0007341902237385511
1733359834398790700,10.301790771484375,-0.0001600579998921603,0.00395872863009572,-0.00048012472689151764
1733359834408756500,10.311756591796875,0.00004451321728993207,0.004522139206528664,-0.00015639932826161385
1733359834418721800,10.3217216796875,-0.0013238189276307821,0.0061392104253172874,0.0005304298829287291
1733359834428687600,10.3316875,0.00046779587864875793,0.006201215088367462,-0.003400323446840048
1733359834438652400,10.34165234375,0.002377548720687628,0.005996950902044773,-0.0008583359885960817
1733359834448618800,10.35161865234375,0.0013850393006578088,0.008034596219658852,-0.0014720589388161898
1733359834458582800,10.361582763671874,-0.00002856664650607854,0.0075126164592802525,-0.0009114635176956654
1733359834468548900,10.371548828125,0.00018635584274306893,0.0066797127947211266,-0.0009739948436617851
1733359834478515000,10.381514892578124,0.0007607997395098209,0.004421618767082691,-0.0010618793312460184
1733359834488479700,10.391479736328124,-0.00044125434942543507,0.004899755585938692,-0.002286067232489586
1733359834498445800,10.40144580078125,-0.00012274029722902924,0.006045979913324118,-0.0008450308814644814
1733359834508411000,10.411410888671876,0.002312205033376813,0.006071021314710379,-0.003293117741122842
1733359834518376700,10.421376708984376,0.0018434886587783694,0.0063682300969958305,-0.003488327143713832
1733359834528342800,10.4313427734375,0.001987622817978263,0.007484292611479759,-0.0028888769447803497
1733359834538307800,10.441307861328125,0.0007985213887877762,0.009304563514888287,-0.002521626651287079
1733359834548274000,10.45127392578125,0.000752938911318779,0.0035754176788032055,-0.0013826393987983465
1733359834558238700,10.46123876953125,0.0005824966356158257,0.004065972287207842,-0.00197572517208755
1733359834568204800,10.471204833984375,-0.0013445134973153472,0.005551386624574661,-0.001114630838856101
1733359834578169900,10.481169921875,0.0019460883922874928,0.003416063729673624,-0.0011721549089998007
1733359834588135700,10.4911357421875,-0.0005751521093770862,0.004371676128357649,-0.0015701157972216606
1733359834598101800,10.501101806640625,-0.000230805337196216,0.0035942993126809597,-0.0014412188902497292
1733359834608066800,10.51106689453125,0.00007071951404213905,0.005322740878909826,-0.001821428071707487
1733359834618033000,10.521032958984375,-0.0006427413318306208,0.002722696866840124,-0.003130904398858547
1733359834627998000,10.530998046875,0.00043877027928829193,0.004699180368334055,-0.0019128897693008184
1733359834637963800,10.5409638671875,0.000929590838495642,0.004168146289885044,-0.0032649764325469732
1733359834647928800,10.5509287109375,0.00066328514367342,0.00699994433671236,-0.003328490536659956
1733359834657895000,10.56089501953125,0.0010007076198235154,0.006710724905133247,-0.004564996343106031
1733359834667860700,10.57086083984375,0.002374117262661457,0.00865906197577715,-0.004071658477187157
1733359834677826000,10.580825927734375,0.001095267478376627,0.008802605792880058,-0.0030988056678324938
1733359834687791900,10.5907919921875,0.0005389041034504771,0.007007732521742582,-0.002370792906731367
1733359834697756700,10.600756591796875,0.0005263872444629669,0.004578929860144854,-0.0025915689766407013
1733359834707723000,10.610722900390625,-0.003219015896320343,0.005921145901083946,-0.002117195865139365
1733359834717687800,10.620687744140625,0.0009640113567002118,0.0037053958512842655,-0.0025611447636038065
1733359834727653600,10.630653564453125,-0.0003268325817771256,0.002470287960022688,-0.0024135794956237078
1733359834737620000,10.640619873046875,-0.0009100648458115757,0.003247931133955717,-0.0019086443353444338
1733359834747584800,10.650584716796875,0.0015509602380916476,0.00013212580233812332,-0.00400666706264019
1733359834757550600,10.660550537109375,-0.0012040798319503665,0.0020211059600114822,-0.00391718465834856
1733359834767516000,10.670515869140624,-0.0011191118974238634,0.007550681009888649,-0.001129270065575838
1733359834777481700,10.680481689453124,0.001098502310924232,0.004684054292738438,-0.0011425858829170465
1733359834787447800,10.69044775390625,0.00027610998949967325,0.0029653366655111313,-0.0008750264532864094
1733359834797412900,10.700412841796876,0.0012753279879689217,0.006177109200507402,-0.003236984135583043
1733359834807378700,10.710378662109376,0.0002674246788956225,0.006883716676384211,-0.0019798765424638987
1733359834817343700,10.72034375,0.0006567788077518344,0.0082840071991086,-0.002250187797471881
1733359834827309800,10.730309814453125,0.0006418791017495096,0.006074757315218449,-0.0007080822251737118
1733359834837275000,10.74027490234375,0.001205670298077166,0.005201506894081831,0.0003742263652384281
1733359834847241000,10.750240966796875,0.0024945156183093786,0.006513413041830063,-0.002553547965362668
1733359834857206800,10.760206787109375,0.0018103496404364705,0.006324328947812319,-0.005131221376359463
1733359834867171800,10.770171875,0.0027970168739557266,0.006342731416225433,-0.0037602621596306562
1733359834877138000,10.780137939453125,0.0005794026656076312,0.0055869268253445625,-0.002222819486632943
1733359834887102700,10.790102783203125,0.001565098064020276,0.007580414414405823,-0.0010888150427490473
1733359834897068800,10.80006884765625,-0.0008562479633837938,0.007238198071718216,-0.0007798883598297834
1733359834907033900,10.810033935546874,-0.0009554105345159769,0.0056036487221717834,-0.00298713194206357
1733359834917000000,10.82,0.00038096364005468786,0.005772759672254324,-0.00279032438993454
1733359834926965800,10.8299658203125,0.0020232100505381823,0.00735500268638134,-0.002260203007608652
1733359834936930800,10.839930908203126,0.0014165418688207865,0.005419150460511446,-0.0021158596500754356
1733359834946897000,10.84989697265625,0.0023626277688890696,0.009453516453504562,-0.0017481050454080105
1733359834956861700,10.85986181640625,0.0007104027317836881,0.009461772628128529,-0.0015409109182655811
1733359834966827800,10.869827880859376,0.002589852549135685,0.007983612827956676,-0.0037812315858900547
1733359834976792800,10.879792724609375,0.0015315125929191709,0.007561235222965479,-0.003486952278763056
1733359834986758700,10.889758544921875,0.00024420960107818246,0.009309622459113598,-0.0017406819388270378
1733359834996724700,10.899724853515625,-0.0011691299732774496,0.008564469404518604,-0.0017734388820827007
1733359835006689800,10.909689697265625,-0.000872381788212806,0.006080965511500835,-0.001090616686269641
1733359835016656000,10.91965576171875,-0.0006723784026689827,0.007243702188134193,0.0004422988276928663
1733359835026621000,10.929620849609375,-0.0016552589368075132,0.0025005373172461987,-0.0024996651336550713
1733359835036586800,10.939586669921875,-0.002215055515989661,0.003808415960520506,-0.00231004785746336
1733359835046551800,10.9495517578125,-0.000025756264221854508,0.00510524632409215,-0.003036162815988064
1733359835056518000,10.959517822265624,0.0002645282947923988,0.008274674415588379,-0.003860943950712681
1733359835066483700,10.969483642578124,0.00013908986875321716,0.003933762665838003,-0.0007256758399307728
1733359835076449000,10.979448974609374,0.0017846571281552315,0.00433456851169467,-0.0010521793738007545
1733359835086414800,10.989414794921874,0.0010881959460675716,0.006027341820299625,-0.002037433907389641
1733359835096379600,10.999379638671876,-0.0005605670157819986,0.006659309845417738,-0.0014837626367807388
1733359835106346000,11.009345947265626,0.0021821276750415564,0.008600198663771152,-0.0008998862467706203
1733359835116310800,11.019310791015625,0.0009445567848160863,0.007991400547325611,-0.003242402570322156
1733359835126276600,11.029276611328125,-0.00021533544349949807,0.009300779551267624,-0.00454500038176775
1733359835136243000,11.039242919921875,0.00234422879293561,0.006922043859958649,-0.0024837141390889883
1733359835146207700,11.049207763671875,0.0009694913169369102,0.006054125726222992,-0.002668461762368679
1733359835156173800,11.059173828125,0.0012110400712117553,0.004099631682038307,-0.0006923964247107506
1733359835166139000,11.069138916015625,-0.0006442632875405252,0.0054065934382379055,0.0017252708785235882
1733359835176104700,11.079104736328125,-0.00010923421359620988,0.0051413425244390965,0.0007167317671701312
1733359835186071000,11.089071044921875,0.00009926054190145805,0.002718337345868349,0.0005138884298503399
1733359835196035800,11.099035888671875,0.00014506690786220133,0.0006424030289053917,-0.0007780110463500023
1733359835206001700,11.109001708984374,-0.00012731552124023438,-0.0009152796119451523,0.0007709730416536331
1733359835215966700,11.118966796875,-0.0001875029702205211,-0.0018961215391755104,0.0013462158385664225
1733359835225932800,11.128932861328124,-0.0016123586101457477,-0.0027886219322681427,0.002014059340581298
1733359835235897900,11.13889794921875,-0.0016302018193528056,-0.0036078104749321938,0.0019900910556316376
1733359835245864000,11.148864013671876,-0.0006326183211058378,-0.0019035246223211288,0.004062481224536896
1733359835255829800,11.158829833984376,-0.001716791302897036,-0.0010513132438063622,0.0034888361115008593
1733359835265794800,11.168794921875,-0.0015705868136137724,-0.0009412812069058418,0.003097010776400566
1733359835275761000,11.178760986328125,0.00044169757165946066,-0.000949271023273468,0.002227755030617118
1733359835285726000,11.188725830078125,-0.0006309020100161433,-0.0022293170914053917,0.0019533983431756496
1733359835295691800,11.19869189453125,-0.0006056019337847829,-0.0017510131001472473,0.0016178401419892907
1733359835305656800,11.20865673828125,-0.00044682138832286,-0.0021553346887230873,0.0015179924666881561
1733359835315623000,11.218622802734375,-0.0013783951289951801,-0.0016975374892354012,0.002778466558083892
1733359835325588700,11.228588623046875,-0.0008582747541368008,-0.0043467311188578606,0.0037926032673567533
1733359835335553800,11.2385537109375,-0.001787984394468367,-0.003929147496819496,0.003690071403980255
1733359835345519900,11.248519775390625,-0.000864296336658299,-0.003578154370188713,0.005850114859640598
1733359835355484700,11.258484619140624,-0.0016272920183837414,-0.004263385199010372,0.004698829725384712
1733359835365450800,11.26845068359375,-0.0008975247037597001,-0.0051420703530311584,0.004535620100796223
1733359835375415800,11.278415771484376,0.0011033081682398915,-0.0018613217398524284,0.004546273034065962
1733359835385381600,11.288381591796876,-0.0019413658883422613,-0.0015824614092707634,0.004450388718396425
1733359835395347700,11.29834765625,0.0010182049591094255,-0.0034900829195976257,0.004033071454614401
1733359835405312800,11.308312744140625,-0.00014357037434820086,-0.0017428165301680565,0.004010820761322975
1733359835415278800,11.31827880859375,0.0006444589816965163,-0.0019289720803499222,0.0026800392661243677
1733359835425244000,11.328243896484375,-0.0008059570100158453,-0.0017972588539123535,0.003975552506744862
1733359835435209700,11.338209716796875,-0.0006560210604220629,-0.003304608166217804,0.005431502591818571
1733359835445175800,11.34817578125,-0.002205116907134652,-0.006521262228488922,0.005553083494305611
1733359835455140900,11.358140869140625,-0.0015696865739300847,-0.006877325475215912,0.003443859750404954
1733359835465108500,11.3681083984375,0.0006390037597157061,-0.006158988922834396,0.002387885469943285
1733359835475073300,11.3780732421875,-0.0013184195850044489,-0.004544847644865513,0.0024398169480264187
1733359835485039400,11.388039306640625,-0.0009795455262064934,-0.0028039393946528435,0.005642001982778311
1733359835495004400,11.39800439453125,-0.001049586571753025,-0.0032998202368617058,0.006095804274082184
1733359835504970200,11.40797021484375,-0.0002442755794618279,-0.006733914837241173,0.0050835153087973595
1733359835514936300,11.417936279296875,-0.00019980079378001392,-0.00623590312898159,0.002339927013963461
1733359835524901400,11.4279013671875,0.0018348180456086993,-0.004501672461628914,0.001903336145915091
1733359835534867200,11.4378671875,-0.0008019778179004788,-0.0038518616929650307,0.0032463683746755123
1733359835544832300,11.447832275390626,-0.0013815390411764383,-0.0014655441045761108,0.0024627610109746456
1733359835554798300,11.45779833984375,-0.0013117642374709249,-0.005718613043427467,0.003189537674188614
1733359835564763400,11.467763427734376,-0.0007565113482996821,-0.004073337651789188,0.004555749706923962
1733359835574729200,11.477729248046876,0.00033485208405181766,-0.003909287042915821,0.005530466325581074
1733359835584695300,11.4876953125,0.0010264921002089977,-0.005835350602865219,0.004732292145490646
1733359835594660400,11.497660400390625,-0.0015679594362154603,-0.006721384823322296,0.003960507921874523
1733359835604626400,11.50762646484375,0.0010108017595484853,-0.005982917733490467,0.002903509419411421
1733359835614591500,11.517591552734375,-0.0009202562505379319,-0.007475884631276131,0.0033016519155353308
1733359835624557300,11.527557373046875,-0.0008810160215944052,-0.007797993719577789,0.0039362311363220215
1733359835634522000,11.537522216796875,-0.001511386246420443,-0.00551832839846611,0.004670198541134596
1733359835644488400,11.547488525390625,-0.001708048628643155,-0.007979560643434525,0.00463944161310792
1733359835654454300,11.557454345703125,-0.0033304463140666485,-0.00734892301261425,0.0031113196164369583
1733359835664419300,11.56741943359375,-0.0020279670134186745,-0.0062787458300590515,0.0029185123275965452
1733359835674385400,11.577385498046874,-0.002768059493973851,-0.0061543770134449005,0.0029310290701687336
1733359835684350200,11.58735009765625,-0.0030695267487317324,-0.0038791708648204803,0.004738809075206518
1733359835694316300,11.59731640625,-0.0017664418555796146,-0.006089327856898308,0.0027526235207915306
1733359835704282400,11.607282470703124,-0.00412442022934556,-0.005283039063215256,0.003981823101639748
1733359835714247200,11.6172470703125,-0.00007907871622592211,-0.0026752715930342674,0.005253216251730919
1733359835724213200,11.627213134765626,-0.0009968922240659595,-0.0035309307277202606,0.0045847054570913315
1733359835734178300,11.63717822265625,-0.0014014263870194554,-0.0038848640397191048,0.004297350533306599
1733359835744144100,11.64714404296875,0.0003432242665439844,-0.004924762062728405,0.003386578056961298
1733359835754109400,11.657109375,-0.0021039543207734823,-0.0062928274273872375,0.0025857656728476286
1733359835764075300,11.6670751953125,-0.0007736423867754638,-0.003538668155670166,0.0027340466622263193
1733359835774041300,11.677041259765625,-0.0000165057135745883,-0.0008579306304454803,0.0024975580163300037
1733359835784006400,11.68700634765625,-0.0014986052410677075,-0.004516206681728363,0.003794200485572219
1733359835793972200,11.69697216796875,-0.00007168357842601836,-0.00317477248609066,0.0037949993275105953
