time,seconds_elapsed,z,y,x
1733359909387676700,0.0276767578125,-0.014915328472852707,0.41344302892684937,0.05204455181956291
1733359909397641700,0.037641845703125,-0.02016628347337246,0.447727233171463,0.1169378012418747
1733359909407607800,0.04760791015625,-0.017107632011175156,0.5330564975738525,0.1313200443983078
1733359909417572900,0.05757275390625,-0.012223927304148674,0.6217754483222961,0.07712072879076004
1733359909427538700,0.06753857421875,0.001056472770869732,0.7280562520027161,-0.040850136429071426
1733359909437503700,0.077503662109375,0.026132797822356224,0.8517342209815979,-0.17193251848220825
1733359909447469800,0.0874697265625,0.05582648143172264,0.9630040526390076,-0.27436643838882446
1733359909457435600,0.097435546875,0.11105883866548538,1.046282172203064,-0.3416154980659485
1733359909467400700,0.107400634765625,0.21743641793727875,1.1441351175308228,-0.35787051916122437
1733359909477366800,0.11736669921875,0.3418305218219757,1.2880014181137085,-0.38801243901252747
1733359909487331600,0.12733154296875,0.529309093952179,1.546333909034729,-0.4219776690006256
1733359909497297700,0.137297607421875,0.7366048097610474,1.7059062719345093,-0.5463331341743469
1733359909507262700,0.1472626953125,0.8179225325584412,1.7058414220809937,-0.7343387007713318
1733359909517228500,0.157228515625,0.7180420160293579,2.0216586589813232,-0.904819905757904
1733359909527193900,0.16719384765625,0.5783624053001404,2.3423943519592285,-0.9915258288383484
1733359909537159400,0.177159423828125,0.5597661137580872,2.466475248336792,-1.1520925760269165
1733359909547124500,0.18712451171875,0.5920279026031494,2.568448543548584,-1.3163762092590332
1733359909557090600,0.197090576171875,0.543714702129364,2.7115824222564697,-1.4193748235702515
1733359909567055400,0.207055419921875,0.44723209738731384,2.915653944015503,-1.480135440826416
1733359909577021400,0.217021484375,0.34235361218452454,3.074812173843384,-1.5102994441986084
1733359909586987500,0.226987548828125,0.24384671449661255,3.2989275455474854,-1.5760393142700195
1733359909596952300,0.236952392578125,0.1843109428882599,3.127638101577759,-1.5749655961990356
1733359909606918400,0.24691845703125,0.15319517254829407,2.7869889736175537,-1.474278211593628
1733359909616883500,0.256883544921875,0.18357545137405396,2.4445369243621826,-1.378558874130249
1733359909626849500,0.266849609375,0.23116983473300934,2.261888027191162,-1.3102920055389404
1733359909636814300,0.276814453125,0.22567333281040192,2.295748710632324,-1.2557311058044434
1733359909646780400,0.286780517578125,0.18961681425571442,2.2705423831939697,-1.2019360065460205
1733359909656745500,0.296745361328125,0.15568546950817108,2.2763278484344482,-1.1959789991378784
1733359909666711300,0.306711181640625,0.12662236392498016,2.201420783996582,-1.1723933219909668
1733359909676676600,0.316676513671875,0.11113714426755905,2.211219072341919,-1.1742479801177979
1733359909686642400,0.326642333984375,0.05651065334677696,2.1630311012268066,-1.1849111318588257
1733359909696608500,0.3366083984375,-0.005025411024689674,1.9924191236495972,-1.2266926765441895
1733359909706573600,0.346573486328125,-0.037850718945264816,1.7433775663375854,-1.2486069202423096
1733359909716539400,0.356539306640625,-0.03259550407528877,1.480997085571289,-1.2067328691482544
1733359909726504400,0.36650439453125,0.007779900450259447,1.264047384262085,-1.1000730991363525
1733359909736470500,0.376470458984375,0.06896975636482239,1.0900324583053589,-0.9236828684806824
1733359909746435300,0.386435302734375,0.1205969899892807,1.0046647787094116,-0.712761640548706
1733359909756401700,0.396401611328125,0.14609196782112122,0.9645498991012573,-0.5158728361129761
1733359909766366500,0.406366455078125,0.14630098640918732,0.9828095436096191,-0.3724460005760193
1733359909776332300,0.416332275390625,0.10340491682291031,0.9891175031661987,-0.2987789809703827
1733359909786297600,0.426297607421875,0.009075532667338848,0.9263486862182617,-0.32402846217155457
1733359909796263400,0.436263427734375,-0.09258371591567993,0.8287712335586548,-0.42690157890319824
1733359909806229200,0.446229248046875,-0.1526644229888916,0.7012256383895874,-0.5557288527488708
1733359909816194600,0.456194580078125,-0.15253899991512299,0.5732916593551636,-0.6567473411560059
1733359909826160400,0.466160400390625,-0.12366918474435806,0.4803377687931061,-0.679243266582489
1733359909836125400,0.47612548828125,-0.12668201327323914,0.41027960181236267,-0.6096221208572388
1733359909846091500,0.486091552734375,-0.16749337315559387,0.36367544531822205,-0.4997592866420746
1733359909856056600,0.496056640625,-0.1584860384464264,0.40467721223831177,-0.3840813934803009
1733359909866022400,0.5060224609375,-0.10344598442316055,0.4184954762458801,-0.2923104763031006
1733359909875987500,0.515987548828125,-0.048927344381809235,0.4221962094306946,-0.22991470992565155
1733359909885953500,0.52595361328125,-0.015893472358584404,0.44909653067588806,-0.1917368620634079
1733359909895918300,0.53591845703125,0.004269851837307215,0.469428688287735,-0.19135655462741852
1733359909905884400,0.545884521484375,0.008474190719425678,0.39817991852760315,-0.2272246927022934
1733359909915850500,0.5558505859375,0.013109423220157623,0.31044578552246094,-0.29874253273010254
1733359909925815300,0.565815185546875,0.0208160150796175,0.2501218318939209,-0.37231066823005676
1733359909935781400,0.575781494140625,0.03335151448845863,0.21574655175209045,-0.40856269001960754
1733359909945746400,0.585746337890625,0.05926784500479698,0.21054710447788239,-0.41504862904548645
1733359909955712500,0.59571240234375,0.09168064594268799,0.2295530140399933,-0.4153493046760559
1733359909965677600,0.605677490234375,0.13750062882900238,0.2929762601852417,-0.3823685050010681
1733359909975643400,0.615643310546875,0.19376176595687866,0.4052972197532654,-0.31629785895347595
1733359909985608400,0.6256083984375,0.24440759420394897,0.4881698191165924,-0.28861570358276367
1733359909995574500,0.635574462890625,0.27235904335975647,0.5315899848937988,-0.30767250061035156
1733359910005539300,0.645539306640625,0.28907519578933716,0.5299104452133179,-0.3397698700428009
1733359910015505700,0.655505615234375,0.3235010802745819,0.4720630943775177,-0.3701043128967285
1733359910025470500,0.665470458984375,0.3748635947704315,0.38139209151268005,-0.3725123703479767
1733359910035436300,0.675436279296875,0.4310570955276489,0.30742117762565613,-0.34687623381614685
1733359910045402600,0.685402587890625,0.46990251541137695,0.2287750244140625,-0.27598077058792114
1733359910055367400,0.695367431640625,0.48161670565605164,0.1589495986700058,-0.1465681791305542
1733359910065333200,0.705333251953125,0.47909894585609436,0.13968953490257263,-0.057157739996910095
1733359910075298600,0.715298583984375,0.4892368018627167,0.09193505346775055,-0.014065664261579514
1733359910085264400,0.725264404296875,0.49779725074768066,0.10470222681760788,-0.021339543163776398
1733359910095229400,0.7352294921875,0.4961812496185303,0.16821621358394623,-0.047979146242141724
1733359910105195500,0.745195556640625,0.49732932448387146,0.21387089788913727,-0.05537312477827072
1733359910115160600,0.75516064453125,0.5053273439407349,0.2729925215244293,-0.03867856785655022
1733359910125126400,0.76512646484375,0.47481656074523926,0.36033201217651367,-0.023153269663453102
1733359910135091500,0.775091552734375,0.4067474901676178,0.3718046545982361,-0.03572631999850273
1733359910145057500,0.7850576171875,0.3236536979675293,0.2759784162044525,-0.06308712065219879
1733359910155023400,0.7950234375,0.22626455128192902,0.1345621794462204,-0.09523813426494598
1733359910164988400,0.804988525390625,0.13165362179279327,-0.014405871741473675,-0.12254724651575089
1733359910174954500,0.81495458984375,0.06567060202360153,-0.13378313183784485,-0.14382191002368927
1733359910184919300,0.824919189453125,0.049763794988393784,-0.1974441260099411,-0.14574268460273743
1733359910194885400,0.834885498046875,0.08159841597080231,-0.19122403860092163,-0.12077635526657104
1733359910204850400,0.844850341796875,0.13734157383441925,-0.12614834308624268,-0.09187451004981995
1733359910214816300,0.854816162109375,0.19294996559619904,-0.04417410492897034,-0.08330472558736801
1733359910224781600,0.864781494140625,0.2576725482940674,0.030108865350484848,-0.05020460486412048
1733359910234747400,0.874747314453125,0.31017863750457764,0.14156560599803925,-0.027303816750645638
1733359910244712400,0.88471240234375,0.3424524664878845,0.22280320525169373,-0.07520296424627304
1733359910254678500,0.894678466796875,0.3704891502857208,0.2827959656715393,-0.08412721753120422
1733359910264643300,0.904643310546875,0.3893091380596161,0.3401821553707123,-0.07336760312318802
1733359910274609400,0.914609375,0.4142341911792755,0.3405850827693939,0.0030299655627459288
1733359910284575500,0.924575439453125,0.4221456050872803,0.38548025488853455,0.1154666617512703
1733359910294540300,0.934540283203125,0.41102585196495056,0.43601933121681213,0.18110986053943634
1733359910304506600,0.944506591796875,0.38963109254837036,0.40880653262138367,0.18336008489131927
1733359910314471400,0.954471435546875,0.34941601753234863,0.32841211557388306,0.2303805947303772
1733359910324437500,0.9644375,0.2690066993236542,0.3290161192417145,0.22212304174900055
1733359910334402600,0.974402587890625,0.19532367587089539,0.25665509700775146,0.06074852496385574
1733359910344368400,0.984368408203125,0.1513437032699585,0.08474201709032059,-0.0969042032957077
1733359910354333400,0.99433349609375,0.11747867614030838,-0.08859008550643921,-0.08952245116233826
1733359910364299500,1.004299560546875,0.08445151895284653,-0.06968408823013306,-0.0223756805062294
1733359910374264600,1.0142646484375,0.07231948524713516,-0.030158787965774536,-0.0072049833834171295
1733359910384230400,1.02423046875,0.0733165591955185,-0.01754436269402504,-0.00824359804391861
1733359910394196500,1.034196533203125,0.082459457218647,-0.04094396159052849,0.014719774946570396
1733359910404161500,1.04416162109375,0.07679706066846848,0.030255019664764404,0.06836008280515671
1733359910414127400,1.05412744140625,0.07903651148080826,0.06550595164299011,0.04655065760016441
1733359910424092400,1.064092529296875,0.07041633874177933,0.06410925090312958,0.060325395315885544
1733359910434058500,1.07405859375,0.060716308653354645,0.11067408323287964,0.08192843198776245
1733359910444023300,1.084023193359375,0.06391214579343796,0.12014653533697128,0.05484161898493767
1733359910453989600,1.09398974609375,0.06965045630931854,0.09717544168233871,0.01972198486328125
1733359910463954400,1.103954345703125,0.07292982935905457,0.05721858888864517,-0.007421692367643118
1733359910473920300,1.113920166015625,0.07145257294178009,0.026605550199747086,-0.023201188072562218
1733359910483885600,1.123885498046875,0.05672825127840042,-0.022437021136283875,-0.012153899297118187
1733359910493851400,1.133851318359375,0.027073418721556664,-0.038326773792505264,0.06677207350730896
1733359910503816400,1.14381640625,0.033127568662166595,0.022895876318216324,0.05588309094309807
1733359910513782500,1.153782470703125,0.04965008795261383,0.002301117405295372,0.02844454161822796
1733359910523748400,1.163748291015625,0.05413912981748581,-0.010405248962342739,0.03710978105664253
1733359910533714200,1.173714111328125,0.04936754330992699,-0.004070654511451721,0.019870340824127197
1733359910543680300,1.18368017578125,0.04572036489844322,-0.006359390914440155,0.005175655707716942
1733359910553645000,1.19364501953125,0.031107867136597633,-0.011633515357971191,-0.007731087971478701
1733359910563611400,1.203611328125,0.012570940889418125,-0.013434793800115585,-0.020191894844174385
1733359910573576200,1.213576171875,0.0026685092598199844,-0.009481064975261688,-0.015970250591635704
1733359910583542000,1.2235419921875,-0.0053228954784572124,-0.014249266125261784,-0.018182329833507538
1733359910593507000,1.233507080078125,-0.014118250459432602,-0.0262388177216053,-0.025750501081347466
1733359910603473200,1.24347314453125,-0.012092609889805317,-0.031461574137210846,-0.027559641748666763
1733359910613438200,1.253438232421875,-0.006124199368059635,-0.10165850073099136,0.0358307845890522
1733359910623404300,1.263404296875,-0.02335137128829956,-0.03635428473353386,0.10818378627300262
1733359910633370000,1.2733701171875,-0.024214234203100204,-0.04309314489364624,0.06533139199018478
1733359910643335200,1.283335205078125,-0.020414186641573906,-0.07359044253826141,0.030693676322698593
1733359910653301200,1.29330126953125,-0.027695801109075546,-0.08569690585136414,0.02857593074440956
1733359910663266300,1.303266357421875,-0.04821521416306496,-0.04991459846496582,0.04566679522395134
1733359910673232100,1.313232177734375,-0.07333415001630783,-0.008583669550716877,0.04035592079162598
1733359910683197200,1.323197265625,-0.10458502173423767,-0.001428700052201748,0.02462383545935154
1733359910693163300,1.333163330078125,-0.13666625320911407,-0.001813259907066822,0.00624269712716341
1733359910703128000,1.343128173828125,-0.16965265572071075,-0.012233175337314606,-0.027300937101244926
1733359910713094100,1.35309423828125,-0.2076580971479416,-0.035154469311237335,-0.027905739843845367
1733359910723059200,1.36305908203125,-0.2473011314868927,-0.03513212502002716,-0.007145588286221027
1733359910733025000,1.37302490234375,-0.28244152665138245,-0.006491422653198242,-0.021720005199313164
1733359910742990300,1.382990234375,-0.28770872950553894,0.00844628643244505,-0.0991121158003807
1733359910752956200,1.3929560546875,-0.278178870677948,-0.021082844585180283,-0.13839773833751678
1733359910762922000,1.402921875,-0.27191007137298584,-0.05901721864938736,-0.11548600345849991
1733359910772887300,1.41288720703125,-0.2710341811180115,-0.07549766451120377,-0.06046030670404434
1733359910782853000,1.42285302734375,-0.27039337158203125,-0.07728217542171478,-0.012473545968532562
1733359910792818200,1.432818115234375,-0.2516636252403259,-0.06956060230731964,0.0032505556009709835
1733359910802784300,1.4427841796875,-0.2207885980606079,-0.0796349048614502,0.03327419236302376
1733359910812749000,1.4527490234375,-0.1785934716463089,-0.05275881662964821,0.05422447994351387
1733359910822715100,1.462715087890625,-0.140113964676857,-0.016327975317835808,0.015133103355765343
1733359910832680200,1.47268017578125,-0.08797406405210495,-0.0161569993942976,-0.0010445346124470234
1733359910842646000,1.48264599609375,-0.03984701260924339,0.027290549129247665,-0.019026068970561028
1733359910852611000,1.492611083984375,0.006333530880510807,0.04107347130775452,-0.02944488823413849
1733359910862577200,1.5025771484375,0.04103023558855057,0.04661504924297333,-0.011812066659331322
1733359910872543000,1.51254296875,0.057974595576524734,0.05127478390932083,0.034382592886686325
1733359910882508000,1.522508056640625,0.05422086641192436,0.05790431424975395,0.06785586476325989
1733359910892474000,1.53247412109375,0.04175540804862976,0.049677543342113495,0.08274266868829727
1733359910902439200,1.542439208984375,0.021173201501369476,0.03701921924948692,0.085893414914608
1733359910912405200,1.5524052734375,-0.0023502339608967304,0.02147062122821808,0.08951318264007568
1733359910922370300,1.562370361328125,-0.02629231847822666,0.0034269047901034355,0.09611222892999649
1733359910932336000,1.572336181640625,-0.04730252921581268,-0.010307284072041512,0.10600720345973969
1733359910942301000,1.582301025390625,-0.06314489245414734,-0.025191856548190117,0.12145835161209106
1733359910952267300,1.592267333984375,-0.06441761553287506,-0.03864774852991104,0.14449283480644226
1733359910962232000,1.602232177734375,-0.07178420573472977,-0.05106445401906967,0.1638360619544983
1733359910972198100,1.6121982421875,-0.06649117171764374,-0.06468305736780167,0.17207588255405426
1733359910982163200,1.6221630859375,-0.05627448856830597,-0.08496136963367462,0.17255645990371704
1733359910992129000,1.63212890625,-0.042771462351083755,-0.09574557840824127,0.17220358550548553
1733359911002095000,1.64209521484375,-0.03600909188389778,-0.09193834662437439,0.16236858069896698
1733359911012060200,1.65206005859375,-0.028993792831897736,-0.09245260804891586,0.14172348380088806
1733359911022026000,1.66202587890625,-0.020219527184963226,-0.09240145981311798,0.13288691639900208
1733359911031991300,1.6719912109375,-0.0064126355573534966,-0.09164459258317947,0.13210049271583557
1733359911041957000,1.68195703125,0.013691316358745098,-0.09097816050052643,0.12611274421215057
1733359911051922200,1.691922119140625,0.040187638252973557,-0.09583630412817001,0.11076094955205917
1733359911061888300,1.70188818359375,0.06579045206308365,-0.09714329987764359,0.10170996189117432
1733359911071853000,1.71185302734375,0.09836756438016891,-0.09269502758979797,0.11553949117660522
1733359911081819100,1.721819091796875,0.12520398199558258,-0.07148206979036331,0.1232830211520195
1733359911091784200,1.7317841796875,0.153884619474411,-0.06116790696978569,0.11027427762746811
1733359911101750000,1.74175,0.17841367423534393,-0.06111564859747887,0.09119526296854019
1733359911111716400,1.75171630859375,0.20314671099185944,-0.05875662341713905,0.07842887192964554
1733359911121681200,1.76168115234375,0.226760134100914,-0.048478901386260986,0.07923771440982819
1733359911131647200,1.771647216796875,0.2514449656009674,-0.025847619399428368,0.06972382962703705
1733359911141612000,1.781612060546875,0.26828065514564514,0.00024153944104909897,0.04454139992594719
1733359911151578000,1.791578125,0.2812337279319763,0.03727066516876221,0.01673053950071335
1733359911161543200,1.801543212890625,0.27879777550697327,0.08181015402078629,-0.011270629242062569
1733359911171509200,1.81150927734375,0.2781626284122467,0.09599148482084274,-0.005116064101457596
1733359911181474300,1.821474365234375,0.27782198786735535,0.1325775384902954,0.024940229952335358
1733359911191440100,1.831440185546875,0.26482364535331726,0.15943846106529236,0.040568456053733826
1733359911201405000,1.841405029296875,0.23204173147678375,0.1569920778274536,0.02743428200483322
1733359911211371300,1.851371337890625,0.19256143271923065,0.13769374787807465,0.004038677085191011
1733359911221337000,1.861337158203125,0.15402497351169586,0.11428357660770416,-0.012098357081413269
1733359911231302100,1.87130224609375,0.12627962231636047,0.08704183250665665,-0.02088971808552742
1733359911241268200,1.881268310546875,0.106879822909832,0.07208307087421417,-0.03647201135754585
1733359911251233000,1.89123291015625,0.03709755092859268,0.051569003611803055,-0.07657068967819214
1733359911261199400,1.901199462890625,-0.01751427724957466,0.02971162647008896,-0.10400940477848053
1733359911271164200,1.9111640625,-0.06076374650001526,0.016465330496430397,-0.11367347836494446
1733359911281130000,1.9211298828125,-0.09277573972940445,0.008464190177619457,-0.11767794191837311
1733359911291095300,1.93109521484375,-0.125692680478096,-0.008357666432857513,-0.11969555169343948
1733359911301061000,1.94106103515625,-0.15119487047195435,-0.024416597560048103,-0.123151496052742
1733359911311026200,1.951026123046875,-0.16559085249900818,-0.040079712867736816,-0.12428094446659088
1733359911320992300,1.9609921875,-0.17480909824371338,-0.04888419806957245,-0.12357790023088455
1733359911330957000,1.97095703125,-0.17248815298080444,-0.05225363001227379,-0.12412331253290176
1733359911340923100,1.980923095703125,-0.16531921923160553,-0.05993783473968506,-0.12203723192214966
1733359911350889200,1.99088916015625,-0.1515735685825348,-0.0713055431842804,-0.11319420486688614
1733359911360854300,2.000854248046875,-0.13764095306396484,-0.080112524330616,-0.10877793282270432
1733359911370820000,2.010820068359375,-0.11725977063179016,-0.09345948696136475,-0.10038871318101883
1733359911380785200,2.02078515625,-0.08839142322540283,-0.1006130650639534,-0.09110100567340851
1733359911390751200,2.030751220703125,-0.061399754136800766,-0.09261825680732727,-0.0877709910273552
1733359911400716000,2.040716064453125,-0.03332285210490227,-0.07599396258592606,-0.08517346531152725
1733359911410682000,2.05068212890625,-0.009869193658232689,-0.04297742620110512,-0.07932595908641815
1733359911420647200,2.060647216796875,0.008637945167720318,-0.006563602015376091,-0.08343806117773056
1733359911430613000,2.070613037109375,0.03365115448832512,0.010974379256367683,-0.08440585434436798
1733359911440578300,2.080578369140625,0.05749386548995972,0.02925102412700653,-0.08603618294000626
1733359911450544000,2.090544189453125,0.07391225546598434,0.049316346645355225,-0.09304030239582062
1733359911460510200,2.10051025390625,0.09336082637310028,0.06059906631708145,-0.10329272598028183
1733359911470475300,2.110475341796875,0.10954245924949646,0.059722620993852615,-0.11190352588891983
1733359911480441000,2.120441162109375,0.1268058568239212,0.04527273774147034,-0.1075030267238617
1733359911490406100,2.13040625,0.14259280264377594,0.027203453704714775,-0.08785475790500641
1733359911500372200,2.140372314453125,0.15893608331680298,0.014351462945342064,-0.06877171993255615
1733359911510337000,2.1503369140625,0.17362314462661743,0.015115791000425816,-0.06106453761458397
1733359911520303400,2.160303466796875,0.189960315823555,0.013454655185341835,-0.054255373775959015
1733359911530268200,2.17026806640625,0.20084039866924286,0.012091116979718208,-0.030490923672914505
1733359911540234200,2.180234130859375,0.21348749101161957,0.013195904903113842,-0.002118024742230773
1733359911550199600,2.190199462890625,0.22355185449123383,0.004970731679350138,0.02591041289269924
1733359911560165400,2.200165283203125,0.22092042863368988,0.012420345097780228,0.0328940711915493
1733359911570131200,2.210131103515625,0.20603762567043304,0.02338884025812149,0.006402809172868729
1733359911580096500,2.220096435546875,0.1808222383260727,0.031651001423597336,-0.01551002636551857
1733359911590062300,2.230062255859375,0.1498028039932251,0.0545339435338974,-0.017046405002474785
1733359911600027400,2.24002734375,0.09196159988641739,0.11132681369781494,-0.042242951691150665
1733359911609993500,2.249993408203125,0.02216786891222,0.1581992506980896,-0.1066373884677887
1733359911619958500,2.25995849609375,-0.04748981446027756,0.16490598022937775,-0.17376749217510223
1733359911629924400,2.26992431640625,-0.11579617112874985,0.16921497881412506,-0.2162552922964096
1733359911639889400,2.279889404296875,-0.16662150621414185,0.14052951335906982,-0.23678897321224213
1733359911649855500,2.28985546875,-0.20575639605522156,0.10603971034288406,-0.22926554083824158
1733359911659820300,2.2998203125,-0.23061326146125793,0.07077975571155548,-0.2139585018157959
1733359911669786400,2.309786376953125,-0.24074871838092804,0.01950298435986042,-0.19045184552669525
1733359911679751400,2.31975146484375,-0.23391157388687134,-0.030350567772984505,-0.14691396057605743
1733359911689717200,2.32971728515625,-0.21478289365768433,-0.05861549824476242,-0.1091359555721283
1733359911699683300,2.339683349609375,-0.1816965788602829,-0.09022589027881622,-0.071378193795681
1733359911709648400,2.3496484375,-0.14126047492027283,-0.10252542793750763,-0.023702016100287437
1733359911719614500,2.359614501953125,-0.09670212119817734,-0.10512109100818634,0.025662407279014587
1733359911729579500,2.36957958984375,-0.06424111872911453,-0.09602959454059601,0.0648026168346405
1733359911739545300,2.37954541015625,-0.04575421288609505,-0.0825754702091217,0.07897938042879105
1733359911749510400,2.389510498046875,0.0025810962542891502,-0.09121636301279068,0.1187686026096344
1733359911759476500,2.3994765625,0.0359468050301075,-0.07384368777275085,0.15478196740150452
1733359911769441300,2.409441162109375,0.06516434252262115,-0.067470483481884,0.17832671105861664
1733359911779407600,2.41940771484375,0.08841801434755325,-0.0646221861243248,0.18915483355522156
1733359911789372400,2.429372314453125,0.1081581637263298,-0.06052544713020325,0.19899627566337585
1733359911799338200,2.439338134765625,0.12038123607635498,-0.052701134234666824,0.2049073576927185
1733359911809304600,2.4493046875,0.1277105063199997,-0.045911405235528946,0.20794975757598877
1733359911819269400,2.459269287109375,0.133549764752388,-0.04634476080536842,0.2024027705192566
1733359911829235200,2.469235107421875,0.13360969722270966,-0.05073844641447067,0.1849057972431183
1733359911839200500,2.479200439453125,0.13049645721912384,-0.05152425915002823,0.16016623377799988
1733359911849166300,2.489166259765625,0.12565642595291138,-0.048260290175676346,0.13799408078193665
1733359911859131400,2.49913134765625,0.12209254503250122,-0.04543532803654671,0.12147481739521027
1733359911869097500,2.509097412109375,0.1155446320772171,-0.03492303192615509,0.11109461635351181
1733359911879062500,2.5190625,0.11427462846040726,-0.026885177940130234,0.1029822826385498
1733359911889028400,2.5290283203125,0.1071900874376297,-0.022329572588205338,0.09410011023283005
1733359911898993400,2.538993408203125,0.10469973832368851,-0.020903728902339935,0.08199088275432587
1733359911908959500,2.54895947265625,0.09892360866069794,-0.011864161118865013,0.07426398992538452
1733359911918925300,2.55892529296875,0.09035167843103409,0.0008801044896245003,0.06884261220693588
1733359911928890400,2.568890380859375,0.08374863862991333,0.007653055712580681,0.062466200441122055
1733359911938856400,2.5788564453125,0.07441671192646027,0.01383507065474987,0.058246344327926636
1733359911948821200,2.5888212890625,0.06330999732017517,0.01587372086942196,0.054693154990673065
1733359911958787300,2.598787353515625,0.051187530159950256,0.01821622997522354,0.05654289200901985
1733359911968752400,2.60875244140625,0.039921291172504425,0.013170338235795498,0.05020616576075554
1733359911978718500,2.618718505859375,0.016185849905014038,0.0007488355040550232,0.03452696651220322
1733359911988683500,2.62868359375,-0.004630482755601406,-0.0152751374989748,0.015613993629813194
1733359911998649300,2.6386494140625,-0.02058573067188263,-0.0268722977489233,0.006471474654972553
1733359912008614400,2.648614501953125,-0.030783507972955704,-0.03252645581960678,0.0027086944319307804
1733359912018580500,2.65858056640625,-0.042588215321302414,-0.03247873857617378,-0.005701858084648848
1733359912028546300,2.66854638671875,-0.04423404857516289,-0.03583671897649765,-0.010942427441477776
1733359912038511600,2.67851171875,-0.038893379271030426,-0.030185498297214508,-0.012399003840982914
1733359912048477400,2.6884775390625,-0.02916032075881958,-0.02592550590634346,-0.013463735580444336
1733359912058442200,2.698442138671875,-0.019842712208628654,-0.019798021763563156,-0.015415175817906857
1733359912068408600,2.70840869140625,-0.011137106455862522,-0.013895658776164055,-0.013153886422514915
1733359912078373400,2.718373291015625,-0.004257619380950928,-0.015060767531394958,-0.01450092438608408
1733359912088339500,2.72833935546875,0.0047004553489387035,-0.023033205419778824,-0.014089466072618961
1733359912098304500,2.738304443359375,0.012533058412373066,-0.026698501780629158,-0.0035471837036311626
1733359912108270300,2.748270263671875,0.01618957705795765,-0.03158673644065857,0.0028422726318240166
1733359912118235400,2.7582353515625,0.026078710332512856,-0.03334777057170868,0.013770134188234806
1733359912128201500,2.768201416015625,0.03157840296626091,-0.03468894213438034,0.026292849332094193
1733359912138166500,2.77816650390625,0.031899593770504,-0.04083229973912239,0.030416741967201233
1733359912148132400,2.78813232421875,0.021585168316960335,-0.049222588539123535,0.025482438504695892
1733359912158098400,2.798098388671875,0.0044642058201134205,-0.046690668910741806,0.011184233240783215
1733359912168063500,2.8080634765625,-0.021031832322478294,-0.03382920101284981,-0.014103546738624573
1733359912178029300,2.818029296875,-0.05476021766662598,-0.023506145924329758,-0.04880388826131821
1733359912187994400,2.827994384765625,-0.0949595719575882,-0.01555261667817831,-0.094423308968544
1733359912197960400,2.83796044921875,-0.13813921809196472,-0.0014311717823147774,-0.14337292313575745
1733359912207925200,2.84792529296875,-0.18384839594364166,0.011862794868648052,-0.19263075292110443
1733359912217891300,2.857891357421875,-0.2312191277742386,0.02789309248328209,-0.2381441295146942
1733359912227856400,2.8678564453125,-0.26675689220428467,0.03517550602555275,-0.27241528034210205
1733359912237822200,2.877822265625,-0.29264625906944275,0.03835102170705795,-0.2932072579860687
1733359912247787500,2.88778759765625,-0.2979150712490082,0.034636177122592926,-0.29446080327033997
1733359912257753300,2.89775341796875,-0.2790926396846771,0.020386148244142532,-0.2746898829936981
1733359912267719400,2.907719482421875,-0.2295762449502945,-0.020049691200256348,-0.23555712401866913
1733359912277684500,2.9176845703125,-0.15813714265823364,-0.08234205096960068,-0.17700763046741486
1733359912287650300,2.927650390625,-0.07308322936296463,-0.13995929062366486,-0.09890563040971756
1733359912297615400,2.937615478515625,-0.010072898119688034,-0.176316499710083,-0.0075791021808981895
1733359912307581400,2.94758154296875,0.0000636256008874625,-0.10873772203922272,0.009324513375759125
1733359912317546200,2.957546142578125,-0.025145558640360832,-0.04819640517234802,-0.03588801622390747
1733359912327512600,2.9675126953125,-0.03938841074705124,-0.02748153731226921,-0.054018549621105194
1733359912337477400,2.977477294921875,-0.03795646131038666,-0.025613335892558098,-0.02896255813539028
1733359912347443500,2.987443359375,0.012101116590201855,-0.11413521319627762,0.07656573504209518
1733359912357408300,2.997408203125,0.08786221593618393,-0.22293944656848907,0.2243502289056778
1733359912367374300,3.007374267578125,0.13502226769924164,-0.3053794503211975,0.3138588070869446
1733359912377340400,3.01734033203125,0.1901259869337082,-0.37426766753196716,0.3568718433380127
1733359912387305500,3.027305419921875,0.2272898554801941,-0.3667815327644348,0.3635161519050598
1733359912397271300,3.037271240234375,0.24575383961200714,-0.3104582130908966,0.3301146328449249
1733359912407236400,3.047236328125,0.23423753678798676,-0.2305615246295929,0.2715037763118744
1733359912417202400,3.057202392578125,0.20042815804481506,-0.13334619998931885,0.19774365425109863
1733359912427167500,3.06716748046875,0.15581035614013672,-0.04033743590116501,0.12418581545352936
1733359912437133300,3.07713330078125,0.11747150123119354,0.040731705725193024,0.05183173716068268
1733359912447098400,3.087098388671875,0.10303636640310287,0.08407917618751526,-0.01194378174841404
1733359912457064400,3.097064453125,0.11011210083961487,0.10819633305072784,-0.054591625928878784
1733359912467029200,3.107029296875,0.1314605325460434,0.13741573691368103,-0.07917739450931549
1733359912476995600,3.11699560546875,0.12777256965637207,0.17781643569469452,-0.10460642725229263
1733359912486961400,3.12696142578125,0.10599270462989807,0.17816664278507233,-0.12025489658117294
1733359912496926200,3.13692626953125,0.0962040051817894,0.16395597159862518,-0.1004781424999237
1733359912506892500,3.146892578125,0.08152492344379425,0.13514722883701324,-0.07203345000743866
1733359912516857300,3.156857421875,0.06688101589679718,0.0903104841709137,-0.038094811141490936
1733359912526823400,3.166823486328125,0.05786088854074478,0.04451423138380051,-0.007830381393432617
1733359912536791300,3.176791259765625,0.050736136734485626,0.005324566271156073,0.02687446027994156
1733359912546757000,3.186757080078125,0.050020281225442886,-0.016236118972301483,0.05960577726364136
1733359912556722200,3.19672216796875,0.05295690894126892,-0.02893277257680893,0.08791482448577881
1733359912566688300,3.206688232421875,0.04760155826807022,-0.0342220775783062,0.11141403019428253
1733359912576653300,3.2166533203125,0.031189318746328354,-0.047498807311058044,0.12029404193162918
1733359912586619400,3.226619384765625,0.005807795561850071,-0.06570896506309509,0.10717105120420456
1733359912596585200,3.236585205078125,-0.022464055567979813,-0.06627628207206726,0.07108800858259201
1733359912606550300,3.24655029296875,-0.04976838082075119,-0.055054258555173874,0.02770431898534298
1733359912616516400,3.256516357421875,-0.06181250885128975,-0.03351956605911255,-0.0000457072164863348
1733359912626481400,3.2664814453125,-0.05951846390962601,-0.015247082337737083,-0.011549497954547405
1733359912636447200,3.276447265625,-0.05485285073518753,-0.0008351346477866173,-0.026440724730491638
1733359912646412300,3.286412353515625,-0.04722049832344055,0.00884012971073389,-0.04432465136051178
1733359912656378400,3.29637841796875,-0.038981806486845016,0.015043654479086399,-0.045992497354745865
1733359912666343200,3.30634326171875,-0.027769368141889572,0.012404462322592735,-0.021746546030044556
1733359912676309200,3.316309326171875,-0.013739552348852158,-0.012968489900231361,0.022354844957590103
1733359912686274300,3.3262744140625,-0.002332434058189392,-0.05689653754234314,0.05897277593612671
1733359912696240000,3.336240234375,-0.0034195182379335165,-0.11675422638654709,0.055641669780015945
1733359912706206200,3.346206298828125,-0.008961290121078491,-0.16812953352928162,0.03352705016732216
1733359912716171300,3.356171142578125,-0.0006684292457066476,-0.1912117749452591,0.03095424361526966
1733359912726137000,3.36613720703125,0.009194854646921158,-0.1822393238544464,0.04561441019177437
1733359912736102400,3.376102294921875,0.01343453861773014,-0.14853866398334503,0.04470556601881981
1733359912746068200,3.386068115234375,0.013763438910245895,-0.11360064148902893,0.022234346717596054
1733359912756033300,3.396033203125,0.017171243205666542,-0.1015954539179802,0.006524063181132078
1733359912765999400,3.405999267578125,0.022344166412949562,-0.08361245691776276,0.0013327632332220674
1733359912775964200,3.415964111328125,0.030148543417453766,-0.0643661692738533,0.013040972873568535
1733359912785930500,3.425930419921875,0.041766319423913956,-0.039830997586250305,0.020183037966489792
1733359912795895300,3.435895263671875,0.05234894901514053,-0.026164444163441658,0.026671655476093292
1733359912805861000,3.445861083984375,0.05925079807639122,-0.00481494702398777,0.026097211986780167
1733359912815826200,3.455826171875,0.06299833953380585,0.010184016078710556,0.01756545715034008
1733359912825792300,3.465792236328125,0.07203817367553711,0.023058002814650536,0.009338952600955963
1733359912835758300,3.47575830078125,0.07886707782745361,0.043275136500597,0.0003000129945576191
1733359912845723400,3.485723388671875,0.06588683277368546,0.05902240797877312,-0.017445161938667297
1733359912855689200,3.495689208984375,0.05086503177881241,0.06199270114302635,-0.025930561125278473
1733359912865654300,3.505654296875,0.032186951488256454,0.06381217390298843,-0.027082644402980804
1733359912875620400,3.515620361328125,0.01339621189981699,0.057680219411849976,-0.02558567002415657
1733359912885585400,3.52558544921875,-0.008080584928393364,0.04911655932664871,-0.030246736481785774
1733359912895551200,3.53555126953125,-0.026259861886501312,0.04378695785999298,-0.03618837147951126
1733359912905516300,3.545516357421875,-0.03997514024376869,0.04486393928527832,-0.042776498943567276
1733359912915482400,3.555482421875,-0.05476365610957146,0.04404053837060928,-0.046552352607250214
1733359912925448200,3.5654482421875,-0.06314142793416977,0.03767744451761246,-0.04771588742733002
1733359912935413200,3.575413330078125,-0.06726507097482681,0.027761556208133698,-0.04487748444080353
1733359912945379300,3.58537939453125,-0.07164730876684189,0.008174271322786808,-0.03825819864869118
1733359912955344100,3.59534423828125,-0.06546024233102798,-0.005699915811419487,-0.036304913461208344
1733359912965310200,3.605310302734375,-0.05925267934799194,-0.004641575738787651,-0.03935449942946434
1733359912975275300,3.615275146484375,-0.04733237624168396,0.0021238354966044426,-0.046181369572877884
1733359912985241000,3.625240966796875,-0.0342131108045578,0.016785336658358574,-0.05005387216806412
1733359912995206400,3.635206298828125,-0.019102873280644417,0.02825435996055603,-0.051581189036369324
1733359913005172200,3.645172119140625,-0.005449645686894655,0.02734542265534401,-0.043034572154283524
1733359913015137300,3.65513720703125,0.005264765582978725,0.021191876381635666,-0.02737489342689514
1733359913025103400,3.665103271484375,0.013445463962852955,0.0034786597825586796,-0.009788177907466888
1733359913035068200,3.675068115234375,0.019977916032075882,-0.012819462455809116,0.003168255090713501
1733359913045034200,3.6850341796875,0.02220059186220169,-0.018672026693820953,0.011400353163480759
1733359913055000300,3.695000244140625,0.023483704775571823,-0.015756189823150635,0.01308067049831152
1733359913064965400,3.70496533203125,0.024343904107809067,-0.012707137502729893,0.02032500132918358
1733359913074931500,3.714931396484375,0.02215052954852581,-0.016976572573184967,0.027880383655428886
1733359913084896300,3.724896240234375,0.014942683279514313,-0.044402606785297394,0.042800210416316986
1733359913094862300,3.7348623046875,0.0027534388937056065,-0.0813274160027504,0.059220004826784134
1733359913104827100,3.7448271484375,-0.011266505345702171,-0.11320839077234268,0.07467806339263916
1733359913114793200,3.754793212890625,-0.028297703713178635,-0.15011431276798248,0.0712033212184906
1733359913124758300,3.76475830078125,-0.03513909503817558,-0.16842380166053772,0.056247808039188385
1733359913134724400,3.774724365234375,-0.04189233109354973,-0.17333652079105377,0.04685589298605919
1733359913144689400,3.784689453125,-0.051197417080402374,-0.16453558206558228,0.04422255977988243
1733359913154655200,3.7946552734375,-0.05350106954574585,-0.14101171493530273,0.04183971509337425
1733359913164621300,3.804621337890625,-0.058036431670188904,-0.11564403772354126,0.034765828400850296
1733359913174586400,3.81458642578125,-0.056614555418491364,-0.08333886414766312,0.020553985610604286
1733359913184552200,3.82455224609375,-0.0527455173432827,-0.0625867173075676,0.009953007102012634
1733359913194517200,3.834517333984375,-0.04446975886821747,-0.047225773334503174,-0.0020676851272583008
1733359913204483300,3.8444833984375,-0.034698087722063065,-0.040566541254520416,-0.010267024859786034
1733359913214448000,3.8544482421875,-0.02730860933661461,-0.03672797977924347,-0.014831955544650555
1733359913224414500,3.86441455078125,-0.020232323557138443,-0.028390951454639435,-0.012955758720636368
1733359913234379300,3.874379150390625,-0.017383014783263206,-0.02124204859137535,-0.003069163765758276
1733359913244345000,3.884344970703125,-0.013240467756986618,-0.012809148989617825,0.00545055465772748
1733359913254310400,3.894310302734375,-0.012441784143447876,-0.011859793215990067,0.000871379510499537
1733359913264276200,3.904276123046875,-0.0075626065954566,-0.009567342698574066,-0.009325332008302212
1733359913274242000,3.914241943359375,-0.005402237176895142,0.011225988157093525,-0.019294627010822296
1733359913284207400,3.924207275390625,-0.0004990912275388837,0.032736871391534805,-0.03206181898713112
1733359913294173200,3.934173095703125,0.0006311611505225301,0.04471638798713684,-0.049250271171331406
1733359913304138200,3.94413818359375,0.0003778945538215339,0.04850286990404129,-0.059057630598545074
1733359913314104300,3.954104248046875,-0.0001984653645195067,0.04830612614750862,-0.062292370945215225
1733359913324069400,3.9640693359375,0.0011094131041318178,0.04042370244860649,-0.059934671968221664
1733359913334035500,3.974035400390625,0.005769691895693541,0.038218505680561066,-0.05966117978096008
1733359913344000300,3.984000244140625,0.010275494307279587,0.034910593181848526,-0.05686699599027634
1733359913353966300,3.99396630859375,0.020725509151816368,0.02876032330095768,-0.0436168871819973
1733359913363931100,4.00393115234375,0.03470097854733467,0.014526525512337685,-0.024919632822275162
1733359913373897200,4.013897216796875,0.04767053201794624,0.00009840726852416992,-0.0003131651319563389
1733359913383863300,4.02386328125,0.060382332652807236,-0.010893790982663631,0.023620929569005966
1733359913393828400,4.033828369140625,0.07287176698446274,-0.017373383045196533,0.04630652815103531
1733359913403794200,4.043794189453125,0.0819009467959404,-0.014078520238399506,0.06252198666334152
1733359913413759200,4.05375927734375,0.08467517793178558,-0.0011528199538588524,0.07629450410604477
1733359913423725300,4.063725341796875,0.0795091763138771,0.01167962234467268,0.07594988495111465
1733359913433690400,4.0736904296875,0.07475011795759201,0.01986413262784481,0.0734221413731575
1733359913443656200,4.08365625,0.06912179291248322,0.024037040770053864,0.0682726502418518
1733359913453621500,4.09362158203125,0.06125131994485855,0.023810720071196556,0.05609565228223801
1733359913463587300,4.10358740234375,0.04752139374613762,0.016716059297323227,0.043448034673929214
1733359913473552100,4.11355224609375,0.028365077450871468,0.010008662939071655,0.026835143566131592
1733359913483518500,4.1235185546875,0.011927780695259571,-0.002178494818508625,0.00704546133056283
1733359913493484300,4.133484375,0.0009954862762242556,-0.010491597466170788,-0.01020460668951273
1733359913503449000,4.143448974609375,-0.011313377879559994,-0.018991608172655106,-0.022168060764670372
1733359913513415400,4.15341552734375,-0.01659763604402542,-0.025898415595293045,-0.032141849398612976
1733359913523380200,4.163380126953125,-0.021448317915201187,-0.03323223069310188,-0.047825999557971954
1733359913533346300,4.17334619140625,-0.02293754369020462,-0.03437855467200279,-0.06693127006292343
1733359913543307500,4.1833076171875,-0.019106052815914154,-0.024959485977888107,-0.08449295163154602
1733359913553273600,4.193273681640625,-0.013564559631049633,-0.0052954647690057755,-0.09372225403785706
1733359913563238700,4.20323876953125,-0.007457931060343981,0.01801624894142151,-0.09681897610425949
1733359913573204500,4.21320458984375,0.0033454345539212227,0.03902842104434967,-0.1022225096821785
1733359913583169500,4.22316943359375,0.0156055623665452,0.04624851793050766,-0.10876590013504028
1733359913593135600,4.233135498046875,0.02545928582549095,0.05805224925279617,-0.12590551376342773
1733359913603100400,4.243100341796875,0.029458021745085716,0.059329502284526825,-0.13906073570251465
1733359913613066800,4.253066650390625,0.03136828541755676,0.05580168962478638,-0.14283917844295502
1733359913623032600,4.263032470703125,0.027002032846212387,0.05116485804319382,-0.14165620505809784
1733359913632997600,4.27299755859375,0.02527790144085884,0.04307097941637039,-0.1378265768289566
1733359913642963700,4.282963623046875,0.023560695350170135,0.0358482226729393,-0.1322949230670929
1733359913652928500,4.292928466796875,0.02539537101984024,0.02565249800682068,-0.12440802156925201
1733359913662894600,4.30289453125,0.027400463819503784,0.023781627416610718,-0.11890512704849243
1733359913672859600,4.312859619140625,0.02890033647418022,0.020491838455200195,-0.10618411004543304
1733359913682825500,4.322825439453125,0.028684353455901146,0.016599096357822418,-0.08522289991378784
1733359913692790500,4.33279052734375,0.02474072203040123,0.004504691809415817,-0.06607180833816528
1733359913702756600,4.342756591796875,0.01961386948823929,-0.006186302751302719,-0.04600835591554642
1733359913712722400,4.352722412109375,0.013700089417397976,-0.012856834568083286,-0.023076053708791733
1733359913722687500,4.3626875,0.010344772599637508,-0.02199254184961319,-0.001292995410040021
1733359913732653600,4.372653564453125,0.006332176271826029,-0.02537951059639454,0.027339862659573555
1733359913742618600,4.38261865234375,0.0033233370631933212,-0.03318816423416138,0.05182203650474548
1733359913752584400,4.39258447265625,-0.0015694040339440107,-0.04123619198799133,0.07616596668958664
1733359913762549800,4.4025498046875,-0.008041949942708015,-0.045577410608530045,0.0991130992770195
1733359913772515600,4.412515625,-0.014074308797717094,-0.0407559759914875,0.11703567206859589
1733359913782480400,4.42248046875,-0.017583290114998817,-0.0380704440176487,0.12716901302337646
1733359913792446700,4.43244677734375,-0.022539177909493446,-0.03288443386554718,0.13062700629234314
1733359913802411500,4.44241162109375,-0.029708940535783768,-0.025863541290163994,0.13294768333435059
1733359913812377300,4.45237744140625,-0.030378935858607292,-0.021740294992923737,0.1354091763496399
1733359913822342700,4.4623427734375,-0.030280666425824165,-0.017512526363134384,0.13597296178340912
1733359913832308500,4.47230859375,-0.03070918656885624,-0.018977578729391098,0.12929324805736542
1733359913842274600,4.482274658203125,-0.028083043172955513,-0.018850013613700867,0.11484692245721817
1733359913852239600,4.492239501953125,-0.025843560695648193,-0.00913245603442192,0.0984005257487297
1733359913862205400,4.502205322265625,-0.02178330533206463,-0.002896399237215519,0.0878746509552002
1733359913872170800,4.512170654296875,-0.02016066387295723,-0.0057238005101680756,0.08061383664608002
1733359913882136600,4.522136474609375,-0.019044265151023865,-0.014854181557893753,0.07608620077371597
1733359913892101600,4.5321015625,-0.02077965810894966,-0.02439023181796074,0.07094133645296097
1733359913902067700,4.542067626953125,-0.0237892959266901,-0.031087283045053482,0.06880921125411987
1733359913912032500,4.552032470703125,-0.029427947476506233,-0.022339634597301483,0.0652475580573082
1733359913921998600,4.56199853515625,-0.027764270082116127,-0.015066808089613914,0.06122272461652756
1733359913931963600,4.571963623046875,-0.032722268253564835,-0.0074176546186208725,0.057380568236112595
1733359913941929500,4.581929443359375,-0.04122600704431534,-0.008139105513691902,0.04381229355931282
1733359913951895600,4.5918955078125,-0.04856889322400093,-0.010962101630866528,0.023754986003041267
1733359913961860600,4.601860595703125,-0.053409457206726074,-0.013112603686749935,0.004778100643306971
1733359913971826400,4.611826416015625,-0.05624468997120857,-0.007718793116509914,-0.02145785465836525
1733359913981791500,4.62179150390625,-0.05272718891501427,-0.010845345444977283,-0.036818165332078934
1733359913991757600,4.631757568359375,-0.0434710755944252,-0.011970724910497665,-0.03593350201845169
1733359914001722600,4.64172265625,-0.03388023376464844,-0.008577058091759682,-0.04087153449654579
1733359914011688400,4.6516884765625,-0.021941011771559715,-0.004822449758648872,-0.05612253397703171
1733359914021653800,4.66165380859375,-0.010586624033749104,0.005963885225355625,-0.07511992752552032
1733359914031619600,4.67161962890625,0.0046059200540184975,0.019406747072935104,-0.09330000728368759
1733359914041584400,4.68158447265625,0.02252579852938652,0.034508202224969864,-0.1028868556022644
1733359914051550700,4.69155078125,0.042018529027700424,0.04800247400999069,-0.10815656930208206
1733359914061516500,4.7015166015625,0.06064867228269577,0.05821676552295685,-0.1123204231262207
1733359914071481300,4.7114814453125,0.07672245055437088,0.07281503081321716,-0.11446666717529297
1733359914081447700,4.72144775390625,0.08902332186698914,0.08702938258647919,-0.11867792904376984
1733359914091412500,4.73141259765625,0.0983734056353569,0.10163327306509018,-0.11866126954555511
1733359914101378600,4.741378662109375,0.10198039561510086,0.11260336637496948,-0.11524257063865662
1733359914111343600,4.751343505859375,0.09594091027975082,0.11337935924530029,-0.11099673807621002
1733359914121309400,4.761309326171875,0.08778071403503418,0.11403237283229828,-0.10660997778177261
1733359914131274500,4.7712744140625,0.0711120069026947,0.10494549572467804,-0.10271526128053665
1733359914141240600,4.781240478515625,0.052134592086076736,0.07407067716121674,-0.09617959707975388
1733359914151205600,4.79120556640625,0.033057212829589844,0.040462739765644073,-0.08936404436826706
1733359914161171700,4.801171630859375,0.017040692269802094,0.002336926758289337,-0.08341028541326523
1733359914171137500,4.811137451171875,0.0010737625416368246,-0.027207177132368088,-0.08436469733715057
1733359914181102600,4.8211025390625,-0.003170250914990902,-0.02457251399755478,-0.09598619490861893
1733359914191068700,4.831068603515625,-0.004003526642918587,0.008666735142469406,-0.10376479476690292
1733359914201033500,4.841033447265625,0.0037332226056605577,0.05592292919754982,-0.10201429575681686
1733359914210999600,4.85099951171875,0.01599068194627762,0.09553763270378113,-0.0928877666592598
1733359914220964600,4.860964599609375,0.020781975239515305,0.10479717701673508,-0.0907583013176918
1733359914230930700,4.8709306640625,0.019788037985563278,0.08833014219999313,-0.09207744151353836
1733359914240895500,4.8808955078125,0.005904980935156345,0.05950435250997543,-0.08845687657594681
1733359914250861600,4.890861572265625,-0.005688059609383345,0.04628639295697212,-0.07144815474748611
1733359914260826600,4.90082666015625,-0.02168193832039833,0.0340542271733284,-0.05553044378757477
1733359914270792400,4.91079248046875,-0.03115047700703144,0.012507767416536808,-0.025480883195996284
1733359914280758500,4.920758544921875,-0.03866085782647133,-0.008999123238027096,0.008888541720807552
1733359914290723600,4.9307236328125,-0.05104561895132065,-0.04412394389510155,0.03229106217622757
1733359914300689400,4.940689453125,-0.060899313539266586,-0.0963224321603775,0.056089602410793304
1733359914310654700,4.95065478515625,-0.06767945736646652,-0.13617923855781555,0.07735881209373474
1733359914320620500,4.96062060546875,-0.07113490998744965,-0.1657363325357437,0.09040776640176773
1733359914330585600,4.970585693359375,-0.07263030111789703,-0.18160627782344818,0.09647063165903091
1733359914340551700,4.9805517578125,-0.06520141661167145,-0.18274423480033875,0.09403623640537262
1733359914350516500,4.9905166015625,-0.04959288239479065,-0.1607813537120819,0.08543287217617035
1733359914360482600,5.000482666015625,-0.028559235855937004,-0.13293294608592987,0.07353013753890991
1733359914370447600,5.010447509765625,-0.0070275734178721905,-0.10595951974391937,0.05476789548993111
1733359914380413400,5.020413330078125,0.014073451049625874,-0.075859934091568,0.051150254905223846
1733359914390379800,5.0303798828125,0.02913041040301323,-0.04173684120178223,0.0667690634727478
1733359914400344600,5.040344482421875,0.03803389146924019,-0.012111568823456764,0.08700375258922577
1733359914410310400,5.050310302734375,0.04759065806865692,0.0063525615260005,0.10316725820302963
1733359914420275700,5.060275634765625,0.054775867611169815,0.018743183463811874,0.09957465529441833
1733359914430241500,5.070241455078125,0.05173957720398903,0.02142094448208809,0.08714597672224045
1733359914440206600,5.08020654296875,0.04024404287338257,0.017890391871333122,0.07865262031555176
1733359914450172700,5.090172607421875,0.027226559817790985,0.011242666281759739,0.07243793457746506
1733359914460137700,5.1001376953125,0.009479787200689316,0.00013595260679721832,0.061027891933918
1733359914470103600,5.110103515625,-0.024806590750813484,-0.009996220469474792,0.03515120968222618
1733359914480068600,5.120068603515625,-0.04849887266755104,-0.017940696328878403,-0.0024251937866210938
1733359914490034700,5.13003466796875,-0.04322097823023796,-0.007204457186162472,-0.02547570690512657
1733359914500000500,5.14000048828125,-0.0451834611594677,0.020252466201782227,-0.05307777225971222
1733359914509965600,5.149965576171875,-0.04350966215133667,0.025946777313947678,-0.08027677237987518
1733359914519931600,5.159931640625,-0.021570807322859764,0.03132583200931549,-0.07335948199033737
1733359914529896400,5.169896484375,-0.007439801003783941,0.022357719019055367,-0.05534093827009201
1733359914539863300,5.17986328125,-0.004950544331222773,0.014761318452656269,-0.05606185644865036
1733359914549828600,5.18982861328125,0.00858522392809391,0.006050483323633671,-0.05065056309103966
1733359914559794400,5.19979443359375,0.03143647685647011,0.017544154077768326,-0.03328728303313255
1733359914569759500,5.209759521484375,0.0427144356071949,0.034926485270261765,-0.029776178300380707
1733359914579725600,5.2197255859375,0.059163715690374374,0.04584731161594391,-0.03707696869969368
1733359914589690400,5.2296904296875,0.07636614143848419,0.06030566990375519,-0.043264154344797134
1733359914599656400,5.239656494140625,0.08137021958827972,0.07139027863740921,-0.05041207745671272
1733359914609622500,5.24962255859375,0.0859588086605072,0.06662587821483612,-0.056980326771736145
1733359914619587300,5.25958740234375,0.08337634801864624,0.0567932203412056,-0.055828507989645004
1733359914629553700,5.2695537109375,0.07435168325901031,0.04749263823032379,-0.04874369129538536
1733359914639518500,5.2795185546875,0.06475098431110382,0.03478776291012764,-0.043531619012355804
1733359914649484300,5.289484375,0.05904357135295868,0.027640782296657562,-0.034696850925683975
1733359914659449300,5.299449462890625,0.05045487731695175,0.029946811497211456,-0.022798914462327957
1733359914669415400,5.30941552734375,0.042731452733278275,0.0277491956949234,-0.01228742953389883
1733359914679380500,5.31938037109375,0.035389386117458344,0.019820166751742363,-0.0015458357520401478
1733359914689346600,5.3293466796875,0.025281313806772232,0.005852238275110722,0.010164804756641388
1733359914699311600,5.3393115234375,0.011963378638029099,-0.009140027686953545,0.01733350194990635
1733359914709277400,5.34927734375,0.000010364718036726117,-0.017583107575774193,0.01936822198331356
1733359914719243500,5.359243408203125,-0.0071386247873306274,-0.01858072727918625,0.02140287682414055
1733359914729208600,5.36920849609375,-0.01620643027126789,-0.013575340621173382,0.022751249372959137
1733359914739174400,5.37917431640625,-0.021773502230644226,-0.008913476951420307,0.022449776530265808
1733359914749139500,5.389139404296875,-0.028103025630116463,-0.00932204257696867,0.018621869385242462
1733359914759105500,5.39910546875,-0.029623690992593765,-0.011757503263652325,0.016764048486948013
1733359914769070300,5.4090703125,-0.034947607666254044,-0.013934819959104061,0.016311701387166977
1733359914779036400,5.419036376953125,-0.040141571313142776,-0.016946855932474136,0.015701036900281906
1733359914789001500,5.42900146484375,-0.0437360554933548,-0.022791922092437744,0.016431424766778946
1733359914798967300,5.43896728515625,-0.04902961850166321,-0.03179953247308731,0.02132471650838852
1733359914808932600,5.4489326171875,-0.05457966774702072,-0.043823957443237305,0.02533985860645771
1733359914818898400,5.4588984375,-0.05244407802820206,-0.05258522182703018,0.027410998940467834
1733359914828863500,5.468863525390625,-0.05195591226220131,-0.05208952724933624,0.03034752421081066
1733359914838829600,5.47882958984375,-0.04672679305076599,-0.04641725867986679,0.03381043300032616
1733359914848795400,5.48879541015625,-0.04097650200128555,-0.04541292041540146,0.036124058067798615
1733359914858760400,5.498760498046875,-0.03962548077106476,-0.042749758809804916,0.04061228409409523
1733359914868726500,5.5087265625,-0.03673167899250984,-0.045388396829366684,0.04366425424814224
1733359914878691300,5.51869140625,-0.03585869446396828,-0.04331379383802414,0.04628613591194153
1733359914888657400,5.528657470703125,-0.03324108570814133,-0.04770324006676674,0.04667630046606064
1733359914898622500,5.53862255859375,-0.034801166504621506,-0.05059250444173813,0.04619266837835312
1733359914908588300,5.54858837890625,-0.03551701456308365,-0.0507098063826561,0.04532953351736069
1733359914918553300,5.55855322265625,-0.03367490693926811,-0.05034948140382767,0.043333493173122406
1733359914928519400,5.56851953125,-0.033596109598875046,-0.04774758219718933,0.03816793113946915
1733359914938485500,5.578485595703125,-0.03550319746136665,-0.045301999896764755,0.03572075441479683
1733359914948450300,5.5884501953125,-0.03226447477936745,-0.03968539461493492,0.03718462958931923
1733359914958416400,5.59841650390625,-0.03007669188082218,-0.03756285458803177,0.03314061835408211
1733359914968381400,5.60838134765625,-0.02802335098385811,-0.03300335258245468,0.025783976539969444
1733359914978347500,5.618347412109375,-0.028612442314624786,-0.028768125921487808,0.020918114110827446
1733359914988312600,5.6283125,-0.029039427638053894,-0.022882748395204544,0.01850460097193718
1733359914998278400,5.6382783203125,-0.02852277271449566,-0.016833912581205368,0.014935698360204697
1733359915008243500,5.648243408203125,-0.030507037416100502,-0.010042769834399223,0.002119028242304921
1733359915018209500,5.65820947265625,-0.027589278295636177,-0.00010491814464330673,-0.006109073758125305
1733359915028174300,5.66817431640625,-0.01875375583767891,0.008086316287517548,-0.012754400260746479
1733359915038140400,5.678140380859375,-0.013979773968458176,0.01808595284819603,-0.01958274468779564
1733359915048105500,5.68810546875,-0.01627085916697979,0.023844188079237938,-0.03330046311020851
1733359915058071300,5.6980712890625,-0.009452634491026402,0.025227967649698257,-0.041387949138879776
1733359915068037600,5.70803759765625,-0.0022466937080025673,0.030233141034841537,-0.039980147033929825
1733359915078002400,5.71800244140625,-0.0021407001186162233,0.029660027474164963,-0.04435146227478981
1733359915087968300,5.72796826171875,0.001450641080737114,0.029003599658608437,-0.04944564774632454
1733359915097933600,5.73793359375,0.002797667868435383,0.029701082035899162,-0.044538240879774094
1733359915107899400,5.7478994140625,0.00809275358915329,0.02958197146654129,-0.04018706455826759
1733359915117864400,5.757864501953125,0.012803353369235992,0.027588598430156708,-0.033461783081293106
1733359915127830500,5.76783056640625,0.013846850022673607,0.0259358212351799,-0.0302630215883255
1733359915137795300,5.77779541015625,0.015182691626250744,0.024333396926522255,-0.020737959071993828
1733359915147761400,5.787761474609375,0.008747736923396587,0.01934126764535904,-0.007646982558071613
1733359915157726500,5.7977265625,-0.000562407891266048,0.007178343832492828,0.0024788889568299055
1733359915167692500,5.807692626953125,-0.007829705253243446,-0.008921152912080288,0.011531859636306763
1733359915177658600,5.81765869140625,-0.015811732038855553,-0.018475241959095,0.016052043065428734
1733359915187623400,5.82762353515625,-0.024588216096162796,-0.022930540144443512,0.015256070531904697
1733359915197589500,5.837589599609375,-0.03129778429865837,-0.019570961594581604,0.015192154794931412
1733359915207554300,5.84755419921875,-0.03412631154060364,-0.01575767993927002,0.015659788623452187
1733359915217520400,5.857520263671875,-0.03660411760210991,-0.01689910888671875,0.014317022636532784
1733359915227485400,5.8674853515625,-0.040772754698991776,-0.02147359773516655,0.016477899625897408
1733359915237451500,5.877451416015625,-0.04250460863113403,-0.028256405144929886,0.026373140513896942
1733359915247416600,5.88741650390625,-0.03962890803813934,-0.038214243948459625,0.029983695596456528
1733359915257382400,5.89738232421875,-0.03417981415987015,-0.04281538724899292,0.028416424989700317
1733359915267347500,5.907347412109375,-0.03050675243139267,-0.03908002749085426,0.025729920715093613
1733359915277313500,5.9173134765625,-0.01768256537616253,-0.03248950466513634,0.023219093680381775
1733359915287279400,5.927279296875,-0.00689762644469738,-0.016331203281879425,0.024013597518205643
1733359915297244700,5.93724462890625,-0.0008405331755056977,-0.0048109013587236404,0.025892725214362144
1733359915307210500,5.94721044921875,0.003833858296275139,0.005749028641730547,0.02609897032380104
1733359915317175300,5.95717529296875,0.011672873049974442,0.006877942476421595,0.019806455820798874
1733359915327141600,5.9671416015625,0.0165866706520319,0.013208276592195034,0.008625972084701061
1733359915337106400,5.9771064453125,0.018147550523281097,0.025389041751623154,-0.00047431583516299725
1733359915347072300,5.987072265625,0.020613618195056915,0.035155341029167175,-0.0022362396121025085
1733359915357037600,5.99703759765625,0.022226428613066673,0.03752155601978302,-0.004864247050136328
1733359915367003400,6.00700341796875,0.020783264189958572,0.033137135207653046,-0.006249226629734039
1733359915376968400,6.016968505859375,0.019527317956089973,0.01782928593456745,-0.009975521825253963
1733359915386934500,6.0269345703125,0.012101621367037296,0.008669196628034115,-0.013143345713615417
1733359915396900400,6.036900390625,0.007671719416975975,-0.006372603587806225,-0.02308093197643757
1733359915406865400,6.046865478515625,0.008305836468935013,-0.020362671464681625,-0.03356741741299629
1733359915416831500,6.05683154296875,0.010363128036260605,-0.029204100370407104,-0.04101787507534027
1733359915426796500,6.066796630859375,0.007237407844513655,-0.04503052309155464,-0.04237879440188408
1733359915436762400,6.076762451171875,-0.0008330355631187558,-0.04964205250144005,-0.032848939299583435
1733359915446727400,6.0867275390625,-0.013904927298426628,-0.057604849338531494,-0.011719910427927971
1733359915456693500,6.096693603515625,-0.02215087227523327,-0.06546436995267868,0.009264200925827026
1733359915466658300,6.106658203125,-0.02939656563103199,-0.06561744958162308,0.022417860105633736
1733359915476624400,6.116624267578125,-0.03504246845841408,-0.05924664065241814,0.016773823648691177
1733359915486589400,6.12658935546875,-0.03131428360939026,-0.04233117401599884,-0.004986498039215803
1733359915496555300,6.13655517578125,-0.022619063034653664,-0.003946766257286072,-0.03284076601266861
1733359915506521300,6.146521240234375,-0.014597608707845211,0.04439110681414604,-0.05790725350379944
1733359915516486400,6.156486328125,-0.00022612628526985645,0.08284369111061096,-0.07604338228702545
1733359915526452500,6.166452392578125,0.015251894481480122,0.10461942106485367,-0.08854904770851135
1733359915536417000,6.1764169921875,0.02989368885755539,0.10000549256801605,-0.09357096999883652
1733359915546382800,6.1863828125,0.038715146481990814,0.0757378488779068,-0.09010966867208481
1733359915556348000,6.196347900390625,0.045099541544914246,0.052592311054468155,-0.07228565961122513
1733359915566314000,6.20631396484375,0.05861641466617584,0.03021809086203575,-0.03607612103223801
1733359915576279000,6.216279052734375,0.0768100693821907,0.025081120431423187,0.0034680915996432304
1733359915586244900,6.226244873046875,0.09872607886791229,0.02882613241672516,0.032075557857751846
1733359915596210000,6.2362099609375,0.11777753382921219,0.036573801189661026,0.05129159986972809
1733359915606176000,6.246176025390625,0.1389477401971817,0.051534444093704224,0.06209464743733406
1733359915616141800,6.256141845703125,0.15005765855312347,0.06811155378818512,0.06361318379640579
1733359915626107000,6.26610693359375,0.1597219705581665,0.08054450899362564,0.05185629799962044
1733359915636073000,6.276072998046875,0.16446025669574738,0.0917833149433136,0.04066010192036629
1733359915646037800,6.286037841796875,0.16243070363998413,0.10408979654312134,0.034259553998708725
1733359915656003800,6.29600390625,0.15253493189811707,0.10404052585363388,0.03274208679795265
1733359915665969000,6.305968994140625,0.1389903575181961,0.0871124342083931,0.025879640132188797
1733359915675934700,6.315934814453125,0.1136234849691391,0.0611809678375721,0.0119949821382761
1733359915685900000,6.325900146484375,0.08455879241228104,0.04265429079532623,-0.004617117345333099
1733359915695865900,6.335865966796875,0.05434895679354668,0.040014564990997314,-0.0227883979678154
1733359915705831000,6.345830810546875,0.026352183893322945,0.04597511887550354,-0.03127199783921242
1733359915715797000,6.355796875,-0.0011990172788500786,0.05243195220828056,-0.03997068107128143
1733359915725762800,6.3657626953125,-0.023251259699463844,0.048222728073596954,-0.05026281625032425
1733359915735727900,6.375727783203125,-0.04265265166759491,0.0424274206161499,-0.055409908294677734
1733359915745694000,6.38569384765625,-0.06161970645189285,0.0338379442691803,-0.05283340439200401
1733359915755658800,6.39565869140625,-0.07759681344032288,0.014846943318843842,-0.05084642022848129
1733359915765625000,6.405625,-0.08902417123317719,0.00039542093873023987,-0.04604233801364899
1733359915775590000,6.41558984375,-0.10076098889112473,-0.019843803718686104,-0.038807064294815063
1733359915785555700,6.4255556640625,-0.10575837641954422,-0.04073529317975044,-0.0319281630218029
1733359915795521000,6.43552099609375,-0.10724522173404694,-0.05650386959314346,-0.02992226742208004
1733359915805486800,6.44548681640625,-0.10228484123945236,-0.06420937925577164,-0.031002946197986603
1733359915815452000,6.455451904296875,-0.09288281947374344,-0.059499576687812805,-0.03323627635836601
1733359915825418000,6.46541796875,-0.08158810436725616,-0.04329322651028633,-0.026757845655083656
1733359915835383800,6.4753837890625,-0.06839373707771301,-0.02993214875459671,-0.020833376795053482
1733359915845348900,6.485348876953125,-0.05615434795618057,-0.029323995113372803,-0.016307247802615166
1733359915855315000,6.49531494140625,-0.04228273779153824,-0.024758271872997284,-0.012490138411521912
1733359915865280000,6.505280029296875,-0.025002047419548035,-0.015279145911335945,-0.00800361018627882
1733359915875245800,6.515245849609375,-0.005811840295791626,-0.0029809344559907913,-0.0030069879721850157
1733359915885211000,6.5252109375,0.012052073143422604,0.010096748359501362,0.006204802542924881
1733359915895177000,6.535177001953125,0.025146037340164185,0.02178163453936577,0.016641996800899506
1733359915905141800,6.545141845703125,0.03234326094388962,0.02606075257062912,0.01916450262069702
1733359915915107800,6.55510791015625,0.03610178083181381,0.03292132169008255,0.01957090198993683
1733359915925073000,6.565072998046875,0.03991304710507393,0.038872528821229935,0.022215532138943672
1733359915935038700,6.575038818359375,0.039238736033439636,0.03732869401574135,0.01793370209634304
1733359915945005000,6.585005126953125,0.037085045129060745,0.03331820294260979,0.014868522062897682
1733359915954969900,6.594969970703125,0.032160595059394836,0.02979191020131111,0.017484543845057487
1733359915964936000,6.60493603515625,0.026681406423449516,0.0236123725771904,0.019079383462667465
1733359915974901000,6.61490087890625,0.015741674229502678,0.005424580071121454,0.018815461546182632
1733359915984866800,6.62486669921875,0.0020010843873023987,-0.007616675458848476,0.02183789573609829
1733359915994832000,6.634831787109375,-0.011062785983085632,-0.027128059417009354,0.03178160637617111
1733359916004798000,6.6447978515625,-0.019176123663783073,-0.04676279425621033,0.04278447851538658
1733359916014762800,6.6547626953125,-0.028641797602176666,-0.05452537536621094,0.050386205315589905
1733359916024729000,6.66472900390625,-0.030808264389634132,-0.05799403786659241,0.04920787364244461
1733359916034694000,6.67469384765625,-0.029554447159171104,-0.04861118644475937,0.04114647954702377
1733359916044660000,6.684659912109375,-0.03545684367418289,-0.028937507420778275,0.02592376433312893
1733359916054624800,6.694624755859375,-0.029703084379434586,-0.016375374048948288,0.012276928871870041
1733359916064590800,6.7045908203125,-0.026888320222496986,-0.0015612943097949028,0.002683730097487569
1733359916074557000,6.714556884765625,-0.022144164890050888,0.0054167197085917,-0.0011634724214673042
1733359916084522000,6.72452197265625,-0.021302927285432816,0.004592332988977432,-0.006476140581071377
1733359916094487800,6.73448779296875,-0.016888737678527832,0.0003459230065345764,-0.006746717728674412
1733359916104452900,6.744452880859375,-0.013107298873364925,-0.001084619201719761,-0.007299210876226425
1733359916114419000,6.7544189453125,-0.00946302991360426,-0.005162451416254044,-0.005708238109946251
1733359916124384000,6.764384033203125,-0.0060808127745985985,-0.004293256439268589,-0.006299063563346863
1733359916134349800,6.774349853515625,-0.0038669267669320107,0.0013995170593261719,-0.0070966798812150955
1733359916144315000,6.78431494140625,-0.004719433840364218,0.0009781932458281517,-0.005773183889687061
1733359916154281000,6.794281005859375,-0.00541292130947113,-0.008960457518696785,-0.0019102687947452068
1733359916164246800,6.804246826171875,-0.010768264532089233,-0.019520871341228485,0.006008232478052378
1733359916174212000,6.814212158203125,-0.006923725828528404,-0.022509202361106873,0.016376983374357224
1733359916184178000,6.824177978515625,0.0015264886897057295,-0.012407156638801098,0.014250443316996098
1733359916194142700,6.834142822265625,0.011757820844650269,0.00999748520553112,0.0032023200765252113
1733359916204109000,6.844109130859375,0.024707159027457237,0.03958116099238396,-0.011622142046689987
1733359916214073900,6.854073974609375,0.03518962487578392,0.06554511934518814,-0.01903345435857773
1733359916224039700,6.864039794921875,0.04096950590610504,0.06720345467329025,-0.018308166414499283
1733359916234005000,6.8740048828125,0.04366862028837204,0.054043445736169815,-0.020168650895357132
1733359916243970800,6.883970703125,0.040164973586797714,0.038254059851169586,-0.0229981429874897
1733359916253935900,6.893935791015625,0.0348421148955822,0.034383952617645264,-0.02762085758149624
1733359916263902000,6.90390185546875,0.03144258260726929,0.038942668586969376,-0.031818658113479614
1733359916273867000,6.913866943359375,0.0341707244515419,0.04638140648603439,-0.034173425287008286
1733359916283832800,6.923832763671875,0.037696193903684616,0.05150333419442177,-0.033743955194950104
1733359916293799000,6.933798828125,0.03485406935214996,0.046791933476924896,-0.03317297622561455
1733359916303764000,6.943763916015625,0.027535485103726387,0.03260340914130211,-0.035248443484306335
1733359916313730000,6.95372998046875,0.022041916847229004,0.012596411630511284,-0.033126167953014374
1733359916323694800,6.96369482421875,0.01837259531021118,-0.005652473308146,-0.024751171469688416
1733359916333661000,6.973660888671875,0.013931509107351303,-0.02451031655073166,-0.008382584899663925
1733359916343626000,6.9836259765625,0.010900546796619892,-0.03937160223722458,0.006452045403420925
1733359916353591800,6.993591796875,0.010594815947115421,-0.043924011290073395,0.015532359480857849
1733359916363556900,7.003556884765625,0.011649989522993565,-0.051668472588062286,0.02563755214214325
1733359916373523000,7.01352294921875,0.013267593458294868,-0.05667388439178467,0.03639432415366173
1733359916383488000,7.023488037109375,0.00885814893990755,-0.06367133557796478,0.044171884655952454
1733359916393453800,7.033453857421875,0.0013245985610410571,-0.06914733350276947,0.053030092269182205
1733359916403420000,7.043419921875,-0.0015792784979566932,-0.06883184611797333,0.062033530324697495
1733359916413385000,7.053385009765625,-0.0006506341742351651,-0.06271962821483612,0.063951276242733
1733359916423350800,7.063350830078125,0.0006311339675448835,-0.05656316876411438,0.05634117126464844
1733359916433316000,7.073316162109375,0.0037273250054568052,-0.040652643889188766,0.04503259062767029
1733359916443282000,7.083281982421875,0.010059261694550514,-0.02159491553902626,0.03605267405509949
1733359916453246700,7.093246826171875,0.022264262661337852,-0.004143754951655865,0.02415366843342781
1733359916463213000,7.103213134765625,0.03198961168527603,0.014727778732776642,0.00725123006850481
1733359916473177900,7.113177734375,0.03794044256210327,0.04011968895792961,-0.008551967330276966
1733359916483143700,7.123143798828125,0.0374717116355896,0.06469064205884933,-0.025240380316972733
1733359916493109000,7.13310888671875,0.04313758760690689,0.08158760517835617,-0.03198350593447685
1733359916503074800,7.14307470703125,0.04648435860872269,0.08904191851615906,-0.03247149661183357
1733359916513041000,7.153041015625,0.04325713962316513,0.08542561531066895,-0.03218121454119682
1733359916523006000,7.163005859375,0.04291734844446182,0.07476440072059631,-0.031015055254101753
1733359916532971800,7.1729716796875,0.03363011032342911,0.06563534587621689,-0.023798156529664993
1733359916542936800,7.182936767578125,0.021514851599931717,0.05275701731443405,-0.019845351576805115
1733359916552902700,7.192902587890625,0.011763686314225197,0.031237876042723656,-0.01788153499364853
1733359916562868000,7.202867919921875,-0.0020818146876990795,0.01336335577070713,-0.015383899211883545
1733359916572833800,7.212833740234375,-0.015099345706403255,-0.003246513195335865,-0.019215920940041542
1733359916582798600,7.222798583984375,-0.025957047939300537,-0.014157132245600224,-0.02087255008518696
1733359916592765000,7.232764892578125,-0.03433774784207344,-0.022863537073135376,-0.019756950438022614
1733359916602729700,7.242729736328125,-0.03816339001059532,-0.03106503188610077,-0.014511310495436192
1733359916612695800,7.25269580078125,-0.04127635806798935,-0.04286283627152443,-0.005247771739959717
1733359916622662000,7.262661865234375,-0.04436534270644188,-0.05254592373967171,0.004838666878640652
1733359916632626700,7.272626708984375,-0.042296066880226135,-0.05811512842774391,0.013505125418305397
1733359916642592800,7.2825927734375,-0.040707483887672424,-0.05592997372150421,0.01957525499165058
1733359916652557800,7.292557861328125,-0.03636813163757324,-0.05364072322845459,0.022656533867120743
1733359916662523600,7.302523681640625,-0.03429647907614708,-0.048437099903821945,0.020683426409959793
1733359916672488700,7.31248876953125,-0.0352562814950943,-0.045727066695690155,0.0177821796387434
1733359916682454800,7.322454833984375,-0.032524473965168,-0.03801259025931358,0.01995673030614853
1733359916692419800,7.332419921875,-0.0294000543653965,-0.03338082134723663,0.01863793656229973
1733359916702385700,7.3423857421875,-0.02514292113482952,-0.03019542619585991,0.015180395916104317
1733359916712350700,7.352350830078125,-0.02261691354215145,-0.02087942324578762,0.010886581614613533
1733359916722316800,7.36231689453125,-0.01884455233812332,-0.011021817103028297,0.005091418512165546
1733359916732281600,7.372281494140625,-0.015113729052245617,0.00048783328384160995,-0.0018828676547855139
1733359916742248000,7.382248046875,-0.014716379344463348,0.003949759528040886,-0.0022782227024435997
1733359916752213800,7.3922138671875,-0.014031413942575455,0.0043686749413609505,-0.0005727345123887062
1733359916762178800,7.4021787109375,-0.01637926697731018,-0.0018492965027689934,0.00022462778724730015
1733359916772145000,7.412144775390625,-0.01728207804262638,-0.008767389692366123,-0.0017295998986810446
1733359916782109700,7.422109619140625,-0.01934760995209217,-0.0049800025299191475,-0.003873066045343876
1733359916792075800,7.43207568359375,-0.02163819409906864,0.0030134753324091434,-0.008952513337135315
1733359916802040800,7.442040771484375,-0.01997317001223564,0.012236908078193665,-0.015252107754349709
1733359916812006700,7.452006591796875,-0.018906572833657265,0.01745643839240074,-0.01665506139397621
1733359916821972000,7.461971923828125,-0.016286591067910194,0.017477916553616524,-0.01731281355023384
1733359916831937800,7.471937744140625,-0.014344348572194576,0.01806754060089588,-0.02049582451581955
1733359916841902800,7.48190283203125,-0.010366641916334629,0.01968436874449253,-0.022677497938275337
1733359916851869000,7.491868896484375,-0.0034914258867502213,0.02268362045288086,-0.022669242694973946
1733359916861834800,7.501834716796875,0.0010769381187856197,0.02900657244026661,-0.02605435624718666
1733359916871799800,7.5117998046875,0.005789668299257755,0.02943560853600502,-0.02724532224237919
1733359916881766000,7.521765869140625,0.011869189329445362,0.029402129352092743,-0.02621701918542385
1733359916891730700,7.531730712890625,0.01915799267590046,0.02630726993083954,-0.026127269491553307
1733359916901696800,7.54169677734375,0.02445763722062111,0.026170063763856888,-0.025694575160741806
1733359916911661800,7.551661865234375,0.03077625297009945,0.025829177349805832,-0.0219911839812994
1733359916921627600,7.561627685546875,0.03282688930630684,0.02218138612806797,-0.01581518165767193
1733359916931592700,7.5715927734375,0.03561468794941902,0.014551961794495583,-0.004510064609348774
1733359916941558800,7.581558837890625,0.035435453057289124,0.010996436700224876,0.0002715112641453743
1733359916951523800,7.59152392578125,0.030565863475203514,0.005024830345064402,0.0024110947269946337
1733359916961489700,7.60148974609375,0.022412637248635292,0.0013357903808355331,0.001596646150574088
1733359916971455700,7.611455810546875,0.015802670270204544,0.0008303225040435791,0.0005476271035149693
1733359916981420800,7.6214208984375,0.006275455467402935,0.005595326889306307,0.0008368765702471137
1733359916991387000,7.631386962890625,0.0006894752732478082,0.01074561383575201,0.0006714942865073681
1733359917001352000,7.64135205078125,-0.006884545553475618,0.011476674117147923,-0.002247076015919447
1733359917011317800,7.65131787109375,-0.014628485776484013,0.00788407027721405,-0.0042756060138344765
1733359917021282600,7.661282470703125,-0.018682919442653656,0.0052397241815924644,-0.008284147828817368
1733359917031249000,7.671248779296875,-0.020346861332654953,0.001548049971461296,-0.0067136818543076515
1733359917041213700,7.681213623046875,-0.02231517992913723,-0.005578376352787018,-0.008825331926345825
1733359917051179800,7.6911796875,-0.02418338879942894,-0.00866231694817543,-0.01168450154364109
1733359917061144800,7.701144775390625,-0.02283261902630329,-0.008577195927500725,-0.008299375884234905
1733359917071110700,7.711110595703125,-0.013891322538256645,-0.00836520828306675,-0.005940347909927368
1733359917081076700,7.72107666015625,-0.00564165273681283,-0.00833605695515871,-0.011065594851970673
1733359917091041800,7.731041748046875,0.0048879534006118774,-0.008905974216759205,-0.020907839760184288
1733359917101007600,7.741007568359375,0.013734938576817513,-0.0026668142527341843,-0.02620774880051613
1733359917110973000,7.750972900390625,0.024059748277068138,0.005618013441562653,-0.023724084720015526
1733359917120938800,7.760938720703125,0.03740513697266579,0.006939606741070747,-0.016502290964126587
1733359917130903800,7.77090380859375,0.04680396616458893,0.00196269154548645,-0.006058171391487122
1733359917140870000,7.780869873046875,0.04832249507308006,-0.0063212160021066666,0.0031755464151501656
1733359917150834700,7.790834716796875,0.04456078261137009,-0.015395138412714005,0.012685694731771946
1733359917160800800,7.80080078125,0.034846365451812744,-0.020538974553346634,0.02583305910229683
1733359917170765800,7.810765869140625,0.02459506131708622,-0.023617319762706757,0.03155139833688736
1733359917180731600,7.820731689453125,0.014180515892803669,-0.02346774935722351,0.031769759953022
1733359917190697700,7.83069775390625,0.00446983240544796,-0.017855137586593628,0.03368190675973892
1733359917200662800,7.840662841796875,-0.0028131187427788973,-0.01251857541501522,0.03002193197607994
1733359917210628900,7.85062890625,-0.010077688843011856,-0.010028252378106117,0.021207667887210846
1733359917220593700,7.86059375,-0.02033165656030178,-0.005777641199529171,0.012355983257293701
1733359917230559700,7.870559814453125,-0.024756498634815216,-0.0016478784382343292,0.005510061513632536
1733359917240524800,7.88052490234375,-0.03021516092121601,0.0033722263760864735,-0.004615833517163992
1733359917250490600,7.89049072265625,-0.02521374449133873,0.007523561827838421,-0.009147735312581062
1733359917260456000,7.9004560546875,-0.0240547526627779,0.0126063646748662,-0.01620682142674923
1733359917270421800,7.910421875,-0.015617858618497849,0.021379083395004272,-0.019361602142453194
1733359917280386600,7.920386474609375,-0.008364451117813587,0.03766530007123947,-0.026309553533792496
1733359917290353000,7.930352783203125,-0.002056487137451768,0.050333693623542786,-0.032438818365335464
1733359917300318700,7.940318603515625,0.00612126337364316,0.06025285646319389,-0.03716457635164261
1733359917310283800,7.95028369140625,0.011690465733408928,0.062366608530282974,-0.040570758283138275
1733359917320249900,7.960249755859375,0.01586548425257206,0.058525752276182175,-0.04913226142525673
1733359917330214700,7.970214599609375,0.018800022080540657,0.05405217409133911,-0.0577518492937088
1733359917340181000,7.980180908203125,0.019268732517957687,0.053620919585227966,-0.06221330538392067
1733359917350145800,7.990145751953125,0.0189206562936306,0.05604013800621033,-0.06075389310717583
1733359917360111600,8.000111572265626,0.017644742503762245,0.050160497426986694,-0.055424511432647705
1733359917370077000,8.010076904296875,0.015765616670250893,0.04180695861577988,-0.047779642045497894
1733359917380042800,8.020042724609375,0.01388783473521471,0.02738637663424015,-0.04014544188976288
1733359917390007800,8.0300078125,0.006416337098926306,0.016092708334326744,-0.027870668098330498
1733359917399974000,8.039973876953125,0.00466185761615634,0.005492224358022213,-0.019962560385465622
1733359917409939700,8.049939697265625,-0.001054617459885776,0.00007215887308120728,-0.015956100076436996
1733359917419904800,8.05990478515625,-0.0017084258142858744,-0.0010476401075720787,-0.009479423053562641
1733359917429870800,8.069870849609375,0.00011557320249266922,-0.005243450403213501,-0.006198940798640251
1733359917439836000,8.0798359375,0.0040618362836539745,-0.0020950837060809135,-0.004803432151675224
1733359917449801700,8.0898017578125,0.007357498165220022,-0.00012674089521169662,-0.0016475864686071873
1733359917459766800,8.099766845703124,0.01197781227529049,0.00028963200747966766,0.000021422747522592545
1733359917469732900,8.10973291015625,0.01507639978080988,-0.002933325245976448,0.0024462309665977955
1733359917479697700,8.11969775390625,0.018836822360754013,-0.002963920123875141,0.003627956844866276
1733359917489663700,8.129663818359376,0.021558038890361786,-0.0013729473575949669,0.003827427513897419
1733359917499628800,8.13962890625,0.020891407504677773,0.004132162779569626,0.005937108304351568
1733359917509594600,8.1495947265625,0.019524672999978065,0.00703181279823184,0.009129705838859081
1733359917519560700,8.159560791015625,0.015447145327925682,0.009593804366886616,0.011053921654820442
1733359917529525800,8.16952587890625,0.012727526016533375,0.014861004427075386,0.01251945924013853
1733359917539491600,8.17949169921875,0.0076752337627112865,0.01849513128399849,0.010159111581742764
1733359917549456600,8.18945654296875,0.0039348239079117775,0.02234606258571148,0.005299908109009266
1733359917559422700,8.199422607421875,-0.0037588204722851515,0.032465241849422455,0.0007852349663153291
1733359917569387800,8.2093876953125,-0.009256383404135704,0.035119082778692245,-0.008568319492042065
1733359917579353600,8.219353515625,-0.012390894815325737,0.03737452253699303,-0.0189974308013916
1733359917589318700,8.229318603515624,-0.014648457057774067,0.04457065090537071,-0.03329461067914963
1733359917599284700,8.23928466796875,-0.017585420981049538,0.05101362615823746,-0.041340913623571396
1733359917609249500,8.24924951171875,-0.020898127928376198,0.05589493364095688,-0.04553352668881416
1733359917619215600,8.259215576171876,-0.02149069495499134,0.054700929671525955,-0.04669850692152977
1733359917629180700,8.2691806640625,-0.02064354345202446,0.05119940638542175,-0.051357705146074295
1733359917639146500,8.279146484375,-0.021217936649918556,0.04916495457291603,-0.051552850753068924
1733359917649112600,8.289112548828125,-0.021030716598033905,0.04837585985660553,-0.05176510661840439
1733359917659077600,8.29907763671875,-0.019144421443343163,0.0459737628698349,-0.05055759847164154
1733359917669043500,8.30904345703125,-0.01630442589521408,0.04217290133237839,-0.04666059464216232
1733359917679008800,8.3190087890625,-0.02102568745613098,0.03967296704649925,-0.04840388894081116
1733359917688974600,8.328974609375,-0.02227257937192917,0.03779251128435135,-0.0529341921210289
1733359917698939600,8.338939697265625,-0.025396188721060753,0.028728609904646873,-0.04912162572145462
1733359917708905700,8.34890576171875,-0.028238046914339066,0.02340388484299183,-0.0432397723197937
1733359917718870500,8.35887060546875,-0.030805611982941628,0.011545930989086628,-0.036099955439567566
1733359917728836600,8.368836669921874,-0.03492205962538719,-0.0037643155083060265,-0.030137136578559875
1733359917738801700,8.3788017578125,-0.036033645272254944,-0.014452866278588772,-0.017000319436192513
1733359917748767500,8.388767578125,-0.033502042293548584,-0.025529485195875168,-0.006951946299523115
1733359917758733800,8.39873388671875,-0.03346475958824158,-0.032357893884181976,-0.0015767584554851055
1733359917768698600,8.40869873046875,-0.034171827137470245,-0.037155307829380035,0.00040197023190557957
1733359917778664700,8.418664794921876,-0.03264690190553665,-0.032769083976745605,0.003618802409619093
1733359917788629800,8.428629638671875,-0.02679540403187275,-0.022680232301354408,0.0032880378421396017
1733359917798595600,8.438595703125,-0.021757779642939568,-0.012307713739573956,-0.002364106709137559
1733359917808560600,8.448560546875,-0.013148577883839607,-0.005306528881192207,-0.00825981330126524
1733359917818526700,8.458526611328125,-0.005595582537353039,0.0022854898124933243,-0.01083243265748024
1733359917828491800,8.46849169921875,0.0010460747871547937,0.007405150681734085,-0.008104289881885052
1733359917838457600,8.47845751953125,0.008909590542316437,0.005691939033567905,-0.004460287280380726
1733359917848422700,8.488422607421874,0.0176498182117939,0.00132648553699255,0.001794413081370294
1733359917858388700,8.498388671875,0.019053282216191292,-0.00008251890540122986,0.006108497269451618
1733359917868354600,8.5083544921875,0.020649047568440437,0.003867215011268854,0.011101923882961273
1733359917878319600,8.518319580078124,0.019502045586705208,0.009205447509884834,0.01354268193244934
1733359917888285700,8.52828564453125,0.014901969581842422,0.006069841794669628,0.01665485091507435
1733359917898250500,8.53825048828125,0.010078191757202148,-0.0002923673018813133,0.021589811891317368
1733359917908216800,8.548216796875,0.0034740855917334557,-0.010794276371598244,0.028485536575317383
1733359917918181600,8.558181640625,-0.0031127266120165586,-0.020351402461528778,0.031345125287771225
1733359917928147500,8.5681474609375,-0.008313613943755627,-0.02951374277472496,0.03794843330979347
1733359917938112800,8.57811279296875,-0.006670188624411821,-0.0346357636153698,0.038450054824352264
1733359917948078600,8.58807861328125,-0.004458167124539614,-0.032097239047288895,0.03864899277687073
1733359917958043600,8.598043701171875,0.0016820469172671437,-0.021598517894744873,0.03590044006705284
1733359917968009700,8.608009765625,0.005673858802765608,-0.009785798378288746,0.0314825214445591
1733359917977975600,8.6179755859375,0.014071029610931873,0.0012323195114731789,0.025927091017365456
1733359917987940600,8.627940673828125,0.02191323973238468,0.006764504127204418,0.02366659976541996
1733359917997906700,8.63790673828125,0.025489898398518562,0.00810289941728115,0.02190207876265049
1733359918007871700,8.647871826171874,0.023703981190919876,0.008625676855444908,0.021403800696134567
1733359918017837800,8.657837890625,0.02359132096171379,0.010413167998194695,0.01945331320166588
1733359918027802600,8.667802734375,0.020256243646144867,0.014284871518611908,0.018529994413256645
1733359918037768700,8.677768798828126,0.017253553494811058,0.018879014998674393,0.011999893933534622
1733359918047733500,8.6877333984375,0.012414856813848019,0.02151660993695259,0.003755546873435378
1733359918057699600,8.697699462890625,0.010863827541470528,0.023231273517012596,-0.0018855547532439232
1733359918067664600,8.70766455078125,0.0037041851319372654,0.021589435636997223,-0.0028996863402426243
1733359918077630700,8.717630615234375,0.0007802981999702752,0.012954728677868843,-0.0009897977579385042
1733359918087596500,8.727596435546875,-0.006106902379542589,0.0011065909639000893,-0.00017220736481249332
1733359918097561600,8.7375615234375,-0.012572037987411022,-0.009508886374533176,0.0004963056417182088
1733359918107527700,8.747527587890625,-0.01782086119055748,-0.01344157662242651,0.0023072552867233753
1733359918117492700,8.75749267578125,-0.018514040857553482,-0.016338855028152466,0.002524781972169876
1733359918127458600,8.76745849609375,-0.02157854102551937,-0.014507667161524296,0.0034009618684649467
1733359918137424000,8.777423828125,-0.020888807252049446,-0.010684296488761902,0.00506986491382122
1733359918147389700,8.7873896484375,-0.01844056323170662,-0.006594214588403702,0.0030615748837590218
1733359918157354500,8.7973544921875,-0.01423223689198494,-0.002683894708752632,0.002581140724942088
1733359918167320800,8.80732080078125,-0.009824438951909542,0.00008179806172847748,0.0014184045139700174
1733359918177285600,8.81728564453125,-0.006968437694013119,0.0007860073819756508,0.0040522352792322636
1733359918187251500,8.82725146484375,-0.004723658785223961,-0.0009599607437849045,0.004734270740300417
1733359918197216800,8.837216796875,-0.006148464046418667,-0.006279792636632919,0.0069196792319417
1733359918207182600,8.8471826171875,-0.004951905459165573,-0.0064427778124809265,0.00827842392027378
1733359918217148400,8.8571484375,-0.006017714273184538,-0.008159681223332882,0.006177336908876896
1733359918227113700,8.86711376953125,-0.008946391753852367,-0.004670407623052597,0.0026688887737691402
1733359918237079600,8.87707958984375,-0.011842063628137112,0.00022730417549610138,0.0005742000648751855
1733359918247044600,8.887044677734375,-0.011521951295435429,-0.000053126364946365356,0.002223761985078454
1733359918257010700,8.8970107421875,-0.010881710797548294,-0.0030365576967597008,0.0011066785082221031
1733359918266975700,8.906975830078125,-0.01061379723250866,-0.007679513655602932,-0.000990560743957758
1733359918276941600,8.916941650390624,-0.009510442614555359,-0.005164871923625469,-0.007766316644847393
1733359918286906600,8.92690673828125,-0.008761828765273094,-0.0026098350062966347,-0.013699839822947979
1733359918296872700,8.936872802734374,-0.0028863351326435804,0.0009298408403992653,-0.019444314762949944
1733359918306837500,8.94683740234375,0.003083406714722514,0.006955242715775967,-0.01816306822001934
1733359918316803600,8.956803466796876,0.008173217065632343,0.008899160660803318,-0.013259092345833778
1733359918326769700,8.966769775390626,0.012027077376842499,0.011483758687973022,-0.004931122064590454
1733359918336734700,8.976734619140625,0.014152289368212223,0.011952231638133526,0.0010127753484994173
1733359918346700500,8.986700439453125,0.014548568055033684,0.008299173787236214,0.0062181903049349785
1733359918356665600,8.99666552734375,0.011745584197342396,-0.0020454274490475655,0.010741177946329117
1733359918366631700,9.006631591796875,0.008479217067360878,-0.005878515541553497,0.013149209320545197
1733359918376596700,9.0165966796875,0.004783527925610542,-0.0056508006528019905,0.017330531030893326
1733359918386562600,9.0265625,0.008599837310612202,-0.0015231678262352943,0.02174258977174759
1733359918396527900,9.03652783203125,0.010522949509322643,0.0019985074177384377,0.02007206529378891
1733359918406493700,9.04649365234375,0.013739515095949173,-0.0006484081968665123,0.019309869036078453
1733359918416458500,9.05645849609375,0.015502254478633404,-0.003576105460524559,0.016910769045352936
1733359918426424800,9.0664248046875,0.01509026437997818,-0.007028094492852688,0.014898485504090786
1733359918436390700,9.076390625,0.015156524255871773,-0.00985790602862835,0.01382756233215332
1733359918446355500,9.08635546875,0.015135219320654869,-0.01100785844027996,0.01335059106349945
1733359918456321800,9.09632177734375,0.016249777749180794,-0.002552722580730915,0.01447374653071165
1733359918466286600,9.10628662109375,0.01510754693299532,0.0034423195756971836,0.013973871245980263
1733359918476252700,9.116252685546876,0.013662267476320267,0.00864085741341114,0.003332921303808689
1733359918486217700,9.1262177734375,0.01058605033904314,0.01669532060623169,-0.005104505456984043
1733359918496183600,9.13618359375,0.009110408835113049,0.021560490131378174,-0.01019715704023838
1733359918506148600,9.146148681640625,0.005936986301094294,0.020979389548301697,-0.010760681703686714
1733359918516114700,9.15611474609375,0.004324676468968391,0.016213715076446533,-0.007186144590377808
1733359918526079700,9.166079833984375,0.003101220354437828,0.011779018677771091,-0.0051192655228078365
1733359918536045600,9.176045654296875,-0.001548895612359047,0.014230999164283276,-0.0050041223876178265
1733359918546012200,9.18601220703125,-0.00371830677613616,0.0214977003633976,-0.011753903701901436
1733359918555977200,9.195977294921875,-0.005052844062447548,0.02349153906106949,-0.013723009265959263
1733359918565943000,9.205943115234374,-0.008860631845891476,0.024661999195814133,-0.01849433034658432
1733359918575908000,9.215908203125,-0.01353078056126833,0.022176459431648254,-0.021218571811914444
1733359918585874200,9.225874267578124,-0.016527635976672173,0.0175835732370615,-0.023265743628144264
1733359918595839000,9.2358388671875,-0.021385999396443367,0.014585093595087528,-0.022211983799934387
1733359918605805000,9.24580517578125,-0.024999110028147697,0.005461902357637882,-0.01885373704135418
1733359918615770000,9.25577001953125,-0.02465370111167431,-0.006306012161076069,-0.01466444879770279
1733359918625736000,9.26573583984375,-0.02761460281908512,-0.01585397869348526,-0.010538147762417793
1733359918635701200,9.275701171875,-0.023274168372154236,-0.017705507576465607,-0.00692079309374094
1733359918645667000,9.2856669921875,-0.01860804297029972,-0.015017843805253506,-0.0034682713449001312
1733359918655633000,9.2956328125,-0.008650501258671284,-0.012982496991753578,-0.0004728599451482296
1733359918665598200,9.30559814453125,-0.0029321620240807533,-0.010313743725419044,-0.0005650052335113287
1733359918675564000,9.31556396484375,0.005751356948167086,-0.005186518654227257,0.0014657671563327312
1733359918685529000,9.325529052734375,0.010910432785749435,-0.0009438367560505867,0.002335555385798216
1733359918695495200,9.3354951171875,0.016508378088474274,-0.0015276474878191948,0.007996128872036934
1733359918705460000,9.3454599609375,0.014195157214999199,-0.010813025757670403,0.011896860785782337
1733359918715426000,9.355426025390624,0.010206550359725952,-0.018302075564861298,0.017978709191083908
1733359918725391000,9.36539111328125,0.008289606310427189,-0.02679836004972458,0.019892457872629166
1733359918735357000,9.37535693359375,0.002123355632647872,-0.03201021999120712,0.02058297209441662
1733359918745322000,9.385322021484376,0.0016690203920006752,-0.032795317471027374,0.02582034468650818
1733359918755288000,9.3952880859375,-0.00047057485789991915,-0.036269642412662506,0.02884930558502674
1733359918765253000,9.405253173828125,-0.005573457572609186,-0.04280104488134384,0.028580592945218086
1733359918775219000,9.415218994140625,-0.0034344522282481194,-0.04458734020590782,0.03037695586681366
1733359918785185000,9.42518505859375,-0.0025071394629776478,-0.039613354951143265,0.028259476646780968
1733359918795150000,9.435150146484375,-0.0021103261969983578,-0.03214991092681885,0.023193741217255592
1733359918805116200,9.4451162109375,-0.00436762161552906,-0.025205982849001884,0.018220555037260056
1733359918815081200,9.455081298828125,-0.0052603064104914665,-0.02154405042529106,0.01729895919561386
1733359918825047000,9.465047119140625,-0.0058235651813447475,-0.01560946274548769,0.016776446253061295
1733359918835011800,9.47501171875,-0.01029950100928545,-0.012664773501455784,0.011829439550638199
1733359918844978200,9.484978271484374,-0.015420759096741676,-0.012683150358498096,0.010562308132648468
1733359918854943000,9.49494287109375,-0.022693585604429245,-0.01796339824795723,0.012042758986353874
1733359918864909000,9.504908935546876,-0.03301839530467987,-0.028637085109949112,0.012053145095705986
1733359918874874000,9.5148740234375,-0.03725041076540947,-0.04149891808629036,0.012901343405246735
1733359918884840000,9.52483984375,-0.03870236501097679,-0.048814356327056885,0.01058252900838852
1733359918894806300,9.53480615234375,-0.03720493242144585,-0.04482116550207138,0.008306806907057762
1733359918904771000,9.54477099609375,-0.03133505955338478,-0.03555469959974289,0.007323035039007664
1733359918914737000,9.55473681640625,-0.021076524630188942,-0.029624072834849358,0.0035459562204778194
1733359918924702200,9.5647021484375,-0.00903397612273693,-0.024146215990185738,-0.0037492411211133003
1733359918934668000,9.57466796875,0.0021193423308432102,-0.013160144910216331,-0.007606297265738249
1733359918944633000,9.584633056640625,0.010295779444277287,-0.0044119274243712425,-0.010223384946584702
1733359918954599200,9.59459912109375,0.0175936296582222,0.005520369857549667,-0.01593145728111267
1733359918964564000,9.60456396484375,0.018353162333369255,0.012586535885930061,-0.016328267753124237
1733359918974530000,9.614530029296875,0.018173420801758766,0.009421026334166527,-0.00994789693504572
1733359918984495000,9.6244951171875,0.01590494066476822,0.0023362189531326294,-0.00646528135985136
1733359918994461200,9.634461181640624,0.01321858074516058,-0.0034604258835315704,-0.0018905967008322477
1733359919004427000,9.644427001953124,0.006560145411640406,-0.009960402734577656,-0.002621634630486369
1733359919014392000,9.65439208984375,-0.00012493511894717813,-0.010935021564364433,-0.0025454501155763865
1733359919024358100,9.664358154296876,-0.005021689459681511,-0.01019945740699768,-0.0034003250766545534
1733359919034323000,9.674322998046875,-0.005544131156057119,-0.009724372066557407,-0.0038109461311250925
1733359919044289000,9.6842890625,-0.008373472839593887,-0.009911592118442059,-0.0037219964433461428
1733359919054254000,9.694254150390625,-0.006515445187687874,-0.010199494659900665,-0.00571236340329051
1733359919064220000,9.704219970703125,-0.003177439095452428,-0.004549597389996052,-0.0055147563107311726
1733359919074185200,9.714185302734375,0.003078592475503683,-0.0011873571202158928,-0.004020989406853914
1733359919084151000,9.724151123046875,0.00772208021953702,0.00017564930021762848,-0.0023487904109060764
1733359919094116000,9.7341162109375,0.013338956981897354,0.002090074121952057,-0.004195166286081076
1733359919104082200,9.744082275390625,0.014777863398194313,0.006618247367441654,-0.0076626017689704895
1733359919114048000,9.754048095703125,0.010441171936690807,0.012871615588665009,-0.014001192525029182
1733359919124013300,9.764013427734374,0.008201719261705875,0.018246673047542572,-0.016852904111146927
1733359919133979100,9.773979248046874,0.006826220080256462,0.02291139028966427,-0.018196765333414078
1733359919143944000,9.78394384765625,0.005401162896305323,0.021436531096696854,-0.02542991191148758
1733359919153910300,9.79391015625,0.004544403403997421,0.023876536637544632,-0.03201920911669731
1733359919163875000,9.803875,0.0009589894907549024,0.027068600058555603,-0.03087751194834709
1733359919173841000,9.8138408203125,0.003845849307253957,0.031098410487174988,-0.028004353865981102
1733359919183806200,9.82380615234375,0.0064719924703240395,0.026690080761909485,-0.02799583040177822
1733359919193772000,9.83377197265625,0.006581172812730074,0.023633813485503197,-0.023840755224227905
1733359919203737000,9.843737060546875,0.009050722233951092,0.028129231184720993,-0.01868673786520958
1733359919213703200,9.853703125,0.009030518122017384,0.029642796143889427,-0.016730429604649544
1733359919223668200,9.863668212890625,0.007493342272937298,0.03141965717077255,-0.015311762690544128
1733359919233634000,9.873634033203125,0.0051465146243572235,0.030169840902090073,-0.013758009299635887
1733359919243600100,9.88360009765625,0.00011846638517454267,0.02654794231057167,-0.010153953917324543
1733359919253565200,9.893565185546874,-0.0013846013462170959,0.01845617964863777,-0.00863371416926384
1733359919263531000,9.903531005859374,-0.00654607405886054,0.006273017730563879,-0.004625124856829643
1733359919273496000,9.91349609375,-0.010984745807945728,-0.0028144409880042076,-0.0028008832596242428
1733359919283462100,9.923462158203124,-0.01430703978985548,-0.01455738302320242,0.00230040168389678
1733359919293427000,9.933427001953126,-0.016349703073501587,-0.019534876570105553,0.004466907121241093
1733359919303393000,9.94339306640625,-0.014521975070238113,-0.018778540194034576,0.0047912802547216415
1733359919313358000,9.953358154296875,-0.007498395163565874,-0.014735464937984943,0.004827066324651241
1733359919323324000,9.963323974609375,-0.0007520754588767886,-0.005708946846425533,0.0031910869292914867
1733359919333289200,9.973289306640625,0.00935381930321455,0.008088950999081135,-0.001564650097861886
1733359919343255000,9.983255126953125,0.01618988811969757,0.02036399394273758,-0.008494194597005844
1733359919353221000,9.99322119140625,0.02324911393225193,0.027204953134059906,-0.01378720998764038
1733359919363186200,10.003186279296875,0.02884947508573532,0.03612574562430382,-0.014345673844218254
1733359919373152000,10.013152099609375,0.03026920184493065,0.03978697210550308,-0.011840563267469406
1733359919383117000,10.023116943359375,0.032473232597112656,0.03843701630830765,-0.011314855888485909
1733359919393083100,10.033083251953125,0.03076159954071045,0.034005798399448395,-0.0150175541639328
1733359919403048000,10.0430478515625,0.030814064666628838,0.0341687835752964,-0.01628095842897892
1733359919413014300,10.05301416015625,0.028281189501285553,0.03484684228897095,-0.015534285455942154
1733359919422979000,10.06297900390625,0.027758412063121796,0.03516881912946701,-0.018023276701569557
1733359919432945000,10.07294482421875,0.024850746616721153,0.03220725059509277,-0.016399379819631577
1733359919442910000,10.082909912109375,0.023288536816835403,0.030101224780082703,-0.012721821665763855
1733359919452876000,10.0928759765625,0.01956702210009098,0.02327990159392357,-0.012120461091399193
1733359919462841000,10.102841064453125,0.015000233426690102,0.015611596405506134,-0.005877479445189238
1733359919472807200,10.11280712890625,0.010276352055370808,0.0020157797262072563,0.0026077060028910637
1733359919482773000,10.12277294921875,0.006729288026690483,-0.012716028839349747,0.012366860173642635
1733359919492738000,10.132738037109375,0.0010130563750863075,-0.021417830139398575,0.01990603283047676
1733359919502704000,10.1427041015625,0.00031797130941413343,-0.025389138609170914,0.023503698408603668
1733359919512669200,10.152669189453125,-0.0040900977328419685,-0.023394305258989334,0.025227567180991173
1733359919522635000,10.162635009765625,-0.008162603713572025,-0.01940542459487915,0.02456044591963291
1733359919532600000,10.17260009765625,-0.010058518499135971,-0.01683889701962471,0.023430347442626953
1733359919542565600,10.182565673828124,-0.009906452149152756,-0.014807173050940037,0.02046971209347248
1733359919552530700,10.19253076171875,-0.009748791344463825,-0.013880720362067223,0.013302210718393326
1733359919562496800,10.202496826171876,-0.00622862484306097,-0.01109452173113823,0.01125077810138464
1733359919572461600,10.212461669921876,-0.006535958498716354,-0.009629128500819206,0.010000430047512054
1733359919582427600,10.222427734375,-0.0034762523137032986,-0.012185230851173401,0.010256892070174217
1733359919592393700,10.232393798828125,-0.0027438830584287643,-0.014848658815026283,0.01279967837035656
1733359919602358500,10.242358642578125,-0.0032213879749178886,-0.015567976981401443,0.012726973742246628
1733359919612324600,10.25232470703125,-0.0043097855523228645,-0.012054110877215862,0.011290416121482849
1733359919622289700,10.26228955078125,-0.004861060064285994,-0.00897203478962183,0.008158538490533829
1733359919632255700,10.272255859375,-0.005127956159412861,-0.007928664796054363,0.003246268257498741
1733359919642220800,10.282220703125,-0.007693379186093807,-0.005459913052618504,-0.003997796215116978
1733359919652186600,10.2921865234375,-0.006724282167851925,-0.0022269077599048615,-0.007301412522792816
1733359919662152000,10.30215185546875,-0.005815611686557531,0.0015372037887573242,-0.011681780219078064
1733359919672117800,10.31211767578125,-0.006092528346925974,0.0032777837477624416,-0.011868667788803577
1733359919682082600,10.32208251953125,-0.004513273946940899,0.0014473926275968552,-0.011629516258835793
1733359919692049000,10.332048828125,-0.0021906921174377203,-0.0010570138692855835,-0.006613371893763542
1733359919702014700,10.3420146484375,-0.000601317617110908,-0.004372383467853069,-0.0020436535123735666
1733359919711979500,10.3519794921875,0.0019560703076422215,-0.005517389625310898,-0.0024140379391610622
1733359919721945900,10.36194580078125,-0.0018133679404854774,-0.00883994996547699,0.002415338298305869
1733359919731910700,10.37191064453125,-0.0019681043922901154,-0.011662185192108154,0.0038149715401232243
1733359919741876500,10.38187646484375,-0.005210236646234989,-0.015516312792897224,0.007303978782147169
1733359919751841800,10.391841796875,-0.011144560761749744,-0.01630907505750656,0.0058630784042179585
1733359919761807600,10.4018076171875,-0.01154003944247961,-0.014273087494075298,-0.0009996213484555483
1733359919771772700,10.411772705078125,-0.012544582597911358,-0.005674067884683609,-0.003916717600077391
1733359919781738800,10.42173876953125,-0.01018315739929676,-0.0021877242252230644,-0.007545274682343006
1733359919791703800,10.431703857421875,-0.005317571572959423,0.003003551624715328,-0.007919969037175179
1733359919801669600,10.441669677734374,-0.0009827439207583666,0.006647821515798569,-0.01015649177134037
1733359919811634700,10.451634765625,0.0001273232337553054,0.01039191521704197,-0.008818202652037144
1733359919821600800,10.461600830078124,0.0010844633216038346,0.016824249178171158,-0.012293894775211811
1733359919831566800,10.47156689453125,0.00298136449418962,0.01752142421901226,-0.01025515329092741
1733359919841531600,10.48153173828125,0.005215490236878395,0.014078223146498203,-0.007197844795882702
1733359919851497700,10.491497802734376,0.0019915017765015364,0.006011129356920719,-0.0033758538775146008
1733359919861462500,10.501462646484375,-0.0012809905456379056,-0.0050164880231022835,0.0025203849654644728
1733359919871428600,10.5114287109375,-0.006939969025552273,-0.013216696679592133,0.007223829161375761
1733359919881393700,10.5213935546875,-0.011568808928132057,-0.016844721511006355,0.009982864372432232
1733359919891359700,10.53135986328125,-0.016678277403116226,-0.018493566662073135,0.00867755152285099
1733359919901324800,10.54132470703125,-0.014912335202097893,-0.01548126619309187,0.008084732107818127
1733359919911290600,10.55129052734375,-0.014988794922828674,-0.011214948259294033,0.0032242340967059135
1733359919921256700,10.561256591796875,-0.009680848568677902,-0.004569030366837978,-0.001204602885991335
1733359919931221800,10.5712216796875,-0.003526568179950118,0.0028547504916787148,-0.008639857172966003
1733359919941187600,10.5811875,0.0032916569616645575,0.011167275719344616,-0.016639193519949913
1733359919951153000,10.59115283203125,0.011301888152956963,0.01973213627934456,-0.020403938367962837
1733359919961118700,10.60111865234375,0.015936320647597313,0.026614278554916382,-0.01904599368572235
1733359919971083500,10.61108349609375,0.020360371097922325,0.031839750707149506,-0.01687166467308998
1733359919981049900,10.6210498046875,0.020895132794976234,0.028709737583994865,-0.013818350620567799
1733359919991014700,10.6310146484375,0.02002776600420475,0.028527770191431046,-0.013831696473062038
1733359920000980700,10.640980712890626,0.01617230661213398,0.027383942157030106,-0.013696406967937946
1733359920010945800,10.65094580078125,0.01549987681210041,0.024227874353528023,-0.013039430603384972
1733359920020911600,10.66091162109375,0.01125186774879694,0.020256567746400833,-0.010161352343857288
1733359920030876700,10.670876708984375,0.007204354740679264,0.013081509619951248,-0.008643561974167824
1733359920040842800,10.6808427734375,-0.0014477227814495564,0.004656333476305008,-0.006342590786516666
1733359920050808600,10.69080859375,-0.006142846308648586,-0.004734230227768421,-0.0069843195378780365
1733359920060773600,10.700773681640625,-0.01044012326747179,-0.007001112215220928,-0.006258874200284481
1733359920070739700,10.71073974609375,-0.01394751574844122,-0.006567573174834251,-0.005633285269141197
1733359920080704800,10.720704833984374,-0.018527619540691376,-0.006506055593490601,-0.006118247285485268
1733359920090670600,10.730670654296874,-0.017099928110837936,-0.009301850572228432,-0.0035827457904815674
1733359920100635600,10.7406357421875,-0.01755266636610031,-0.013785015791654587,0.0012016232358291745
1733359920110601700,10.750601806640624,-0.017883459106087685,-0.019460489973425865,0.004055637400597334
1733359920120566500,10.76056640625,-0.015272230841219425,-0.018688704818487167,0.005096933804452419
1733359920130532900,10.770532958984376,-0.010780763812363148,-0.013311663642525673,0.00286328187212348
1733359920140497700,10.78049755859375,-0.003514861688017845,-0.004381019622087479,-0.002696332987397909
1733359920150463500,10.79046337890625,0.0018231852445751429,0.01132053043693304,-0.007792433723807335
1733359920160429800,10.800429931640625,0.009003600105643272,0.023048559203743935,-0.014715055003762245
1733359920170394600,10.81039453125,0.014074274338781834,0.02942506968975067,-0.014505086466670036
1733359920180360700,10.820360595703125,0.019630160182714462,0.024627920240163803,-0.01107067335397005
1733359920190325800,10.83032568359375,0.019936131313443184,0.015157116577029228,-0.0073611196130514145
1733359920200291600,10.84029150390625,0.020472757518291473,0.00885341502726078,-0.0012784602586179972
1733359920210256600,10.850256591796875,0.01831267960369587,0.009189468808472157,0.0006708254804834723
1733359920220222700,10.86022265625,0.016001587733626366,0.0076070185750722885,0.003187512746080756
1733359920230187800,10.870187744140624,0.013105375692248344,0.007590907160192728,0.004197549074888229
1733359920240153900,10.88015380859375,0.007220589090138674,0.007986386306583881,0.00385586591437459
1733359920250118700,10.89011865234375,0.0019970466382801533,0.0034030391834676266,0.0040252660401165485
1733359920260084700,10.900084716796876,-0.004624104127287865,-0.0019312724471092224,0.003574659116566181
1733359920270049800,10.9100498046875,-0.007782328873872757,-0.00748551357537508,0.0045179277658462524
1733359920280015600,10.920015625,-0.013262049295008183,-0.013607854954898357,0.004808744881302118
1733359920289981700,10.929981689453125,-0.018962224945425987,-0.01565994881093502,0.000791826518252492
1733359920299946800,10.93994677734375,-0.020152656361460686,-0.015080178156495094,-0.0010124652180820704
1733359920309912600,10.94991259765625,-0.017783859744668007,-0.008944937027990818,0.000803521485067904
1733359920319877600,10.959877685546875,-0.015862388536334038,-0.007250367663800716,0.003121536923572421
1733359920329843700,10.96984375,-0.011516336351633072,-0.009919945150613785,0.003739604027941823
1733359920339808800,10.979808837890625,-0.007434775121510029,-0.010840067639946938,0.0035380027256906033
1733359920349774600,10.989774658203125,-0.007294950075447559,-0.011232861317694187,0.0033582274336367846
1733359920359740000,10.999739990234374,-0.006408384069800377,-0.007059420458972454,0.003190714633092284
1733359920369705700,11.009705810546874,-0.0027417163364589214,-0.0018728459253907204,0.0008947669994086027
1733359920379670500,11.01967041015625,-0.0017299812752753496,0.0023019248619675636,-0.005725052673369646
1733359920389636900,11.029636962890624,-0.0009715291089378297,0.0024110074155032635,-0.00782053917646408
1733359920399602700,11.039602783203126,-0.0002282409113831818,0.0027383100241422653,-0.00842134840786457
1733359920409567500,11.0495673828125,0.0010351467644795775,0.0013400446623563766,-0.0024823450949043036
1733359920419533800,11.059533935546876,0.0024357030633836985,-0.0014530792832374573,0.005156399682164192
1733359920429498600,11.06949853515625,0.005407524760812521,-0.005425183102488518,0.010268071666359901
1733359920439464700,11.079464599609375,0.003601635107770562,-0.003871229477226734,0.008427826687693596
1733359920449429800,11.0894296875,0.0031776668038219213,0.00465310038998723,0.0051027280278503895
1733359920459395600,11.0993955078125,0.00022129155695438385,0.020604902878403664,-0.0010142866522073746
1733359920469360600,11.109360595703125,-0.0021297538187354803,0.024249356240034103,-0.004003009758889675
1733359920479326700,11.11932666015625,-0.005308236461132765,0.01916351541876793,-0.005093041807413101
1733359920489291800,11.129291748046874,-0.009897677227854729,0.00899918656796217,-0.00038921297527849674
1733359920499257900,11.1392578125,-0.010871595703065395,-0.0020369524136185646,0.0015096208080649376
1733359920509223700,11.1492236328125,-0.015481512062251568,-0.012157121673226357,0.004142534453421831
1733359920519188700,11.159188720703124,-0.012943252921104431,-0.01723603717982769,0.006853632628917694
1733359920529154800,11.16915478515625,-0.012907853350043297,-0.021274441853165627,0.009706037119030952
1733359920539119600,11.17911962890625,-0.009732299484312534,-0.022413739934563637,0.01158756110817194
1733359920549086000,11.1890859375,-0.006645898800343275,-0.01932031847536564,0.011509978212416172
1733359920559050800,11.19905078125,-0.0041337390430271626,-0.012792110443115234,0.008144808001816273
1733359920569016800,11.209016845703125,0.001446325215511024,-0.006164912134408951,0.006003568880259991
1733359920578982000,11.21898193359375,0.005990210454910994,0.0012743612751364708,0.00649625388905406
1733359920588948000,11.228947998046875,0.009621459990739822,0.0040115672163665295,0.006695285905152559
1733359920598913000,11.2389130859375,0.008724240586161613,0.006309342570602894,0.007447096519172192
1733359920608878800,11.24887890625,0.007539681158959866,0.007206995505839586,0.003985501825809479
1733359920618844000,11.258843994140625,0.004653347190469503,0.008256014436483383,-0.0004183014389127493
1733359920628810000,11.26881005859375,0.0025185365229845047,0.010490423068404198,-0.006060579791665077
1733359920638775800,11.27877587890625,0.0016290408093482256,0.008373741991817951,-0.007543694227933884
1733359920648741000,11.2887412109375,-0.0006482167518697679,0.005291094072163105,-0.006590165197849274
1733359920658707000,11.29870703125,-0.0044339001178741455,0.005149147938936949,-0.005188010632991791
1733359920668671700,11.308671630859376,-0.005103155039250851,0.0013757767155766487,-0.003855761606246233
1733359920678638000,11.31863818359375,-0.00405839690938592,0.00437715882435441,-0.006252340041100979
1733359920688603000,11.328602783203126,-0.0007898786570876837,0.012129871174693108,-0.008609931915998459
1733359920698568700,11.338568603515625,0.0009241318330168724,0.019378995522856712,-0.012752478942275047
1733359920708534000,11.348533935546875,-0.00033664749935269356,0.023611795157194138,-0.014335541985929012
1733359920718499800,11.358499755859375,-0.0014107003808021545,0.021849047392606735,-0.01321142166852951
1733359920728465000,11.36846484375,-0.002185158897191286,0.015570947900414467,-0.011141199618577957
1733359920738431000,11.378430908203125,-0.0071650040335953236,0.00975034385919571,-0.008219178766012192
1733359920748396800,11.388396728515625,-0.009363381192088127,0.007105779834091663,-0.002668833825737238
1733359920758361900,11.39836181640625,-0.009152458980679512,0.002384261228144169,0.0010518686613067985
1733359920768328000,11.408327880859375,-0.006799906957894564,0.00032389257103204727,0.007920671254396439
1733359920778293000,11.41829296875,-0.005743164569139481,0.000035472214221954346,0.008661029860377312
1733359920788258800,11.4282587890625,-0.004770576022565365,0.00023541413247585297,0.007400686852633953
1733359920798224000,11.438223876953124,-0.001902884105220437,0.006272267084568739,0.008294177241623402
1733359920808190000,11.44818994140625,0.002549156080931425,0.011303135193884373,0.004449194297194481
1733359920818154800,11.45815478515625,0.0040437220595777035,0.014421695843338966,0.0028883155900985003
1733359920828120800,11.468120849609376,0.006149465683847666,0.016220880672335625,0.0022473165299743414
1733359920838086000,11.4780859375,0.007164396345615387,0.014735102653503418,0.0028483918868005276
1733359920848051700,11.4880517578125,0.011743178591132164,0.01902148500084877,0.005000746808946133
1733359920858017000,11.49801708984375,0.011050756089389324,0.0176872406154871,0.004856669809669256
1733359920867982800,11.50798291015625,0.012498975731432438,0.016773425042629242,0.007880032062530518
1733359920877949000,11.517948974609375,0.01112531777471304,0.012568827718496323,0.006671223323792219
1733359920887914000,11.5279140625,0.006789441220462322,0.005328333005309105,0.006740844342857599
1733359920897879800,11.5378798828125,0.000725423451513052,-0.004297928884625435,0.00545293977484107
1733359920907845000,11.54784521484375,-0.004972949158400297,-0.008939104154706001,0.0063646817579865456
1733359920917811000,11.55781103515625,-0.009436140768229961,-0.010758575052022934,0.009093623608350754
1733359920927775700,11.567775634765624,-0.011630038730800152,-0.012281735427677631,0.010723725892603397
1733359920937742000,11.5777421875,-0.010456384159624577,-0.012728880159556866,0.008738871663808823
1733359920947707000,11.587706787109376,-0.009005516767501831,-0.008961498737335205,0.007259515579789877
1733359920957673000,11.5976728515625,-0.008432670496404171,-0.009197721257805824,0.006804914213716984
1733359920967638000,11.607637939453125,-0.0051337857730686665,-0.00704581756144762,0.004160892218351364
1733359920977603800,11.617603759765625,-0.005122866947203875,-0.0019216286018490791,0.003526527201756835
1733359920987570000,11.62756982421875,-0.004275439772754908,0.000273105688393116,0.002532623242586851
1733359920997535000,11.637534912109375,-0.0021933806128799915,0.001603621058166027,0.0005230020033195615
1733359921007500800,11.647500732421875,-0.004330870229750872,0.003918880131095648,-0.00034114602021872997
1733359921017465900,11.6574658203125,-0.0013406728394329548,0.0064414264634251595,-0.0005499378312379122
1733359921027432000,11.667431884765625,0.0036868653260171413,0.008173206821084023,-0.007133834064006805
1733359921037397000,11.67739697265625,0.004312175791710615,0.011006010696291924,-0.011175180785357952
1733359921047362800,11.68736279296875,0.006928185001015663,0.015106577426195145,-0.009701636619865894
1733359921057327900,11.697327880859374,0.008539397269487381,0.010516352951526642,-0.0045244512148201466
1733359921067294000,11.7072939453125,0.009244606830179691,0.004532908089458942,-0.0032674449030309916
1733359921077258800,11.7172587890625,0.009506662376224995,0.002746992278844118,-0.002846399089321494
1733359921087225000,11.72722509765625,0.004406724590808153,0.00731175672262907,-0.005621833726763725
1733359921097191000,11.73719091796875,0.002772609004750848,0.013512927107512951,-0.006368583999574184
1733359921107155700,11.74715576171875,0.0015126904472708702,0.020111365243792534,-0.008186489343643188
1733359921117122000,11.7571220703125,0.0010314572136849165,0.022097550332546234,-0.010472545400261879
1733359921127086800,11.7670869140625,-0.0001249486522283405,0.020449629053473473,-0.009560997597873211
1733359921137053000,11.777052978515625,-0.002656815806403756,0.01549987867474556,-0.007626477628946304
1733359921147018000,11.78701806640625,-0.0031010154634714127,0.010979271493852139,-0.004167984239757061
1733359921156983800,11.79698388671875,-0.0027734467294067144,0.008484422229230404,-0.0012704648543149233
1733359921166948900,11.806948974609375,-0.00203465623781085,0.0012819105759263039,0.0007469737902283669
1733359921176915000,11.8169150390625,-0.0013374406844377518,-0.002609233371913433,0.00521975290030241
1733359921186880000,11.8268798828125,-0.0025861989706754684,-0.008374650962650776,0.008854570798575878
1733359921196846000,11.83684619140625,0.00144316372461617,-0.006679815240204334,0.005129341501742601
1733359921206811000,11.846810791015624,0.004470103420317173,-0.004505632445216179,0.005488613620400429
1733359921216777000,11.85677685546875,0.008343138732016087,0.0007975203916430473,0.0014185048639774323
1733359921226743000,11.866742919921874,0.010545597411692142,0.004397178068757057,0.00258427020162344
1733359921236707800,11.876707763671876,0.012052414007484913,0.005822235718369484,0.0021784044802188873
1733359921246674000,11.886673828125,0.01066169049590826,0.005444880574941635,0.004815094172954559
1733359921256639000,11.896638916015625,0.008848610334098339,0.004195325542241335,0.005106977187097073
1733359921266604800,11.906604736328125,0.0072317468002438545,0.0055348752066493034,0.005387484095990658
1733359921276569900,11.91656982421875,0.005841843318194151,0.005930088460445404,-0.0011537717655301094
1733359921286536000,11.926535888671875,0.0028658059891313314,0.005149102304130793,-0.006215966772288084
1733359921296501000,11.9365009765625,0.0004077083431184292,0.004763476550579071,-0.003496080171316862
1733359921306466800,11.946466796875,-0.0032871454022824764,-0.0029460014775395393,-0.00027141300961375237
