time,seconds_elapsed,z,y,x
1733359759504348700,0.0203486328125,0.04292288422584534,0.11341135203838348,-0.09029270708560944
1733359759514315000,0.03031494140625,0.047364480793476105,0.1600644886493683,-0.12417380511760712
1733359759524279800,0.04027978515625,0.04831762611865997,0.20568284392356873,-0.15909743309020996
1733359759534245600,0.05024560546875,0.04991742596030235,0.20249217748641968,-0.16426189243793488
1733359759544211000,0.0602109375,0.04388616234064102,0.19350826740264893,-0.16656899452209473
1733359759554176800,0.0701767578125,0.05284182354807854,0.202256977558136,-0.1848829835653305
1733359759564141800,0.080141845703125,0.0597042553126812,0.2058437168598175,-0.202310711145401
1733359759574108000,0.09010791015625,0.07034970819950104,0.16222327947616577,-0.1801401525735855
1733359759584072700,0.10007275390625,0.08325006067752838,0.17317979037761688,-0.18430987000465393
1733359759594038800,0.110038818359375,0.09787002205848694,0.22710394859313965,-0.2168722003698349
1733359759604003800,0.12000390625,0.10547094792127609,0.2648279070854187,-0.2257642298936844
1733359759613970000,0.129969970703125,0.10816977918148041,0.2988620698451996,-0.23972998559474945
1733359759623934700,0.139934814453125,0.12665292620658875,0.25142422318458557,-0.20806792378425598
1733359759633900800,0.14990087890625,0.14914119243621826,0.21560780704021454,-0.17650866508483887
1733359759643865900,0.159865966796875,0.16525384783744812,0.294684499502182,-0.21856637299060822
1733359759653831700,0.169831787109375,0.15751732885837555,0.3183693289756775,-0.23533904552459717
1733359759663797000,0.179796875,0.16573451459407806,0.3428744077682495,-0.2568952143192291
1733359759673762800,0.1897626953125,0.1702030748128891,0.41835588216781616,-0.305940717458725
1733359759683727600,0.1997275390625,0.19326339662075043,0.40481531620025635,-0.29334530234336853
1733359759693694000,0.20969384765625,0.2178318202495575,0.46966108679771423,-0.3311464190483093
1733359759703658800,0.21965869140625,0.21811039745807648,0.6073641180992126,-0.43004104495048523
1733359759713624800,0.229624755859375,0.2125050127506256,0.7998194694519043,-0.5618627667427063
1733359759723590000,0.23958984375,0.2771438956260681,0.866481363773346,-0.6382139921188354
1733359759733555700,0.2495556640625,0.4287757873535156,0.9310680627822876,-0.7066846489906311
1733359759743520800,0.259520751953125,0.5837006568908691,1.145552158355713,-0.8347622156143188
1733359759753486800,0.26948681640625,0.6689617037773132,1.325860857963562,-0.9525453448295593
1733359759763452000,0.279451904296875,0.6775541305541992,1.513110876083374,-1.0232645273208618
1733359759773418000,0.28941796875,0.8364687561988831,1.6624841690063477,-1.0760782957077026
1733359759783382800,0.2993828125,0.9907704591751099,2.048269271850586,-1.2030075788497925
1733359759793348900,0.309348876953125,0.925609827041626,2.015676259994507,-1.2525800466537476
1733359759803315000,0.31931494140625,0.7206047177314758,1.953215479850769,-1.2878962755203247
1733359759813279700,0.32927978515625,0.5711531043052673,1.9450455904006958,-1.2598786354064941
1733359759823245800,0.339245849609375,0.3632536828517914,2.6035408973693848,-1.4790635108947754
1733359759833211000,0.3492109375,0.14683198928833008,3.1390655040740967,-1.7091569900512695
1733359759843177000,0.359177001953125,0.16063913702964783,2.542503833770752,-1.5857874155044556
1733359759853141800,0.369141845703125,0.1777658760547638,2.2516837120056152,-1.5269290208816528
1733359759863107800,0.37910791015625,0.11689773201942444,2.183337450027466,-1.5165530443191528
1733359759873073000,0.389072998046875,0.13525304198265076,2.003833770751953,-1.4898406267166138
1733359759883038700,0.399038818359375,0.1717010736465454,1.8193416595458984,-1.445075511932373
1733359759893004000,0.409004150390625,0.14980831742286682,1.7107332944869995,-1.433988332748413
1733359759902969900,0.418969970703125,0.16796602308750153,1.6350494623184204,-1.4416358470916748
1733359759912934700,0.4289345703125,0.1718459576368332,1.6521098613739014,-1.440921664237976
1733359759922901000,0.43890087890625,0.1686440408229828,1.6795390844345093,-1.3942865133285522
1733359759932865800,0.44886572265625,0.15850616991519928,1.65843665599823,-1.3853446245193481
1733359759942831900,0.458831787109375,0.0866391733288765,1.5987623929977417,-1.400130271911621
1733359759952797000,0.468796875,0.03647671267390251,1.4999006986618042,-1.3586828708648682
1733359759962762800,0.4787626953125,-0.08295301347970963,1.4087913036346436,-1.3243217468261719
1733359759972727800,0.488727783203125,-0.25961706042289734,1.3904989957809448,-1.2049392461776733
1733359759982694000,0.49869384765625,-0.3408586382865906,1.340285062789917,-1.0083428621292114
1733359759992659000,0.508658935546875,-0.34069669246673584,1.1287873983383179,-0.7605050206184387
1733359760002624800,0.518624755859375,-0.29751911759376526,0.862091064453125,-0.46621158719062805
1733359760012589800,0.52858984375,-0.18916040658950806,0.53166264295578,-0.19702528417110443
1733359760022556000,0.538555908203125,-0.0916554257273674,0.20483475923538208,0.016448108479380608
1733359760032520700,0.548520751953125,-0.006979183293879032,-0.06396707892417908,0.16974477469921112
1733359760042486800,0.55848681640625,-0.02324976772069931,-0.20565471053123474,0.2605718672275543
1733359760052451800,0.568451904296875,-0.014032275415956974,-0.256156325340271,0.3045063018798828
1733359760062417700,0.578417724609375,-0.00874084047973156,-0.2211405336856842,0.2820241451263428
1733359760072383000,0.588383056640625,0.002836677012965083,-0.11933236569166183,0.18894964456558228
1733359760082348800,0.598348876953125,0.005060948897153139,-0.006671338342130184,0.07678955048322678
1733359760092313900,0.60831396484375,0.0011464037233963609,0.07459302991628647,-0.0372258797287941
1733359760102280000,0.618280029296875,0.00038287549978122115,0.14700384438037872,-0.14519283175468445
1733359760112244700,0.62824462890625,0.001429474214091897,0.18351906538009644,-0.20277726650238037
1733359760122210800,0.6382109375,-0.00754085136577487,0.159322127699852,-0.22943417727947235
1733359760132176000,0.64817578125,-0.012023181654512882,0.11521311849355698,-0.23287701606750488
1733359760142141700,0.6581416015625,-0.02269713208079338,0.08388608694076538,-0.22224408388137817
1733359760152106800,0.668106689453125,-0.031828075647354126,0.058400705456733704,-0.19316831231117249
1733359760162072800,0.67807275390625,-0.025284158065915108,0.04495200887322426,-0.14752519130706787
1733359760172038000,0.688037841796875,-0.0130855031311512,0.0570349283516407,-0.08668148517608643
1733359760182003700,0.698003662109375,-0.0024288641288876534,0.06130317598581314,-0.012950273230671883
1733359760191969000,0.707968994140625,-0.0017125020967796445,0.047720201313495636,0.0412759892642498
1733359760201934800,0.717934814453125,-0.001288793166168034,0.0014419173821806908,0.07278730720281601
1733359760211899600,0.727899658203125,0.003163496032357216,-0.07234165817499161,0.07517893612384796
1733359760221866000,0.737865966796875,0.006473006680607796,-0.08963462710380554,0.06558862328529358
1733359760231830800,0.747830810546875,0.010065862908959389,-0.0761735737323761,0.042163215577602386
1733359760241796600,0.757796630859375,0.008904724381864071,-0.04417196661233902,0.011479605920612812
1733359760251762000,0.767761962890625,0.007176309358328581,0.005185544490814209,-0.010331116616725922
1733359760261727700,0.777727783203125,0.006594142410904169,0.031697314232587814,-0.03175491839647293
1733359760271692800,0.78769287109375,0.00534836994484067,0.04648735746741295,-0.04059016704559326
1733359760281659000,0.797658935546875,0.0062418607994914055,0.04240766167640686,-0.037415675818920135
1733359760291624000,0.8076240234375,0.005407470744103193,0.022351417690515518,-0.037961196154356
1733359760301589800,0.81758984375,0.0058354404754936695,-0.009011298418045044,-0.040085334330797195
1733359760311554800,0.827554931640625,-0.00017025359557010233,-0.029427889734506607,-0.03519497066736221
1733359760321521000,0.83752099609375,0.0017229876248165965,-0.015774663537740707,-0.027808690443634987
1733359760331485700,0.847485595703125,-0.0029639541171491146,-0.004010307602584362,-0.01891486905515194
1733359760341451800,0.85745166015625,-0.000862187473103404,-0.007393854670226574,0.0009259484941139817
1733359760351416800,0.867416748046875,-0.0041945683769881725,-0.044599343091249466,0.020412517711520195
1733359760361382700,0.877382568359375,-0.006134148687124252,-0.09139587730169296,0.02038908191025257
1733359760371348000,0.887347900390625,-0.007256121374666691,-0.12537610530853271,0.016520682722330093
1733359760381313800,0.897313720703125,-0.006940803024917841,-0.12246475368738174,0.008633464574813843
1733359760391279000,0.907279052734375,-0.00878695398569107,-0.11407801508903503,0.0025596613995730877
1733359760401245400,0.917245361328125,-0.008832760155200958,-0.10443417727947235,-0.010733773931860924
1733359760411210200,0.927210205078125,-0.007782416418194771,-0.08670293539762497,-0.01275576837360859
1733359760421176300,0.93717626953125,-0.0054875705391168594,-0.08299128711223602,-0.024167679250240326
1733359760431141400,0.947141357421875,-0.0034939420875161886,-0.08924295008182526,-0.03003460355103016
1733359760441107200,0.957107177734375,-0.0051850490272045135,-0.10556440055370331,-0.03113315813243389
1733359760451072500,0.967072509765625,-0.001516554388217628,-0.10718975216150284,-0.029806889593601227
1733359760461038300,0.977038330078125,-0.002493668347597122,-0.1085575520992279,-0.02669871598482132
1733359760471004200,0.987004150390625,-0.001807850319892168,-0.09997080266475677,-0.023230690509080887
1733359760480969500,0.996969482421875,0.0007828727830201387,-0.08764170110225677,-0.009148960001766682
1733359760490935300,1.006935302734375,0.001830852823331952,-0.10949787497520447,-0.0017529994947835803
1733359760500900400,1.016900390625,0.003451918950304389,-0.14306142926216125,-0.00007547438144683838
1733359760510866400,1.026866455078125,0.00006513920379802585,-0.16621927917003632,-0.0036323380190879107
1733359760520831200,1.036831298828125,0.0033339031506329775,-0.1649516224861145,-0.004849668592214584
1733359760530797300,1.04679736328125,0.00550331873819232,-0.14214524626731873,-0.006392710842192173
1733359760540762400,1.056762451171875,0.001333341235294938,-0.09834103286266327,-0.006681930273771286
1733359760550728400,1.066728515625,-0.008033781312406063,-0.05955298990011215,-0.01601899415254593
1733359760560693200,1.076693359375,-0.005309900268912315,-0.021306805312633514,-0.02595365047454834
1733359760570659300,1.086659423828125,-0.008436976931989193,0.0002731373533606529,-0.03718860447406769
1733359760580624400,1.096624267578125,-0.011469517834484577,0.004755503963679075,-0.041495200246572495
1733359760590590200,1.106590087890625,-0.007639418356120586,-0.008606965653598309,-0.039161257445812225
1733359760600555500,1.116555419921875,-0.004918466787785292,-0.027525529265403748,-0.03504986688494682
1733359760610521300,1.126521240234375,-0.0034337101969867945,-0.044064395129680634,-0.02807311713695526
1733359760620486100,1.136486083984375,0.001601794851012528,-0.056054212152957916,-0.02312576211988926
1733359760630452500,1.146452392578125,0.001865212107077241,-0.04331392049789429,-0.018787916749715805
1733359760640417300,1.156417236328125,-0.009953097440302372,-0.012862805277109146,-0.01761798933148384
1733359760650383400,1.16638330078125,-0.010843710973858833,0.03193292021751404,-0.01273074746131897
1733359760660348400,1.176348388671875,-0.013295150361955166,0.06272518634796143,-0.0051950677298009396
1733359760670314200,1.186314208984375,-0.019103774800896645,0.0720742791891098,-0.0030614729039371014
1733359760680279300,1.196279296875,-0.021195154637098312,0.07285857200622559,-0.0035781259648501873
1733359760690245400,1.206245361328125,-0.024366389960050583,0.0766446441411972,-0.010073923505842686
1733359760700210400,1.21621044921875,-0.038281939923763275,0.08988481760025024,-0.014579459093511105
1733359760710176300,1.22617626953125,-0.04515214264392853,0.10825194418430328,-0.012276692315936089
1733359760720141300,1.236141357421875,-0.04424906522035599,0.13161292672157288,-0.007760770618915558
1733359760730107400,1.246107421875,-0.04281442612409592,0.14907360076904297,-0.012317296117544174
1733359760740072200,1.256072265625,-0.04229510948061943,0.16969232261180878,-0.0128328837454319
1733359760750038300,1.266038330078125,-0.04346473887562752,0.18608227372169495,-0.01757441647350788
1733359760760003300,1.27600341796875,-0.036528270691633224,0.20210331678390503,-0.01906285621225834
1733359760769969200,1.28596923828125,-0.032457347959280014,0.20691847801208496,-0.02598549798130989
1733359760779934500,1.2959345703125,-0.02683514915406704,0.22097089886665344,-0.026311468333005905
1733359760789900300,1.305900390625,-0.022646278142929077,0.23577259480953217,-0.022458653897047043
1733359760799865300,1.315865234375,-0.020484857261180878,0.24126216769218445,-0.023552414029836655
1733359760809831400,1.32583154296875,-0.02052270993590355,0.23769612610340118,-0.023491373285651207
1733359760819796200,1.335796142578125,-0.01973734423518181,0.22596463561058044,-0.021744605153799057
1733359760829762300,1.34576220703125,-0.012872486375272274,0.20665490627288818,-0.021174198016524315
1733359760839727400,1.355727294921875,-0.009692671708762646,0.17964112758636475,-0.02175396867096424
1733359760849693200,1.365693115234375,-0.004318946972489357,0.15077678859233856,-0.015166501514613628
1733359760859658200,1.375658203125,-0.0018134453566744924,0.11784147471189499,-0.006149837747216225
1733359760869624300,1.385624267578125,0.0006600683555006981,0.07814094424247742,0.0036289338022470474
1733359760879589400,1.39558935546875,0.0005418239743448794,0.033580128103494644,0.009679103270173073
1733359760889555500,1.405555419921875,-0.00007522582745878026,-0.010960032232105732,0.013481024652719498
1733359760899520500,1.4155205078125,0.0003950884274672717,-0.04208119958639145,0.018231306225061417
1733359760909486300,1.425486328125,0.00019460654584690928,-0.06108693405985832,0.022755805402994156
1733359760919451100,1.435451171875,0.0010814392007887363,-0.07725951075553894,0.022393349558115005
1733359760929417500,1.44541748046875,0.001994286198168993,-0.08238334953784943,0.023152204230427742
1733359760939382300,1.45538232421875,0.0012560581089928746,-0.0819585770368576,0.026942947879433632
1733359760949348400,1.465348388671875,0.002241248032078147,-0.09061692655086517,0.02756453864276409
1733359760959313400,1.4753134765625,-0.0008863683324307203,-0.09859762340784073,0.026131758466362953
1733359760969279200,1.485279296875,-0.004829218611121178,-0.09985358268022537,0.02683901973068714
1733359760979244300,1.495244384765625,-0.003626268357038498,-0.09679840505123138,0.026903999969363213
1733359760989210400,1.50521044921875,-0.006406370550394058,-0.10075938701629639,0.025650490075349808
1733359760999175400,1.515175537109375,-0.005774934776127338,-0.10560181736946106,0.024016374722123146
1733359761009141500,1.5251416015625,-0.00588622922077775,-0.10668773204088211,0.02698775939643383
1733359761019106300,1.535106201171875,-0.008154443465173244,-0.10758494585752487,0.030148398131132126
1733359761029072400,1.545072265625,-0.006581316702067852,-0.10460986196994781,0.03130168467760086
1733359761039037200,1.555037109375,-0.007524874527007341,-0.10230090469121933,0.032052695751190186
1733359761049003300,1.565003173828125,-0.0065642655827105045,-0.10630621761083603,0.033190518617630005
1733359761058968300,1.57496826171875,-0.01460940856486559,-0.10644417256116867,0.03165973722934723
1733359761068934400,1.584934326171875,-0.015331155620515347,-0.09606876224279404,0.03160052374005318
1733359761078900200,1.594900146484375,-0.00849135871976614,-0.08179128915071487,0.02986893616616726
1733359761088865300,1.604865234375,-0.0035785932559520006,-0.06481023132801056,0.024247489869594574
1733359761098831400,1.614831298828125,-0.0035242647863924503,-0.0532957948744297,0.014350649900734425
1733359761108796400,1.62479638671875,-0.006812721956521273,-0.03409317508339882,0.0053411563858389854
1733359761118762200,1.63476220703125,-0.005172214936465025,-0.003792792558670044,-0.003974314779043198
1733359761128727600,1.6447275390625,0.0009490445372648537,0.028795143589377403,-0.007216290105134249
1733359761138693400,1.654693359375,0.0040803891606628895,0.04916299879550934,-0.006391509901732206
1733359761148658200,1.664658203125,0.0007863560458645225,0.06369586288928986,-0.004572481382638216
1733359761158624500,1.67462451171875,-0.005294439848512411,0.06748048216104507,0.0007232144707813859
1733359761168589300,1.68458935546875,-0.008256139233708382,0.0687616690993309,0.0010628972668200731
1733359761178555100,1.69455517578125,-0.0060148220509290695,0.07805823534727097,0.002913261530920863
1733359761188520400,1.7045205078125,-0.004622281063348055,0.08197642117738724,-0.0002008684678003192
1733359761198486300,1.714486328125,-0.006249472498893738,0.08331412822008133,-0.0014091447228565812
1733359761208451300,1.724451416015625,-0.0033479537814855576,0.07288160920143127,-0.006049443036317825
1733359761218417400,1.73441748046875,-0.0020398092456161976,0.06323643028736115,-0.010071881115436554
1733359761228382500,1.744382568359375,0.0014753324212506413,0.04528127238154411,-0.012120835483074188
1733359761238348300,1.754348388671875,0.00161408307030797,0.0297292098402977,-0.007450982928276062
1733359761248313300,1.764313232421875,0.003334440290927887,0.02020292542874813,-0.0037002554163336754
1733359761258279400,1.774279541015625,0.006545680109411478,0.00687060784548521,0.0008604080067016184
1733359761268244200,1.784244140625,0.0075963325798511505,-0.01652165874838829,0.0031635919585824013
1733359761278210300,1.794210205078125,0.006336124613881111,-0.04237695783376694,0.0073197209276258945
1733359761288175400,1.80417529296875,0.008776322938501835,-0.06700225919485092,0.010191754437983036
1733359761298141200,1.81414111328125,0.009719881229102612,-0.08153966069221497,0.009377093985676765
1733359761308106500,1.8241064453125,0.010422388091683388,-0.09029281139373779,0.007472583558410406
1733359761318072300,1.834072265625,0.009718247689306736,-0.09213092923164368,0.002440540585666895
1733359761328037400,1.844037353515625,0.007398157846182585,-0.08586971461772919,0.006237862631678581
1733359761338003500,1.85400341796875,0.008238119073212147,-0.08730728924274445,0.005523602943867445
1733359761347968300,1.86396826171875,0.013037385419011116,-0.09180226922035217,0.013383014127612114
1733359761357934300,1.873934326171875,0.015264053829014301,-0.10710346698760986,0.017890147864818573
1733359761367899400,1.8838994140625,0.0136469891294837,-0.12352682650089264,0.022886360064148903
1733359761377865200,1.893865234375,0.009111093357205391,-0.12909762561321259,0.026570577174425125
1733359761387830300,1.903830322265625,0.002833261853083968,-0.12158823758363724,0.030893633142113686
1733359761397795800,1.9137958984375,-0.002635539509356022,-0.10818881541490555,0.032466497272253036
1733359761407761200,1.92376123046875,-0.006823685485869646,-0.08794564753770828,0.033717069774866104
1733359761417727000,1.93372705078125,-0.008452740497887135,-0.07177040725946426,0.030893851071596146
1733359761427692000,1.943692138671875,-0.011023218743503094,-0.05989416316151619,0.02531292289495468
1733359761437658000,1.953658203125,-0.013093826361000538,-0.03882243484258652,0.015579869039356709
1733359761447623000,1.963622802734375,-0.01273559220135212,-0.024726837873458862,0.01882420852780342
1733359761457589000,1.973589111328125,-0.012186714448034763,-0.005656205117702484,0.012869380414485931
1733359761467554000,1.983553955078125,-0.010869011282920837,0.01498110219836235,0.002665785141289234
1733359761477520000,1.993519775390625,-0.011043980717658997,0.029817571863532066,-0.005060311406850815
1733359761487485000,2.00348486328125,-0.01031930185854435,0.04154473915696144,-0.006309115327894688
1733359761497451000,2.013450927734375,-0.008449230343103409,0.04774830490350723,-0.003069113241508603
1733359761507416000,2.023416015625,-0.006250801961869001,0.05114787444472313,0.0005281685153022408
1733359761517382000,2.0333818359375,-0.00840023998171091,0.05982791632413864,0.004725044127553701
1733359761527347200,2.04334716796875,-0.006592501886188984,0.0720977932214737,0.00527061615139246
1733359761537313000,2.05331298828125,-0.005550406873226166,0.08679445087909698,0.0020561807323247194
1733359761547277800,2.06327783203125,-0.004765587858855724,0.09684185683727264,-0.004023530054837465
1733359761557244200,2.073244140625,-0.006641784682869911,0.10548488050699234,-0.00972535740584135
1733359761567209000,2.083208984375,-0.008065757341682911,0.10515788197517395,-0.016210181638598442
1733359761577174800,2.0931748046875,-0.004502448253333569,0.10321058332920074,-0.018034180626273155
1733359761587140000,2.10314013671875,-0.006063028238713741,0.09828020632266998,-0.01571008749306202
1733359761597106000,2.11310595703125,-0.0038150534965097904,0.08319313079118729,-0.013970510102808475
1733359761607072000,2.123072021484375,-0.0041319839656353,0.07303647696971893,-0.007665722165256739
1733359761617037000,2.133037109375,-0.01075633056461811,0.05650836601853371,-0.004617734346538782
1733359761627003000,2.1430029296875,-0.00996351521462202,0.034275416284799576,0.0016400382155552506
1733359761636968000,2.152968017578125,-0.00926470197737217,0.015611184760928154,0.005709880962967873
1733359761646934000,2.16293408203125,-0.004703781101852655,-0.0007363827899098396,0.008722462691366673
1733359761656899000,2.172899169921875,-0.004934677388519049,-0.01846904121339321,0.011106790974736214
1733359761666865200,2.182865234375,-0.0035037393681705,-0.030772067606449127,0.011925015598535538
1733359761676830000,2.192829833984375,-0.0030097230337560177,-0.03308742120862007,0.013005726970732212
1733359761686796000,2.202796142578125,-0.0007569669396616518,-0.03326021507382393,0.006183657795190811
1733359761696760800,2.2127607421875,0.002856676233932376,-0.03086310625076294,0.0034251550678163767
1733359761706727000,2.222726806640625,0.0023394576273858547,-0.037482064217329025,0.0015426132595166564
1733359761716692000,2.23269189453125,0.0019269341137260199,-0.045847054570913315,-0.00030668580438941717
1733359761726658000,2.242657958984375,0.002683816011995077,-0.05548294633626938,-0.002120980527251959
1733359761736623000,2.252623046875,0.0039128647185862064,-0.05880843847990036,-0.0007071084110066295
1733359761746589000,2.2625888671875,0.0032803406938910484,-0.05729540437459946,0.0003344869473949075
1733359761756554000,2.272553955078125,0.00534855155274272,-0.05360852926969528,0.00036404794082045555
1733359761766520000,2.28252001953125,0.005566730163991451,-0.044491857290267944,-0.0005958491237834096
1733359761776484900,2.29248486328125,0.00731642683967948,-0.03321230784058571,-0.0011378024937584996
1733359761786451200,2.302451171875,0.006357382982969284,-0.028028476983308792,-0.0007317459676414728
1733359761796416000,2.312416015625,0.009228004142642021,-0.025036416947841644,0.0009029022185131907
1733359761806381800,2.3223818359375,0.00925438106060028,-0.02686578407883644,0.003171232994645834
1733359761816347000,2.332346923828125,0.006746216211467981,-0.027145948261022568,0.0011818516068160534
1733359761826313000,2.34231298828125,0.004880131687968969,-0.019218597561120987,0.003001999109983444
1733359761836278000,2.352278076171875,-0.00000943169288802892,-0.006910533644258976,0.002775097731500864
1733359761846244000,2.362244140625,0.001364250318147242,0.0006354507058858871,0.0038754823617637157
1733359761856209200,2.372209228515625,-0.0013151559978723526,0.011133098974823952,0.005319181829690933
1733359761866175000,2.382175048828125,-0.0007548924768343568,0.017069943249225616,0.006587738171219826
1733359761876140000,2.39214013671875,-0.0023993945214897394,0.01955866813659668,0.002576218917965889
1733359761886106000,2.402106201171875,-0.0037296083755791187,0.02154233306646347,0.0009344640420749784
1733359761896071000,2.41207080078125,-0.00522816926240921,0.02935365028679371,-0.0011396057670935988
1733359761906037000,2.422037109375,-0.007022357080131769,0.030385255813598633,-0.0005977626424282789
1733359761916002000,2.432001953125,-0.005468402523547411,0.03224281221628189,0.0013418176677078009
1733359761925968000,2.4419677734375,-0.0031330743804574013,0.03574134409427643,-0.0016636960208415985
1733359761935933200,2.45193310546875,-0.0017421053489670157,0.03881543129682541,-0.001980345929041505
1733359761945899000,2.46189892578125,-0.002505110576748848,0.046924471855163574,-0.006475215777754784
1733359761955864000,2.471864013671875,-0.002364229178056121,0.04790877550840378,-0.010826288722455502
1733359761965830100,2.481830078125,-0.0020171888172626495,0.05482686683535576,-0.01471654325723648
1733359761975795000,2.491794921875,0.0001682011497905478,0.05767698213458061,-0.016323495656251907
1733359761985761000,2.501760986328125,0.0002845532144419849,0.05280999466776848,-0.021879876032471657
1733359761995726000,2.51172607421875,0.0013367681531235576,0.04642053693532944,-0.022460976615548134
1733359762005692000,2.52169189453125,0.0017828522250056267,0.03922215849161148,-0.019190087914466858
1733359762015657000,2.531656982421875,0.004411924630403519,0.026792652904987335,-0.015358067117631435
1733359762025623000,2.541623046875,0.004055310972034931,0.01741236448287964,-0.01439411286264658
1733359762035588900,2.5515888671875,0.00555040966719389,0.01874208077788353,-0.013333109207451344
1733359762045554000,2.561553955078125,0.005907583981752396,0.026832394301891327,-0.011005967855453491
1733359762055520000,2.57152001953125,0.004290512762963772,0.02944282442331314,-0.008912457153201103
1733359762065485000,2.581485107421875,0.0012792602647095919,0.0315261147916317,-0.01136480551213026
1733359762075451000,2.591450927734375,0.0009740620735101402,0.029983609914779663,-0.012346446514129639
1733359762085416200,2.601416259765625,-0.004406291991472244,0.029439792037010193,-0.008282373659312725
1733359762095382000,2.611382080078125,-0.0026611224748194218,0.026790212839841843,-0.003992021549493074
1733359762105346800,2.621346923828125,-0.002404183614999056,0.01290543470531702,-0.004544814117252827
1733359762115313200,2.631313232421875,-0.004586910363286734,0.004232318140566349,-0.0028214827179908752
1733359762125278000,2.64127783203125,-0.003584756050258875,-0.0006875228136777878,-0.0015164100332185626
1733359762135243800,2.651243896484375,-0.0014156111283227801,-0.0016523860394954681,0.00043408910278230906
1733359762145209000,2.661208984375,-0.00043636688496917486,0.0006139641627669334,-0.00102638837415725
1733359762155175000,2.6711748046875,0.0011351645225659013,0.005079818889498711,-0.0049343109130859375
1733359762165140000,2.681139892578125,0.00025656219804659486,0.015401042066514492,-0.005861721001565456
1733359762175106000,2.69110595703125,-0.0007652927306480706,0.016190670430660248,-0.0063248444348573685
1733359762185071000,2.701071044921875,0.00015594113210681826,0.018519438803195953,-0.005568306427448988
1733359762195037000,2.711036865234375,-0.000003582201316021383,0.016245367005467415,-0.006492955610156059
1733359762205002000,2.721001953125,0.0015248270938172936,0.015342000871896744,-0.008069178089499474
1733359762214968000,2.730968017578125,0.002265984658151865,0.017050152644515038,-0.008423377759754658
1733359762224932900,2.740932861328125,0.0014784577069804072,0.0169976893812418,-0.00875156931579113
1733359762234899000,2.75089892578125,0.0005833692848682404,0.01790156587958336,-0.012722874991595745
1733359762244864000,2.760864013671875,0.000011604846804402769,0.025880498811602592,-0.011981341987848282
1733359762254829800,2.770829833984375,0.00013357763236854225,0.029257919639348984,-0.013383761048316956
1733359762264795100,2.780795166015625,-0.0003729626478161663,0.029967837035655975,-0.013974840752780437
1733359762274761000,2.790760986328125,0.00003556626325007528,0.026636755093932152,-0.0148606076836586
1733359762284726000,2.80072607421875,-0.002347427885979414,0.022111982107162476,-0.012607975862920284
1733359762294692000,2.810692138671875,-0.005004197359085083,0.00706592109054327,-0.010668928734958172
1733359762304657000,2.820656982421875,-0.003867578925564885,-0.012399694882333279,-0.0066475290805101395
1733359762314623200,2.830623291015625,-0.004598616622388363,-0.0296548493206501,-0.004470394924283028
1733359762324588000,2.840588134765625,-0.005036419257521629,-0.04565940424799919,-0.0007969934958964586
1733359762334553900,2.850553955078125,-0.002976730465888977,-0.05381426960229874,0.004877936094999313
1733359762344519000,2.860518798828125,-0.000370028312318027,-0.061515867710113525,0.009077208116650581
1733359762354485000,2.870485107421875,-0.0011125176679342985,-0.064432293176651,0.012121467851102352
1733359762364450000,2.880449951171875,-0.002903795102611184,-0.06403002887964249,0.012645228765904903
1733359762374416100,2.890416015625,-0.010144929401576519,-0.05218695104122162,0.009632927365601063
1733359762384382000,2.9003818359375,-0.016094187274575233,-0.034851886332035065,0.005887086968868971
1733359762394350800,2.910350830078125,-0.014474451541900635,-0.012310624122619629,0.0017269628588110209
1733359762404316700,2.920316650390625,-0.015511167235672474,0.003951620776206255,-0.006798023823648691
1733359762414281700,2.93028173828125,-0.00820078980177641,0.01094508171081543,-0.01390067394822836
1733359762424247800,2.940247802734375,-0.0007470778655260801,0.023604001849889755,-0.018367942422628403
1733359762434212600,2.950212646484375,0.008492759428918362,0.03649982810020447,-0.018730400130152702
1733359762444179000,2.960178955078125,0.01370979379862547,0.05317007750272751,-0.020137740299105644
1733359762454143700,2.970143798828125,0.014159602113068104,0.059044212102890015,-0.01781732775270939
1733359762464109600,2.980109619140625,0.013002455234527588,0.05460451543331146,-0.014000347815454006
1733359762474074600,2.99007470703125,0.007902502082288265,0.04461073502898216,-0.013268510811030865
1733359762484040700,3.000040771484375,0.0034768818877637386,0.03736771643161774,-0.012492627836763859
1733359762494005800,3.010005859375,-0.0007692619692534208,0.02704184129834175,-0.01602824218571186
1733359762503971800,3.019971923828125,0.000205489996005781,0.02467603236436844,-0.014677935279905796
1733359762513936600,3.0299365234375,0.0007082947995513678,0.01806260459125042,-0.009892234578728676
1733359762523902700,3.03990283203125,0.003642299445345998,0.009861133992671967,-0.007288728374987841
1733359762533867500,3.049867431640625,0.0019037878373637795,0.008326887153089046,-0.002630859613418579
1733359762543833900,3.059833740234375,0.0021879354026168585,0.006849939003586769,-0.000699385185725987
1733359762553798700,3.069798583984375,0.0017389265121892095,0.01444261148571968,0.0002452379558235407
1733359762563764700,3.0797646484375,-0.00009922917524818331,0.02158498391509056,-0.0011848205467686057
1733359762573729800,3.089729736328125,-0.001063293544575572,0.021831858903169632,-0.00032195623498409986
1733359762583695600,3.099695556640625,-0.0030739426147192717,0.02063431777060032,-0.001007240149192512
1733359762593660700,3.10966064453125,-0.00274717272259295,0.018821503967046738,-0.00004850211553275585
1733359762603626800,3.119626708984375,-0.0032374912407249212,0.02117414027452469,-0.0010584633564576507
1733359762613591600,3.129591552734375,-0.004002617672085762,0.021499313414096832,-0.0002834834158420563
1733359762623558000,3.139557861328125,-0.0032153779175132513,0.013604658655822277,0.0005684489151462913
1733359762633522700,3.149522705078125,-0.0025820781011134386,0.010478373616933823,0.0016217291122302413
1733359762643488800,3.15948876953125,-0.002194828586652875,0.006315176375210285,0.0028527388349175453
1733359762653453800,3.169453857421875,-0.0020579423289746046,0.0027468064799904823,0.0060101826675236225
1733359762663419600,3.179419677734375,-0.00021239742636680603,0.0009474530816078186,0.0060582892037928104
1733359762673384700,3.189384765625,-0.002389797940850258,0.006383230909705162,0.0038872803561389446
1733359762683350800,3.199350830078125,-0.001385276671499014,0.009317583404481411,0.00541543448343873
1733359762693315800,3.20931591796875,-0.0023866251576691866,0.00850105844438076,0.003643633332103491
1733359762703281700,3.21928173828125,-0.0021786277648061514,0.007317958865314722,0.001601248630322516
1733359762713247700,3.229247802734375,-0.0011019117664545774,0.0029069650918245316,0.0007796634454280138
1733359762723212800,3.239212890625,-0.002175132976844907,-0.0004987455904483795,-0.0003508941736072302
1733359762733178600,3.2491787109375,-0.00013568416761700064,-0.0021456442773342133,0.0013412783155217767
1733359762743143700,3.259143798828125,-0.00013863001368008554,-0.0033660074695944786,0.003504720516502857
1733359762753109800,3.26910986328125,-0.0005048146704211831,-0.007377526722848415,0.0027491815853863955
1733359762763074600,3.279074462890625,-0.0010731332004070282,-0.008409767411649227,0.003467436181381345
1733359762773041000,3.289041015625,0.00011463661212474108,-0.008337595500051975,0.005951632745563984
1733359762783005700,3.299005615234375,-0.002322144340723753,-0.008126181550323963,0.005520850419998169
1733359762792971500,3.308971435546875,-0.0026089667808264494,-0.007585027255117893,0.005710999481379986
1733359762802936800,3.318936767578125,-0.002951977076008916,-0.00991781335324049,0.006362401880323887
1733359762812902700,3.328902587890625,-0.0024595584254711866,-0.011202256195247173,0.008000512607395649
1733359762822867700,3.33886767578125,-0.004138940945267677,-0.012879966758191586,0.009208912029862404
1733359762832833800,3.348833740234375,-0.002049957402050495,-0.014937524683773518,0.01032957062125206
1733359762842798600,3.358798583984375,0.00020256756397429854,-0.018158968538045883,0.011717310175299644
1733359762852764700,3.3687646484375,-0.0014872081810608506,-0.017256423830986023,0.008447480387985706
1733359762862729700,3.378729736328125,-0.0011730066034942865,-0.017553076148033142,0.0072536589577794075
1733359762872695800,3.38869580078125,-0.00009629059059079736,-0.014827331528067589,0.004777185153216124
1733359762882660600,3.39866064453125,-0.0003498071455396712,-0.013048768974840641,0.00513495784252882
1733359762892626700,3.408626708984375,-0.00008349101699423045,-0.011220510117709637,0.004984489642083645
1733359762902591700,3.418591796875,-0.0008044412243179977,-0.00630451925098896,0.00105903553776443
1733359762912557600,3.4285576171875,-0.00020949100144207478,-0.0000620698556303978,0.001983951311558485
1733359762922523000,3.43852294921875,-0.0014441278763115406,-0.001519208773970604,-0.000840869965031743
1733359762932488700,3.44848876953125,0.0007346041384153068,-0.0016422467306256294,-0.0006256867200136185
1733359762942453500,3.45845361328125,-0.0021104621700942516,0.003593302797526121,-0.001112096942961216
1733359762952419800,3.468419921875,-0.0013908762484788895,0.0066609978675842285,0.0006908631767146289
1733359762962384600,3.478384521484375,-0.0010150717571377754,0.0020408853888511658,-0.0011680686147883534
1733359762972350700,3.488350830078125,-0.0006667302804999053,-0.001169821247458458,-0.0001725789625197649
1733359762982316800,3.49831689453125,-0.0005348990089260042,-0.0035838335752487183,0.00007402303162962198
1733359762992281600,3.508281494140625,-0.0058002350851893425,-0.0010178778320550919,-0.0008527569007128477
1733359763002248000,3.518248046875,-0.004435920622199774,0.004600674379616976,-0.00033900048583745956
1733359763012212700,3.528212646484375,-0.001717898529022932,-0.00018236320465803146,0.0008892493788152933
1733359763022178600,3.538178466796875,-0.0025330688804388046,-0.011526978574693203,0.0016127974959090352
1733359763032143600,3.5481435546875,-0.0014467653818428516,-0.014739816077053547,0.0072531066834926605
1733359763042109700,3.558109619140625,-0.002072390867397189,-0.01573321782052517,0.009890102781355381
1733359763052074800,3.56807470703125,-0.0002768876147456467,-0.01772552914917469,0.0105790626257658
1733359763062040800,3.578040771484375,-0.0018584972713142633,-0.012767826206982136,0.00808415561914444
1733359763072005600,3.588005615234375,-0.0006635368918068707,-0.00984154548496008,0.008072704076766968
1733359763081971700,3.5979716796875,-0.0027083437889814377,-0.008613931015133858,0.009780745953321457
1733359763091936800,3.607936767578125,-0.0012222998775541782,-0.012700285762548447,0.00871974229812622
1733359763101902800,3.61790283203125,-0.0035256301052868366,-0.015586926601827145,0.006509876344352961
1733359763111867600,3.62786767578125,-0.002219882095232606,-0.013010584749281406,0.005048333667218685
1733359763121833700,3.637833740234375,-0.0035317621659487486,-0.013926343061029911,0.004663974512368441
1733359763131798800,3.647798828125,-0.005496109835803509,-0.012022980488836765,0.004963314160704613
1733359763141764600,3.6577646484375,-0.0019756783731281757,-0.01504970621317625,0.006422394886612892
1733359763151730000,3.66772998046875,-0.0030305564869195223,-0.02037736028432846,0.006495631765574217
1733359763161695700,3.67769580078125,-0.0013944540405645967,-0.023602835834026337,0.011927766725420952
1733359763171660500,3.68766064453125,0.00035923748509958386,-0.025577034801244736,0.015779228881001472
1733359763181627000,3.697626953125,-0.0009614223381504416,-0.03265758603811264,0.013610707595944405
1733359763191591700,3.707591796875,-0.0016605020500719547,-0.0320301428437233,0.01325384434312582
1733359763201557800,3.717557861328125,-0.003294744761660695,-0.029428569599986076,0.01244596391916275
1733359763211522800,3.727522705078125,-0.0027922061271965504,-0.020384207367897034,0.010101051069796085
1733359763221488600,3.737488525390625,-0.001784604974091053,-0.020209254696965218,0.012868446297943592
1733359763231454700,3.747454833984375,-0.0022253580391407013,-0.0307585671544075,0.015854915603995323
1733359763241419800,3.757419677734375,-0.004666302353143692,-0.04305516183376312,0.020158572122454643
1733359763251385600,3.767385498046875,-0.005577636417001486,-0.06246374547481537,0.03331325203180313
1733359763261350700,3.7773505859375,-0.0067450134083628654,-0.09070746600627899,0.04716220870614052
1733359763271316700,3.787316650390625,-0.008137580007314682,-0.11878224462270737,0.05482838302850723
1733359763281281800,3.79728173828125,-0.011236952617764473,-0.1427217572927475,0.05426030978560448
1733359763291247600,3.80724755859375,-0.01928369328379631,-0.15322713553905487,0.047992028295993805
1733359763301212700,3.817212646484375,0.004380337428301573,-0.1418943554162979,0.038196414709091187
1733359763311178800,3.8271787109375,0.020249316468834877,-0.12325570732355118,0.03622567653656006
1733359763321143600,3.8371435546875,0.0208517424762249,-0.09049244970083237,0.029897309839725494
1733359763331110000,3.84710986328125,0.009312532842159271,-0.050511475652456284,0.015863249078392982
1733359763341074700,3.85707470703125,0.000374943163478747,-0.01716521754860878,-0.001058313762769103
1733359763351040500,3.86704052734375,-0.005687476601451635,0.013193218968808651,-0.01179511472582817
1733359763361005800,3.877005859375,-0.003260248340666294,0.041689760982990265,-0.019188081845641136
1733359763370971600,3.8869716796875,-0.0020871260203421116,0.058361150324344635,-0.020761745050549507
1733359763380936700,3.896936767578125,-0.00048494728980585933,0.05682741478085518,-0.021815452724695206
1733359763390902800,3.90690283203125,-0.0002852102043107152,0.04659901186823845,-0.017014039680361748
1733359763400863700,3.91686376953125,-0.0023177789989858866,0.030453167855739594,-0.010302944108843803
1733359763410829800,3.926829833984375,0.00018852186622098088,0.017405807971954346,-0.008053107187151909
1733359763420794600,3.936794677734375,-0.002269050106406212,0.016591330990195274,-0.003982854541391134
1733359763430760700,3.9467607421875,-0.0019915488082915545,0.018719196319580078,-0.0046995109878480434
1733359763440725800,3.956725830078125,-0.0018536060815677047,0.0210353285074234,-0.007636165712028742
1733359763450691600,3.966691650390625,-0.0031244666315615177,0.024132583290338516,-0.007670786697417498
1733359763460657700,3.97665771484375,-0.0022788988426327705,0.026699235662817955,-0.00991079118102789
1733359763470622700,3.986622802734375,-0.004501839634031057,0.03351985663175583,-0.012089523486793041
1733359763480588800,3.9965888671875,-0.0027601253241300583,0.031482353806495667,-0.009780172258615494
1733359763490553600,4.0065537109375,-0.0034773144870996475,0.021749300882220268,-0.009681369177997112
1733359763500519700,4.016519775390625,-0.0045865373685956,0.01301536150276661,-0.007066255901008844
1733359763510484700,4.026484619140625,-0.005709325894713402,0.0031877639703452587,-0.005718430504202843
1733359763520450600,4.036450439453125,-0.003555657807737589,-0.0057383570820093155,-0.0021674633026123047
1733359763530415900,4.046415771484375,-0.002963903360068798,-0.007641984149813652,0.0014123579021543264
1733359763540381700,4.056381591796875,-0.003750293282791972,-0.014712714590132236,0.005910113453865051
1733359763550346500,4.066346435546875,-0.002003792207688093,-0.022008176892995834,0.009047317318618298
1733359763560312800,4.076312744140625,-0.00012704399705398828,-0.02241213619709015,0.00872131995856762
1733359763570277600,4.086277587890625,0.0014402263332158327,-0.02644709125161171,0.011099522933363914
1733359763580243700,4.09624365234375,0.002253560349345207,-0.026220843195915222,0.009293626993894577
1733359763590208800,4.106208740234375,-0.0000029361253837123513,-0.01964763179421425,0.00912638008594513
1733359763600174600,4.116174560546875,0.0006667864508926868,-0.016595328226685524,0.01000677514821291
1733359763610139600,4.1261396484375,-0.0025622963439673185,-0.013765985146164894,0.01025205198675394
1733359763620105700,4.136105712890625,-0.0029667913913726807,-0.009624212048947811,0.009528018534183502
1733359763630070800,4.14607080078125,-0.002083953469991684,-0.012068993411958218,0.007130640093237162
1733359763640036900,4.156036865234375,-0.0037156862672418356,-0.014001281000673771,0.006919470615684986
1733359763650001700,4.166001708984375,-0.003511155489832163,-0.013377835042774677,0.0055055986158549786
1733359763659967700,4.1759677734375,-0.0034469522070139647,-0.010530402883887291,-0.0007972005987539887
1733359763669933800,4.185933837890625,-0.002270367695018649,-0.0015563489869236946,-0.0031863227486610413
1733359763679898600,4.195898681640625,-0.004166288301348686,0.003696899861097336,-0.0041600847616791725
1733359763689864700,4.20586474609375,-0.002360132522881031,0.0024641226045787334,-0.0019816188141703606
1733359763699829800,4.215829833984375,-0.0020408148411661386,-0.004949974827468395,0.0013220258988440037
1733359763709795800,4.2257958984375,-0.00017367258260492235,-0.021104177460074425,0.0048323385417461395
1733359763719760600,4.2357607421875,-0.0021569400560110807,-0.03314748406410217,0.00678325304761529
1733359763729726700,4.245726806640625,-0.001884498749859631,-0.027014754712581635,0.0076453182846307755
1733359763739691800,4.25569189453125,-0.001939105219207704,-0.020267600193619728,0.006182326935231686
1733359763749657600,4.26565771484375,-0.0019220609683543444,-0.012077847495675087,0.002068808302283287
1733359763759623000,4.275622802734375,-0.0011925887083634734,-0.005280984565615654,-0.001235686824657023
1733359763769588700,4.285588623046875,-0.002469574334099889,0.002058420330286026,-0.0033417148515582085
1733359763779553500,4.295553466796875,-0.003979353234171867,0.006603429093956947,-0.0019099543569609523
1733359763789520000,4.305519775390625,-0.0019513557199388742,0.003965568263083696,0.00011724373325705528
1733359763799484700,4.315484619140625,-0.002456291113048792,0.004569040611386299,-0.00144576549064368
1733359763809450800,4.32545068359375,-0.0013132623862475157,0.00872117467224598,0.00017317011952400208
1733359763819415800,4.335415771484375,-0.0016991543816402555,0.018096033483743668,-0.001493169809691608
1733359763829381600,4.345381591796875,-0.0023335192818194628,0.026021867990493774,-0.005833589471876621
1733359763839346700,4.3553466796875,-0.0003502884937915951,0.02918238192796707,-0.004550843965262175
1733359763849312800,4.365312744140625,-0.0022930644918233156,0.03291080892086029,-0.005138337146490812
1733359763859277800,4.37527783203125,-0.0008128751069307327,0.03198603540658951,-0.005595075432211161
1733359763869243600,4.38524365234375,-0.0035655181854963303,0.02543305978178978,-0.009067039005458355
1733359763879209700,4.395209716796875,-0.002324196044355631,0.02860959991812706,-0.007896344177424908
1733359763889174800,4.4051748046875,-0.0027297954075038433,0.03494845703244209,-0.012403744272887707
1733359763899140600,4.415140625,-0.0033047788310796022,0.047152839601039886,-0.0133964279666543
1733359763909105700,4.425105712890625,-0.004165778402239084,0.053832583129405975,-0.013510677963495255
1733359763919071700,4.43507177734375,-0.004850491415709257,0.046490080654621124,-0.01166508812457323
1733359763929036500,4.44503662109375,-0.005497373174875975,0.03623291850090027,-0.00814199261367321
1733359763939003000,4.4550029296875,-0.007410332560539246,0.02533552795648575,-0.007157155312597752
1733359763948967700,4.4649677734375,-0.006797539070248604,0.02312696911394596,-0.00441276840865612
1733359763958933500,4.47493359375,-0.005899887066334486,0.028935490176081657,-0.0063379863277077675
1733359763968898800,4.48489892578125,-0.006249027326703072,0.032349660992622375,-0.009444030933082104
1733359763978864600,4.49486474609375,-0.0020572321955114603,0.039798274636268616,-0.014963537454605103
1733359763988829700,4.50482958984375,0.003590799868106842,0.041231587529182434,-0.016071679070591927
1733359763998795800,4.514795654296875,0.009808235801756382,0.027460897341370583,-0.01140864472836256
1733359764008760600,4.524760498046875,0.01466743927448988,0.0031627481803297997,-0.0036433995701372623
1733359764018727000,4.534726806640625,0.021717358380556107,-0.021719638258218765,0.005189643241465092
1733359764028691700,4.544691650390625,0.024286508560180664,-0.026216916739940643,0.009716218337416649
1733359764038657800,4.55465771484375,0.0289596114307642,-0.011643645353615284,0.009645171463489532
1733359764048623900,4.564623779296875,0.03006136044859886,0.003506280016154051,0.008868859149515629
1733359764058588700,4.574588623046875,0.02739817649126053,0.0012780940160155296,-0.0004449813859537244
1733359764068554800,4.5845546875,0.022543232887983322,0.012694799341261387,-0.015410615131258965
1733359764078519800,4.594519775390625,0.01917858235538006,0.03350217640399933,-0.0332455188035965
1733359764088485600,4.604485595703125,0.016573479399085045,0.06666626036167145,-0.046353064477443695
1733359764098450700,4.61445068359375,0.01337208691984415,0.09627726674079895,-0.0479205958545208
1733359764108416800,4.624416748046875,0.012264745309948921,0.08579479902982712,-0.0503976009786129
1733359764118381800,4.6343818359375,0.011903875507414341,0.06749865412712097,-0.049156952649354935
1733359764128347600,4.64434765625,0.010104644112288952,0.058675069361925125,-0.04673587158322334
1733359764138312700,4.654312744140625,0.00916376058012247,0.05312473699450493,-0.04835788533091545
1733359764148278800,4.66427880859375,0.006685156840831041,0.05606966093182564,-0.050380557775497437
1733359764158243600,4.67424365234375,0.004042196087539196,0.059948794543743134,-0.04939952865242958
1733359764168209700,4.684209716796875,0.004646201152354479,0.05416520684957504,-0.04795875772833824
1733359764178174700,4.6941748046875,0.005178865976631641,0.044341813772916794,-0.044541966170072556
1733359764188140500,4.704140625,0.004325589165091515,0.021837837994098663,-0.03844758868217468
1733359764198105900,4.71410595703125,0.004900836385786533,-0.005885791964828968,-0.03292446583509445
1733359764208071700,4.72407177734375,0.006211644504219294,-0.023573175072669983,-0.025239381939172745
1733359764218037500,4.73403759765625,0.004554370418190956,-0.04802849143743515,-0.016174130141735077
1733359764228002800,4.7440029296875,0.00722765177488327,-0.07147815078496933,-0.007723121903836727
1733359764237968600,4.75396875,0.006984461098909378,-0.089806467294693,-0.004603302106261253
1733359764247933700,4.76393359375,0.004743677563965321,-0.09880475699901581,-0.004317544866353273
1733359764257899800,4.773899658203125,0.005669961217790842,-0.10169393569231033,-0.006133870221674442
1733359764267864800,4.78386474609375,0.00384569657035172,-0.10208781808614731,-0.004356210120022297
1733359764277830700,4.79383056640625,0.00571285467594862,-0.11040662229061127,-0.007515407633036375
1733359764287795700,4.803795654296875,0.009585623629391193,-0.12345424294471741,-0.011634785681962967
1733359764297761800,4.81376171875,0.011865013279020786,-0.1323242038488388,-0.011104004457592964
1733359764307726600,4.8237265625,0.01908697374165058,-0.1417909413576126,-0.009083730168640614
1733359764317692700,4.833692626953125,0.026372287422418594,-0.1516590118408203,-0.005932504311203957
1733359764327657700,4.84365771484375,0.03879726678133011,-0.17080660164356232,-0.0030989006627351046
1733359764337623600,4.85362353515625,0.052045147866010666,-0.18571874499320984,-0.0003606262616813183
1733359764347588900,4.8635888671875,0.060957685112953186,-0.19783878326416016,0.002202666364610195
1733359764357554700,4.8735546875,0.07146254181861877,-0.20928235352039337,0.004644759930670261
1733359764367519700,4.883519775390625,0.07475713640451431,-0.20683063566684723,0.00804162211716175
1733359764377485800,4.89348583984375,0.0763067975640297,-0.19884124398231506,0.011182337068021297
1733359764387451600,4.90345166015625,0.07387319952249527,-0.19139131903648376,0.011957316659390926
1733359764397417500,4.91341748046875,0.060610681772232056,-0.18932664394378662,0.012984467670321465
1733359764407383600,4.923383544921875,0.05141904950141907,-0.19284839928150177,0.007530846633017063
1733359764417348400,4.933348388671875,0.043108370155096054,-0.20306698977947235,0.00041570374742150307
1733359764427314400,4.943314453125,0.04231208562850952,-0.2240646928548813,-0.005259758792817593
1733359764437279500,4.953279541015625,0.04596304893493652,-0.2399568110704422,-0.00421811593696475
1733359764447245300,4.963245361328125,0.054879579693078995,-0.2438839226961136,-0.003861252684146166
1733359764457210600,4.973210693359375,0.06283550709486008,-0.23005311191082,-0.006354107521474361
1733359764467176400,4.983176513671875,0.06691306829452515,-0.22090594470500946,-0.0016813252586871386
1733359764477141500,4.9931416015625,0.07448894530534744,-0.2318834811449051,0.0017726897494867444
1733359764487107600,5.003107666015625,0.0884537622332573,-0.24069055914878845,0.004269669763743877
1733359764497072400,5.013072265625,0.11362277716398239,-0.2618929445743561,0.010332479141652584
1733359764507038500,5.02303857421875,0.1327277570962906,-0.28441476821899414,0.013362357392907143
1733359764517003500,5.03300341796875,0.14163731038570404,-0.2813251316547394,0.01046544499695301
1733359764526969300,5.04296923828125,0.1461297869682312,-0.26161664724349976,0.0016370657831430435
1733359764536935700,5.052935791015625,0.1570434868335724,-0.24866218864917755,0.006539735943078995
1733359764546900500,5.062900390625,0.15992316603660583,-0.2673908472061157,0.023223906755447388
1733359764556866300,5.0728662109375,0.150786891579628,-0.2924714982509613,0.022821156308054924
1733359764566831400,5.082831298828125,0.15874254703521729,-0.30562111735343933,0.021800098940730095
1733359764576797400,5.09279736328125,0.1473272293806076,-0.3111429214477539,0.02929709665477276
1733359764586762500,5.102762451171875,0.11582229286432266,-0.2846095860004425,0.02792716771364212
1733359764596728600,5.112728515625,0.08821220695972443,-0.23923909664154053,0.029325902462005615
1733359764606693600,5.122693603515625,0.06211509183049202,-0.21033474802970886,0.03396992385387421
1733359764616659500,5.132659423828125,0.05012661591172218,-0.21203148365020752,0.030829109251499176
1733359764626624300,5.142624267578125,0.03686780482530594,-0.23670487105846405,0.03812696784734726
1733359764636590600,5.152590576171875,0.01885603740811348,-0.25578829646110535,0.04852289706468582
1733359764646555400,5.162555419921875,0.005764203146100044,-0.24711892008781433,0.05373656749725342
1733359764656521500,5.172521484375,-0.010428091511130333,-0.20598402619361877,0.040558457374572754
1733359764666486500,5.182486572265625,-0.03214350715279579,-0.13950593769550323,0.019090985879302025
1733359764676452400,5.192452392578125,-0.045983970165252686,-0.06624194234609604,0.005919943563640118
1733359764686418400,5.20241845703125,-0.0666828602552414,-0.011029290035367012,0.0003842967562377453
1733359764696383500,5.212383544921875,-0.0757618173956871,0.017746295779943466,-0.007784317713230848
1733359764706349300,5.222349365234375,-0.08341840654611588,0.046389389783144,-0.023654093965888023
1733359764716314600,5.232314697265625,-0.08704720437526703,0.0655125305056572,-0.03055836446583271
1733359764726280400,5.242280517578125,-0.08743682503700256,0.08294771611690521,-0.032332830131053925
1733359764736245500,5.25224560546875,-0.0909181460738182,0.10009831935167313,-0.03274517133831978
1733359764746211600,5.262211669921875,-0.09128912538290024,0.12040651589632034,-0.031939033418893814
1733359764756176400,5.27217626953125,-0.08702484518289566,0.1446119248867035,-0.027399972081184387
1733359764766142500,5.282142578125,-0.08201198279857635,0.16749273240566254,-0.02633177861571312
1733359764776107500,5.292107421875,-0.08279313147068024,0.1903959959745407,-0.024731028825044632
1733359764786073300,5.3020732421875,-0.08364614099264145,0.20256264507770538,-0.02459227852523327
1733359764796038400,5.312038330078125,-0.08258374780416489,0.2036859691143036,-0.023001639172434807
1733359764806004500,5.32200439453125,-0.07322966307401657,0.1970650851726532,-0.028217440471053123
1733359764815970300,5.33197021484375,-0.057013995945453644,0.19327348470687866,-0.027655048295855522
1733359764825935400,5.341935302734375,-0.03875349834561348,0.19790339469909668,-0.027313364669680595
1733359764835901400,5.3519013671875,-0.02040933445096016,0.20089536905288696,-0.032841477543115616
1733359764845866500,5.361866455078125,-0.008408332243561745,0.20707976818084717,-0.03448784351348877
1733359764855832600,5.37183251953125,-0.0036738074850291014,0.21668879687786102,-0.043128278106451035
1733359764865797600,5.381797607421875,-0.0027717947959899902,0.21563498675823212,-0.04304758459329605
1733359764875763500,5.391763427734375,0.0004394857387524098,0.20215989649295807,-0.04211846739053726
1733359764885728300,5.401728271484375,0.0034962620120495558,0.17716506123542786,-0.0425187386572361
1733359764895694600,5.411694580078125,0.010342448018491268,0.13924197852611542,-0.03273654356598854
1733359764905659400,5.421659423828125,0.01586531102657318,0.09227234125137329,-0.02905871905386448
1733359764915625500,5.43162548828125,0.02342440001666546,0.050594866275787354,-0.021664416417479515
1733359764925590500,5.441590576171875,0.03258620575070381,0.028875455260276794,-0.015028617344796658
1733359764935556400,5.451556396484375,0.048533495515584946,0.020364753901958466,-0.01354272197932005
1733359764945522400,5.4615224609375,0.06398967653512955,0.02118127979338169,-0.015375776216387749
1733359764955487500,5.471487548828125,0.07401807606220245,0.027626249939203262,-0.019058389589190483
1733359764965453300,5.481453369140625,0.07759762555360794,0.03406630828976631,-0.026764245703816414
1733359764975418600,5.491418701171875,0.0775747150182724,0.03405176103115082,-0.028941361233592033
1733359764985384400,5.501384521484375,0.07627269625663757,0.009309128858149052,-0.02729872427880764
1733359764995349500,5.511349609375,0.07977447658777237,-0.030964873731136322,-0.022219134494662285
1733359765005315600,5.521315673828125,0.07875128835439682,-0.07000308483839035,-0.007547514513134956
1733359765015280400,5.5312802734375,0.08500707894563675,-0.10474090278148651,0.01158140879124403
1733359765025246500,5.54124658203125,0.09142769873142242,-0.13530279695987701,0.029624326154589653
1733359765035211500,5.55121142578125,0.09419954568147659,-0.15662747621536255,0.048443250358104706
1733359765045177300,5.56117724609375,0.08688224107027054,-0.16178733110427856,0.06062987446784973
1733359765055142400,5.571142333984375,0.06864330172538757,-0.15290766954421997,0.06754865497350693
1733359765065108500,5.5811083984375,0.049873337149620056,-0.141118124127388,0.06525247544050217
1733359765075074600,5.591074462890625,0.03158063814043999,-0.1330285221338272,0.06448319554328918
1733359765085039400,5.601039306640625,0.016397425904870033,-0.12091778963804245,0.05465799570083618
1733359765095005400,5.61100537109375,0.0010440072510391474,-0.10841725021600723,0.047490932047367096
1733359765104970500,5.620970458984375,-0.0064993966370821,-0.10586275160312653,0.04084155336022377
1733359765114936300,5.630936279296875,-0.01245801616460085,-0.10279309004545212,0.0331277921795845
1733359765124901600,5.640901611328125,-0.016682056710124016,-0.08805382251739502,0.024818994104862213
1733359765134867500,5.650867431640625,-0.01656724140048027,-0.07068213075399399,0.015311066061258316
1733359765144832300,5.660832275390625,-0.012380750849843025,-0.04974622651934624,0.009504841640591621
1733359765154798600,5.670798583984375,-0.007350307889282703,-0.03944426029920578,0.007512934040278196
1733359765164763400,5.680763427734375,-0.0037790092173963785,-0.034400761127471924,0.00782159436494112
1733359765174729500,5.6907294921875,-0.002509994897991419,-0.03108667954802513,0.008436760865151882
1733359765184694500,5.700694580078125,-0.00042953345109708607,-0.025879934430122375,0.009094561450183392
1733359765194660400,5.710660400390625,-0.002998452400788665,-0.021385470405220985,0.010219658724963665
1733359765204626700,5.720626708984375,-0.003862648271024227,-0.015538234263658524,0.013526505790650845
1733359765214591500,5.730591552734375,-0.008390503004193306,-0.012013874016702175,0.013829637318849564
1733359765224557300,5.740557373046875,-0.008640307001769543,-0.00909931119531393,0.011959832161664963
1733359765234522400,5.7505224609375,-0.01583007723093033,-0.0032255947589874268,0.005493855569511652
1733359765244488400,5.760488525390625,-0.026241440325975418,0.014343278482556343,-0.0031845872290432453
1733359765254453500,5.77045361328125,-0.04024054855108261,0.03593667596578598,-0.01183102186769247
1733359765264419600,5.780419677734375,-0.05460350960493088,0.06323940306901932,-0.02071133255958557
1733359765274384400,5.79038427734375,-0.06683386862277985,0.09043532609939575,-0.03128719702363014
1733359765284350500,5.8003505859375,-0.08185915648937225,0.11028013378381729,-0.03829983249306679
1733359765294315500,5.8103154296875,-0.08554819226264954,0.12214698642492294,-0.042018111795186996
1733359765304281600,5.820281494140625,-0.08880949765443802,0.1216425821185112,-0.03963165357708931
1733359765314247400,5.830247314453125,-0.08697374165058136,0.11531122028827667,-0.03841503709554672
1733359765324212500,5.84021240234375,-0.08597798645496368,0.1070713996887207,-0.03284503519535065
1733359765334178600,5.850178466796875,-0.0831603929400444,0.09636548161506653,-0.027816548943519592
1733359765344143400,5.860143310546875,-0.07735736668109894,0.09397129714488983,-0.02004704251885414
1733359765354109400,5.870109375,-0.06507167965173721,0.08992806077003479,-0.006800733506679535
1733359765364074500,5.880074462890625,-0.05297160893678665,0.08744439482688904,0.001506197964772582
1733359765374040300,5.890040283203125,-0.04905141890048981,0.09016445279121399,0.005552853457629681
1733359765384005600,5.900005615234375,-0.04829321801662445,0.10283417999744415,0.00814064685255289
1733359765393970400,5.909970458984375,-0.05023357272148132,0.11791285872459412,0.009275520220398903
1733359765403935700,5.919935791015625,-0.05532580241560936,0.12324264645576477,0.0106137590482831
1733359765413901600,5.929901611328125,-0.0625019371509552,0.13243719935417175,0.008586931973695755
1733359765423866600,5.93986669921875,-0.06787540018558502,0.14835330843925476,0.009055915288627148
1733359765433832700,5.949832763671875,-0.06685730814933777,0.16532588005065918,0.0077958921901881695
1733359765443798500,5.959798583984375,-0.06243219971656799,0.1685568243265152,0.00619080476462841
1733359765453763600,5.969763671875,-0.04690968617796898,0.154947429895401,0.014770426787436008
1733359765463729700,5.979729736328125,-0.02181605063378811,0.1316564977169037,0.027911528944969177
1733359765473694500,5.989694580078125,0.0004418391617946327,0.10442650318145752,0.03453389182686806
1733359765483660800,5.999660888671875,0.005430738907307386,0.07854164391756058,0.03661302104592323
1733359765493625600,6.00962548828125,0.007729604374617338,0.046239227056503296,0.04408222436904907
1733359765503591400,6.01959130859375,0.015744654461741447,0.026451144367456436,0.0510953925549984
1733359765513556500,6.029556396484375,0.024871554225683212,0.01185484416782856,0.05063069239258766
1733359765523522600,6.0395224609375,0.028863633051514626,0.013796554878354073,0.045480407774448395
1733359765533487600,6.049487548828125,0.027781037613749504,0.04138185828924179,0.031384989619255066
1733359765543453700,6.05945361328125,0.024163134396076202,0.08750008791685104,0.010915134102106094
1733359765553419500,6.06941943359375,0.0201561376452446,0.13801370561122894,-0.017048582434654236
1733359765563384600,6.079384521484375,0.014011957682669163,0.18981193006038666,-0.03818396478891373
1733359765573350700,6.0893505859375,0.010849732905626297,0.2162136733531952,-0.05356067046523094
1733359765583315700,6.099315673828125,0.009262488223612309,0.21926486492156982,-0.06219037249684334
1733359765593281500,6.109281494140625,0.009830037131905556,0.19761842489242554,-0.06512454897165298
1733359765603246600,6.11924658203125,0.01500402670353651,0.1569008231163025,-0.06530565023422241
1733359765613212700,6.129212646484375,0.02070474997162819,0.10460802167654037,-0.057584427297115326
1733359765623177500,6.139177490234375,0.028278248384594917,0.04874848946928978,-0.03733481466770172
1733359765633143600,6.1491435546875,0.036533281207084656,0.00005892757326364517,-0.014967500232160091
1733359765643108600,6.159108642578125,0.04318319261074066,-0.03876756131649017,0.006797448731958866
1733359765653074400,6.169074462890625,0.04229235649108887,-0.06493102014064789,0.01826450042426586
1733359765663040500,6.17904052734375,0.03654232621192932,-0.09028057754039764,0.022447526454925537
1733359765673005600,6.189005615234375,0.028448689728975296,-0.10569781064987183,0.022560209035873413
1733359765682971400,6.198971435546875,0.014381075277924538,-0.11546309292316437,0.021049663424491882
1733359765692936700,6.208936767578125,0.0007400636095553637,-0.12489855289459229,0.01689930260181427
1733359765702902500,6.218902587890625,-0.00574499974027276,-0.13527131080627441,0.018668707460165024
1733359765712867600,6.22886767578125,-0.013220725581049919,-0.14846044778823853,0.023360222578048706
1733359765722833700,6.238833740234375,-0.015439138747751713,-0.15980419516563416,0.031658366322517395
1733359765732798500,6.248798583984375,-0.01998119056224823,-0.18270093202590942,0.041083864867687225
1733359765742764500,6.2587646484375,-0.021570831537246704,-0.21155467629432678,0.04825709015130997
1733359765752730600,6.268730712890625,-0.019818663597106934,-0.24208292365074158,0.05240526422858238
1733359765762695400,6.2786953125,-0.015511266887187958,-0.2642609179019928,0.05551423877477646
1733359765772661800,6.288661865234375,-0.01397012546658516,-0.27579638361930847,0.06023060530424118
1733359765782626600,6.29862646484375,-0.010974335484206676,-0.2698748707771301,0.061885494738817215
1733359765792592600,6.308592529296875,-0.006148938089609146,-0.2513338327407837,0.05907570570707321
1733359765802557400,6.318557373046875,-0.003359277034178376,-0.2334674745798111,0.05538562685251236
1733359765812523500,6.3285234375,-0.0016599366208538413,-0.21473552286624908,0.04960819333791733
1733359765822488600,6.338488525390625,0.0002263803471578285,-0.18911752104759216,0.04457854852080345
1733359765832454700,6.34845458984375,0.0000873544777277857,-0.16956062614917755,0.03930123895406723
1733359765842419700,6.358419677734375,0.0013249254552647471,-0.14704997837543488,0.032353587448596954
1733359765852385500,6.368385498046875,0.004107129760086536,-0.12236940860748291,0.02967391535639763
1733359765862351600,6.3783515625,0.0015915079275146127,-0.09836873412132263,0.025129230692982674
1733359765872316700,6.388316650390625,0.0017363544320687652,-0.07058344781398773,0.016119927167892456
1733359765882282500,6.398282470703125,-0.0020852815359830856,-0.038729116320610046,0.009725676849484444
1733359765892247600,6.40824755859375,-0.0019971467554569244,-0.0029073115438222885,0.0015339463716372848
1733359765902213600,6.418213623046875,-0.000187528770766221,0.030997660011053085,-0.007000419311225414
1733359765912178400,6.428178466796875,-0.0018825812730938196,0.060483112931251526,-0.010672715492546558
1733359765922144800,6.438144775390625,-0.0029606290627270937,0.07774625718593597,-0.01956527680158615
1733359765932109600,6.448109619140625,-0.0022056340239942074,0.09834504127502441,-0.02773517370223999
1733359765942075400,6.458075439453125,-0.0018274651374667883,0.11087654531002045,-0.029940802603960037
1733359765952040700,6.468040771484375,0.0001659540575928986,0.110038623213768,-0.029131660237908363
1733359765962006500,6.478006591796875,0.0015840872656553984,0.10371841490268707,-0.030955659225583076
1733359765971972600,6.48797265625,0.000661261030472815,0.10129097104072571,-0.028059417381882668
1733359765981937700,6.497937744140625,-0.002105230698361993,0.09793538600206375,-0.023538701236248016
1733359765991903500,6.507903564453125,-0.0026064463891088963,0.08967956900596619,-0.022920036688447
1733359766001868500,6.51786865234375,-0.006622759625315666,0.07746417820453644,-0.020127713680267334
1733359766011834600,6.527834716796875,-0.01047714613378048,0.06932910531759262,-0.018813583999872208
1733359766021799700,6.537799560546875,-0.01198556087911129,0.06392981112003326,-0.015209795907139778
1733359766031765800,6.547765869140625,-0.012721939943730831,0.05550771951675415,-0.01573828049004078
1733359766041730600,6.55773046875,-0.011052138172090054,0.05000004172325134,-0.01501762866973877
1733359766051696600,6.567696533203125,-0.010612418875098228,0.0503227673470974,-0.011567276902496815
1733359766061661400,6.577661376953125,-0.007884543389081955,0.04703908786177635,-0.014174512587487698
1733359766071627500,6.58762744140625,-0.009054782800376415,0.046720780432224274,-0.013501336798071861
1733359766081593600,6.597593505859375,-0.009408184327185154,0.04291831701993942,-0.010732715018093586
1733359766091558700,6.60755859375,-0.01122311782091856,0.03233248367905617,-0.007176476996392012
1733359766101524500,6.6175244140625,-0.011572790332138538,0.020831357687711716,-0.0024568233639001846
1733359766111489500,6.627489501953125,-0.008995868265628815,0.01020087581127882,-0.0033694165758788586
1733359766121455600,6.63745556640625,-0.0067391060292720795,0.0013376092538237572,-0.0005368784768506885
1733359766131420700,6.647420654296875,-0.007855521515011787,-0.010279678739607334,0.0037441765889525414
1733359766141386500,6.657386474609375,-0.002838392276316881,-0.022111568599939346,0.008089123293757439
1733359766151351800,6.667351806640625,-0.0027952713426202536,-0.022877154871821404,0.010839665308594704
1733359766161317600,6.677317626953125,-0.002326555084437132,-0.025189844891428947,0.013839716091752052
1733359766171283500,6.687283447265625,-0.0038352154660969973,-0.028819214552640915,0.014052877202630043
1733359766181248800,6.697248779296875,-0.005935118068009615,-0.02993481233716011,0.01193246804177761
1733359766191214600,6.707214599609375,-0.00496412068605423,-0.028340354561805725,0.01444967556744814
1733359766201179400,6.717179443359375,-0.006995846517384052,-0.030371546745300293,0.013137269765138626
1733359766211145700,6.727145751953125,-0.007263500243425369,-0.029465090483427048,0.013610122725367546
1733359766221110500,6.737110595703125,-0.009500822052359581,-0.03514295071363449,0.015397636219859123
1733359766231076400,6.747076416015625,-0.010653968900442123,-0.04164724797010422,0.016040921211242676
1733359766241041700,6.757041748046875,-0.007911445572972298,-0.051508404314517975,0.015995647758245468
1733359766251007500,6.767007568359375,-0.005480227526277304,-0.06327100098133087,0.017658500000834465
1733359766260972500,6.77697265625,-0.004705247934907675,-0.060417164117097855,0.01924760825932026
1733359766270938600,6.786938720703125,-0.0027702355291694403,-0.05531638115644455,0.018693458288908005
1733359766280904400,6.796904541015625,-0.0018391943303868175,-0.052047621458768845,0.018036987632513046
1733359766290869500,6.806869384765625,-0.0013824396301060915,-0.04943300038576126,0.01513384748250246
1733359766300835600,6.816835693359375,-0.0028969794511795044,-0.046088337898254395,0.011871474795043468
1733359766310800600,6.826800537109375,-0.0013872220879420638,-0.04222545772790909,0.009700318798422813
1733359766320766700,6.8367666015625,-0.0008671067771501839,-0.04405079036951065,0.007131965830922127
1733359766330731500,6.8467314453125,-0.0008106499444693327,-0.0374937579035759,0.006484687328338623
1733359766340697600,6.856697509765625,-0.001174704055301845,-0.03196343779563904,0.009817900136113167
1733359766350662400,6.866662353515625,-0.000803443428594619,-0.02955557033419609,0.010028135031461716
1733359766360628500,6.87662841796875,-0.0012252881424501538,-0.02654007077217102,0.00879642367362976
1733359766370594600,6.886594482421875,-0.0011781752109527588,-0.023424571380019188,0.007617341820150614
1733359766380559600,6.8965595703125,-0.001661272719502449,-0.01193995401263237,0.004844991024583578
1733359766390525700,6.906525634765625,-0.0007052382570691407,-0.0006835469976067543,0.003797622164711356
1733359766400494300,6.916494384765625,-0.003196891862899065,0.006702464073896408,0.0020436642225831747
1733359766410460200,6.926460205078125,-0.004837121814489365,0.01589193195104599,0.002785473596304655
1733359766420425500,6.936425537109375,-0.007047279272228479,0.03118540160357952,0.004584438633173704
1733359766430391300,6.946391357421875,-0.010281683877110481,0.0443655326962471,0.006222010590136051
1733359766440356400,6.9563564453125,-0.016744907945394516,0.050531283020973206,0.006619620602577925
1733359766450322400,6.966322509765625,-0.02601325511932373,0.057776711881160736,0.004241831600666046
1733359766460287200,6.976287353515625,-0.03351271525025368,0.06528842449188232,-0.004999336786568165
1733359766470253300,6.98625341796875,-0.050469834357500076,0.08021503686904907,-0.015971193090081215
1733359766480219400,6.996219482421875,-0.051060792058706284,0.09125197678804398,-0.02063119225203991
1733359766490184200,7.00618408203125,-0.04593474417924881,0.10994323343038559,-0.021918293088674545
1733359766500150500,7.016150634765625,-0.04219060391187668,0.12135567516088486,-0.025809437036514282
1733359766510115300,7.026115234375,-0.03666853532195091,0.12562140822410583,-0.026256320998072624
1733359766520081400,7.036081298828125,-0.03490525856614113,0.11719302833080292,-0.029737338423728943
1733359766530046200,7.046046142578125,-0.03167244791984558,0.11633136123418808,-0.027857674285769463
1733359766540012300,7.05601220703125,-0.026161305606365204,0.11829117685556412,-0.02572528086602688
1733359766549977300,7.065977294921875,-0.01624179817736149,0.11299522966146469,-0.021512065082788467
1733359766559943400,7.075943359375,-0.0052711740136146545,0.10834481567144394,-0.017901351675391197
1733359766569909200,7.0859091796875,-0.0034890337847173214,0.10105302184820175,-0.01815389096736908
1733359766579874300,7.095874267578125,-0.0023625167086720467,0.08921980112791061,-0.019820231944322586
1733359766589840400,7.10584033203125,-0.0019898954778909683,0.08619216829538345,-0.02124880999326706
1733359766599805400,7.115805419921875,-0.0007563192630186677,0.08352314680814743,-0.02364938333630562
1733359766609771300,7.125771240234375,0.003278065240010619,0.08151348680257797,-0.029686054214835167
1733359766619736300,7.135736328125,0.004890076350420713,0.0812237337231636,-0.02945435792207718
1733359766629702400,7.145702392578125,0.0062219505198299885,0.06562966853380203,-0.02816142700612545
1733359766639667200,7.155667236328125,0.010657710954546928,0.03834904730319977,-0.025597335770726204
1733359766649633300,7.16563330078125,0.015394642017781734,0.0031727957539260387,-0.019103042781352997
1733359766659599400,7.175599365234375,0.01966954953968525,-0.04563788324594498,-0.018187979236245155
1733359766669564200,7.185564208984375,0.03091316483914852,-0.09031662344932556,-0.019138485193252563
1733359766679530500,7.195530517578125,0.0448090098798275,-0.15878091752529144,-0.010118890553712845
1733359766689495300,7.205495361328125,0.06959475576877594,-0.2410765141248703,0.005846521817147732
1733359766699461000,7.215461181640625,0.09572116285562515,-0.3148716390132904,0.02457493543624878
1733359766709426400,7.225426513671875,0.12823039293289185,-0.37400975823402405,0.0508699007332325
1733359766719392300,7.235392333984375,0.14719901978969574,-0.4133606255054474,0.07220475375652313
1733359766729357300,7.245357421875,0.1435621827840805,-0.4485020935535431,0.08925580978393555
1733359766739323400,7.255323486328125,0.12720665335655212,-0.46528106927871704,0.09074052423238754
1733359766749288400,7.265288330078125,0.0989752933382988,-0.4725624918937683,0.08769303560256958
1733359766759254300,7.275254150390625,0.07091676443815231,-0.48811376094818115,0.0847901925444603
1733359766769220400,7.285220458984375,0.05611705780029297,-0.511880099773407,0.0916261151432991
1733359766779185400,7.295185302734375,0.0490650050342083,-0.5556081533432007,0.10835102945566177
1733359766789151500,7.3051513671875,0.040042199194431305,-0.6125945448875427,0.12754137814044952
1733359766799116300,7.3151162109375,0.036547865718603134,-0.6671683192253113,0.1538398265838623
1733359766809082400,7.325082275390625,0.10721966624259949,-0.7483599185943604,0.20372481644153595
1733359766819047400,7.33504736328125,0.15943919122219086,-0.7980832457542419,0.24543043971061707
1733359766829013200,7.34501318359375,0.1429712325334549,-0.781238853931427,0.2517605721950531
1733359766838978300,7.354978271484375,0.09189420193433762,-0.7172380685806274,0.23894941806793213
1733359766848944400,7.3649443359375,0.031008262187242508,-0.6590091586112976,0.2337535321712494
1733359766858910200,7.37491015625,0.023281099274754524,-0.6026340126991272,0.2336624413728714
1733359766868875300,7.384875244140625,0.030924305319786072,-0.5722042322158813,0.23599359393119812
1733359766878841300,7.39484130859375,0.031223377212882042,-0.5631396174430847,0.2248368263244629
1733359766888806400,7.404806396484375,0.02535509690642357,-0.5058048367500305,0.19047458469867706
1733359766898772200,7.414772216796875,0.004091354552656412,-0.40545400977134705,0.14704562723636627
1733359766908737500,7.424737548828125,-0.007060059811919928,-0.30411383509635925,0.110020712018013
1733359766918703400,7.434703369140625,-0.0050355251878499985,-0.2064700871706009,0.09054794162511826
1733359766928668200,7.444668212890625,-0.016199754551053047,-0.12974892556667328,0.07641107589006424
1733359766938634500,7.454634521484375,-0.030676431953907013,-0.05526323616504669,0.04904097318649292
1733359766948600300,7.464600341796875,-0.03744005784392357,0.012396229431033134,0.010188913904130459
1733359766958565000,7.474565185546875,-0.0337718203663826,0.06926057487726212,-0.02708948217332363
1733359766968531500,7.484531494140625,-0.03771144896745682,0.1184612438082695,-0.05538954585790634
1733359766978496300,7.494496337890625,-0.038359396159648895,0.18932530283927917,-0.09115100651979446
1733359766988462300,7.50446240234375,-0.03438565507531166,0.273180216550827,-0.12882067263126373
1733359766998427400,7.514427490234375,-0.029636971652507782,0.34329938888549805,-0.16485244035720825
1733359767008393200,7.524393310546875,-0.021076267585158348,0.39552897214889526,-0.19220758974552155
1733359767018358300,7.534358154296875,-0.017948918044567108,0.43181878328323364,-0.21398718655109406
1733359767028324400,7.544324462890625,-0.022604113444685936,0.4720306396484375,-0.2251073718070984
1733359767038290200,7.554290283203125,-0.03653111308813095,0.5104515552520752,-0.2312030792236328
1733359767048255500,7.56425537109375,-0.04570624232292175,0.522074818611145,-0.2213985174894333
1733359767058221300,7.57422119140625,-0.06350015848875046,0.500404417514801,-0.20784889161586761
1733359767068186400,7.584186279296875,-0.07851293683052063,0.47951677441596985,-0.19057081639766693
1733359767078152400,7.59415234375,-0.08062642067670822,0.4700513780117035,-0.17135770618915558
1733359767088117200,7.6041171875,-0.06927362829446793,0.4455336630344391,-0.1514100879430771
1733359767098083300,7.614083251953125,-0.0702347680926323,0.41425377130508423,-0.12738251686096191
1733359767108048400,7.62404833984375,-0.07001081109046936,0.3861813247203827,-0.10575522482395172
1733359767118014200,7.63401416015625,-0.06437503546476364,0.35781359672546387,-0.08451811224222183
1733359767127980300,7.643980224609375,-0.051726292818784714,0.3261222243309021,-0.06858942657709122
1733359767137945300,7.6539453125,-0.03467567265033722,0.2905016243457794,-0.05555111914873123
1733359767147911400,7.663911376953125,-0.015971247106790543,0.25414422154426575,-0.04354849085211754
1733359767157876200,7.673876220703125,-0.006003035232424736,0.23013156652450562,-0.03500001132488251
1733359767167842300,7.68384228515625,-0.0005198889411985874,0.21744976937770844,-0.037156060338020325
1733359767177807400,7.693807373046875,-0.0025731860660016537,0.2093428373336792,-0.040347326546907425
1733359767187773200,7.703773193359375,-0.003392114769667387,0.19798196852207184,-0.03784993663430214
1733359767197738500,7.713738525390625,-0.001613922300748527,0.1853007972240448,-0.03979484364390373
1733359767207704300,7.723704345703125,-0.004620859399437904,0.16638199985027313,-0.037076737731695175
1733359767217670400,7.73367041015625,-0.0002242468181066215,0.140371173620224,-0.03680882602930069
1733359767227635500,7.743635498046875,0.0017238849541172385,0.11025962978601456,-0.032692547887563705
1733359767237601300,7.753601318359375,0.0033587997313588858,0.07620552182197571,-0.023350711911916733
1733359767247566300,7.76356640625,0.005757430102676153,0.034569911658763885,-0.010927097871899605
1733359767257532400,7.773532470703125,0.012302414514124393,-0.005758868530392647,-0.0020249492954462767
1733359767267497200,7.783497314453125,0.011466963216662407,-0.048600926995277405,0.007593078538775444
1733359767277463600,7.793463623046875,0.009159866720438004,-0.08482284098863602,0.019856136292219162
1733359767287428400,7.803428466796875,0.0050461264327168465,-0.11820250749588013,0.033280011266469955
1733359767297394200,7.813394287109375,-0.00045250222319737077,-0.139394611120224,0.04257470741868019
1733359767307360500,7.823360595703125,-0.0060209124349057674,-0.1618906855583191,0.0499587319791317
1733359767317325300,7.8333251953125,-0.007120797876268625,-0.18336695432662964,0.05351857841014862
1733359767327291100,7.843291015625,-0.009525050409138203,-0.19016572833061218,0.05473211780190468
1733359767337256400,7.85325634765625,-0.009817198850214481,-0.18488255143165588,0.05720299854874611
1733359767347222300,7.86322216796875,-0.010749852284789085,-0.18325847387313843,0.05453506112098694
1733359767357187300,7.873187255859375,-0.008500013500452042,-0.1762162744998932,0.050748310983181
1733359767367153400,7.8831533203125,-0.00585469976067543,-0.16435416042804718,0.04751230776309967
1733359767377118500,7.893118408203125,-0.004525782074779272,-0.15061119198799133,0.04280383884906769
1733359767387084300,7.903084228515625,-0.0040336367674171925,-0.12587717175483704,0.03367093950510025
1733359767397046800,7.913046875,0.00034513260470703244,-0.10067833214998245,0.028716394677758217
1733359767407011800,7.92301171875,0.002438896568492055,-0.08324331790208817,0.025971757248044014
1733359767416977700,7.932977783203125,0.002861273940652609,-0.07186895608901978,0.01614815555512905
1733359767426942700,7.942942626953125,0.004207714460790157,-0.05838765576481819,0.007574708200991154
1733359767436908800,7.95290869140625,0.004370700102299452,-0.04237300530076027,0.00010400882456451654
1733359767446873600,7.96287353515625,0.005884223151952028,-0.026117593050003052,-0.006644768640398979
1733359767456839700,7.972839599609375,0.009858458302915096,-0.00652738194912672,-0.008801396004855633
1733359767466804700,7.9828046875,0.011917883530259132,0.011926932260394096,-0.010813017375767231
1733359767476770600,7.9927705078125,0.011310416273772717,0.026167387142777443,-0.011272412724792957
1733359767486737000,8.00273681640625,0.014452722854912281,0.03865459933876991,-0.01452751737087965
1733359767496701700,8.01270166015625,0.014137138612568378,0.050341613590717316,-0.01695552095770836
1733359767506667500,8.02266748046875,0.011010815389454365,0.05894998088479042,-0.016299402341246605
1733359767516632800,8.0326328125,0.006270388141274452,0.06760339438915253,-0.017393961548805237
1733359767526598700,8.0425986328125,0.0031108297407627106,0.07293701171875,-0.02158619649708271
1733359767536563700,8.052563720703125,-0.0005792462034150958,0.07534264773130417,-0.026854727417230606
1733359767546529800,8.06252978515625,-0.0005411808378994465,0.0865531787276268,-0.02922731451690197
1733359767556494600,8.07249462890625,-0.0019252257188782096,0.09697812050580978,-0.028972184285521507
1733359767566460700,8.082460693359375,-0.0028671587351709604,0.10281823575496674,-0.026220107451081276
1733359767576425700,8.09242578125,-0.0012543484335765243,0.09773293137550354,-0.026776975020766258
1733359767586391800,8.102391845703124,-0.002857625251635909,0.08812889456748962,-0.026631232351064682
1733359767596358000,8.11235791015625,-0.0052595301531255245,0.08788814395666122,-0.026603002101182938
1733359767606322700,8.12232275390625,-0.0035433671437203884,0.0914527103304863,-0.02272333763539791
1733359767616288800,8.132288818359376,-0.001601656200364232,0.08802708983421326,-0.026781994849443436
1733359767626253600,8.142253662109376,-0.0028538922779262066,0.09131897240877151,-0.028411561623215675
1733359767636219600,8.1522197265625,-0.008040931075811386,0.08732582628726959,-0.030445415526628494
1733359767646184700,8.162184814453125,-0.007267009932547808,0.08174152672290802,-0.026476915925741196
1733359767656150800,8.17215087890625,-0.005036346148699522,0.07427322119474411,-0.020287463441491127
1733359767666116600,8.18211669921875,-0.005814761389046907,0.0636608749628067,-0.01376648060977459
1733359767676081700,8.19208154296875,-0.004118327517062426,0.04746006056666374,-0.008275842294096947
1733359767686047700,8.2020478515625,-0.0031475871801376343,0.037189893424510956,-0.00213168584741652
1733359767696012800,8.2120126953125,-0.0041361525654792786,0.03504498675465584,0.001134947407990694
1733359767705978600,8.221978515625,-0.004629665520042181,0.032171688973903656,0.004576721228659153
1733359767715944000,8.23194384765625,-0.004682928789407015,0.027911964803934097,0.0031479354947805405
1733359767725909800,8.24190966796875,-0.005615804810076952,0.019084662199020386,0.006737439427524805
1733359767735874600,8.25187451171875,-0.007097854278981686,0.002062002196907997,0.006381108425557613
1733359767745841000,8.2618408203125,-0.006103723309934139,-0.011114590801298618,0.00542426947504282
1733359767755806700,8.271806640625,-0.006778035778552294,-0.017870765179395676,0.006887676194310188
1733359767765771500,8.281771484375,-0.008273373357951641,-0.014878364279866219,0.010024579241871834
1733359767775737900,8.29173779296875,-0.006639790255576372,-0.01470286212861538,0.012902123853564262
1733359767785702700,8.30170263671875,-0.00781534519046545,-0.02246367558836937,0.012318406254053116
1733359767795668500,8.31166845703125,-0.006812399253249168,-0.023813366889953613,0.009377743117511272
1733359767805633800,8.3216337890625,-0.00632293289527297,-0.024132609367370605,0.011187123134732246
1733359767815599600,8.331599609375,-0.0008128523477353156,-0.034294433891773224,0.009287756867706776
1733359767825564700,8.341564697265625,0.000817552674561739,-0.04086919501423836,0.010022500529885292
1733359767835530800,8.35153076171875,0.0019845496863126755,-0.04373156279325485,0.009118889458477497
1733359767845496600,8.36149658203125,-0.00018514088878873736,-0.03607141226530075,0.009528234601020813
1733359767855461600,8.371461669921874,0.0007962340023368597,-0.027374064549803734,0.010373256169259548
1733359767865427700,8.381427734375,-0.00013852660777047276,-0.026123415678739548,0.01013915240764618
1733359767875392800,8.391392822265624,-0.0025292462669312954,-0.030871301889419556,0.008234193548560143
1733359767885358800,8.40135888671875,-0.002784611890092492,-0.03576091676950455,0.011019819416105747
1733359767895323600,8.41132373046875,-0.0035140516702085733,-0.04216475039720535,0.016152530908584595
1733359767905289700,8.421289794921876,-0.007120782509446144,-0.047429781407117844,0.015339082106947899
1733359767915254500,8.431254638671875,-0.005506640300154686,-0.0336252860724926,0.012889240868389606
1733359767925220600,8.441220703125,-0.009280335158109665,-0.014049842953681946,0.010831410065293312
1733359767935186700,8.451186767578125,-0.009478474035859108,0.005453284829854965,0.005439573898911476
1733359767945151700,8.46115185546875,-0.01341811753809452,0.015324542298913002,-0.0005616894923150539
1733359767955117800,8.471117919921875,-0.015214952640235424,0.01245179120451212,-0.001438668230548501
1733359767965082600,8.48108251953125,-0.008574597537517548,0.01020116824656725,-0.005076449830085039
1733359767975048700,8.491048583984375,-0.01569615676999092,0.0005607921630144119,-0.005146757699549198
1733359767985013800,8.501013671875,-0.012768042273819447,-0.013018087483942509,0.0037655506748706102
1733359767994979600,8.5109794921875,-0.011377339251339436,-0.02756347507238388,0.0048731593415141106
1733359768004945000,8.52094482421875,-0.004463498014956713,-0.03929254412651062,0.004936265293508768
1733359768014910700,8.53091064453125,-0.00023093598429113626,-0.04751318693161011,0.009060169570147991
1733359768024876500,8.54087646484375,0.0013904278166592121,-0.047148384153842926,0.012685757130384445
1733359768034841900,8.550841796875,0.0015574080171063542,-0.030814150348305702,0.01759156584739685
1733359768044807700,8.5608076171875,0.0016242489218711853,-0.013187100179493427,0.015481549315154552
1733359768054772700,8.570772705078125,0.001025570323690772,0.0016925130039453506,0.011133406311273575
1733359768064738800,8.58073876953125,-0.004724751692265272,0.012837175279855728,0.007081305608153343
1733359768074703600,8.59070361328125,-0.004637666512280703,0.02595723792910576,-0.00320435524918139
1733359768084670000,8.600669921875,-0.005549248773604631,0.03895910829305649,-0.0055921683087944984
1733359768094634800,8.610634765625,-0.006178020965307951,0.05435404181480408,-0.009615672752261162
1733359768104600600,8.6206005859375,-0.005560706835240126,0.06890733540058136,-0.01385075505822897
1733359768114567000,8.63056689453125,-0.005082935560494661,0.06898296624422073,-0.016425766050815582
1733359768124531700,8.64053173828125,0.004220770671963692,0.06698020547628403,-0.01672225072979927
1733359768134497500,8.65049755859375,0.006145436782389879,0.0683264285326004,-0.01551423966884613
1733359768144462800,8.660462890625,0.005910586565732956,0.06635807454586029,-0.014757952652871609
1733359768154428700,8.6704287109375,0.006524977739900351,0.06425496935844421,-0.018323659896850586
1733359768164393700,8.680393798828124,0.006384403444826603,0.07089367508888245,-0.02816941775381565
1733359768174359800,8.69035986328125,0.006260832771658897,0.0737304762005806,-0.03272955119609833
1733359768184324900,8.700324951171876,0.004463447257876396,0.08062934875488281,-0.03724304959177971
1733359768194290700,8.710290771484376,0.0029702128376811743,0.08525392413139343,-0.036135971546173096
1733359768204256800,8.7202568359375,-0.0004061832732986659,0.09653563052415848,-0.03767469525337219
1733359768214221800,8.730221923828125,-0.0026522933039814234,0.11077448725700378,-0.04251658916473389
1733359768224187600,8.740187744140625,-0.010148785077035427,0.12377229332923889,-0.04199545830488205
1733359768234152700,8.750152587890625,-0.012016193009912968,0.1175580695271492,-0.03188130632042885
1733359768244118800,8.760118896484375,-0.015258596278727055,0.08885437250137329,-0.02761039137840271
1733359768254083600,8.77008349609375,-0.015228768810629845,0.054402656853199005,-0.026093987748026848
1733359768264049700,8.780049560546875,-0.019075170159339905,0.025191981345415115,-0.021124398335814476
1733359768274014700,8.7900146484375,-0.02194206416606903,0.0012501617893576622,-0.010722624137997627
1733359768283980500,8.79998046875,-0.022246235981583595,-0.02384212054312229,-0.008091901428997517
1733359768293946600,8.809946533203124,-0.021700555458664894,-0.05716732144355774,-0.002016166690737009
1733359768303911700,8.81991162109375,-0.017302071675658226,-0.09034702181816101,0.008548451587557793
1733359768313877800,8.829877685546874,-0.01708821952342987,-0.12054754793643951,0.0143102016299963
1733359768323842800,8.8398427734375,-0.010414617136120796,-0.1453332155942917,0.012655062600970268
1733359768333808600,8.84980859375,-0.014485259540379047,-0.16005383431911469,0.011540263891220093
1733359768343773700,8.859773681640625,-0.013384252786636353,-0.16856415569782257,0.01508126500993967
1733359768353739800,8.86973974609375,-0.007958861067891121,-0.1617445945739746,0.020571105182170868
1733359768363704600,8.87970458984375,-0.004909575451165438,-0.15356804430484772,0.027618803083896637
1733359768373671000,8.8896708984375,-0.0021790361497551203,-0.15091900527477264,0.03167187049984932
1733359768383636700,8.89963671875,0.004669036716222763,-0.14797595143318176,0.03141658008098602
1733359768393601500,8.9096015625,0.004358512349426746,-0.1472608894109726,0.030902322381734848
1733359768403567900,8.91956787109375,0.006215784698724747,-0.14703597128391266,0.03248679265379906
1733359768413532700,8.92953271484375,0.011485381051898003,-0.13713087141513824,0.03459947928786278
1733359768423498800,8.939498779296875,0.01638028398156166,-0.128456249833107,0.031471844762563705
1733359768433463800,8.9494638671875,0.020687147974967957,-0.10957098007202148,0.0260818712413311
1733359768443430000,8.959429931640624,0.022338582202792168,-0.08198187500238419,0.02157113328576088
1733359768453395000,8.96939501953125,0.020680231973528862,-0.052848756313323975,0.020218247547745705
1733359768463360800,8.97936083984375,0.016792811453342438,-0.020291225984692574,0.0119645856320858
1733359768473326800,8.989326904296876,0.012345331721007824,0.014374874532222748,0.0012371059274300933
1733359768483292000,8.9992919921875,0.007422212511301041,0.041317809373140335,-0.0034753577783703804
1733359768493257700,9.0092578125,0.0023347758688032627,0.05802568048238754,-0.009535379707813263
1733359768503223000,9.01922314453125,-0.002006151946261525,0.07024466246366501,-0.01342615857720375
1733359768513188900,9.02918896484375,-0.004859196487814188,0.0778980553150177,-0.011236507445573807
1733359768523153700,9.039153564453125,-0.006951700430363417,0.07483246922492981,-0.011421788483858109
1733359768533120000,9.0491201171875,-0.011151239275932312,0.06775911152362823,-0.009820962324738503
1733359768543084800,9.059084716796875,-0.012405830435454845,0.05789037048816681,-0.007877018302679062
1733359768553051000,9.06905078125,-0.012562423944473267,0.04984762519598007,-0.007223212160170078
1733359768563017000,9.079016845703125,-0.005918349139392376,0.04119020700454712,-0.00781166460365057
1733359768572981800,9.088981689453124,-0.010446521453559399,0.037309981882572174,-0.011929444037377834
1733359768582947800,9.09894775390625,-0.013488668948411942,0.04082636907696724,-0.016164645552635193
1733359768592913000,9.108912841796876,-0.013011963106691837,0.047591064125299454,-0.018536724150180817
1733359768602878700,9.118878662109376,-0.0116750942543149,0.05323079973459244,-0.017828941345214844
1733359768612843800,9.12884375,-0.00978531502187252,0.055030301213264465,-0.021760832518339157
1733359768622809900,9.138809814453126,-0.008416184224188328,0.046057313680648804,-0.017702708020806313
1733359768632775000,9.14877490234375,-0.010406098328530788,0.036313340067863464,-0.012228844687342644
1733359768642740700,9.15874072265625,-0.005698672030121088,0.023432355374097824,-0.006704677827656269
1733359768652706800,9.168706787109375,-0.0012072508689016104,0.01396401971578598,-0.00884239748120308
1733359768662672000,9.178671875,-0.001490327063947916,0.011128868907690048,-0.0074599734507501125
1733359768672638000,9.188637939453125,-0.0014477164950221777,0.012268967926502228,-0.0042553916573524475
1733359768682603000,9.19860302734375,-0.000514799787197262,0.019080763682723045,-0.003681894624605775
1733359768692568800,9.20856884765625,-0.0007217273814603686,0.02066987194120884,-0.004294687882065773
1733359768702533600,9.21853369140625,0.0022159740328788757,0.018419016152620316,-0.008762633427977562
1733359768712500000,9.2285,0.0011267412919551134,0.009638573974370956,-0.00814584456384182
1733359768722464800,9.23846484375,0.002641289960592985,0.007332568056881428,-0.005644083023071289
1733359768732430800,9.248430908203124,0.003478853963315487,-0.004622096195816994,-0.0009380108676850796
1733359768742397000,9.25839697265625,0.0036564646288752556,-0.017156459391117096,0.00383733119815588
1733359768752361700,9.26836181640625,0.007286885753273964,-0.028100986033678055,0.005361991003155708
1733359768762327800,9.278327880859376,0.007196864578872919,-0.037641316652297974,0.008238079957664013
1733359768772292900,9.28829296875,0.009642977267503738,-0.047077424824237823,0.011993402615189552
1733359768782258700,9.2982587890625,0.005555873271077871,-0.05472468584775925,0.01311852689832449
1733359768792224000,9.30822412109375,0.004682090133428574,-0.05691167712211609,0.015950798988342285
1733359768802189800,9.31818994140625,-0.00015500228619202971,-0.052940551191568375,0.018188776448369026
1733359768812155000,9.32815478515625,-0.0032160396222025156,-0.04882144182920456,0.01862713322043419
1733359768822121000,9.338120849609375,-0.006186534184962511,-0.04678000509738922,0.01594586856663227
1733359768832086800,9.348086669921875,-0.008863809518516064,-0.03718171268701553,0.0135362409055233
1733359768842051800,9.3580517578125,-0.008179632015526295,-0.022784961387515068,0.010218593291938305
1733359768852018000,9.368017822265625,-0.006876814179122448,-0.01437576487660408,0.006315996870398521
1733359768861982700,9.377982666015624,-0.005752436351031065,-0.01503865048289299,0.0022962335497140884
1733359768871948800,9.38794873046875,-0.006961245555430651,-0.013752076774835587,0.000634420954156667
1733359768881913900,9.397913818359376,-0.00580598833039403,-0.010760742239654064,0.003747951239347458
1733359768891879700,9.407879638671876,-0.0030155284330248833,-0.014402349479496479,0.0033830981701612473
1733359768901844700,9.4178447265625,-0.0003526670625433326,-0.019917117431759834,0.003601386211812496
1733359768911810800,9.427810791015625,-0.0005864925915375352,-0.02187693677842617,0.003311900421977043
1733359768921777000,9.43777685546875,-0.00022558047203347087,-0.019206970930099487,0.0019853124395012856
1733359768931742000,9.447741943359375,0.0015808416064828634,-0.010157017037272453,0.0009682511445134878
1733359768941707800,9.457707763671875,0.000052959083404857665,-0.007969568483531475,-0.0005720870103687048
1733359768951672800,9.4676728515625,0.002804803429171443,-0.00417669489979744,-0.000033329473808407784
1733359768961639000,9.477638916015625,0.003421587171033025,-0.005371001549065113,-0.0019625178538262844
1733359768971604000,9.48760400390625,0.0032178552355617285,-0.005528927780687809,-0.004572415724396706
1733359768981569800,9.49756982421875,0.006320431362837553,-0.0019454630091786385,-0.002590349642559886
1733359768991534800,9.507534912109374,0.00420934334397316,0.006452548783272505,-0.004180256277322769
1733359769001501000,9.5175009765625,0.0016697822138667107,0.016917187720537186,-0.005433443933725357
1733359769011466800,9.527466796875,0.001260188058950007,0.023794002830982208,-0.009010336361825466
1733359769021431800,9.537431884765626,0.00116564123891294,0.030162543058395386,-0.010891586542129517
1733359769031398000,9.54739794921875,0.0007752217352390289,0.03446461260318756,-0.010197833180427551
1733359769041362700,9.55736279296875,0.00015043746680021286,0.03263892978429794,-0.011886135675013065
1733359769051329000,9.5673291015625,0.000766692915931344,0.024180997163057327,-0.0096522755920887
1733359769061293800,9.5772939453125,0.004598713479936123,0.012049292214214802,-0.009536558762192726
1733359769071259600,9.587259765625,0.007193431258201599,0.007800751365721226,-0.006249685771763325
1733359769081225000,9.597224853515625,0.007399877533316612,0.005422487854957581,-0.0047686356119811535
1733359769091190800,9.607190673828125,0.009263025596737862,0.010770914144814014,-0.006454682443290949
1733359769101156900,9.617156982421875,0.012454223819077015,0.014870268292725086,-0.006350998766720295
1733359769111122000,9.627121826171875,0.01679384335875511,0.014959750697016716,-0.008193906396627426
1733359769121087700,9.637087646484375,0.018368573859333992,0.011085855774581432,-0.009602322243154049
1733359769131052800,9.647052734375,0.021576352417469025,0.0022185947746038437,-0.006985499523580074
1733359769141019000,9.657018798828124,0.025350624695420265,-0.010511869564652443,-0.004790041595697403
1733359769150984000,9.66698388671875,0.026607636362314224,-0.012943070381879807,-0.0052057611756026745
1733359769160950000,9.676949951171874,0.024851834401488304,-0.013846426270902157,-0.007265609689056873
1733359769170914800,9.686914794921876,0.022466175258159637,-0.012814718298614025,-0.004859976004809141
1733359769180881000,9.696880859375,0.023067979142069817,-0.013289016671478748,-0.003348942846059799
1733359769190847000,9.706846923828126,0.021011486649513245,-0.020216964185237885,-0.0009885829640552402
1733359769200811800,9.716811767578125,0.02129170671105385,-0.026880105957388878,-0.0015701554948464036
1733359769210777900,9.72677783203125,0.02388828806579113,-0.029828758910298347,-0.0007680113194510341
1733359769220743000,9.736742919921875,0.023218747228384018,-0.021940667182207108,-0.0013967546401545405
1733359769230708700,9.746708740234375,0.021147074177861214,-0.013010555878281593,-0.0011442870600149035
1733359769240673800,9.756673828125,0.022181445732712746,-0.005336657166481018,-0.00038022606167942286
1733359769250640000,9.766639892578125,0.02196679636836052,-0.013253701850771904,0.005239842925220728
1733359769260605000,9.77660498046875,0.025015834718942642,-0.02427157759666443,0.00751140620559454
1733359769270570800,9.78657080078125,0.027334116399288177,-0.037372201681137085,0.011172986589372158
1733359769280536800,9.796536865234375,0.024216601625084877,-0.05087021365761757,0.015382400713860989
1733359769290502000,9.806501953125,0.021436261013150215,-0.058129191398620605,0.02467683143913746
1733359769300467700,9.8164677734375,0.022009147331118584,-0.06819463521242142,0.032599154859781265
1733359769310433000,9.82643310546875,0.016728099435567856,-0.06779009848833084,0.038734279572963715
1733359769320398800,9.83639892578125,0.00916767492890358,-0.04975663498044014,0.032432541251182556
1733359769330363600,9.84636376953125,-0.0033814061898738146,-0.01720934361219406,0.023935725912451744
1733359769340330000,9.856330078125,-0.013944609090685844,0.009252646937966347,0.017456838861107826
1733359769350294800,9.866294677734375,-0.012973354198038578,0.030599746853113174,0.0101126404479146
1733359769360260600,9.876260498046875,-0.014258035458624363,0.050213467329740524,-0.0010388490045443177
1733359769370227000,9.88622705078125,-0.016468726098537445,0.0672752782702446,-0.008823535405099392
1733359769380191700,9.896191650390625,-0.019462967291474342,0.08279990404844284,-0.015018784441053867
1733359769390157800,9.90615771484375,-0.020735159516334534,0.08764073252677917,-0.016048362478613853
1733359769400123000,9.916122802734375,-0.01675715297460556,0.08824145793914795,-0.01860704831779003
1733359769410089000,9.9260888671875,-0.012940576300024986,0.08735010027885437,-0.019642751663923264
1733359769420054000,9.936053955078124,-0.01008386816829443,0.08422290533781052,-0.019166629761457443
1733359769430019800,9.946019775390624,-0.006161831319332123,0.08115307986736298,-0.01721000485122204
1733359769439985200,9.955985107421874,-0.00578334042802453,0.07546864449977875,-0.018779875710606575
1733359769449951000,9.965950927734376,-0.006118366494774818,0.07837735116481781,-0.0174871776252985
1733359769459917000,9.9759169921875,-0.005850470159202814,0.07966067641973495,-0.0173763670027256
1733359769469882000,9.985882080078126,-0.006150075700134039,0.08186791092157364,-0.018888777121901512
1733359769479848000,9.995847900390626,-0.010225513018667698,0.08751945942640305,-0.020113695412874222
1733359769489812700,10.005812744140625,-0.010977056808769703,0.09405246376991272,-0.019289979711174965
1733359769499779000,10.015779052734375,-0.011683047749102116,0.09387180954217911,-0.019141657277941704
1733359769509743900,10.025743896484375,-0.010354130528867245,0.08560668677091599,-0.016974644735455513
1733359769519710000,10.0357099609375,-0.009771410375833511,0.07718868553638458,-0.01289590448141098
1733359769529675000,10.045675048828125,-0.007436084561049938,0.06417515128850937,-0.009568817913532257
1733359769539640800,10.055640869140625,-0.005939376540482044,0.05261087045073509,-0.007029109168797731
1733359769549607000,10.06560693359375,-0.0043595898896455765,0.04742010310292244,-0.0029547386802732944
1733359769559572000,10.075572021484374,-0.006114382296800613,0.04045450687408447,-0.002229513833299279
1733359769569537800,10.085537841796874,-0.006023834925144911,0.03350925073027611,-0.0031949097756296396
1733359769579503000,10.095503173828124,-0.0044213770888745785,0.02783634141087532,-0.002867251168936491
1733359769589469000,10.105468994140624,-0.004351069685071707,0.026122065261006355,0.0002979158889502287
1733359769599434000,10.11543408203125,-0.0038109805900603533,0.0186215378344059,-0.0029034698382019997
1733359769609400000,10.125400146484376,-0.0017419707728549838,0.00899873860180378,-0.0007580274250358343
1733359769619364900,10.13536474609375,-0.0012021437287330627,0.005833982955664396,-0.004508296959102154
1733359769629331000,10.1453310546875,-0.0027659519109874964,-0.003535018302500248,-0.003877393901348114
1733359769639296000,10.1552958984375,-0.0036544003523886204,-0.015708375722169876,-0.0006655980832874775
1733359769649261800,10.16526171875,0.0006508658407256007,-0.023519961163401604,0.002462284406647086
1733359769659228000,10.175227783203125,0.005404321942478418,-0.023868553340435028,0.0008392467861995101
1733359769669193000,10.18519287109375,0.01141480915248394,-0.022663474082946777,0.001660033012740314
1733359769679159000,10.195158935546875,0.011640363372862339,-0.02818484976887703,0.0025816396810114384
1733359769689123800,10.205123779296875,0.010728763416409492,-0.036235321313142776,0.0008380680810660124
1733359769699090000,10.21508984375,0.00981533620506525,-0.04086699336767197,-0.0010714640375226736
1733359769709055000,10.225054931640624,0.009327178820967674,-0.04328567534685135,-0.003615048946812749
1733359769719020800,10.235020751953124,0.0030964533798396587,-0.04699830338358879,-0.003614924382418394
1733359769728986000,10.244986083984376,-0.00014887467841617763,-0.051226068288087845,0.00317879905924201
1733359769738952000,10.254951904296876,-0.0003349933831486851,-0.06283709406852722,0.010188191197812557
1733359769748918000,10.26491796875,0.002644284861162305,-0.07592546194791794,0.014639931730926037
1733359769758883000,10.274883056640626,0.0016828249208629131,-0.08296261727809906,0.02372191846370697
1733359769768849000,10.284848876953125,-0.002142539480701089,-0.08783966302871704,0.03192871809005737
1733359769778814000,10.29481396484375,-0.005144720897078514,-0.09142960608005524,0.033134594559669495
1733359769788780000,10.304780029296875,-0.005911711137741804,-0.0814206525683403,0.030683688819408417
1733359769798744800,10.314744873046875,-0.008029444143176079,-0.06317064166069031,0.020360726863145828
1733359769808711200,10.324711181640625,-0.009682468138635159,-0.038783807307481766,0.014234391041100025
1733359769818676000,10.334676025390625,-0.0074361092410981655,-0.02112603187561035,0.01056191511452198
1733359769828641800,10.344641845703125,-0.007076050154864788,-0.002258334308862686,0.002454454079270363
1733359769838608100,10.354608154296875,-0.0016644707648083568,0.01644168049097061,-0.009422225877642632
1733359769848573000,10.364572998046874,0.00387197476811707,0.03508913516998291,-0.01595895364880562
1733359769858538800,10.374538818359374,0.003507124027237296,0.04442717880010605,-0.01544190477579832
1733359769868504000,10.384504150390624,0.0059875925071537495,0.04987441003322601,-0.013724965043365955
1733359769878470000,10.394469970703126,0.007596646901220083,0.051572367548942566,-0.012987500987946987
1733359769888435000,10.40443505859375,0.007679204922169447,0.05594687908887863,-0.010336589999496937
1733359769898401000,10.414401123046876,0.008388656191527843,0.0581718385219574,-0.01271357387304306
1733359769908366000,10.424365966796875,0.004868222866207361,0.06168454885482788,-0.011033652350306511
1733359769918332000,10.434331787109375,0.00120562466327101,0.070521779358387,-0.009394404478371143
1733359769928298000,10.444298095703125,-0.0009009357308968902,0.06888899207115173,-0.008631141856312752
1733359769938263000,10.454262939453125,-0.004624332766979933,0.06029316037893295,-0.009671598672866821
1733359769948229000,10.46422900390625,-0.009128270670771599,0.05431276559829712,-0.0061194743029773235
1733359769958194000,10.47419384765625,-0.010898159816861153,0.043903324753046036,-0.0037414664402604103
1733359769968160000,10.484159912109375,-0.014157602563500404,0.0330946184694767,-0.0017861734377220273
1733359769978124800,10.494124755859374,-0.01672094687819481,0.02662399783730507,-0.0012743795523419976
1733359769988091000,10.5040908203125,-0.017076212912797928,0.015708766877651215,0.002322219545021653
1733359769998056000,10.514055908203124,-0.01756115071475506,0.011583663523197174,-0.0012524403864517808
1733359770008022000,10.52402197265625,-0.013303021900355816,0.0068642757833004,-0.00025402125902473927
1733359770017987800,10.53398779296875,-0.008631864562630653,-0.0008943835273385048,-0.005021577700972557
1733359770027953000,10.543952880859376,-0.011329912580549717,-0.012195773422718048,-0.0021229928825050592
1733359770037919000,10.5539189453125,-0.00010759360156953335,-0.02246718481183052,0.006772599183022976
1733359770047884000,10.563884033203125,0.0022546302061527967,-0.026128500699996948,0.007549709640443325
1733359770057849900,10.573849853515625,0.002569695934653282,-0.040729112923145294,0.00988528411835432
1733359770067815200,10.583815185546875,0.0014919145032763481,-0.04640164598822594,0.008912164717912674
1733359770077781000,10.593781005859375,0.003043982433155179,-0.04937738925218582,0.012006254866719246
1733359770087745800,10.603745849609375,0.0023965679574757814,-0.05732079595327377,0.014080856926739216
1733359770097712000,10.613712158203125,-0.00018939966685138643,-0.06161491945385933,0.013628833927214146
1733359770107677000,10.623677001953125,-0.000052779516408918425,-0.06516864150762558,0.014514069072902203
1733359770117642800,10.633642822265625,0.0011853041360154748,-0.06549833714962006,0.012310727499425411
1733359770127609000,10.643609130859375,0.003818371333181858,-0.0653526559472084,0.013690244406461716
1733359770137574000,10.653573974609374,0.0037563845980912447,-0.06198124960064888,0.013915332965552807
1733359770147540000,10.6635400390625,0.0007131905877031386,-0.056161973625421524,0.013416256755590439
1733359770157505000,10.673505126953126,-0.00024341011885553598,-0.04701792448759079,0.014519995078444481
1733359770167470800,10.683470947265626,-0.00011184996401425451,-0.0426439493894577,0.015580199658870697
1733359770177436000,10.693435791015625,-0.0003086575889028609,-0.041521161794662476,0.01566195860505104
1733359770187402000,10.703402099609375,-0.0010178573429584503,-0.043016258627176285,0.014088030904531479
1733359770197367000,10.713366943359375,-0.0018051080405712128,-0.04092700034379959,0.013780593872070312
1733359770207332900,10.723332763671875,-0.003484231187030673,-0.03463847190141678,0.012889767065644264
1733359770217299000,10.733298828125,-0.0046839602291584015,-0.027915725484490395,0.011664015240967274
1733359770227264000,10.743263916015625,-0.003613103413954377,-0.01561138778924942,0.00814757775515318
1733359770237230000,10.75322998046875,-0.0032619063276797533,-0.00526913907378912,0.004846016876399517
1733359770247195000,10.76319482421875,-0.0021316607017070055,0.0033211535774171352,0.0005484741413965821
1733359770257161000,10.773160888671875,-0.00023356320161838084,0.007125386036932468,-0.0038277111016213894
1733359770267125800,10.783125732421874,-0.00036965071922168136,0.013311643153429031,-0.0037816385738551617
1733359770277092000,10.793092041015624,-0.0018921778537333012,0.018841637298464775,-0.004802564159035683
1733359770287057000,10.803056884765626,0.0006396893877536058,0.020702121779322624,-0.006772237829864025
1733359770297023000,10.81302294921875,-0.0013758201384916902,0.018431497737765312,-0.008568369783461094
1733359770306989000,10.822989013671876,-0.0002186766650993377,0.018574241548776627,-0.00836463738232851
1733359770316953900,10.832953857421876,-0.002362756058573723,0.021640826016664505,-0.007588367443531752
1733359770326920000,10.842919921875,-0.0019592870958149433,0.021401407197117805,-0.0062629119493067265
1733359770336885000,10.852885009765625,-0.00040585853275842965,0.020470716059207916,-0.0027490127831697464
1733359770346850800,10.862850830078125,-0.0003699058433994651,0.01706613041460514,-0.0029916269704699516
1733359770356816100,10.872816162109375,-0.0033769081346690655,0.010635855607688427,-0.0031377989798784256
1733359770366782000,10.882781982421875,-0.0013917877804487944,0.008224896155297756,0.0023917220532894135
1733359770376747000,10.8927470703125,-0.0021203970536589622,0.0036311610601842403,0.0037565515376627445
1733359770386713000,10.902713134765625,-0.0030580961611121893,0.0014553582295775414,-0.0006800087867304683
1733359770396679000,10.912678955078125,-0.00002157791459467262,0.007463933899998665,-0.007286222651600838
1733359770406643700,10.922643798828124,-0.000033295822504442185,0.01927798241376877,-0.010229548439383507
1733359770416609800,10.93260986328125,0.001654879655689001,0.02533700317144394,-0.008322589099407196
1733359770426574600,10.94257470703125,0.0005499341059476137,0.01974036917090416,-0.00913218967616558
1733359770436540700,10.952540771484376,0.0023696788121014833,0.005500798113644123,-0.008229520171880722
1733359770446505700,10.962505615234376,0.0017733970889821649,-0.010834499262273312,-0.005113621242344379
1733359770456471800,10.972471923828126,0.000669781060423702,-0.0277889221906662,-0.0015373927308246493
1733359770466436600,10.9824365234375,-0.0004990804009139538,-0.04169514775276184,0.0060587418265640736
1733359770476402700,10.992402587890625,-0.00048178795259445906,-0.0526847280561924,0.01146311778575182
1733359770486367700,11.00236767578125,-0.0018583758501335979,-0.05344932898879051,0.011601602658629417
1733359770496333600,11.01233349609375,0.0004804235650226474,-0.040386028587818146,0.008348669856786728
1733359770506299600,11.022299560546875,-0.000544360838830471,-0.02608298696577549,0.006739054806530476
1733359770516264700,11.0322646484375,-0.00029426527908071876,-0.011906047351658344,0.007067523431032896
1733359770526230800,11.042230712890625,-0.0019829757511615753,-0.0013061333447694778,0.006637156940996647
1733359770536195800,11.05219580078125,-0.0030325502157211304,-0.0007811505347490311,0.004852335434406996
1733359770546161700,11.06216162109375,-0.004419524222612381,-0.004072285257279873,0.00598870636895299
1733359770556126700,11.072126708984374,-0.0061149150133132935,-0.013106455095112324,0.009329671040177345
1733359770566092800,11.0820927734375,-0.004679737612605095,-0.024468831717967987,0.011130234226584435
1733359770576057600,11.0920576171875,-0.004250395577400923,-0.03250627592206001,0.011460413224995136
1733359770586023700,11.102023681640626,-0.00381976249627769,-0.032829318195581436,0.011460146866738796
1733359770595989800,11.11198974609375,-0.0015123839257284999,-0.031779926270246506,0.008763009682297707
1733359770605954600,11.12195458984375,-0.0006604386726394296,-0.021674826741218567,0.008417864330112934
1733359770615921000,11.1319208984375,0.002002968220040202,-0.0100732846185565,0.0026730531826615334
1733359770625885700,11.1418857421875,0.001464743516407907,-0.0022963210940361023,0.0018629195401445031
1733359770635851500,11.1518515625,0.0012758872471749783,-0.006168592721223831,-0.0023303113412111998
1733359770645816800,11.16181689453125,0.0015584486536681652,-0.009552672505378723,-0.000989676220342517
1733359770655782700,11.17178271484375,0.00021196319721639156,-0.014996414072811604,0.0014116846723482013
1733359770665747700,11.181747802734375,-0.0011595648247748613,-0.023461539298295975,0.0029677697457373142
1733359770675713800,11.1917138671875,0.0006088034715503454,-0.02063058689236641,0.00486510107293725
1733359770685679600,11.2016796875,-0.0019433037377893925,-0.018026281148195267,0.0032016905024647713
1733359770695644700,11.211644775390624,0.0001851081324275583,-0.01193972397595644,0.00465442705899477
1733359770705610800,11.22161083984375,-0.0028607493732124567,-0.00496144313365221,0.0014120286796241999
1733359770715575800,11.231575927734376,-0.001823188504204154,0.003538749646395445,-0.0034062867052853107
1733359770725541600,11.241541748046876,-0.0023214658722281456,0.017575472593307495,-0.002517589833587408
1733359770735506700,11.251506591796876,-0.002162426942959428,0.025410279631614685,-0.004165484569966793
1733359770745472800,11.26147265625,-0.0031613786704838276,0.02737222984433174,-0.006913866847753525
1733359770755437600,11.2714375,-0.002054461045190692,0.023712433874607086,-0.009441467002034187
1733359770765403600,11.281403564453125,-0.0032206594478338957,0.022099889814853668,-0.005960183218121529
1733359770775368700,11.29136865234375,-0.0014897007495164871,0.019309721887111664,-0.004130133893340826
1733359770785334800,11.301334716796875,-0.0005964766605757177,0.010215294547379017,-0.0018920133588835597
1733359770795300600,11.311300537109375,-0.0012879533460363746,-0.0002991845831274986,0.0012739106314256787
1733359770805265700,11.321265625,-0.0019774457905441523,-0.005777839571237564,0.0026528954040259123
1733359770815231700,11.331231689453125,-0.0015962437028065324,-0.004528900608420372,0.0032168286852538586
1733359770825196800,11.34119677734375,-0.00277309468947351,-0.0030809398740530014,0.002851975616067648
1733359770835162600,11.35116259765625,-0.0019477327587082982,-0.004745702259242535,0.004195617511868477
1733359770845128000,11.3611279296875,-0.0027365610003471375,-0.007116714492440224,0.002868297975510359
1733359770855093800,11.37109375,-0.0033020826522260904,-0.010656394064426422,0.003287716768682003
1733359770865058600,11.38105859375,-0.002112448448315263,-0.01407136581838131,0.0023566754534840584
1733359770875025000,11.39102490234375,-0.0017245738999918103,-0.01965474523603916,0.0026867713313549757
1733359770884990700,11.40099072265625,-0.00019219101523049176,-0.020082447677850723,0.004561370238661766
1733359770894955500,11.41095556640625,-0.0023633381351828575,-0.015476899221539497,0.0024239113554358482
1733359770904921900,11.420921875,-0.0018368310993537307,-0.013432389125227928,0.0015959346201270819
1733359770914886700,11.43088671875,-0.003476701444014907,-0.016734575852751732,0.005213737953454256
1733359770924852700,11.440852783203125,-0.0024164970964193344,-0.021876340731978416,0.0039029300678521395
1733359770934817800,11.45081787109375,-0.001980402274057269,-0.017534177750349045,0.006488854065537453
1733359770944783600,11.46078369140625,-0.0008070134790614247,-0.01278336439281702,0.005757816135883331
1733359770954748700,11.470748779296875,-0.00038317590951919556,-0.017897967249155045,0.004404930397868156
1733359770964714800,11.48071484375,-0.0011099525727331638,-0.02016245201230049,0.006973016541451216
1733359770974679800,11.4906796875,-0.0019218090455979109,-0.015716813504695892,0.004787082318216562
1733359770984645600,11.500645751953124,-0.0011292522540315986,-0.013399063609540462,0.006080046761780977
1733359770994611700,11.51061181640625,-0.0026388743426650763,-0.01835561729967594,0.006148762069642544
1733359771004576800,11.52057666015625,-0.0010207375744357705,-0.014641307294368744,0.006364744622260332
1733359771014542800,11.53054296875,-0.0015196644235402346,-0.00971648097038269,0.004783738404512405
1733359771024507600,11.540507568359375,-0.0010429585818201303,-0.003089204430580139,0.0013304174644872546
1733359771034473700,11.5504736328125,-0.0003663846291601658,0.008227609097957611,-0.002107977867126465
1733359771044438500,11.5604384765625,-0.0009059410076588392,0.01881607063114643,-0.002183878095820546
1733359771054404600,11.570404541015625,-0.0008128299959935248,0.022461041808128357,-0.0028451583348214626
1733359771064369700,11.58036962890625,-0.0014802181394770741,0.016869734972715378,-0.006095014046877623
1733359771074335700,11.590335693359375,-0.0001314499240834266,0.010567132383584976,-0.00569106824696064
1733359771084301800,11.6003017578125,0.002604149281978607,0.0033512976951897144,-0.004543245770037174
1733359771094266600,11.6102666015625,0.00261747557669878,-0.0036539025604724884,-0.0009637420298531651
1733359771104232700,11.620232666015625,0.0011266382643952966,-0.009956274181604385,0.005137826316058636
1733359771114197800,11.63019775390625,0.0017015888588503003,-0.011313989758491516,0.008390730246901512
1733359771124163600,11.64016357421875,0.0023279644083231688,-0.009686533361673355,0.005851672030985355
1733359771134129000,11.65012890625,0.0035609982442110777,-0.0023314272984862328,0.004513806197792292
1733359771144094700,11.6600947265625,0.0023825494572520256,-0.00315833929926157,0.005901845637708902
1733359771154059800,11.670059814453126,0.0008258866146206856,-0.007714327424764633,0.006752518005669117
1733359771164025900,11.68002587890625,0.0012349480530247092,-0.011090682819485664,0.006083532236516476
1733359771173990700,11.68999072265625,-0.0015246677212417126,-0.008888116106390953,0.003116339212283492
1733359771183956700,11.699956787109375,-0.003227492794394493,-0.0017345994710922241,0.0018627893878147006
1733359771193922800,11.7099228515625,-0.0047484878450632095,0.004947490058839321,-0.0005430872552096844
1733359771203887600,11.7198876953125,-0.005384450778365135,0.010677547194063663,0.001883318880572915
1733359771213853700,11.729853759765625,-0.004856379237025976,0.010588415898382664,0.0012309690937399864
1733359771223818800,11.73981884765625,-0.0027330408338457346,0.004141968674957752,0.003181468229740858
1733359771233784600,11.74978466796875,-0.001405456685461104,-0.005958748050034046,0.0018024892779067159
1733359771243749600,11.75974951171875,-0.0005705557414330542,-0.010585191659629345,0.0009010092471726239
1733359771253715700,11.7697158203125,0.004953435622155666,-0.00656316801905632,-0.0063931820914149284
1733359771263680800,11.7796806640625,-0.004053374752402306,-0.005393241532146931,-0.005724728107452393
1733359771273646600,11.789646484375,-0.0015209759585559368,0.005552354734390974,-0.001571730012074113
1733359771283612700,11.79961279296875,-0.0008394729811698198,0.007366766221821308,-0.003833020105957985
1733359771293577700,11.80957763671875,0.000007498107152059674,0.0005649188533425331,-0.002866458147764206
1733359771303543800,11.819543701171876,0.0007036484312266111,-0.00237308070063591,-0.0027732476592063904
1733359771313508900,11.8295087890625,0.00026952612097375095,-0.005219006910920143,-0.0012094042031094432
1733359771323474700,11.839474609375,0.0005781864747405052,-0.0049638766795396805,-0.0006927511421963573
1733359771333439700,11.849439697265625,-0.000836969877127558,-0.009617159143090248,0.0003880312433466315
