time,seconds_elapsed,z,y,x
1733358931091131400,0.03813134765625,0.2662866413593292,0.41498738527297974,-0.2565732002258301
1733358931101097500,0.048097412109375,0.26026657223701477,0.40781256556510925,-0.25091904401779175
1733358931111063600,0.0580634765625,0.2545139789581299,0.40301641821861267,-0.24702395498752594
1733358931121029600,0.068029541015625,0.2596091330051422,0.394805908203125,-0.24623432755470276
1733358931130995500,0.077995361328125,0.2674952447414398,0.381679505109787,-0.24690671265125275
1733358931140962600,0.087962646484375,0.275213360786438,0.37047478556632996,-0.251803457736969
1733358931150928400,0.097928466796875,0.279946506023407,0.3576575815677643,-0.2607947587966919
1733358931160894500,0.10789453125,0.28363287448883057,0.33814433217048645,-0.2712532579898834
1733358931170860500,0.117860595703125,0.28985825181007385,0.32343366742134094,-0.27685460448265076
1733358931180826400,0.127826416015625,0.30578872561454773,0.3173387348651886,-0.2743864059448242
1733358931190792400,0.13779248046875,0.31823939085006714,0.3067258894443512,-0.26514163613319397
1733358931200758500,0.147758544921875,0.3462979197502136,0.2863287329673767,-0.2597316801548004
1733358931210724600,0.157724609375,0.38856738805770874,0.2723187804222107,-0.25725245475769043
1733358931220690400,0.1676904296875,0.43674105405807495,0.27912846207618713,-0.2653961479663849
1733358931230656500,0.177656494140625,0.4825650155544281,0.2928813099861145,-0.2837895154953003
1733358931240622600,0.18762255859375,0.5166153907775879,0.3165706694126129,-0.3023717403411865
1733358931250588400,0.19758837890625,0.5415300130844116,0.36194464564323425,-0.32465463876724243
1733358931260555500,0.207555419921875,0.5591622591018677,0.40121322870254517,-0.3509107530117035
1733358931270521300,0.217521240234375,0.5841735005378723,0.42573511600494385,-0.37577515840530396
1733358931280487400,0.2274873046875,0.6198574304580688,0.44332659244537354,-0.4034501910209656
1733358931290453500,0.23745361328125,0.6610521674156189,0.44775691628456116,-0.43837323784828186
1733358931300419600,0.247419677734375,0.7171972393989563,0.4441603124141693,-0.4633598029613495
1733358931310385400,0.257385498046875,0.7811365127563477,0.46075186133384705,-0.48354312777519226
1733358931320351500,0.2673515625,0.8404800295829773,0.4912325441837311,-0.49708929657936096
1733358931330317600,0.277317626953125,0.8915607929229736,0.513215184211731,-0.506116509437561
1733358931340283400,0.287283447265625,0.9411858916282654,0.5427384376525879,-0.5124300718307495
1733358931350249500,0.29724951171875,0.9842337369918823,0.5716103911399841,-0.518546462059021
1733358931360215600,0.307215576171875,1.0225212574005127,0.597849428653717,-0.5308313965797424
1733358931370181600,0.317181640625,1.0601837635040283,0.6223799586296082,-0.5451523065567017
1733358931380147500,0.3271474609375,1.0885932445526123,0.6316525936126709,-0.5520983934402466
1733358931390114600,0.337114501953125,1.1189051866531372,0.6546547412872314,-0.5699308514595032
1733358931400080400,0.347080322265625,1.1387418508529663,0.662620484828949,-0.5820919275283813
1733358931410046500,0.35704638671875,1.1486084461212158,0.6807591319084167,-0.5934688448905945
1733358931420012500,0.367012451171875,1.157422423362732,0.6870364546775818,-0.6018543243408203
1733358931429978600,0.376978515625,1.173825979232788,0.6772167086601257,-0.6023961901664734
1733358931439944400,0.3869443359375,1.1967370510101318,0.685937225818634,-0.5891099572181702
1733358931449910500,0.39691064453125,1.2307379245758057,0.6769324541091919,-0.5695862770080566
1733358931459876600,0.406876708984375,1.2649768590927124,0.6618520021438599,-0.551990270614624
1733358931469842400,0.416842529296875,1.3007456064224243,0.6342605948448181,-0.5401607751846313
1733358931479808500,0.42680859375,1.3398957252502441,0.5985713005065918,-0.5096454620361328
1733358931489774600,0.436774658203125,1.37086820602417,0.5646327137947083,-0.4631090462207794
1733358931499740700,0.44674072265625,1.391095757484436,0.5103036761283875,-0.4182685911655426
1733358931509706500,0.45670654296875,1.4025951623916626,0.4241633713245392,-0.3597024083137512
1733358931519672300,0.46667236328125,1.3919199705123901,0.3644254505634308,-0.29955732822418213
1733358931529639400,0.476639404296875,1.3500896692276,0.31957751512527466,-0.23503567278385162
1733358931539605500,0.48660546875,1.286590337753296,0.3062065839767456,-0.1754189431667328
1733358931549571600,0.496571533203125,1.221758484840393,0.33450019359588623,-0.1529237926006317
1733358931559537400,0.506537353515625,1.1690505743026733,0.3995015621185303,-0.17157870531082153
1733358931569503500,0.51650341796875,1.1106898784637451,0.4556830823421478,-0.2064167857170105
1733358931579469600,0.526469482421875,1.0530167818069458,0.5175975561141968,-0.23161321878433228
1733358931589435600,0.536435546875,0.9938215017318726,0.5806214809417725,-0.23927271366119385
1733358931599401500,0.5464013671875,0.9268528819084167,0.6321094036102295,-0.2336832731962204
1733358931609367600,0.556367431640625,0.856000542640686,0.6681230068206787,-0.22884321212768555
1733358931619333600,0.566333740234375,0.7944487929344177,0.7096859216690063,-0.21726113557815552
1733358931629299500,0.576299560546875,0.741982638835907,0.7387543320655823,-0.20634056627750397
1733358931639265500,0.586265625,0.6763892769813538,0.7446526885032654,-0.18144480884075165
1733358931649231400,0.5962314453125,0.6046326160430908,0.7446274161338806,-0.16282452642917633
1733358931659201300,0.606201171875,0.5442659258842468,0.7034088373184204,-0.14015249907970428
1733358931669167400,0.61616748046875,0.4831419289112091,0.6384144425392151,-0.11490899324417114
1733358931679133400,0.626133544921875,0.39594656229019165,0.562279999256134,-0.07286087423563004
1733358931689099300,0.636099365234375,0.287677139043808,0.504233717918396,-0.0016435643192380667
1733358931699065000,0.646065185546875,0.17814770340919495,0.44312697649002075,0.08139006793498993
1733358931709031400,0.656031494140625,0.07408584654331207,0.3757428824901581,0.1539352983236313
1733358931718997200,0.665997314453125,-0.006111783906817436,0.31030476093292236,0.20300085842609406
1733358931728963300,0.67596337890625,-0.07150177657604218,0.22410953044891357,0.22800996899604797
1733358931738929200,0.68592919921875,-0.12761537730693817,0.10188055038452148,0.23720240592956543
1733358931748895500,0.6958955078125,-0.17640464007854462,-0.03761310875415802,0.2587769627571106
1733358931758861300,0.705861328125,-0.2071838527917862,-0.11787892878055573,0.27042511105537415
1733358931768827100,0.7158271484375,-0.22308717668056488,-0.11897256225347519,0.24125902354717255
1733358931778793200,0.725793212890625,-0.21624524891376495,-0.07036348432302475,0.17454205453395844
1733358931788759300,0.73575927734375,-0.19178040325641632,-0.01730574294924736,0.11601945012807846
1733358931798725400,0.745725341796875,-0.1572762280702591,0.01917077600955963,0.08703146874904633
1733358931808692200,0.755692138671875,-0.1131887435913086,0.03185812756419182,0.0866411030292511
1733358931818658300,0.765658203125,-0.059811804443597794,0.01946990191936493,0.10568884015083313
1733358931828624100,0.7756240234375,-0.0014817200135439634,0.002550660166889429,0.13726718723773956
1733358931838590500,0.785590576171875,0.05480498820543289,-0.009001599624752998,0.1712576299905777
1733358931848556300,0.795556396484375,0.10454840213060379,-0.016484033316373825,0.19595693051815033
1733358931858522400,0.8055224609375,0.14390406012535095,-0.012763862498104572,0.21711839735507965
1733358931868488200,0.81548828125,0.1723494678735733,-0.0023953625932335854,0.22843436896800995
1733358931878454300,0.825454345703125,0.17996850609779358,0.0019839396700263023,0.22291550040245056
1733358931888420400,0.83542041015625,0.1701933592557907,0.009959004819393158,0.21437595784664154
1733358931898386200,0.84538623046875,0.14701905846595764,0.024389609694480896,0.20364607870578766
1733358931908352300,0.855352294921875,0.11258499324321747,0.03543909639120102,0.19032269716262817
1733358931918318300,0.865318359375,0.07099094986915588,0.04380035400390625,0.1877836287021637
1733358931928284400,0.875284423828125,0.023247888311743736,0.05086393654346466,0.19327238202095032
1733358931938250200,0.885250244140625,-0.013229696080088615,0.056252043694257736,0.203643798828125
1733358931948216300,0.89521630859375,-0.046674977988004684,0.0631260797381401,0.21761170029640198
1733358931958182400,0.905182373046875,-0.07686936855316162,0.065057672560215,0.23250490427017212
1733358931968149200,0.915149169921875,-0.10577463358640671,0.059317536652088165,0.2369290590286255
1733358931978115300,0.925115234375,-0.139046311378479,0.05700138956308365,0.23177345097064972
1733358931988081200,0.9350810546875,-0.17422129213809967,0.03820578753948212,0.2285611629486084
1733358931998047200,0.945047119140625,-0.21177425980567932,0.00859330128878355,0.22859099507331848
1733358932008013300,0.955013427734375,-0.24989266693592072,-0.019941549748182297,0.2387845367193222
1733358932017979400,0.9649794921875,-0.2724371552467346,-0.044897764921188354,0.2553108036518097
1733358932027945200,0.9749453125,-0.2764224410057068,-0.05342838540673256,0.2651609480381012
1733358932037911300,0.984911376953125,-0.25918540358543396,-0.030040234327316284,0.2652677297592163
1733358932047877400,0.99487744140625,-0.23315177857875824,0.014842530712485313,0.254133939743042
1733358932057843200,1.00484326171875,-0.20706824958324432,0.06706631928682327,0.23806442320346832
1733358932067809300,1.014809326171875,-0.17264536023139954,0.10680784285068512,0.22349147498607635
1733358932077775400,1.024775390625,-0.13644741475582123,0.13559502363204956,0.19985273480415344
1733358932087741400,1.034741455078125,-0.09625975787639618,0.15471000969409943,0.174024760723114
1733358932097707300,1.044707275390625,-0.05823701247572899,0.1770499348640442,0.14338669180870056
1733358932107673300,1.05467333984375,-0.01695461943745613,0.20494097471237183,0.11155152320861816
1733358932117639400,1.064639404296875,0.01664062589406967,0.21685060858726501,0.07874244451522827
1733358932127605200,1.074605224609375,0.03145931661128998,0.19818291068077087,0.043031323701143265
1733358932137572400,1.084572265625,0.031490474939346313,0.15300823748111725,0.01567985862493515
1733358932147538200,1.0945380859375,0.02498774416744709,0.10978036373853683,-0.001244064886122942
1733358932157504300,1.104504150390625,0.011220265179872513,0.07821764796972275,-0.005471566691994667
1733358932167470300,1.11447021484375,-0.004799353890120983,0.05462095886468887,0.0022402172908186913
1733358932177436400,1.1244365234375,-0.018368424847722054,0.030574746429920197,0.013722702860832214
1733358932187402200,1.13440234375,-0.026153406128287315,0.002286575734615326,0.019502045586705208
1733358932197368300,1.144368408203125,-0.028987541794776917,-0.01574835181236267,0.01079563982784748
1733358932207334400,1.15433447265625,-0.027231955900788307,-0.023345932364463806,-0.011522016488015652
1733358932217300500,1.164300537109375,-0.02038363739848137,-0.030911173671483994,-0.03856748342514038
1733358932227266300,1.174266357421875,-0.01225535199046135,-0.05036675184965134,-0.03849055618047714
1733358932237232000,1.184232177734375,-0.005211823619902134,-0.07387048751115799,-0.0008062918204814196
1733358932247198500,1.194198486328125,0.002366466913372278,-0.09731197357177734,0.0524895042181015
1733358932257164300,1.204164306640625,0.003630136838182807,-0.11257720738649368,0.09146007150411606
1733358932267130400,1.21413037109375,-0.0070567955262959,-0.09605176746845245,0.10699988156557083
1733358932277096200,1.22409619140625,-0.019297482445836067,-0.06813651323318481,0.10683796554803848
1733358932287062500,1.2340625,-0.027998829260468483,-0.04327404499053955,0.09933104366064072
1733358932297028400,1.2440283203125,-0.029159966856241226,-0.03736848384141922,0.08614680171012878
1733358932306995500,1.253995361328125,-0.03191721811890602,-0.03759799897670746,0.07883141934871674
1733358932316961300,1.263961181640625,-0.03451007232069969,-0.03797456994652748,0.077438585460186
1733358932326927000,1.273927001953125,-0.037378109991550446,-0.04343141242861748,0.08642981946468353
1733358932336893400,1.2838935546875,-0.042306289076805115,-0.04433928430080414,0.09161792695522308
1733358932346859300,1.293859375,-0.046620503067970276,-0.0354381799697876,0.09352094680070877
1733358932356825300,1.303825439453125,-0.050882626324892044,-0.02895098552107811,0.0889056846499443
1733358932366791200,1.313791259765625,-0.054271697998046875,-0.024256985634565353,0.07724006474018097
1733358932376757500,1.323757568359375,-0.060480859130620956,-0.017944760620594025,0.06293968856334686
1733358932386723300,1.333723388671875,-0.06401057541370392,-0.010962564498186111,0.055624544620513916
1733358932396689400,1.343689453125,-0.06740370392799377,-0.006732931360602379,0.0536186508834362
1733358932406655200,1.3536552734375,-0.06850864738225937,-0.010521544143557549,0.058379050344228745
1733358932416621300,1.363621337890625,-0.06573523581027985,-0.021618138998746872,0.06703405827283859
1733358932426587400,1.37358740234375,-0.05913902446627617,-0.02879031002521515,0.07356179505586624
1733358932436553200,1.38355322265625,-0.052734389901161194,-0.03473581746220589,0.07239213585853577
1733358932446519300,1.393519287109375,-0.04807037115097046,-0.03637492284178734,0.06433606147766113
1733358932456485400,1.4034853515625,-0.04066251963376999,-0.030696794390678406,0.04777039960026741
1733358932466451500,1.413451416015625,-0.028719253838062286,-0.02649703621864319,0.029814450070261955
1733358932476417300,1.423417236328125,-0.017773661762475967,-0.026128452271223068,0.012047169730067253
1733358932486383000,1.433383056640625,-0.00200684298761189,-0.0229499489068985,0.0008839248330332339
1733358932496350200,1.44335009765625,0.009738496504724026,-0.02229773998260498,-0.006658945698291063
1733358932506316300,1.45331640625,0.015330508351325989,-0.02177255228161812,-0.00838740635663271
1733358932516282400,1.463282470703125,0.02112741209566593,-0.018928829580545425,-0.006927994545549154
1733358932526248200,1.473248291015625,0.02581123262643814,-0.02174844965338707,-0.002449123654514551
1733358932536214300,1.48321435546875,0.025735067203640938,-0.02703109383583069,0.00041670422069728374
1733358932546180400,1.493180419921875,0.024372421205043793,-0.035102084279060364,0.006698105484247208
1733358932556146400,1.503146484375,0.022212596610188484,-0.04007180780172348,0.008154056034982204
1733358932566112300,1.5131123046875,0.02068321220576763,-0.04455019533634186,0.010308288969099522
1733358932576078300,1.523078369140625,0.016481542959809303,-0.05009116232395172,0.010827071964740753
1733358932586044400,1.53304443359375,0.009034969843924046,-0.04923425614833832,0.013772154226899147
1733358932596010200,1.54301025390625,-0.0014051541220396757,-0.048489104956388474,0.01759219355881214
1733358932605976300,1.552976318359375,-0.00787598080933094,-0.04685592278838158,0.021430306136608124
1733358932615942100,1.562942138671875,-0.011441687121987343,-0.04352058097720146,0.027232535183429718
1733358932625908500,1.572908447265625,-0.01417093351483345,-0.037298742681741714,0.032063670456409454
1733358932635874300,1.582874267578125,-0.010504825972020626,-0.03179692104458809,0.03376782312989235
1733358932645840400,1.59284033203125,-0.006041864864528179,-0.02796805649995804,0.030068885535001755
1733358932655806200,1.60280615234375,0.0008064539870247245,-0.02877313271164894,0.026466961950063705
1733358932665769200,1.612769287109375,0.0059790718369185925,-0.024863451719284058,0.024031128734350204
1733358932675735300,1.6227353515625,0.007734627462923527,-0.023091919720172882,0.02557150274515152
1733358932685701000,1.632701171875,0.00925418734550476,-0.019607089459896088,0.03427841514348984
1733358932695668200,1.642668212890625,0.007350293453782797,-0.017310380935668945,0.04505995661020279
1733358932705634000,1.652634033203125,0.004513376392424107,-0.013239456340670586,0.0547310933470726
1733358932715600100,1.66260009765625,0.0010555279441177845,-0.013216020539402962,0.06269607692956924
1733358932725566200,1.672566162109375,-0.00408155145123601,-0.01410854235291481,0.06973470002412796
1733358932735532000,1.682531982421875,-0.008835827000439167,-0.013341551646590233,0.0728151798248291
1733358932745498000,1.692498046875,-0.013280254788696766,-0.018074920400977135,0.08034949004650116
1733358932755464200,1.702464111328125,-0.01579481177031994,-0.024051588028669357,0.08312823623418808
1733358932765430300,1.71243017578125,-0.017849108204245567,-0.028523728251457214,0.08977405726909637
1733358932775396000,1.72239599609375,-0.022044120356440544,-0.03554941341280937,0.0954441949725151
1733358932785362200,1.732362060546875,-0.02504812553524971,-0.03797803074121475,0.10004056245088577
1733358932795328300,1.742328369140625,-0.028569357469677925,-0.04318131506443024,0.09842243045568466
1733358932805294000,1.752294189453125,-0.03170669451355934,-0.04788542911410332,0.09113513678312302
1733358932815260200,1.76226025390625,-0.03880508244037628,-0.04712003469467163,0.077107734978199
1733358932825226000,1.77222607421875,-0.04494369775056839,-0.04553525894880295,0.059279218316078186
1733358932835192300,1.7821923828125,-0.05157576501369476,-0.04277142882347107,0.039288997650146484
1733358932845158100,1.792158203125,-0.05728529021143913,-0.03743944317102432,0.02339816465973854
1733358932855124200,1.802124267578125,-0.061696283519268036,-0.03538161888718605,0.01090527605265379
1733358932865090000,1.812090087890625,-0.0676892101764679,-0.03492112457752228,-0.0008501254487782717
1733358932875056000,1.82205615234375,-0.07845397293567657,-0.03964850306510925,-0.009274236857891083
1733358932885022200,1.832022216796875,-0.09451273828744888,-0.04775011166930199,-0.012856651097536087
1733358932894988000,1.841988037109375,-0.11090929061174393,-0.053385891020298004,-0.015295573510229588
1733358932904954000,1.8519541015625,-0.12975619733333588,-0.05335519462823868,-0.017824262380599976
1733358932914921000,1.8619208984375,-0.14905452728271484,-0.047735393047332764,-0.0218815878033638
1733358932924887300,1.87188720703125,-0.16780637204647064,-0.043850142508745193,-0.02027982287108898
1733358932934853000,1.88185302734375,-0.18947544693946838,-0.049035850912332535,-0.018060076981782913
1733358932944819200,1.891819091796875,-0.20835252106189728,-0.06016530841588974,-0.014146935194730759
1733358932954785000,1.901784912109375,-0.21476860344409943,-0.076320581138134,-0.013117888942360878
1733358932964751400,1.91175146484375,-0.21879267692565918,-0.08967158198356628,-0.011747888289391994
1733358932974717200,1.92171728515625,-0.2266647070646286,-0.09690685570240021,-0.01590028777718544
1733358932984683000,1.93168310546875,-0.2213517725467682,-0.11500564962625504,-0.025983495637774467
1733358932994649000,1.941649169921875,-0.22008225321769714,-0.13127490878105164,-0.03549657389521599
1733358933004615200,1.951615234375,-0.2131870537996292,-0.14294856786727905,-0.04529315233230591
1733358933014581200,1.961581298828125,-0.21063494682312012,-0.15491122007369995,-0.05530557408928871
1733358933024547000,1.971547119140625,-0.20688897371292114,-0.16093356907367706,-0.06398177891969681
1733358933034513200,1.98151318359375,-0.20349903404712677,-0.16520127654075623,-0.07167964428663254
1733358933044479200,1.991479248046875,-0.20555487275123596,-0.16375192999839783,-0.07773668318986893
1733358933054445000,2.001445068359375,-0.203368678689003,-0.1683536022901535,-0.07863283902406693
1733358933064411100,2.0114111328125,-0.19977229833602905,-0.17954452335834503,-0.08180825412273407
1733358933074377000,2.021376953125,-0.18824294209480286,-0.19075776636600494,-0.0831984207034111
1733358933084343300,2.03134326171875,-0.17231644690036774,-0.19021132588386536,-0.08645106852054596
1733358933094309000,2.04130908203125,-0.15273448824882507,-0.18766188621520996,-0.08696585893630981
1733358933104275200,2.051275146484375,-0.1319102793931961,-0.18496552109718323,-0.09297404438257217
1733358933114241000,2.061240966796875,-0.1130034327507019,-0.18837915360927582,-0.09560977667570114
1733358933124207000,2.07120703125,-0.09401655197143555,-0.19529758393764496,-0.09554006159305573
1733358933134173200,2.081173095703125,-0.07790789008140564,-0.19940604269504547,-0.09464018046855927
1733358933144140300,2.091140380859375,-0.06757496297359467,-0.2056741863489151,-0.09300609678030014
1733358933154106000,2.101106201171875,-0.06033942103385925,-0.21216218173503876,-0.09355470538139343
1733358933164072000,2.111072021484375,-0.0572013184428215,-0.21927466988563538,-0.09890613704919815
1733358933174038300,2.121038330078125,-0.06514259427785873,-0.23084530234336853,-0.11372343450784683
1733358933184004000,2.131004150390625,-0.07885880023241043,-0.24371302127838135,-0.1361301690340042
1733358933193970200,2.14097021484375,-0.09607347100973129,-0.261366069316864,-0.16174152493476868
1733358933203936000,2.15093603515625,-0.12896455824375153,-0.2736292779445648,-0.19552874565124512
1733358933213902300,2.16090234375,-0.16263356804847717,-0.27280980348587036,-0.23117674887180328
1733358933223868200,2.1708681640625,-0.19502952694892883,-0.26121819019317627,-0.2611384391784668
1733358933233834000,2.180833984375,-0.21820062398910522,-0.23803803324699402,-0.2883434295654297
1733358933243800000,2.190800048828125,-0.23803333938121796,-0.211409330368042,-0.3139178454875946
1733358933253766100,2.20076611328125,-0.2536082863807678,-0.19882003962993622,-0.3459540605545044
1733358933263732200,2.210732177734375,-0.26664096117019653,-0.1982574313879013,-0.3755865693092346
1733358933273698000,2.220697998046875,-0.2750512361526489,-0.21162649989128113,-0.39950281381607056
1733358933283664100,2.2306640625,-0.2776278555393219,-0.22890415787696838,-0.4112754762172699
1733358933293630200,2.240630126953125,-0.2747577726840973,-0.23940446972846985,-0.4198561906814575
1733358933303596000,2.250595947265625,-0.26511624455451965,-0.2531373202800751,-0.434131383895874
1733358933313562000,2.26056201171875,-0.2530902028083801,-0.2677268981933594,-0.45438340306282043
1733358933323528000,2.27052783203125,-0.2343100607395172,-0.2856108248233795,-0.4766447842121124
1733358933333494300,2.280494384765625,-0.21434859931468964,-0.2976198196411133,-0.49682193994522095
1733358933343460000,2.290460205078125,-0.188908189535141,-0.3171801269054413,-0.515525221824646
1733358933353426200,2.30042626953125,-0.16755416989326477,-0.349555104970932,-0.5361340641975403
1733358933363392000,2.31039208984375,-0.14725887775421143,-0.40553510189056396,-0.5495600700378418
1733358933373358300,2.3203583984375,-0.12418418377637863,-0.4725836515426636,-0.5460614562034607
1733358933383324200,2.33032421875,-0.10058140009641647,-0.5444826483726501,-0.5271281003952026
1733358933393290000,2.3402900390625,-0.07799619436264038,-0.6301512122154236,-0.4958237111568451
1733358933403256000,2.350256103515625,-0.05052116513252258,-0.7147213220596313,-0.4538247883319855
1733358933413223000,2.360222900390625,-0.02619665302336216,-0.7963873744010925,-0.4115745425224304
1733358933423189200,2.370189208984375,-0.004623520188033581,-0.8788893222808838,-0.3677929937839508
1733358933433155000,2.380155029296875,0.011161301285028458,-0.9468284249305725,-0.31656309962272644
1733358933443121200,2.39012109375,0.02551741525530815,-0.9881479740142822,-0.25644442439079285
1733358933453087000,2.4000869140625,0.03339850902557373,-0.9960642457008362,-0.1954822540283203
1733358933463053300,2.41005322265625,0.031290486454963684,-0.9726386070251465,-0.13639861345291138
1733358933473019100,2.42001904296875,0.020937448367476463,-0.9171873331069946,-0.08554262667894363
1733358933482985000,2.42998486328125,0.011720960959792137,-0.83831787109375,-0.037653520703315735
1733358933492951000,2.439950927734375,-0.00039535664836876094,-0.7555582523345947,0.0065903733484447
1733358933502917000,2.449917236328125,-0.004246253054589033,-0.6746680736541748,0.05103229358792305
1733358933512883200,2.45988330078125,-0.019306162372231483,-0.5955072045326233,0.09546447545289993
1733358933522849000,2.46984912109375,-0.04384097829461098,-0.5202137231826782,0.12965607643127441
1733358933532815000,2.479815185546875,-0.0945984274148941,-0.44392913579940796,0.1519073098897934
1733358933542781200,2.48978125,-0.15801368653774261,-0.3718189001083374,0.16832268238067627
1733358933552747300,2.499747314453125,-0.22017373144626617,-0.30764177441596985,0.19572687149047852
1733358933562713000,2.509713134765625,-0.27789029479026794,-0.25552621483802795,0.22306233644485474
1733358933572679200,2.51967919921875,-0.32520347833633423,-0.1966591626405716,0.25264471769332886
1733358933582645200,2.529645263671875,-0.35736697912216187,-0.1355770230293274,0.27360671758651733
1733358933592611000,2.539611083984375,-0.3742029368877411,-0.0738031417131424,0.28634166717529297
1733358933602577200,2.5495771484375,-0.3910735249519348,-0.011931988410651684,0.2882009744644165
1733358933612543200,2.559543212890625,-0.4058609902858734,0.04281194880604744,0.2899767756462097
1733358933622509300,2.56950927734375,-0.42138537764549255,0.09823708981275558,0.2923141121864319
1733358933632475100,2.57947509765625,-0.4401039481163025,0.15338264405727386,0.2931106686592102
1733358933642441000,2.58944091796875,-0.46088799834251404,0.20139718055725098,0.2954750061035156
1733358933652407300,2.5994072265625,-0.4796435534954071,0.24491694569587708,0.3051912784576416
1733358933662373400,2.609373291015625,-0.4923049509525299,0.28493598103523254,0.31864792108535767
1733358933672339500,2.61933935546875,-0.4910825788974762,0.30134931206703186,0.3328534662723541
1733358933682305300,2.62930517578125,-0.48632344603538513,0.3066784739494324,0.3467395603656769
1733358933692271400,2.639271240234375,-0.47578051686286926,0.29790547490119934,0.35473009943962097
1733358933702237400,2.649237548828125,-0.46483418345451355,0.2829239070415497,0.3489314019680023
1733358933712203500,2.65920361328125,-0.4496363401412964,0.24598373472690582,0.3322163224220276
1733358933722170400,2.66917041015625,-0.43706730008125305,0.1983535885810852,0.3033464550971985
1733358933732136400,2.679136474609375,-0.41620808839797974,0.15176399052143097,0.2738626003265381
1733358933742102300,2.689102294921875,-0.38967040181159973,0.1016339659690857,0.2416386902332306
1733358933752068400,2.699068359375,-0.35724586248397827,0.05533251911401749,0.20954839885234833
1733358933762034400,2.709034423828125,-0.3151286244392395,0.0027344906702637672,0.1775302290916443
1733358933772000300,2.719000244140625,-0.26463401317596436,-0.043168019503355026,0.15096360445022583
1733358933781966300,2.72896630859375,-0.2167055457830429,-0.09015381336212158,0.13902795314788818
1733358933791932400,2.738932373046875,-0.16619551181793213,-0.1394350677728653,0.14271962642669678
1733358933801898500,2.7488984375,-0.11992953717708588,-0.18212734162807465,0.16406983137130737
1733358933811864300,2.7588642578125,-0.06143026798963547,-0.2307175099849701,0.19169986248016357
1733358933821830400,2.768830322265625,0.00109200575388968,-0.27428221702575684,0.22669093310832977
1733358933831796500,2.77879638671875,0.06466352939605713,-0.30083873867988586,0.25440430641174316
1733358933841762300,2.78876220703125,0.12315097451210022,-0.3065115809440613,0.2732861638069153
1733358933851728400,2.798728271484375,0.1755681037902832,-0.29382720589637756,0.2793022394180298
1733358933861694200,2.808694091796875,0.21669046580791473,-0.2577371895313263,0.27653220295906067
1733358933871660500,2.81866064453125,0.2536631226539612,-0.20822395384311676,0.2696751058101654
1733358933881626400,2.82862646484375,0.28762945532798767,-0.16403624415397644,0.2638155519962311
1733358933891592400,2.838592529296875,0.31397557258605957,-0.1260387897491455,0.25989431142807007
1733358933901558300,2.848558349609375,0.3277306854724884,-0.09661697596311569,0.2520994544029236
1733358933911524400,2.8585244140625,0.32809263467788696,-0.07673408091068268,0.24412140250205994
1733358933921490400,2.868490478515625,0.30298590660095215,-0.03807707875967026,0.2255297601222992
1733358933931456300,2.878456298828125,0.27034807205200195,0.018273547291755676,0.1905163824558258
1733358933941422300,2.88842236328125,0.24223081767559052,0.08593663573265076,0.14166344702243805
1733358933951388400,2.898388427734375,0.2338024526834488,0.1591954082250595,0.07573156803846359
1733358933961354500,2.9083544921875,0.23424361646175385,0.23107026517391205,0.0006688145222142339
1733358933971320300,2.9183203125,0.23911240696907043,0.3068545162677765,-0.08194909989833832
1733358933981286400,2.928286376953125,0.24163979291915894,0.3753593862056732,-0.1605689823627472
1733358933991252500,2.93825244140625,0.24637888371944427,0.44327184557914734,-0.22930435836315155
1733358934001218300,2.94821826171875,0.2566433250904083,0.5072959065437317,-0.2808879613876343
1733358934011184400,2.958184326171875,0.2684161067008972,0.5773423314094543,-0.3211405575275421
1733358934021150500,2.968150390625,0.2830626964569092,0.6431941390037537,-0.35747578740119934
1733358934031116500,2.978116455078125,0.3030606210231781,0.7030166983604431,-0.3936809301376343
1733358934041082400,2.988082275390625,0.3232365846633911,0.7512598037719727,-0.4239451587200165
1733358934051048200,2.998048095703125,0.33947518467903137,0.7866942286491394,-0.44609811902046204
1733358934061014500,3.0080146484375,0.35414567589759827,0.8089351654052734,-0.45384055376052856
1733358934070980400,3.01798046875,0.37001174688339233,0.8184972405433655,-0.44346940517425537
1733358934080946400,3.027946533203125,0.3762933909893036,0.8156856298446655,-0.41216251254081726
1733358934090912300,3.037912353515625,0.3747437000274658,0.7922322750091553,-0.367421954870224
1733358934100878600,3.047878662109375,0.3629471957683563,0.7573094367980957,-0.31269174814224243
1733358934110844400,3.057844482421875,0.3405092656612396,0.7133214473724365,-0.25890547037124634
1733358934120810200,3.067810302734375,0.30977699160575867,0.667068600654602,-0.20741355419158936
1733358934130776300,3.0777763671875,0.27343761920928955,0.6128202676773071,-0.15900740027427673
1733358934140743400,3.087743408203125,0.23489302396774292,0.5426693558692932,-0.11757251620292664
1733358934150709500,3.09770947265625,0.19645242393016815,0.4716401696205139,-0.07927200198173523
1733358934160675300,3.10767529296875,0.15690350532531738,0.4022960066795349,-0.04477303475141525
1733358934170641400,3.117641357421875,0.11452782154083252,0.3323289155960083,-0.019859693944454193
1733358934180607200,3.127607177734375,0.07096948474645615,0.2715434730052948,-0.006045909598469734
1733358934190573600,3.137573486328125,0.034677520394325256,0.21063242852687836,0.004809933714568615
1733358934200539400,3.147539306640625,0.010275444015860558,0.15206319093704224,0.012955076061189175
1733358934210505500,3.15750537109375,-0.002696546958759427,0.09068957716226578,0.01620040461421013
1733358934220471300,3.16747119140625,-0.018333349376916885,0.025748781859874725,0.013813979923725128
1733358934230437400,3.177437255859375,-0.031681641936302185,-0.03174247592687607,0.011546830646693707
1733358934240403500,3.187403564453125,-0.040560949593782425,-0.08025162667036057,0.019038431346416473
1733358934250369300,3.197369384765625,-0.04794562980532646,-0.11578139662742615,0.02690700814127922
1733358934260335400,3.20733544921875,-0.054962921887636185,-0.15009552240371704,0.042722009122371674
1733358934270301400,3.217301513671875,-0.05945700779557228,-0.17915460467338562,0.06311729550361633
1733358934280267500,3.227267578125,-0.06073585897684097,-0.20483624935150146,0.08276534825563431
1733358934290233300,3.2372333984375,-0.06123173609375954,-0.21343159675598145,0.10327967256307602
1733358934300199200,3.24719921875,-0.061455175280570984,-0.22094304859638214,0.11686525493860245
1733358934310165500,3.25716552734375,-0.06341712176799774,-0.21919281780719757,0.12331197410821915
1733358934320131300,3.26713134765625,-0.0681103765964508,-0.21472179889678955,0.12285694479942322
1733358934330097400,3.277097412109375,-0.07195278257131577,-0.2119148224592209,0.12078553438186646
1733358934340063200,3.287063232421875,-0.08058582991361618,-0.20955462753772736,0.11881737411022186
1733358934350029600,3.297029541015625,-0.08814334869384766,-0.20803262293338776,0.11638644337654114
1733358934359995400,3.306995361328125,-0.10219381749629974,-0.207339346408844,0.1127016693353653
1733358934369961500,3.31696142578125,-0.11744759976863861,-0.2001834362745285,0.10858388990163803
1733358934379927300,3.32692724609375,-0.1329401284456253,-0.19364626705646515,0.10263695567846298
1733358934389893400,3.336893310546875,-0.1469973623752594,-0.18566450476646423,0.09460192918777466
1733358934399859500,3.346859375,-0.1570184975862503,-0.17923063039779663,0.09026403725147247
1733358934409825300,3.3568251953125,-0.16836702823638916,-0.16975803673267365,0.08494623750448227
1733358934419791400,3.366791259765625,-0.17159081995487213,-0.15770335495471954,0.08124727010726929
1733358934429757400,3.37675732421875,-0.16945895552635193,-0.137922465801239,0.07884829491376877
1733358934439723500,3.3867236328125,-0.16163785755634308,-0.11650635302066803,0.06749151647090912
1733358934449689300,3.396689453125,-0.14736971259117126,-0.0877671167254448,0.05300232395529747
1733358934459655200,3.4066552734375,-0.13009187579154968,-0.061467479914426804,0.038349758833646774
1733358934469621500,3.41662158203125,-0.11232700943946838,-0.03816615045070648,0.02208343707025051
1733358934479587300,3.42658740234375,-0.09686171263456345,-0.0176980122923851,0.009629398584365845
1733358934489553400,3.436553466796875,-0.08063241094350815,-0.004018417559564114,0.001937656314112246
1733358934499519200,3.446519287109375,-0.062398605048656464,0.013658660463988781,0.0009934739209711552
1733358934509485600,3.456485595703125,-0.04305846244096756,0.01578972116112709,0.004905125126242638
1733358934519451400,3.466451416015625,-0.027109339833259583,0.017551364377141,0.004782227799296379
1733358934529417200,3.476417236328125,-0.010929569602012634,0.01604801043868065,0.0033960528671741486
1733358934539383300,3.48638330078125,0.002797503024339676,0.01252673752605915,0.005156619008630514
1733358934549349400,3.496349365234375,0.01428771112114191,0.006619046907871962,0.005337181501090527
1733358934559315500,3.5063154296875,0.023630155250430107,0.0019664615392684937,0.005124078597873449
1733358934569281300,3.51628125,0.03145185858011246,-0.003937765955924988,0.011090358719229698
1733358934579247400,3.526247314453125,0.040180597454309464,-0.00871265958994627,0.014409082010388374
1733358934589213400,3.53621337890625,0.051199425011873245,-0.006410091184079647,0.01267136912792921
1733358934599179300,3.54617919921875,0.05944601073861122,0.0005322694778442383,0.008111970499157906
1733358934609145300,3.556145263671875,0.0665060505270958,0.008470087312161922,0.0007672383217141032
1733358934619111400,3.566111328125,0.06853107362985611,0.019045390188694,-0.0058497595600783825
1733358934629077500,3.576077392578125,0.07022005319595337,0.028498811647295952,-0.0071397945284843445
1733358934639043300,3.586043212890625,0.06859202682971954,0.03361331298947334,-0.0075089773163199425
1733358934649009400,3.596009521484375,0.06578665226697922,0.04142329841852188,-0.0032324735075235367
1733358934658975200,3.605975341796875,0.06410803645849228,0.05082976073026657,0.0010906129609793425
1733358934668941300,3.61594140625,0.05707995221018791,0.061275213956832886,0.009548545815050602
1733358934678907100,3.6259072265625,0.04979131743311882,0.06909129023551941,0.01743103563785553
1733358934688873200,3.635873291015625,0.04767729714512825,0.07631964981555939,0.026553960517048836
1733358934698839300,3.64583935546875,0.04213566705584526,0.08353164047002792,0.0364636667072773
1733358934708805000,3.65580517578125,0.03869539499282837,0.08836927264928818,0.04326138645410538
1733358934718771200,3.665771240234375,0.03905903175473213,0.08834724128246307,0.04424308240413666
1733358934728737000,3.675737060546875,0.03910403698682785,0.09094169735908508,0.04263586550951004
1733358934738703400,3.685703369140625,0.04170429706573486,0.09663510322570801,0.03352518379688263
1733358934748669200,3.695669189453125,0.045258019119501114,0.10850028693675995,0.022927401587367058
1733358934758635300,3.70563525390625,0.05317739397287369,0.11779160052537918,0.013364165090024471
1733358934768601000,3.71560107421875,0.06283135712146759,0.12340448051691055,0.00227023521438241
1733358934778567200,3.725567138671875,0.0707249715924263,0.12408332526683807,-0.0068015167489647865
1733358934788533200,3.735533203125,0.07368427515029907,0.11908643692731857,-0.013373399153351784
1733358934798499000,3.7454990234375,0.07735785096883774,0.11068499833345413,-0.019882572814822197
1733358934808465200,3.755465087890625,0.07415805757045746,0.10055513679981232,-0.02194199524819851
1733358934818431200,3.76543115234375,0.0686294287443161,0.08840872347354889,-0.025053290650248528
1733358934828397300,3.775397216796875,0.05724973976612091,0.07733289897441864,-0.02566342055797577
1733358934838364200,3.7853642578125,0.0483023039996624,0.06502906233072281,-0.02398681826889515
1733358934848330200,3.795330322265625,0.03740065172314644,0.056220121681690216,-0.020122040063142776
1733358934858296000,3.805296142578125,0.01901940070092678,0.047452911734580994,-0.01617293804883957
1733358934868262400,3.815262451171875,0.008104966953396797,0.038559816777706146,-0.014487422071397305
1733358934878228200,3.825228271484375,-0.001992355100810528,0.029698844999074936,-0.010622636415064335
1733358934888194000,3.835194091796875,-0.009388485923409462,0.019529297947883606,-0.007500080391764641
1733358934898160000,3.84516015625,-0.015259882435202599,0.010915795341134071,-0.002432133536785841
1733358934908126200,3.855126220703125,-0.020299647003412247,0.0007616952061653137,0.004091279115527868
1733358934918092300,3.86509228515625,-0.024072369560599327,-0.008587328717112541,0.01367352344095707
1733358934928058000,3.87505810546875,-0.027316898107528687,-0.02080404758453369,0.022663822397589684
1733358934938024200,3.885024169921875,-0.02438434213399887,-0.033909548074007034,0.026088815182447433
1733358934947990300,3.894990234375,-0.02251879870891571,-0.04848156496882439,0.028920020908117294
1733358934957956000,3.9049560546875,-0.02512444369494915,-0.05603165179491043,0.03299164026975632
1733358934967922200,3.914922119140625,-0.02536039985716343,-0.06554712355136871,0.03567530959844589
1733358934977888000,3.924887939453125,-0.025571413338184357,-0.07127666473388672,0.036662161350250244
1733358934987854300,3.934854248046875,-0.025076597929000854,-0.0702393501996994,0.0374283529818058
1733358934997820200,3.944820068359375,-0.02396051585674286,-0.0655084028840065,0.036325570195913315
1733358935007786200,3.9547861328125,-0.02572406269609928,-0.05641104280948639,0.03215532749891281
1733358935017752000,3.964751953125,-0.02623073197901249,-0.046056557446718216,0.028229253366589546
1733358935027718100,3.97471826171875,-0.028985772281885147,-0.042985398322343826,0.02758476696908474
1733358935037684200,3.984684326171875,-0.027023684233427048,-0.041755400598049164,0.02770012617111206
1733358935047650000,3.994650146484375,-0.026058288291096687,-0.040189459919929504,0.0242148470133543
1733358935057616100,4.0046162109375,-0.025772394612431526,-0.041575223207473755,0.023363210260868073
1733358935067582200,4.014582275390625,-0.02411670796573162,-0.0452629029750824,0.023319534957408905
1733358935077548300,4.02454833984375,-0.018606776371598244,-0.0461810827255249,0.02263333648443222
1733358935087514000,4.03451416015625,-0.015136677771806717,-0.04557494446635246,0.02390179969370365
1733358935097480000,4.04447998046875,-0.009037735871970654,-0.04606831446290016,0.025438552722334862
1733358935107446300,4.0544462890625,-0.0052544488571584225,-0.04168768227100372,0.0255498718470335
1733358935117412000,4.064412109375,-0.0042769890278577805,-0.03818272799253464,0.025962118059396744
1733358935127378200,4.074378173828125,-0.0050383866764605045,-0.03164386749267578,0.021938614547252655
1733358935137344000,4.084343994140625,-0.005373108666390181,-0.025130195543169975,0.015331687405705452
1733358935147310300,4.094310302734375,-0.005015978589653969,-0.01944807544350624,0.011180885136127472
1733358935157276200,4.104276123046875,-0.00604470819234848,-0.010390515439212322,0.003082712646573782
1733358935167242200,4.1142421875,-0.004982106853276491,0.002457106951624155,-0.0034968929830938578
1733358935177208000,4.1242080078125,-0.0034568149130791426,0.010503617115318775,-0.01016125176101923
1733358935187174100,4.134174072265625,-0.0009281435050070286,0.017808934673666954,-0.014249471016228199
1733358935197140200,4.14414013671875,0.0006337225786410272,0.021753370761871338,-0.016520073637366295
1733358935207106000,4.15410595703125,0.002804465126246214,0.023970983922481537,-0.017241789028048515
1733358935217072000,4.164072021484375,0.005848603788763285,0.02423240803182125,-0.015091698616743088
1733358935227038200,4.1740380859375,0.00580332987010479,0.023960232734680176,-0.011033307760953903
1733358935237004300,4.18400439453125,0.005886612925678492,0.021352771669626236,-0.006774332839995623
1733358935246970000,4.19397021484375,0.007490901276469231,0.02310779318213463,-0.006658485624939203
1733358935256936200,4.203936279296875,0.007624010089784861,0.024764129891991615,-0.008333050645887852
1733358935266902300,4.21390234375,0.011534862220287323,0.023604854941368103,-0.009585535153746605
1733358935276868000,4.2238681640625,0.013306557200849056,0.022718513384461403,-0.010625203140079975
1733358935286834200,4.233834228515625,0.015696212649345398,0.020938456058502197,-0.010939721949398518
1733358935296800300,4.24380029296875,0.016954703256487846,0.02377597615122795,-0.011172845028340816
1733358935306766300,4.253766357421875,0.02173933945596218,0.02587694302201271,-0.01137497927993536
1733358935316732200,4.263732177734375,0.019507011398673058,0.027021881192922592,-0.011847607791423798
1733358935326698000,4.273697998046875,0.020088378340005875,0.028054390102624893,-0.010939736850559711
1733358935336664300,4.283664306640625,0.017458593472838402,0.029727119952440262,-0.009676254354417324
1733358935346630100,4.293630126953125,0.01368489395827055,0.02748819999396801,-0.0087500074878335
1733358935356596200,4.30359619140625,0.011594578623771667,0.024945147335529327,-0.008555863052606583
1733358935366562000,4.31356201171875,0.007647773716598749,0.02454407513141632,-0.007288197986781597
1733358935376528400,4.3235283203125,0.006643594242632389,0.024466611444950104,-0.009039556607604027
1733358935386494200,4.333494140625,0.003543408354744315,0.024070601910352707,-0.008976706303656101
1733358935396460000,4.3434599609375,0.0015975798014551401,0.022643834352493286,-0.010136699303984642
1733358935406426000,4.353426025390625,0.0005605448386631906,0.018434707075357437,-0.007914291694760323
1733358935416392200,4.36339208984375,-0.0018674590392038226,0.01670738309621811,-0.00852921511977911
1733358935426358300,4.373358154296875,-0.005450742319226265,0.013281491585075855,-0.011335920542478561
1733358935436324000,4.383323974609375,-0.007752389647066593,0.013667494058609009,-0.011490197852253914
1733358935446290200,4.393290283203125,-0.008758265525102615,0.016095498576760292,-0.011284069158136845
1733358935456256300,4.40325634765625,-0.008596529252827168,0.019288061186671257,-0.011925372295081615
1733358935466222300,4.413222412109375,-0.013322308659553528,0.018788184970617294,-0.009541310369968414
1733358935476188200,4.423188232421875,-0.013777914457023144,0.02050584927201271,-0.006329976953566074
1733358935486154000,4.433154052734375,-0.014974473044276237,0.01804295741021633,-0.0049621774815022945
1733358935496120300,4.443120361328125,-0.01321377046406269,0.020162032917141914,-0.0005596282426267862
1733358935506086100,4.453086181640625,-0.011745036579668522,0.02236020565032959,-0.0009883972816169262
1733358935516052200,4.46305224609375,-0.011811120435595512,0.020492684096097946,-0.0018228748813271523
1733358935526018000,4.47301806640625,-0.010565826669335365,0.020256996154785156,-0.0023661598097532988
1733358935535984400,4.482984375,-0.010213378816843033,0.021995045244693756,-0.00611183512955904
1733358935545949200,4.49294921875,-0.011132169514894485,0.022696256637573242,-0.007580301724374294
1733358935555915000,4.5029150390625,-0.012125242501497269,0.02447795495390892,-0.009649685584008694
1733358935565881300,4.51288134765625,-0.013559355400502682,0.026296626776456833,-0.011898725293576717
1733358935575847200,4.52284716796875,-0.011850269511342049,0.028185226023197174,-0.016083037480711937
1733358935585814300,4.532814208984375,-0.010288325138390064,0.031239604577422142,-0.019974183291196823
1733358935595779000,4.542779052734375,-0.00904061272740364,0.03342290222644806,-0.02173144370317459
1733358935605745200,4.5527451171875,-0.004644532687962055,0.03856147080659866,-0.02402123063802719
1733358935615711200,4.562711181640625,-0.0011779299238696694,0.03815552964806557,-0.02447451651096344
1733358935625677000,4.572677001953125,0.0020610063802450895,0.036039646714925766,-0.024279840290546417
1733358935635643100,4.58264306640625,0.00620318902656436,0.032750342041254044,-0.023463251069188118
1733358935645609200,4.592609130859375,0.010179288685321808,0.033066991716623306,-0.027725640684366226
1733358935655575300,4.6025751953125,0.010704414919018745,0.03096666932106018,-0.030234038829803467
1733358935665541000,4.612541015625,0.007490511983633041,0.029418308287858963,-0.0359148308634758
1733358935675507200,4.622507080078125,-0.001206125714816153,0.023896507918834686,-0.04801258444786072
1733358935685473300,4.632473388671875,-0.008065629750490189,0.014102733694016933,-0.056246545165777206
1733358935695439400,4.642439453125,-0.02499455399811268,-0.0036006299778819084,-0.06098061054944992
1733358935705405200,4.6524052734375,-0.04280124604701996,-0.02740582637488842,-0.056375205516815186
1733358935715371300,4.662371337890625,-0.06409428268671036,-0.04624263197183609,-0.0550590418279171
1733358935725337300,4.67233740234375,-0.08246529847383499,-0.053185492753982544,-0.05667797848582268
1733358935735303200,4.68230322265625,-0.09685450792312622,-0.04618129879236221,-0.06822378188371658
1733358935745269200,4.692269287109375,-0.10793405771255493,-0.03343488276004791,-0.08668588101863861
1733358935755235000,4.702235107421875,-0.11382783949375153,-0.021073363721370697,-0.10480593889951706
1733358935765201400,4.712201416015625,-0.11624385416507721,-0.01711084693670273,-0.1118617132306099
1733358935775167200,4.722167236328125,-0.1182771623134613,-0.023552462458610535,-0.10626305639743805
1733358935785133300,4.73213330078125,-0.12164126336574554,-0.03482908383011818,-0.08760415017604828
1733358935795099100,4.74209912109375,-0.1215783879160881,-0.05030729994177818,-0.0631406381726265
1733358935805065200,4.752065185546875,-0.120484359562397,-0.06530489027500153,-0.03511379659175873
1733358935815031300,4.76203125,-0.11453712731599808,-0.07651877403259277,-0.006692495197057724
1733358935824997000,4.7719970703125,-0.10279897600412369,-0.08646249026060104,0.022230764850974083
1733358935834963200,4.781963134765625,-0.09067650139331818,-0.09315516799688339,0.044904761016368866
1733358935844929300,4.79192919921875,-0.07968589663505554,-0.08996656537055969,0.06439217925071716
1733358935854895400,4.801895263671875,-0.06746015697717667,-0.0821463018655777,0.08246401697397232
1733358935864861200,4.811861083984375,-0.055185116827487946,-0.0820554867386818,0.09740195423364639
1733358935874827300,4.8218271484375,-0.03732316568493843,-0.08811965584754944,0.11105645447969437
1733358935884793300,4.83179345703125,-0.022371113300323486,-0.09522470831871033,0.12193520367145538
1733358935894759200,4.84175927734375,-0.005215865559875965,-0.09578488767147064,0.12827368080615997
1733358935904725200,4.851725341796875,0.01286247093230486,-0.09225992858409882,0.12577509880065918
1733358935914691300,4.86169140625,0.026454979553818703,-0.07863625884056091,0.11628387123346329
1733358935924657400,4.871657470703125,0.03776009753346443,-0.05929931253194809,0.10051742196083069
1733358935934623200,4.881623291015625,0.04632217064499855,-0.03966538608074188,0.08543047308921814
1733358935944589300,4.89158935546875,0.047187965363264084,-0.02128984034061432,0.06761286407709122
1733358935954555400,4.901555419921875,0.049720101058483124,-0.007272025570273399,0.0514216385781765
1733358935964521200,4.911521240234375,0.04891262948513031,0.0033337478525936604,0.03352253511548042
1733358935974487300,4.9214873046875,0.04575791954994202,0.011563676409423351,0.01739145629107952
1733358935984453000,4.931453125,0.04534193500876427,0.013002848252654076,0.00234033539891243
1733358935994419500,4.94141943359375,0.04077545925974846,0.017061125487089157,-0.008687579073011875
1733358936004385300,4.95138525390625,0.04078051820397377,0.020174095407128334,-0.01826643757522106
1733358936014351400,4.961351318359375,0.039161015301942825,0.021450966596603394,-0.0258171409368515
1733358936024317200,4.971317138671875,0.040305644273757935,0.02504543587565422,-0.034862034022808075
1733358936034283300,4.981283203125,0.04165276885032654,0.028067056089639664,-0.040132321417331696
1733358936044249300,4.991249267578125,0.043918583542108536,0.029646575450897217,-0.045072220265865326
1733358936054215200,5.001215087890625,0.04618775472044945,0.022614728659391403,-0.04491746053099632
1733358936064181200,5.01118115234375,0.04547003284096718,0.01441725343465805,-0.041557081043720245
1733358936074147300,5.021147216796875,0.04419567435979843,0.009002666920423508,-0.03397490829229355
1733358936084113400,5.031113525390625,0.04089042544364929,0.011757973581552505,-0.024609632790088654
1733358936094079200,5.041079345703125,0.03461021929979324,0.013956337235867977,-0.018296781927347183
1733358936104045000,5.051045166015625,0.030934523791074753,0.01677902229130268,-0.01396887842565775
1733358936114011400,5.061011474609375,0.02552909404039383,0.019348667934536934,-0.011115426197648048
1733358936123977200,5.070977294921875,0.026182100176811218,0.026144787669181824,-0.011394260451197624
1733358936133943300,5.080943359375,0.02042979560792446,0.03624649718403816,-0.014094877988100052
1733358936143909000,5.0909091796875,0.01946013793349266,0.04622376337647438,-0.019717078655958176
1733358936153875500,5.10087548828125,0.0193043053150177,0.05249965563416481,-0.02464909665286541
1733358936163841300,5.11084130859375,0.019268885254859924,0.0601557120680809,-0.028245961293578148
1733358936173807000,5.12080712890625,0.014755324460566044,0.06411171704530716,-0.030914029106497765
1733358936183773200,5.130773193359375,0.012753160670399666,0.0650627389550209,-0.030749445781111717
1733358936193739300,5.1407392578125,0.00633651576936245,0.06589280813932419,-0.02776685729622841
1733358936203705300,5.150705322265625,0.005438497755676508,0.06588135659694672,-0.027216646820306778
1733358936213671200,5.160671142578125,-0.0020662539172917604,0.06017374247312546,-0.025708220899105072
1733358936223637200,5.17063720703125,-0.0038780022878199816,0.054143548011779785,-0.025136439129710197
1733358936233603300,5.180603271484375,-0.00401103962212801,0.04180816933512688,-0.02323927916586399
1733358936243569400,5.1905693359375,-0.0056611341424286366,0.03122529946267605,-0.02005813457071781
1733358936253535200,5.20053515625,-0.0076865642331540585,0.022556710988283157,-0.01894157938659191
1733358936263500300,5.210500244140625,-0.007876980118453503,0.01757393777370453,-0.0194822009652853
1733358936273466400,5.22046630859375,-0.0067477161064744,0.015205015428364277,-0.021039901301264763
1733358936283432200,5.23043212890625,-0.01252730842679739,0.013645734637975693,-0.021729661151766777
1733358936293398000,5.24039794921875,-0.01735054701566696,0.011450530029833317,-0.025329861789941788
1733358936303364400,5.2503642578125,-0.02450246550142765,0.007523965090513229,-0.026508843526244164
1733358936313330200,5.260330078125,-0.03369486331939697,0.002756488975137472,-0.028828345239162445
1733358936323296300,5.270296142578125,-0.044111818075180054,-0.0022020507603883743,-0.03183425962924957
1733358936333262000,5.280261962890625,-0.05123243108391762,-0.005346029065549374,-0.033458441495895386
1733358936343228400,5.290228515625,-0.06510511040687561,-0.009889114648103714,-0.035379908978939056
1733358936353194200,5.3001943359375,-0.07306190580129623,-0.01175888441503048,-0.03324108198285103
1733358936363160300,5.310160400390625,-0.07530827820301056,-0.015508616343140602,-0.0339588038623333
1733358936373126100,5.320126220703125,-0.07410739362239838,-0.013998905196785927,-0.035010796040296555
1733358936383092200,5.33009228515625,-0.06745880842208862,-0.014519020915031433,-0.03311648964881897
1733358936393058300,5.340058349609375,-0.056246645748615265,-0.011756296269595623,-0.028764212504029274
1733358936403024100,5.350024169921875,-0.04759643226861954,-0.017077822238206863,-0.020895104855298996
1733358936412990200,5.359990234375,-0.03825404867529869,-0.021701034158468246,-0.009664962068200111
1733358936422956300,5.369956298828125,-0.030830487608909607,-0.025233715772628784,0.0011666470672935247
1733358936432922400,5.37992236328125,-0.0208590067923069,-0.02686973474919796,0.011413912288844585
1733358936442888200,5.38988818359375,-0.011858854442834854,-0.022977789863944054,0.013915952295064926
1733358936452854300,5.399854248046875,-0.005165592301636934,-0.016127530485391617,0.014718534424901009
1733358936462820400,5.4098203125,0.005404493771493435,-0.004854370839893818,0.01325033325701952
1733358936472786200,5.4197861328125,0.01626838929951191,0.007745455484837294,0.00821056216955185
1733358936482752300,5.429752197265625,0.022448521107435226,0.01585664600133896,0.007050223182886839
1733358936492718300,5.43971826171875,0.029876498505473137,0.01939515396952629,0.005060610827058554
1733358936502684400,5.449684326171875,0.03521320968866348,0.013096512295305729,0.006872359663248062
1733358936512650200,5.459650146484375,0.040124498307704926,0.004961806815117598,0.011234818026423454
1733358936522616000,5.469615966796875,0.036639221012592316,0.0014221994206309319,0.013188246637582779
1733358936532582400,5.47958251953125,0.03392878919839859,-0.004978816956281662,0.016131889075040817
1733358936542548200,5.48954833984375,0.029431775212287903,-0.0027739861980080605,0.013351015746593475
1733358936552514300,5.499514404296875,0.025402871891856194,-0.004302827641367912,0.010565759614109993
1733358936562480000,5.509480224609375,0.01864403672516346,0.00033027399331331253,0.004255399107933044
1733358936572446500,5.519446533203125,0.012468202039599419,0.0055054002441465855,0.0010974352480843663
1733358936582412300,5.529412353515625,0.006214567460119724,0.007258292753249407,0.002452451502904296
1733358936592378000,5.539378173828125,0.002047519199550152,0.006413271650671959,0.0011997006367892027
1733358936602344200,5.54934423828125,0.0009489650838077068,0.006409277208149433,0.0036503414157778025
1733358936612310300,5.559310302734375,0.0020710756070911884,0.0036253249272704124,0.004004199523478746
1733358936622276400,5.5692763671875,0.0044085318222641945,0.002377101220190525,0.0036920770071446896
1733358936632242200,5.5792421875,0.005376823712140322,-0.0016841143369674683,0.0034756173845380545
1733358936642208300,5.589208251953125,0.009402457624673843,-0.005405615083873272,0.0023608182091265917
1733358936652174300,5.59917431640625,0.010768015868961811,-0.007194226607680321,0.003092158120125532
1733358936662139600,5.6091396484375,0.00892510823905468,-0.00966031476855278,0.0023422117810696363
1733358936672104700,5.619104736328125,0.0034460558090358973,-0.013795561157166958,0.003774409182369709
1733358936682070800,5.62907080078125,-0.000051473689381964505,-0.013879450969398022,0.0030822535045444965
1733358936692036600,5.63903662109375,-0.005455560050904751,-0.014311949722468853,0.0060519445687532425
1733358936702002400,5.64900244140625,-0.010206906124949455,-0.013261864893138409,0.007486855611205101
1733358936711968800,5.65896875,-0.011170572601258755,-0.012439323589205742,0.011168993078172207
1733358936721934600,5.6689345703125,-0.010815306566655636,-0.013094726949930191,0.014424174092710018
1733358936731900700,5.678900634765625,-0.008932027034461498,-0.014104942791163921,0.014954078011214733
1733358936741866500,5.688866455078125,-0.005049936473369598,-0.018058139830827713,0.01910647749900818
1733358936751832800,5.698832763671875,-0.002528746146708727,-0.021795164793729782,0.021035419777035713
1733358936761798700,5.708798583984375,0.0036071769427508116,-0.027277547866106033,0.023832006379961967
1733358936771764500,5.718764404296875,0.005113242659717798,-0.029412448406219482,0.028599301353096962
1733358936781730600,5.72873046875,0.009507991373538971,-0.031154688447713852,0.02943526767194271
1733358936791696600,5.738696533203125,0.013622913509607315,-0.03676014766097069,0.0317700169980526
1733358936801662700,5.748662841796875,0.018265601247549057,-0.040231309831142426,0.03173459693789482
1733358936811628500,5.758628662109375,0.022423766553401947,-0.04142631217837334,0.029456056654453278
1733358936821594600,5.7685947265625,0.028535988181829453,-0.043221551924943924,0.027138840407133102
1733358936831560700,5.778560791015625,0.03397899121046066,-0.04640258103609085,0.023266980424523354
1733358936841526800,5.78852685546875,0.03954845666885376,-0.051488686352968216,0.019309788942337036
1733358936851492600,5.79849267578125,0.03923666477203369,-0.05109860375523567,0.01520941499620676
1733358936861458400,5.80845849609375,0.0379202626645565,-0.05245788022875786,0.010802682489156723
1733358936871424800,5.8184248046875,0.03307794779539108,-0.05662143975496292,0.010391454212367535
1733358936881390600,5.828390625,0.030320512130856514,-0.060375966131687164,0.009496898390352726
1733358936891356700,5.838356689453125,0.026181355118751526,-0.0655195564031601,0.010761146433651447
1733358936901322500,5.848322509765625,0.02031840570271015,-0.06960298120975494,0.0164595115929842
1733358936911288800,5.858288818359375,0.017480866983532906,-0.07025286555290222,0.0211558248847723
1733358936921254700,5.868254638671875,0.012173719704151154,-0.06641125679016113,0.027987632900476456
1733358936931220500,5.878220458984375,0.009885585866868496,-0.06194610148668289,0.03509281203150749
1733358936941186600,5.8881865234375,0.007756122387945652,-0.04891738295555115,0.037585530430078506
1733358936951152600,5.898152587890625,0.0056808339431881905,-0.03540326654911041,0.03490642085671425
1733358936961118700,5.90811865234375,0.005041142459958792,-0.012887304648756981,0.02774890884757042
1733358936971083500,5.91808349609375,0.006841781549155712,0.007499375380575657,0.018331557512283325
1733358936981049600,5.928049560546875,0.010257285088300705,0.027929283678531647,0.007217654958367348
1733358936991015700,5.938015625,0.015009111724793911,0.046968381851911545,-0.0057912226766347885
1733358937000981500,5.9479814453125,0.01917882449924946,0.0587930828332901,-0.016726695001125336
1733358937010947600,5.957947509765625,0.024006955325603485,0.0698680579662323,-0.02426878735423088
1733358937020913700,5.96791357421875,0.026549475267529488,0.07516349107027054,-0.02810613624751568
1733358937030879700,5.977879638671875,0.0316556952893734,0.07484011352062225,-0.032036785036325455
1733358937040845600,5.987845458984375,0.03461074084043503,0.07122327387332916,-0.03220269829034805
1733358937050811600,5.997811767578125,0.03562004119157791,0.06701350212097168,-0.030749259516596794
1733358937060777700,6.00777783203125,0.03271852806210518,0.05684768408536911,-0.028364397585392
1733358937070743600,6.01774365234375,0.03202429041266441,0.04856353998184204,-0.0248397346585989
1733358937080709600,6.027709716796875,0.025720322504639626,0.03701074793934822,-0.016669688746333122
1733358937090675700,6.03767578125,0.022618507966399193,0.02960752509534359,-0.00851769931614399
1733358937100641800,6.047641845703125,0.016979796811938286,0.020007893443107605,-0.0013498016633093357
1733358937110607600,6.057607666015625,0.013602601364254951,0.012023406103253365,0.0026800865307450294
1733358937120573400,6.067573486328125,0.011542113497853279,0.008587928488850594,0.008257011882960796
1733358937130539800,6.077539794921875,0.01328272558748722,0.005406081676483154,0.011797469109296799
1733358937140505600,6.087505615234375,0.017102763056755066,0.002558896318078041,0.010386792942881584
1733358937150471700,6.0974716796875,0.020895512774586678,0.003435276448726654,0.011221073567867279
1733358937160437500,6.1074375,0.02838032692670822,0.0012759855017066002,0.007271605543792248
1733358937170403800,6.11740380859375,0.031068870797753334,-0.0010569402948021889,0.0034612363670021296
1733358937180369700,6.12736962890625,0.03337730094790459,-0.004648478701710701,0.002623405773192644
1733358937190335700,6.137335693359375,0.030189065262675285,-0.009876805357635021,0.0011262795887887478
1733358937200301600,6.147301513671875,0.024115992709994316,-0.010629414580762386,-0.000563496258109808
1733358937210267600,6.157267578125,0.00986561831086874,-0.015297013334929943,0.0029518846422433853
1733358937220233700,6.167233642578125,-0.00383927533403039,-0.018702395260334015,0.003838983364403248
1733358937230199600,6.177199462890625,-0.016495557501912117,-0.015152600593864918,0.006848976947367191
1733358937240164600,6.18716455078125,-0.03035012073814869,-0.009260357357561588,0.01018458604812622
1733358937250130700,6.197130615234375,-0.03954135999083519,-0.0015530101954936981,0.013120773248374462
1733358937260096500,6.207096435546875,-0.040887851268053055,0.011523643508553505,0.012678954750299454
1733358937270062600,6.2170625,-0.04380616545677185,0.027519576251506805,0.011188398115336895
1733358937280028700,6.227028564453125,-0.035721343010663986,0.04235018789768219,0.005952623672783375
1733358937289994800,6.236994873046875,-0.026817578822374344,0.0547218881547451,0.00040874164551496506
1733358937299960600,6.246960693359375,-0.01608983241021633,0.06741398572921753,-0.0030765370465815067
1733358937309926700,6.2569267578125,-0.00622224248945713,0.0715915709733963,-0.008894774131476879
1733358937319892700,6.266892822265625,-0.00044744397746399045,0.07222007215023041,-0.010535814799368382
1733358937329858600,6.276858642578125,0.00546929519623518,0.07023341208696365,-0.011523742228746414
1733358937339824600,6.28682470703125,0.007592100650072098,0.06489137560129166,-0.016161371022462845
1733358937349790500,6.29679052734375,0.0063334074802696705,0.05786275863647461,-0.021110938861966133
1733358937359756800,6.3067568359375,0.000932250521145761,0.05032441392540932,-0.028933973982930183
1733358937369722600,6.31672265625,-0.0009527981746941805,0.0415094755589962,-0.03483632951974869
1733358937379688700,6.326688720703125,-0.003913434222340584,0.03278335928916931,-0.042152564972639084
1733358937389654500,6.336654541015625,-0.004526697099208832,0.024565521627664566,-0.04395020753145218
1733358937399620600,6.34662060546875,-0.0005988007760606706,0.01833585649728775,-0.042853519320487976
1733358937409586700,6.356586669921875,0.00442367373034358,0.013636158779263496,-0.04083694890141487
1733358937419552500,6.366552490234375,0.011157742701470852,0.006459472700953484,-0.037795886397361755
1733358937429518600,6.3765185546875,0.017677785828709602,0.0026609529741108418,-0.03297799080610275
1733358937439484700,6.386484619140625,0.023409973829984665,-0.0026560481637716293,-0.030293256044387817
1733358937449450800,6.39645068359375,0.0279290359467268,-0.002469457685947418,-0.027727164328098297
1733358937459416600,6.40641650390625,0.024224311113357544,-0.011270938441157341,-0.026582270860671997
1733358937469382400,6.41638232421875,0.018427997827529907,-0.023430567234754562,-0.023130685091018677
1733358937479348700,6.4263486328125,0.009711472317576408,-0.04395661503076553,-0.01700754463672638
1733358937489313500,6.4363134765625,0.0005942562711425126,-0.0635906457901001,-0.007818378508090973
1733358937499279600,6.446279541015625,-0.008553702384233475,-0.07736292481422424,0.00653552683070302
1733358937509245700,6.45624560546875,-0.015220601111650467,-0.08418094366788864,0.020825080573558807
1733358937519211500,6.46621142578125,-0.016057100147008896,-0.08669789880514145,0.03159410506486893
1733358937529177600,6.476177490234375,-0.013573632575571537,-0.07873854786157608,0.0394623726606369
1733358937539143700,6.486143798828125,-0.008616690523922443,-0.06644485890865326,0.04239584505558014
1733358937549109800,6.49610986328125,0.0018152458360418677,-0.04740605130791664,0.04328159987926483
1733358937559075600,6.50607568359375,0.007174591533839703,-0.028716254979372025,0.039335329085588455
1733358937569041700,6.516041748046875,0.015042751096189022,-0.009677191264927387,0.029278362169861794
1733358937579007700,6.5260078125,0.021424749866127968,0.009911955334246159,0.01655830442905426
1733358937588973600,6.5359736328125,0.0226711668074131,0.025999506935477257,0.004067910369485617
1733358937598939600,6.545939697265625,0.018161635845899582,0.039642348885536194,-0.010738998651504517
1733358937608905500,6.555905517578125,0.013540496118366718,0.047898069024086,-0.019960444420576096
1733358937618871800,6.565871826171875,0.004583753179758787,0.05268163979053497,-0.022616948932409286
1733358937628837600,6.575837646484375,-0.0036308334674686193,0.05079678073525429,-0.023251572623848915
1733358937638803700,6.5858037109375,-0.009570748545229435,0.04408268630504608,-0.016647731885313988
1733358937648769500,6.59576953125,-0.011995548382401466,0.033066730946302414,-0.010844809003174305
1733358937658735900,6.60573583984375,-0.012273048982024193,0.018385257571935654,-0.005209294147789478
1733358937668702500,6.615702392578125,-0.011161387898027897,0.007615096401423216,-0.003314091358333826
1733358937678668500,6.62566845703125,-0.0061700912192463875,-0.003271639347076416,-0.0005931395571678877
1733358937688634400,6.63563427734375,-0.003712455742061138,-0.006991843692958355,-0.0023833601735532284
1733358937698599400,6.645599365234375,0.002017068909481168,-0.0078600337728858,-0.0044382549822330475
1733358937708565500,6.6555654296875,0.00799015536904335,-0.004628410562872887,-0.0068547348491847515
1733358937718531300,6.66553125,0.012064259499311447,0.0019943388178944588,-0.010520575568079948
1733358937728497200,6.6754970703125,0.017089692875742912,0.009713667444884777,-0.013164058327674866
1733358937738463500,6.68546337890625,0.021511338651180267,0.01325087808072567,-0.014311613515019417
1733358937748429300,6.69542919921875,0.02316637523472309,0.018212223425507545,-0.014394102618098259
1733358937758395400,6.7053955078125,0.0236516036093235,0.01963222026824951,-0.010353554040193558
1733358937768361200,6.715361328125,0.025709671899676323,0.021121380850672722,-0.006413658149540424
1733358937778327600,6.72532763671875,0.02700743079185486,0.01811280846595764,-0.0011690956307575107
1733358937788293400,6.73529345703125,0.026550685986876488,0.018084008246660233,0.003538981080055237
1733358937798259500,6.745259521484375,0.022999361157417297,0.017495982348918915,0.006168319843709469
1733358937808225300,6.755225341796875,0.019480304792523384,0.01845780573785305,0.008191760629415512
1733358937818191400,6.76519140625,0.017567889764904976,0.018249813467264175,0.005906502716243267
1733358937828157400,6.775157470703125,0.013440337963402271,0.016202380880713463,0.006435755640268326
1733358937838123300,6.785123291015625,0.009201650507748127,0.015533661469817162,0.0046586282551288605
1733358937848089300,6.79508935546875,0.0030288484413176775,0.016177717596292496,0.004011159297078848
1733358937858055400,6.805055419921875,0.0016860825708135962,0.0173332616686821,0.000004699919372797012
1733358937868021500,6.815021484375,-0.0026009927969425917,0.013773954473435879,-0.0022541098296642303
1733358937877987300,6.8249873046875,-0.006287073716521263,0.012238908559083939,-0.003121767658740282
1733358937887953400,6.834953369140625,-0.01101845782250166,0.01157787349075079,-0.004432701971381903
1733358937897918500,6.84491845703125,-0.011449889279901981,0.00992698036134243,-0.005931528750807047
1733358937907884300,6.85488427734375,-0.011527144350111485,0.007882126607000828,-0.005983712617307901
1733358937917850400,6.864850341796875,-0.009309796616435051,0.005839748308062553,-0.0035740844905376434
1733358937927816400,6.87481640625,-0.010254940949380398,0.0041401581838727,-0.0022370514925569296
1733358937937782300,6.8847822265625,-0.008922828361392021,0.00462352205067873,-0.0043334923684597015
1733358937947748400,6.894748291015625,-0.008539518341422081,0.005108655896037817,-0.0046052876859903336
1733358937957714400,6.90471435546875,-0.0080862483009696,0.00383193651214242,-0.005982674658298492
1733358937967680500,6.914680419921875,-0.007875985465943813,0.0030507678166031837,-0.00654228962957859
1733358937977646300,6.924646240234375,-0.004238640423864126,0.002784185577183962,-0.0032077450305223465
1733358937987612400,6.9346123046875,-0.0038929502479732037,-0.0004885327070951462,-0.0010978630743920803
1733358937997578500,6.94457861328125,-0.0017387195257470012,-0.0016816295683383942,0.0007005695952102542
1733358938007544300,6.95454443359375,-0.0005097402026876807,-0.002034999430179596,0.004179765470325947
1733358938017510400,6.964510498046875,0.0009475415572524071,-0.002617965452373028,0.0037310230545699596
1733358938027476200,6.974476318359375,0.002228580182418227,-0.0021937955170869827,0.004905042238533497
1733358938037442600,6.984442626953125,0.0032022318337112665,-0.003819121979176998,0.002626175293698907
1733358938047408400,6.994408447265625,0.002271398901939392,-0.0009572179988026619,0.002583466935902834
1733358938057374500,7.00437451171875,0.002591777127236128,0.007405906915664673,-0.001961749978363514
1733358938067340300,7.01434033203125,0.003904009237885475,0.012151706963777542,-0.004093134310096502
1733358938077306400,7.024306396484375,0.003451804630458355,0.011096029542386532,-0.005227907560765743
1733358938087271400,7.034271484375,0.005163360387086868,0.008429476991295815,-0.005675682798027992
1733358938097237200,7.0442373046875,0.0012314694467931986,0.005657392553985119,-0.007746290415525436
1733358938107203600,7.05420361328125,0.003318415256217122,0.0037290435284376144,-0.007692018523812294
1733358938117169400,7.06416943359375,0.00287819467484951,0.0031945467926561832,-0.008799361065030098
1733358938127135200,7.07413525390625,0.0018452932126820087,0.002568274736404419,-0.012204267084598541
1733358938137101300,7.084101318359375,0.002832793164998293,0.0018151327967643738,-0.01306899543851614
1733358938147067400,7.0940673828125,0.0018189990660175681,0.0001561138778924942,-0.01196433138102293
1733358938157033500,7.104033447265625,-0.0019254054641351104,-0.003444479778409004,-0.007325371261686087
1733358938166999300,7.113999267578125,-0.006595815531909466,-0.005352342501282692,-0.001254176371730864
1733358938176965400,7.12396533203125,-0.011835052631795406,-0.011763369664549828,0.006981915328651667
1733358938186931500,7.133931396484375,-0.014381393790245056,-0.015886789187788963,0.0073100728914141655
1733358938196897300,7.143897216796875,-0.01566184125840664,-0.015713417902588844,0.008620348758995533
1733358938206863400,7.15386328125,-0.015488481149077415,-0.012674790807068348,0.005001519341021776
1733358938216829200,7.1638291015625,-0.015104453079402447,-0.004689835011959076,-0.0002909806789830327
1733358938226795500,7.17379541015625,-0.012359173968434334,0.004001172725111246,-0.0049965763464570045
1733358938236761300,7.18376123046875,-0.011173801496624947,0.008652649819850922,-0.007028302177786827
1733358938246727400,7.1937275390625,-0.0072152321226894855,0.012470182031393051,-0.00625814450904727
1733358938256693200,7.203693359375,-0.003900129348039627,0.011873100884258747,-0.004434677772223949
1733358938266658300,7.213658203125,-0.004491281230002642,0.012197339907288551,0.0010146687272936106
1733358938276624400,7.223624267578125,-0.003053972963243723,0.0065141539089381695,0.0012596796732395887
1733358938286590500,7.233590576171875,-0.0023832740262150764,0.001995162107050419,0.005196826998144388
1733358938296556500,7.243556640625,-0.0016226752195507288,-0.00199904665350914,0.006618156097829342
1733358938306522400,7.2535224609375,-0.002897379221394658,-0.006930548697710037,0.00981987826526165
1733358938316488200,7.26348828125,-0.0003234339237678796,-0.01200147345662117,0.009886190295219421
1733358938326454500,7.27345458984375,0.002518702996894717,-0.010997687466442585,0.010072206147015095
1733358938336420400,7.28342041015625,0.0035645263269543648,-0.010514057241380215,0.009874599054455757
1733358938346386400,7.293386474609375,0.003596842521801591,-0.010476460680365562,0.00489310035482049
1733358938356352300,7.303352294921875,0.007119139656424522,-0.007952315732836723,0.005635589826852083
1733358938366318600,7.313318603515625,0.00670697633177042,-0.006996829062700272,0.004680018872022629
1733358938376284400,7.323284423828125,0.0076353540644049644,-0.0077201444655656815,0.0045252894051373005
1733358938386250500,7.33325048828125,0.007501314394176006,-0.006508044898509979,0.006196843925863504
1733358938396216300,7.34321630859375,0.007559105288237333,-0.006304578855633736,0.007842144928872585
1733358938406182400,7.353182373046875,0.0047766114585101604,-0.006305189803242683,0.008819272741675377
1733358938416148500,7.3631484375,0.004317748825997114,-0.0044407108798623085,0.0072727748192846775
1733358938426114300,7.3731142578125,0.0020917183719575405,-0.003840184770524502,0.004335139412432909
1733358938436079600,7.38307958984375,0.0019018348539248109,-0.0017266999930143356,0.003072002436965704
1733358938446045400,7.39304541015625,-0.0023180609568953514,0.0008501522243022919,0.0015532441902905703
1733358938456011300,7.40301123046875,-0.0035798666067421436,0.0027420618571341038,-0.0010055209277197719
1733358938465977300,7.412977294921875,-0.0018688203999772668,0.00371959013864398,-0.0007832592818886042
1733358938475943400,7.422943359375,-0.003314650384709239,0.0022433996200561523,-0.004481058567762375
1733358938485909500,7.432909423828125,-0.001558189745992422,-0.0000655781477689743,-0.00409000925719738
1733358938495875300,7.442875244140625,0.00044237685506232083,-0.0008903592824935913,-0.0036862739361822605
1733358938505841400,7.45284130859375,0.0011662697652354836,-0.0014180401340126991,-0.0009712089085951447
1733358938515807500,7.462807373046875,0.002738067414611578,-0.0005682250484824181,-0.004493505693972111
1733358938525773300,7.472773193359375,0.001957262633368373,0.0016881227493286133,-0.0031434367410838604
1733358938535739400,7.482739501953125,0.004482205491513014,0.002830884885042906,-0.0003151597920805216
1733358938545705200,7.492705322265625,0.00215251836925745,0.004129599314182997,-0.00006511679384857416
1733358938555671600,7.502671630859375,0.0008419767254963517,0.0017367489635944366,0.0013010847615078092
1733358938565637400,7.512637451171875,-0.002952190348878503,0.002723726909607649,0.001739045954309404
1733358938575603500,7.522603515625,-0.0017905194545164704,-0.00037885550409555435,0.000026633497327566147
1733358938585569300,7.5325693359375,-0.0014630920486524701,-0.003868759609758854,-0.0013027586974203587
1733358938595534300,7.542534423828125,-0.003150471020489931,-0.013553344644606113,0.0007995407213456929
1733358938605500400,7.55250048828125,-0.0036299421917647123,-0.022668100893497467,0.0037276148796081543
1733358938615466200,7.56246630859375,-0.006964486557990313,-0.02967993915081024,0.007764967158436775
1733358938625432600,7.5724326171875,-0.005524458363652229,-0.03752248361706734,0.010829832404851913
1733358938635398400,7.5823984375,-0.004916458390653133,-0.03836670517921448,0.009310765191912651
1733358938645364200,7.5923642578125,-0.005371246486902237,-0.03925912082195282,0.0070692673325538635
1733358938655330300,7.602330322265625,-0.001977314241230488,-0.03484972566366196,0.006529710255563259
1733358938665296000,7.6122958984375,-0.0013822115724906325,-0.02761830762028694,0.004931616131216288
1733358938675261700,7.62226171875,0.0007520456565544009,-0.017638644203543663,0.0016620532842352986
1733358938685227800,7.632227783203125,0.0016386801144108176,-0.008898446336388588,-0.0037609823048114777
1733358938695193900,7.64219384765625,0.0023766420781612396,0.0008609741926193237,-0.007242266554385424
1733358938705159700,7.65215966796875,0.003568764543160796,0.0020898059010505676,-0.009138226509094238
1733358938715125800,7.662125732421875,0.0018947013886645436,0.003695958759635687,-0.009827186353504658
1733358938725091600,7.672091552734375,-0.0015018138801679015,0.00823585782200098,-0.00881803035736084
1733358938735058000,7.682057861328125,-0.0011276396689936519,0.00752639165148139,-0.005681359209120274
1733358938745022700,7.692022705078125,0.0013350684894248843,0.008027501404285431,-0.0067872582003474236
1733358938754988500,7.701988525390625,0.001340128481388092,0.008228570222854614,-0.005678851157426834
1733358938764955000,7.711954833984375,0.0014296448789536953,0.004758854862302542,-0.00350799597799778
1733358938774920700,7.721920654296875,0.0015100723830983043,0.00452183373272419,-0.0008360465290024877
1733358938784886800,7.73188671875,0.0002522271533962339,0.004363258369266987,0.0032193027436733246
1733358938794852600,7.7418525390625,-0.00026975240325555205,0.005776864010840654,0.004321052227169275
1733358938804819000,7.75181884765625,-0.0014489202294498682,0.00680991355329752,0.0013080369681119919
1733358938814784800,7.76178466796875,-0.003186366520822048,0.012979925610125065,-0.004917368292808533
1733358938824750600,7.77175048828125,-0.00697983056306839,0.02176842652261257,-0.012178309261798859
1733358938834716700,7.781716552734375,-0.0093910563737154,0.030393339693546295,-0.01874992623925209
1733358938844682800,7.791682861328125,-0.013565918430685997,0.035495907068252563,-0.027364397421479225
1733358938854648800,7.80164892578125,-0.01713135838508606,0.039954304695129395,-0.03369925916194916
1733358938864614700,7.81161474609375,-0.02105662412941456,0.04011956602334976,-0.04218713194131851
1733358938874580700,7.821580810546875,-0.024107009172439575,0.039835408329963684,-0.049359291791915894
1733358938884546800,7.831546875,-0.029097070917487144,0.03779229149222374,-0.05401073768734932
1733358938894511600,7.84151171875,-0.029877908527851105,0.03497759625315666,-0.05766752362251282
1733358938904478000,7.85147802734375,-0.026634730398654938,0.03504212200641632,-0.05992957577109337
1733358938914443800,7.86144384765625,-0.02393854595720768,0.03461441770195961,-0.061474211513996124
1733358938924409900,7.871409912109375,-0.0166496392339468,0.03387601673603058,-0.06028450280427933
1733358938934375700,7.881375732421875,-0.01144448947161436,0.033791594207286835,-0.06144856661558151
1733358938944341800,7.891341796875,-0.0033396726939827204,0.03637770563364029,-0.060371629893779755
1733358938954307800,7.901307861328125,0.00009633772424422204,0.03266739100217819,-0.058735914528369904
1733358938964273700,7.911273681640625,0.0026672729291021824,0.022550299763679504,-0.05252896994352341
1733358938974239700,7.92123974609375,0.0021647345274686813,0.003260225523263216,-0.04261481761932373
1733358938984205800,7.931205810546875,0.0018555691931396723,-0.022750098258256912,-0.028289398178458214
1733358938994172000,7.941171875,-0.002562881214544177,-0.044018104672431946,-0.011377528309822083
1733358939004137700,7.9511376953125,-0.0053029740229249,-0.0597495399415493,0.003978904336690903
1733358939014103600,7.961103515625,-0.004174326080828905,-0.06888684630393982,0.019018840044736862
1733358939024070000,7.97106982421875,-0.005298157688230276,-0.06786172091960907,0.030497850850224495
1733358939034034700,7.98103466796875,0.0004657217941712588,-0.05747539550065994,0.037297964096069336
1733358939044000800,7.991000732421875,0.004061171319335699,-0.044006623327732086,0.04127741605043411
1733358939053966800,8.000966796875,0.009747552685439587,-0.021965770050883293,0.038528770208358765
1733358939063932700,8.0109326171875,0.015888122841715813,0.002513495273888111,0.033167514950037
1733358939073898800,8.020898681640626,0.017995215952396393,0.021467745304107666,0.02706434763967991
1733358939083864600,8.030864501953126,0.020294208079576492,0.03356555849313736,0.01844829134643078
1733358939093831000,8.040830810546876,0.02070353552699089,0.0395805723965168,0.01496967114508152
1733358939103796700,8.050796630859375,0.020435111597180367,0.038673847913742065,0.011858819052577019
1733358939113762800,8.0607626953125,0.02129478007555008,0.034037549048662186,0.013280680403113365
1733358939123728600,8.070728759765625,0.019841551780700684,0.026957733556628227,0.01705474592745304
1733358939133694700,8.08069482421875,0.01999894343316555,0.016724802553653717,0.018461426720023155
1733358939143660800,8.090660888671875,0.015616501681506634,0.0073104603216052055,0.020164351910352707
1733358939153626600,8.100626708984375,0.014736860059201717,-0.003748849034309387,0.02198195829987526
1733358939163592700,8.1105927734375,0.007666665595024824,-0.010803149081766605,0.02007342502474785
1733358939173557800,8.120557861328125,0.002228490775451064,-0.015824005007743835,0.017420118674635887
1733358939183523600,8.130523681640625,-0.002867637202143669,-0.01702728495001793,0.01545973215252161
1733358939193489700,8.14048974609375,-0.004965408705174923,-0.017306115478277206,0.013635201379656792
1733358939203455700,8.150455810546875,-0.007817910052835941,-0.013479381799697876,0.013108021579682827
1733358939213421800,8.160421875,-0.00973298866301775,-0.011565899476408958,0.0114107895642519
1733358939223387600,8.1703876953125,-0.005412860307842493,-0.009527563117444515,0.01307899784296751
1733358939233353700,8.180353759765625,-0.0018064078176394105,-0.0037708748131990433,0.013612428680062294
1733358939243319800,8.19031982421875,0.003014503512531519,-0.0005088364705443382,0.012399191036820412
1733358939253285600,8.20028564453125,0.006463030818849802,0.001081603579223156,0.009581034071743488
1733358939263251700,8.210251708984375,0.00914544053375721,0.0015435218811035156,0.0068046716041862965
1733358939273217800,8.2202177734375,0.013558298349380493,0.0015800073742866516,0.003798229154199362
1733358939283183900,8.230183837890625,0.015146915800869465,0.0019792187958955765,0.0026121903210878372
1733358939293149700,8.240149658203125,0.016579430550336838,0.0010369922965765,0.0035709282383322716
1733358939303114800,8.25011474609375,0.01726379618048668,-0.001421455293893814,0.004525285679847002
1733358939313080800,8.260080810546874,0.014672275632619858,0.0002515427768230438,0.004207570571452379
1733358939323046700,8.270046630859374,0.014144770801067352,0.0030702040530741215,0.001486844616010785
1733358939333012700,8.2800126953125,0.01371360570192337,0.008676424622535706,-0.00171747081913054
1733358939342978800,8.289978759765624,0.01170765608549118,0.007840793579816818,-0.0042443773709237576
1733358939352945000,8.29994482421875,0.010442920960485935,0.004488406237214804,-0.004683798644691706
1733358939362910700,8.30991064453125,0.0076177832670509815,0.0038498472422361374,-0.0032117031514644623
1733358939372876500,8.31987646484375,0.0049604810774326324,0.0021736538037657738,-0.000042541418224573135
1733358939382843000,8.3298427734375,0.003121171146631241,-0.0011630775406956673,0.0022405055351555347
1733358939392808700,8.33980859375,0.002041259314864874,-0.0034930771216750145,0.00373187568038702
1733358939402774800,8.34977490234375,0.0020464390981942415,-0.008297935128211975,0.004429311957210302
1733358939412740600,8.35974072265625,0.00001258289921679534,-0.01392226479947567,0.009305293671786785
1733358939422707000,8.36970703125,-0.000983926933258772,-0.01895255036652088,0.01341958437114954
1733358939432672800,8.3796728515625,-0.0019461269257590175,-0.02328018844127655,0.015714962035417557
1733358939442637600,8.389637451171875,-0.0032448717392981052,-0.02674281783401966,0.015568042173981667
1733358939452604000,8.39960400390625,-0.006769565399736166,-0.027902359142899513,0.014726483263075352
1733358939462569700,8.40956982421875,-0.007211117539554834,-0.02150784246623516,0.012844161130487919
1733358939472535800,8.419535888671875,-0.01171691995114088,-0.013728482648730278,0.007205184083431959
1733358939482501600,8.429501708984375,-0.01704414188861847,-0.006814475171267986,0.0042380839586257935
1733358939492467700,8.4394677734375,-0.019668687134981155,-0.0007238257676362991,0.0009967504302039742
1733358939502433800,8.449433837890625,-0.01949780248105526,0.0048554446548223495,-0.0018269459251314402
1733358939512399600,8.459399658203125,-0.017551831901073456,0.007891714572906494,-0.005005694925785065
1733358939522365700,8.46936572265625,-0.015722444280982018,0.009885174222290516,-0.003550873138010502
1733358939532331800,8.479331787109375,-0.014203377068042755,0.010086774826049805,-0.0021415282972157
1733358939542297900,8.4892978515625,-0.01082687173038721,0.008596454747021198,-0.003033990738913417
1733358939552263700,8.499263671875,-0.005942367948591709,0.0078009688295423985,-0.002757288282737136
1733358939562229800,8.509229736328125,-0.006871932186186314,0.008330389857292175,-0.0020099584944546223
1733358939572194800,8.51919482421875,-0.004353380762040615,0.008417741395533085,-0.0034829529467970133
1733358939582160600,8.52916064453125,-0.002506065648049116,0.007689615245908499,-0.00394656416028738
1733358939592126700,8.539126708984375,-0.002716189017519355,0.008889902383089066,-0.007093355525285006
1733358939602092800,8.5490927734375,0.001531860325485468,0.012130708433687687,-0.010103924199938774
1733358939612058600,8.55905859375,0.0020338662434369326,0.011830836534500122,-0.013618497177958488
1733358939622024700,8.569024658203125,0.00536680081859231,0.01274026557803154,-0.017097244039177895
1733358939631990800,8.57899072265625,0.005836849100887775,0.007938053458929062,-0.017819760367274284
1733358939641956900,8.588956787109375,0.0059794834814965725,0.0019884202629327774,-0.015662534162402153
1733358939651922700,8.598922607421875,0.004392772447317839,-0.004353098571300507,-0.011400410905480385
1733358939661889000,8.608888916015625,0.0056174383498728275,-0.009985166601836681,-0.007572070229798555
1733358939671855000,8.618855224609375,0.0023145857267081738,-0.01567501202225685,-0.0009639683412387967
1733358939681821200,8.6288212890625,-0.0006185299134813249,-0.017786048352718353,0.0028134058229625225
1733358939691786000,8.638785888671874,0.00016230891924351454,-0.01426880992949009,0.0005776819307357073
1733358939701752000,8.648751953125,0.0011871835449710488,-0.010488403029739857,-0.0023800786584615707
1733358939711718100,8.65871826171875,0.0006430997746065259,-0.003380425274372101,-0.005757233127951622
1733358939721684200,8.668684326171874,0.0007159461383707821,0.0031524053774774075,-0.00895734690129757
1733358939731650000,8.678650146484374,-0.00004545159754343331,0.00658255722373724,-0.014033598825335503
1733358939741616000,8.6886162109375,0.00015169907419476658,0.005981070455163717,-0.014654933474957943
1733358939751582200,8.698582275390624,-0.0018022621516138315,0.003436153754591942,-0.012961163185536861
1733358939761548000,8.708548095703126,-0.0022996405605226755,0.0007869331166148186,-0.008445433340966702
1733358939771514000,8.71851416015625,-0.003532684175297618,-0.005245658569037914,-0.003456534119322896
1733358939781480200,8.728480224609376,-0.006765338592231274,-0.01025157980620861,0.002837753389030695
1733358939791446300,8.7384462890625,-0.008338733576238155,-0.013108085840940475,0.006740349344909191
1733358939801412000,8.748412109375,-0.006871144752949476,-0.01725703664124012,0.011380022391676903
1733358939811378200,8.758378173828126,-0.004949674010276794,-0.017903652042150497,0.014153704047203064
1733358939821343200,8.76834326171875,-0.0014983512228354812,-0.01680690608918667,0.016951968893408775
1733358939831309000,8.77830908203125,0.0017885221168398857,-0.012700844556093216,0.01571785844862461
1733358939841275100,8.788275146484375,0.0037551007699221373,-0.006553110666573048,0.014801272191107273
1733358939851241200,8.7982412109375,0.0057109263725578785,-0.004226573742926121,0.011064590886235237
1733358939861207300,8.808207275390625,0.008400030434131622,0.0016754986718297005,0.010255616158246994
1733358939871173000,8.818173095703125,0.010507656261324883,0.002340756356716156,0.008047854527831078
1733358939881139000,8.828138916015625,0.009341735392808914,0.002589534968137741,0.007057818118482828
1733358939891105300,8.838105224609375,0.00872095301747322,0.0007215943187475204,0.006731847301125526
1733358939901071000,8.848071044921875,0.007320153992623091,-0.002229536883533001,0.007928014732897282
1733358939911037200,8.858037109375,0.002501696813851595,-0.006805913522839546,0.009783439338207245
1733358939921003000,8.8680029296875,0.0008782650111243129,-0.009151343256235123,0.010630548931658268
1733358939930969300,8.87796923828125,0.0012106274953112006,-0.01099744625389576,0.012417263351380825
1733358939940934100,8.88793408203125,0.0015385182341560721,-0.00906246155500412,0.010398954153060913
1733358939950900000,8.89789990234375,0.0015076255658641458,-0.004572638310492039,0.008737673982977867
1733358939960866300,8.9078662109375,0.003098031971603632,0.0010132230818271637,0.005958286114037037
1733358939970832100,8.91783203125,0.004726821556687355,0.008400832302868366,-0.00039148901123553514
1733358939980798200,8.927798095703125,0.0073240469209849834,0.007577888667583466,-0.0015621227212250233
1733358939990764000,8.937763916015625,0.0091208815574646,0.005610878113657236,-0.0024912997614592314
1733358940000730000,8.947730224609375,0.007899479009211063,0.006632612086832523,-0.0018225584644824266
1733358940010696200,8.9576962890625,0.008262733928859234,0.0037028687074780464,0.00009252072777599096
1733358940020662000,8.967662109375,0.009872560389339924,0.005690292455255985,-0.0003348608734086156
1733358940030628000,8.977628173828125,0.010829434730112553,0.008888749405741692,-0.0005902581615373492
1733358940040594200,8.98759423828125,0.013659307733178139,0.011872714385390282,0.00034675258211791515
1733358940050559000,8.99755908203125,0.015493959188461304,0.01462935283780098,0.0022525107488036156
1733358940060525000,9.007525146484374,0.01391532737761736,0.017341144382953644,0.00985327735543251
1733358940070491100,9.0174912109375,0.01169105526059866,0.01972653716802597,0.01327597163617611
1733358940080457200,9.027457275390624,0.009011159650981426,0.01711173914372921,0.01639530621469021
1733358940090423000,9.037423095703126,0.004561017267405987,0.015509581193327904,0.01567438803613186
1733358940100389000,9.04738916015625,0.002362424274906516,0.01721823588013649,0.010100482031702995
1733358940110355200,9.057355224609376,-0.004540222696959972,0.01508824061602354,0.002156538888812065
1733358940120321000,9.067321044921876,-0.009456420317292213,0.01642158068716526,-0.009250734001398087
1733358940130287000,9.077287109375,-0.011008244007825851,0.018270613625645638,-0.017405599355697632
1733358940140253200,9.087253173828126,-0.015741048380732536,0.021925708279013634,-0.025615401566028595
1733358940150219300,9.09721923828125,-0.016158897429704666,0.023640252649784088,-0.03076089359819889
1733358940160185000,9.10718505859375,-0.017050156369805336,0.027111243456602097,-0.03546183183789253
1733358940170150100,9.117150146484375,-0.017180385068058968,0.02592320740222931,-0.036970775574445724
1733358940180116200,9.1271162109375,-0.01923569105565548,0.024095917120575905,-0.038874611258506775
1733358940190082000,9.13708203125,-0.02025941014289856,0.022130770608782768,-0.04065307229757309
1733358940200048000,9.147048095703125,-0.024332117289304733,0.017198944464325905,-0.041703034192323685
1733358940210014200,9.15701416015625,-0.03099614381790161,0.01530863344669342,-0.04419175907969475
1733358940219980300,9.166980224609375,-0.04054655134677887,0.01265117060393095,-0.046404819935560226
1733358940229946000,9.176946044921875,-0.04305711016058922,0.013301515020430088,-0.051389724016189575
1733358940239912000,9.186911865234375,-0.049512285739183426,0.01239814329892397,-0.05369845777750015
1733358940249878300,9.196878173828125,-0.05195120722055435,0.010763761587440968,-0.05664631351828575
1733358940259844000,9.206843994140625,-0.04930928349494934,0.003907959908246994,-0.05589960142970085
1733358940269810200,9.21681005859375,-0.0452897734940052,-0.004825877025723457,-0.05240659788250923
1733358940279775200,9.226775146484375,-0.03526044264435768,-0.015817753970623016,-0.044047657400369644
1733358940289741000,9.236740966796875,-0.023976096883416176,-0.026998769491910934,-0.03049296699464321
1733358940299707100,9.24670703125,-0.011087916791439056,-0.03555362671613693,-0.01907564140856266
1733358940309673000,9.2566728515625,-0.0034544984810054302,-0.0430552214384079,-0.008699432946741581
1733358940319639300,9.266639404296875,0.002133024390786886,-0.044557444751262665,0.0031352872028946877
1733358940329605000,9.276605224609375,0.007318199146538973,-0.039560556411743164,0.008317266590893269
1733358940339571200,9.2865712890625,0.00996151939034462,-0.032292574644088745,0.011211244389414787
1733358940349537000,9.296537109375,0.012968760915100574,-0.02298455871641636,0.011840016581118107
1733358940359503000,9.306503173828125,0.010589939542114735,-0.014699949882924557,0.01068973820656538
1733358940369469200,9.31646923828125,0.00854729488492012,-0.004966628737747669,0.0073951417580246925
1733358940379435000,9.32643505859375,0.0018892008811235428,0.001711423508822918,0.006952190771698952
1733358940389400300,9.336400390625,-0.00426696240901947,0.008199683390557766,0.005237914156168699
1733358940399366100,9.3463662109375,-0.00810103677213192,0.010278666391968727,0.0066102189011871815
1733358940409332000,9.35633203125,-0.012635068967938423,0.01381694246083498,0.009993498213589191
1733358940419298000,9.366298095703126,-0.014289536513388157,0.013382341712713242,0.011253082193434238
1733358940429264100,9.37626416015625,-0.012808285653591156,0.013590866699814796,0.010936965234577656
1733358940439230200,9.386230224609376,-0.009153805673122406,0.015205967240035534,0.0069884005934000015
1733358940449196000,9.396196044921876,-0.005215257406234741,0.01972614973783493,0.005258144810795784
1733358940459162000,9.406162109375,0.0044946386478841305,0.0227707140147686,0.0018464958993718028
1733358940469128200,9.416128173828126,0.011911808513104916,0.023037297651171684,-0.001583122881129384
1733358940479094000,9.426093994140626,0.015878699719905853,0.01758524589240551,-0.0017351001733914018
1733358940489060000,9.43606005859375,0.016612401232123375,0.007933417335152626,-0.003650712314993143
1733358940499025200,9.446025146484375,0.013643906451761723,0.00043070968240499496,-0.006821548566222191
1733358940508991200,9.4559912109375,0.008578574284911156,-0.008915653452277184,-0.007281210273504257
1733358940518957000,9.46595703125,0.003616952570155263,-0.016349632292985916,-0.004320750944316387
1733358940528923100,9.475923095703125,0.003183656372129917,-0.02323922887444496,-0.003064005170017481
1733358940538889200,9.48588916015625,0.004340930841863155,-0.025144774466753006,0.0063709658570587635
1733358940548855000,9.49585498046875,0.010457145981490612,-0.022554315626621246,0.016234515234827995
1733358940558821000,9.505821044921875,0.01986951194703579,-0.02015310525894165,0.021826913580298424
1733358940568787200,9.515787109375,0.026999592781066895,-0.016987670212984085,0.028675764799118042
1733358940578753300,9.525753173828125,0.03685275837779045,-0.017029214650392532,0.031698450446128845
1733358940588719000,9.535718994140625,0.04097399860620499,-0.016799386590719223,0.02883954904973507
1733358940598685000,9.545684814453125,0.040667466819286346,-0.01506140548735857,0.0240852739661932
1733358940608650200,9.555650146484375,0.035610392689704895,-0.010300739668309689,0.01729661040008068
1733358940618616000,9.565615966796875,0.02654358558356762,-0.00875878520309925,0.012014939449727535
1733358940628582100,9.57558203125,0.01345521304756403,-0.008244527503848076,0.007714201230555773
1733358940638548200,9.58554833984375,0.002441808581352234,-0.005650246515870094,0.0015754244523122907
1733358940648514000,9.59551416015625,-0.009785829111933708,-0.002722100354731083,-0.0010778828291222453
1733358940658480000,9.605480224609375,-0.01679922081530094,0.0024424614384770393,-0.0061397794634103775
1733358940668446000,9.615446044921875,-0.020193686708807945,0.004773792810738087,-0.005476918071508408
1733358940678411800,9.625411865234375,-0.02108067087829113,0.003426202107220888,-0.0034432392567396164
1733358940688377900,9.6353779296875,-0.020858295261859894,0.0013364199548959732,-0.0016842213226482272
1733358940698343700,9.64534375,-0.017939938232302666,-0.004273287020623684,0.0015900973230600357
1733358940708310000,9.65531005859375,-0.016862424090504646,-0.006017657928168774,0.004381356295198202
1733358940718274800,9.66527490234375,-0.017913807183504105,-0.010773678310215473,0.004131400026381016
1733358940728240600,9.67524072265625,-0.01722032018005848,-0.014855238609015942,0.005514911841601133
1733358940738207000,9.68520703125,-0.013813973404467106,-0.01398511417210102,0.0032438046764582396
1733358940748172800,9.6951728515625,-0.010791285894811153,-0.004212111234664917,0.00028849486261606216
1733358940758139000,9.705138916015626,-0.007045571226626635,0.0018963012844324112,-0.003899312810972333
1733358940768104700,9.715104736328126,-0.005573642440140247,0.010443716309964657,-0.005786695517599583
1733358940778070800,9.72507080078125,-0.0037816509138792753,0.014088151976466179,-0.007081739138811827
1733358940788036900,9.735036865234376,0.001167035079561174,0.015428520739078522,-0.006090243812650442
1733358940798002700,9.745002685546876,-0.0006311693578027189,0.014671430923044682,-0.00822530034929514
1733358940807968800,9.75496875,-0.0015550198731943965,0.012848496437072754,-0.006532595492899418
1733358940817933800,9.764933837890625,-0.003964669536799192,0.005913011729717255,-0.006976530887186527
1733358940827899600,9.774899658203125,-0.007296284195035696,-0.001291637308895588,-0.004115497227758169
1733358940837865700,9.78486572265625,-0.008822053670883179,-0.005569101311266422,-0.001842197380028665
1733358940847831800,9.794831787109375,-0.0045293038710951805,-0.009798998944461346,0.0013213716447353363
1733358940857798000,9.8047978515625,-0.0015427853213623166,-0.012304243631660938,0.007927468046545982
1733358940867763700,9.814763671875,0.0058544110506772995,-0.011443243362009525,0.013143269345164299
1733358940877729800,9.824729736328125,0.013044669292867184,-0.01248165126889944,0.01830754429101944
1733358940887696000,9.83469580078125,0.02020963840186596,-0.009196109138429165,0.021990163251757622
1733358940897661700,9.84466162109375,0.02669139951467514,-0.01141684502363205,0.02316891774535179
1733358940907627800,9.854627685546875,0.028643229976296425,-0.014466164633631706,0.023913802579045296
1733358940917592800,9.8645927734375,0.02804155834019184,-0.01852559670805931,0.019662372767925262
1733358940927559000,9.874558837890625,0.02256263792514801,-0.021149342879652977,0.01374615915119648
1733358940937524700,9.884524658203125,0.01617491990327835,-0.024059388786554337,0.010637235827744007
1733358940947490800,9.89449072265625,0.008534843102097511,-0.027281012386083603,0.010469190776348114
1733358940957457000,9.904456787109375,0.0018211506539955735,-0.026887882500886917,0.01238221488893032
1733358940967422700,9.914422607421875,-0.00013440859038382769,-0.023976515978574753,0.012722566723823547
1733358940977388800,9.924388916015625,-0.0032686179038137197,-0.019970610737800598,0.013234921731054783
1733358940987355000,9.93435498046875,-0.004440675489604473,-0.014767327345907688,0.012602154165506363
1733358940997321000,9.944321044921875,-0.00871240720152855,-0.008783286437392235,0.008507556281983852
1733358941007286800,9.954286865234375,-0.0075219739228487015,-0.01338416337966919,0.006117635872215033
1733358941017251800,9.964251953125,-0.01219241414219141,-0.018329588696360588,0.00788028072565794
1733358941027218000,9.974218017578124,-0.01625985838472843,-0.019938670098781586,0.010473933070898056
1733358941037183700,9.984183837890624,-0.019858649000525475,-0.022731028497219086,0.010964233428239822
1733358941047149800,9.99414990234375,-0.023522626608610153,-0.02594492956995964,0.0075516593642532825
1733358941057116000,10.004115966796874,-0.02341708354651928,-0.02867509052157402,0.007065873593091965
1733358941067081700,10.014081787109374,-0.024108439683914185,-0.03397717699408531,0.009609991684556007
1733358941077047800,10.0240478515625,-0.01985006593167782,-0.034800976514816284,0.011629211716353893
1733358941087013600,10.034013671875,-0.01474958099424839,-0.02815691940486431,0.014596239663660526
1733358941096980000,10.04397998046875,-0.0073692165315151215,-0.022890187799930573,0.019232701510190964
1733358941106945800,10.05394580078125,-0.000021821520931553096,-0.014406953938305378,0.019946960732340813
1733358941116910600,10.06391064453125,0.005718708503991365,-0.00720837339758873,0.01829921454191208
1733358941126877000,10.073876953125,0.007060409057885408,-0.004814190790057182,0.015672005712985992
1733358941136842800,10.0838427734375,0.010273556225001812,-0.005280615761876106,0.01273664366453886
1733358941146808800,10.093808837890625,0.00923652108758688,-0.006247608922421932,0.009970152750611305
1733358941156774700,10.103774658203125,0.007590187713503838,-0.010614006780087948,0.008017903193831444
1733358941166741000,10.113740966796875,0.0056727114133536816,-0.015809569507837296,0.005756080150604248
1733358941176706800,10.123706787109375,0.0015155829023569822,-0.018764905631542206,0.007353139575570822
1733358941186672600,10.133672607421875,0.0006479250150732696,-0.020199548453092575,0.008128918707370758
1733358941196638700,10.143638671875,0.0017894365591928363,-0.020044919103384018,0.00912333745509386
1733358941206604800,10.153604736328125,-0.00024042482255026698,-0.019198833033442497,0.01167597807943821
1733358941216569900,10.16356982421875,0.006476867012679577,-0.018039077520370483,0.014513554982841015
1733358941226535700,10.17353564453125,0.00944655854254961,-0.01718393713235855,0.015271490439772606
1733358941236501800,10.183501708984375,0.011321593075990677,-0.013613799586892128,0.01625758223235607
1733358941246467800,10.1934677734375,0.014473976567387581,-0.012131217867136002,0.0171529371291399
1733358941256433700,10.20343359375,0.013856339268386364,-0.00876364205032587,0.015582079067826271
1733358941266399700,10.213399658203125,0.018336841836571693,-0.006405147723853588,0.013782048597931862
1733358941276365800,10.22336572265625,0.01832035928964615,-0.0003824979066848755,0.01339549571275711
1733358941286332000,10.233331787109375,0.01972091570496559,0.0046511427499353886,0.012046338059008121
1733358941296297700,10.243297607421875,0.02149045839905739,0.006231455132365227,0.011619752272963524
1733358941306263800,10.253263916015625,0.01988483965396881,0.011035531759262085,0.01231323927640915
1733358941316228900,10.263228759765624,0.019696544855833054,0.01442170049995184,0.01293762307614088
1733358941326194700,10.273194580078124,0.01985100656747818,0.013873089104890823,0.013002337887883186
1733358941336161000,10.2831611328125,0.018443355336785316,0.01651429757475853,0.013271682895720005
1733358941346126800,10.293126953125,0.017529623582959175,0.018767863512039185,0.01279257982969284
1733358941356092700,10.3030927734375,0.017210418358445168,0.022529184818267822,0.014544346369802952
1733358941366058800,10.313058837890624,0.01830391213297844,0.026347890496253967,0.014992290176451206
1733358941376024800,10.32302490234375,0.018086863681674004,0.024947334080934525,0.018850412219762802
1733358941385991000,10.332990966796874,0.01565726101398468,0.023916957899928093,0.024037716910243034
1733358941395956700,10.342956787109374,0.013315725140273571,0.016969779506325722,0.026829024776816368
1733358941405921800,10.352921875,0.013505076058208942,0.00775284506380558,0.03363553434610367
1733358941415888000,10.362887939453126,0.008620189502835274,-0.0010041268542408943,0.034537989646196365
1733358941425853700,10.372853759765626,0.008120314218103886,-0.004076882265508175,0.03666745498776436
1733358941435819800,10.38281982421875,0.002263980219140649,-0.0035806316882371902,0.032616280019283295
1733358941445785900,10.392785888671876,0.0009688850841484964,0.0012870943173766136,0.027623383328318596
1733358941455752000,10.402751953125,-0.00019843218615278602,0.007969029247760773,0.020698530599474907
1733358941465717800,10.4127177734375,0.0001096955529646948,0.011229803785681725,0.009612323716282845
1733358941475683600,10.42268359375,0.0018265093676745892,0.015915894880890846,0.00021887361072003841
1733358941485650000,10.43264990234375,0.0031700741965323687,0.0161270834505558,-0.0044975848868489265
1733358941495615700,10.44261572265625,0.0069311270490288734,0.016219543293118477,-0.006093275733292103
1733358941505580800,10.452580810546875,0.005878113210201263,0.015126315876841545,-0.0086299367249012
1733358941515547000,10.462546875,0.007741335779428482,0.011317746713757515,-0.008394690230488777
1733358941525512700,10.4725126953125,0.006771412678062916,0.007066808640956879,-0.004641497042030096
1733358941535478800,10.482478759765625,0.009005261585116386,-0.0015211282297968864,-0.000751810846850276
1733358941545444600,10.492444580078125,0.0079716881737113,-0.007700194604694843,0.003357446752488613
1733358941555411000,10.502410888671875,0.005415406543761492,-0.01105652004480362,0.008924202062189579
1733358941565376800,10.512376708984375,0.00623219832777977,-0.015063244849443436,0.01208643987774849
1733358941575342800,10.5223427734375,0.008329303003847599,-0.015468096360564232,0.01535805594176054
1733358941585308700,10.53230859375,0.009394833818078041,-0.017525121569633484,0.016790037974715233
1733358941595273700,10.542273681640625,0.009517621248960495,-0.017223995178937912,0.016942135989665985
1733358941605239800,10.55223974609375,0.00981749314814806,-0.019229087978601456,0.016953321173787117
1733358941615206000,10.562205810546875,0.01336890272796154,-0.020144890993833542,0.0171575378626585
1733358941625172000,10.572171875,0.013272230513393879,-0.021659962832927704,0.018393510952591896
1733358941635137800,10.5821376953125,0.010383276268839836,-0.0211053304374218,0.017986822873353958
1733358941645103600,10.592103515625,0.008680450730025768,-0.019470684230327606,0.01872611604630947
1733358941655070000,10.602070068359374,0.0070773023180663586,-0.017840543761849403,0.019164295867085457
1733358941665036300,10.612036376953125,0.0024476631078869104,-0.017388606444001198,0.01672404073178768
1733358941675002000,10.622002197265624,-0.0016453383723273873,-0.015304375439882278,0.01666318252682686
1733358941684967200,10.63196728515625,-0.00351541000418365,-0.012792481109499931,0.01278987992554903
1733358941694933200,10.641933349609374,-0.005325071047991514,-0.011339090764522552,0.012218923307955265
1733358941704899000,10.651899169921874,-0.005694717634469271,-0.010938551276922226,0.00924097653478384
1733358941714865200,10.661865234375,-0.00861030351370573,-0.008529026061296463,0.005818257108330727
1733358941724831200,10.671831298828126,-0.008161294274032116,-0.006477860733866692,0.005525309592485428
1733358941734797300,10.68179736328125,-0.007602606434375048,-0.004896903410553932,0.0009859760757535696
1733358941744763100,10.69176318359375,-0.0047194682992994785,-0.0005189329385757446,0.0003833026858046651
1733358941754729200,10.701729248046876,-0.003723498899489641,0.0003309454768896103,-0.0018708992283791304
1733358941764695000,10.711695068359376,-0.0013921678764745593,0.0031693419441580772,0.00003539142198860645
1733358941774660000,10.72166015625,-0.0001746007037581876,0.0033135106787085533,0.002645951695740223
1733358941784626200,10.731626220703125,0.0018728375434875488,0.0032104463316500187,0.004169546067714691
1733358941794592300,10.74159228515625,0.004167820326983929,0.002942846156656742,0.004453247878700495
1733358941804558300,10.751558349609375,0.004821093752980232,0.004851799923926592,0.005213313736021519
1733358941814524200,10.761524169921875,0.005020085722208023,0.0019491566345095634,0.005330062471330166
1733358941824490000,10.771489990234375,0.007874994538724422,0.003595788963139057,0.003190745133906603
1733358941834456300,10.781456298828125,0.006559018976986408,0.002767674159258604,0.0038496730849146843
1733358941844422100,10.791422119140625,0.005817328579723835,0.0038073724135756493,0.0038073291070759296
1733358941854388200,10.80138818359375,0.007364092394709587,0.003280066419392824,0.0030946671031415462
1733358941864353300,10.811353271484375,0.010094897821545601,0.0036808722652494907,0.004707477521151304
1733358941874319000,10.821319091796875,0.009016393683850765,0.0046942709013819695,0.004022089298814535
1733358941884285200,10.83128515625,0.006646712310612202,0.004727027844637632,0.005094544030725956
1733358941894251000,10.8412509765625,0.006373237818479538,0.004029668867588043,0.005113567691296339
1733358941904217300,10.85121728515625,0.0053822752088308334,0.004668294917792082,0.0036530899815261364
1733358941914183200,10.86118310546875,0.004069251008331776,0.00532012851908803,0.0017276541329920292
1733358941924149200,10.871149169921875,0.002818364417180419,0.004694818519055843,0.0003468050854280591
1733358941934115000,10.881114990234375,0.0051151178777217865,0.007598674390465021,-0.0007072794251143932
1733358941944081200,10.8910810546875,0.001692956080660224,0.012758549302816391,-0.003864190774038434
1733358941954046200,10.901046142578124,0.0012856725370511413,0.015225062146782875,-0.0037509759422391653
1733358941964012000,10.911011962890624,-0.0007601677207276225,0.014077505096793175,-0.004275086335837841
1733358941973978400,10.920978271484374,0.0008030972676351666,0.011734948493540287,-0.004313296638429165
1733358941983944200,10.930944091796874,-0.000026743749913293868,0.010640655644237995,-0.004648854956030846
1733358941993910000,10.940909912109374,0.0016264403238892555,0.010010411031544209,-0.004170489963144064
1733358942003876000,10.9508759765625,0.0007662392454221845,0.009956348687410355,-0.0035712788812816143
1733358942013842200,10.96084228515625,-0.0006234930478967726,0.011063058860599995,-0.005284303333610296
1733358942023808300,10.970808349609374,0.001404504175297916,0.009697922505438328,-0.005184701178222895
1733358942033774000,10.980774169921874,0.0012043716851621866,0.014556589536368847,-0.0038490709848701954
1733358942043739100,10.9907392578125,0.0008349912241101265,0.011703811585903168,-0.0007808430818840861
1733358942053705200,11.000705322265626,0.001156775513663888,0.009637483395636082,0.001913567422889173
1733358942063671000,11.010671142578126,-0.00007174060738179833,0.010723520070314407,0.003097076201811433
1733358942073637000,11.02063720703125,-0.0013828998198732734,0.009029424749314785,0.0033373418264091015
1733358942083603200,11.030603271484376,-0.001599148497916758,0.010145023465156555,-0.0022164140827953815
1733358942093569300,11.0405693359375,-0.0047653489746153355,0.014641359448432922,-0.006475226022303104
1733358942103535000,11.05053515625,-0.005670823622494936,0.01961667649447918,-0.010683819651603699
1733358942113501200,11.060501220703125,-0.00844388734549284,0.027328982949256897,-0.015967046841979027
1733358942123467300,11.07046728515625,-0.005162607412785292,0.030570581555366516,-0.01778891496360302
1733358942133432000,11.08043212890625,-0.006845022086054087,0.031162504106760025,-0.018778624013066292
1733358942143398400,11.0903984375,-0.007322793360799551,0.02782076969742775,-0.015981240198016167
1733358942153364200,11.1003642578125,-0.005072933156043291,0.02345939353108406,-0.011974526569247246
1733358942163330000,11.110330078125,-0.004887310788035393,0.020281177014112473,-0.009599253535270691
1733358942173296000,11.120296142578125,-0.004603684414178133,0.014166291803121567,-0.008133715018630028
1733358942183262200,11.13026220703125,-0.003988227806985378,0.011686623096466064,-0.007047146093100309
1733358942193228300,11.140228271484375,-0.004738546442240477,0.009661414660513401,-0.005805786233395338
1733358942203194000,11.150194091796875,-0.0039489190094172955,0.009522131644189358,-0.006898215040564537
1733358942213160200,11.16016015625,-0.00263788690790534,0.006610867567360401,-0.008352809585630894
1733358942223125200,11.170125244140625,0.0007328761275857687,0.008155235089361668,-0.009958429262042046
1733358942233091000,11.180091064453125,0.0016770722577348351,0.012510975822806358,-0.0091163981705904
1733358942243057200,11.19005712890625,0.0029181053396314383,0.01624632626771927,-0.011136671528220177
1733358942253023200,11.200023193359375,0.00538651505485177,0.01800958439707756,-0.011290693655610085
1733358942262989300,11.2099892578125,0.004314326215535402,0.01703726500272751,-0.011174580082297325
1733358942272955100,11.219955078125,0.005117844790220261,0.020312583073973656,-0.012171424925327301
1733358942282921000,11.2299208984375,0.0032823937945067883,0.020230557769536972,-0.009547945111989975
1733358942292887300,11.23988720703125,0.0026547503657639027,0.019640112295746803,-0.009126936085522175
1733358942302852000,11.24985205078125,-0.000509617559146136,0.019718144088983536,-0.010859854519367218
1733358942312818200,11.259818115234374,-0.0006949308444745839,0.017811216413974762,-0.0066917650401592255
1733358942322784300,11.2697841796875,-0.0005583107122220099,0.015360308811068535,-0.005943417549133301
1733358942332750000,11.27975,-0.0008185654878616333,0.015364592894911766,-0.004310330841690302
1733358942342716200,11.289716064453126,-0.003340312745422125,0.013203970156610012,-0.0033678379841148853
1733358942352682200,11.29968212890625,-0.00461704283952713,0.014891308732330799,-0.0041027311235666275
1733358942362648300,11.3096484375,-0.0057704574428498745,0.015062550082802773,-0.006305697839707136
1733358942372614100,11.3196142578125,-0.002862584078684449,0.018457423895597458,-0.009413988329470158
1733358942382580200,11.329580322265626,-0.004064468666911125,0.019595926627516747,-0.012723765335977077
1733358942392545300,11.339545166015625,-0.004858430474996567,0.020198049023747444,-0.016211265698075294
1733358942402511000,11.349510986328125,-0.0025231046602129936,0.022600486874580383,-0.015545740723609924
1733358942412477200,11.359477294921875,-0.006005828268826008,0.021544087678194046,-0.015119059942662716
1733358942422443300,11.369443359375,-0.005178916733711958,0.02031450718641281,-0.015739046037197113
1733358942432409300,11.379409423828125,-0.003157129744067788,0.02039594016969204,-0.01062812376767397
1733358942442375200,11.389375244140625,-0.0028103862423449755,0.018368475139141083,-0.011537592858076096
1733358942452341000,11.399341064453125,-0.0027374366763979197,0.018966274335980415,-0.012053967453539371
1733358942462307300,11.409307373046875,-0.0021632590796798468,0.01924271136522293,-0.012039054185152054
1733358942472272100,11.419272216796875,-0.0014495633076876402,0.019984809681773186,-0.011714529246091843
1733358942482238200,11.42923828125,-0.0015784603310748935,0.017820725217461586,-0.010412775911390781
1733358942492204300,11.439204345703125,-0.0010867315577343106,0.016127673909068108,-0.009848496876657009
1733358942502170000,11.449170166015625,-0.00007925777754280716,0.01457531750202179,-0.005660409573465586
1733358942512136200,11.45913623046875,0.0008623633766546845,0.014031212776899338,-0.0038431608118116856
1733358942522102000,11.46910205078125,0.00020669309014920145,0.013933475129306316,-0.004674066789448261
1733358942532068400,11.479068359375,-0.0005935661029070616,0.01400812529027462,-0.004678872413933277
1733358942542034200,11.4890341796875,0.0006117806187830865,0.013205980882048607,-0.005440003704279661
1733358942551999000,11.4989990234375,0.0013567788992077112,0.009241204708814621,-0.006990445777773857
1733358942561965300,11.50896533203125,-0.000913299503736198,0.009704861789941788,-0.007780338637530804
1733358942571931100,11.51893115234375,0.0006439053104259074,0.009990870021283627,-0.009280908852815628
1733358942581897200,11.528897216796874,0.0012955808779224753,0.010215374641120434,-0.010264148004353046
1733358942591863000,11.538863037109374,0.0007087362464517355,0.01533974427729845,-0.011894469149410725
1733358942601829400,11.548829345703124,-0.0002025974536081776,0.014807378873229027,-0.011093390174210072
1733358942611795200,11.558795166015624,-0.00048602130846120417,0.013467563316226006,-0.009103972464799881
1733358942621761000,11.568760986328124,0.0010271868668496609,0.010089876130223274,-0.00500723160803318
1733358942631726300,11.578726318359376,0.0004558442742563784,0.0054039438255131245,-0.0039300620555877686
1733358942641692200,11.588692138671876,0.0004510505823418498,0.003447319380939007,-0.0027817070949822664
1733358942651658000,11.598657958984376,0.0008173765963874757,0.003145091235637665,-0.003887114580720663
1733358942661624300,11.608624267578126,-0.00010727291373768821,0.003923267126083374,-0.0003536322619765997
1733358942671590100,11.618590087890626,0.001187456538900733,0.0041170017793774605,-0.0009630582062527537
1733358942681556000,11.628555908203126,0.0006409758352674544,0.006384683772921562,0.0011283222120255232
1733358942691522000,11.63852197265625,-0.00258625322021544,0.007914095185697079,0.0020368655677884817
1733358942701488000,11.648488037109376,-0.002179055940359831,0.004378748591989279,0.002888544462621212
1733358942711453000,11.658452880859375,-0.0039008837193250656,0.0013279961422085762,0.0023023029789328575
1733358942721419000,11.6684189453125,-0.007285495288670063,-0.0027759354561567307,-0.0009709881851449609
1733358942731385000,11.678385009765625,-0.007314110640436411,-0.0027647102251648903,-0.0032917498610913754
1733358942741351200,11.68835107421875,-0.006261096335947514,0.0009948741644620895,-0.007415655069053173
1733358942751317000,11.69831689453125,-0.008624725975096226,0.0031171273440122604,-0.011396639049053192
1733358942761282800,11.70828271484375,-0.007058520335704088,0.002657199278473854,-0.011160151101648808
1733358942771249200,11.718249267578125,-0.0041079833172261715,0.000807449221611023,-0.006017598789185286
1733358942781215000,11.728215087890625,-0.004394805524498224,-0.0034794406965374947,-0.0022857110016047955
1733358942791181000,11.73818115234375,-0.003225640393793583,-0.0074095698073506355,0.004042355343699455
1733358942801146000,11.74814599609375,-0.003184627741575241,-0.01091854926198721,0.0061254799365997314
1733358942811112000,11.75811181640625,-0.0011652219109237194,-0.015780437737703323,0.00860756728798151
1733358942821078000,11.768078125,0.00011788915435317904,-0.016158606857061386,0.010589491575956345
1733358942831043800,11.7780439453125,-0.0018016996327787638,-0.016617387533187866,0.010302278213202953
1733358942841010200,11.78801025390625,-0.000017647982531343587,-0.01838625967502594,0.009346469305455685
1733358942850976000,11.79797607421875,0.002672424539923668,-0.017455976456403732,0.011354733258485794
1733358942860942000,11.807942138671875,0.0035709752701222897,-0.017992336302995682,0.010658849962055683
1733358942870907100,11.8179072265625,0.0053203534334897995,-0.015474521555006504,0.009992956183850765
1733358942880873000,11.827873046875,0.006047662813216448,-0.014270241372287273,0.009072034619748592
1733358942890839000,11.837839111328124,0.0058606774546206,-0.013625077903270721,0.008514786139130592
1733358942900805000,11.84780517578125,0.0067592281848192215,-0.011323042213916779,0.00711529515683651
1733358942910771000,11.85777099609375,0.005438405089080334,-0.010352179408073425,0.006266219541430473
1733358942920737000,11.867737060546874,0.00583867821842432,-0.011053921654820442,0.010683604516088963
1733358942930702800,11.877702880859376,0.0038914219476282597,-0.01017327606678009,0.011355778202414513
1733358942940669200,11.887669189453124,0.002110033528879285,-0.01233549602329731,0.013225583359599113
1733358942950635000,11.897635009765626,-0.000003215658580302261,-0.011811775155365467,0.011024631559848785
1733358942960599800,11.907599853515626,-0.0004104129911866039,-0.010510819964110851,0.011511189863085747
1733358942970566100,11.917566162109376,-0.00016670273907948285,-0.012066250666975975,0.010446041822433472
1733358942980532000,11.927531982421876,-0.0011989439371973276,-0.009481387212872505,0.00875014066696167
1733358942990498000,11.937498046875,-0.0018209338886663318,-0.011391977779567242,0.0081260921433568
