time,seconds_elapsed,z,y,x
1733358356206262800,0.0202626953125,-0.03130693361163139,0.024655422195792198,-0.0027595902793109417
1733358356216228000,0.03022802734375,-0.029777763411402702,0.031140699982643127,-0.00044968666043132544
1733358356226192000,0.04019189453125,-0.01923350989818573,0.0312189981341362,0.0014456850476562977
1733358356236157000,0.050156982421875,-0.010846416465938091,0.024226602166891098,-0.006390399765223265
1733358356246122000,0.0601220703125,-0.016445713117718697,0.01689065806567669,-0.01275349035859108
1733358356256085800,0.070085693359375,-0.018249541521072388,0.01573008857667446,-0.012376370839774609
1733358356266050800,0.08005078125,-0.015946971252560616,0.013849098235368729,-0.011326552368700504
1733358356276015000,0.09001513671875,-0.007567424792796373,-0.00234051700681448,0.0005553263472393155
1733358356285980000,0.09997998046875,-0.0008932769414968789,-0.013812881894409657,0.011805051937699318
1733358356295945000,0.109945068359375,0.005267946049571037,-0.02391611412167549,0.01085084117949009
1733358356305909000,0.119908935546875,0.02430022694170475,-0.03508461266756058,0.0016165960114449263
1733358356315873800,0.129873779296875,0.05031296983361244,-0.03777662664651871,-0.017372146248817444
1733358356325837800,0.139837890625,0.06441547721624374,-0.020627200603485107,-0.03769632428884506
1733358356335803100,0.14980322265625,0.07547982782125473,0.019267410039901733,-0.058478452265262604
1733358356345767000,0.159766845703125,0.07187257707118988,0.058027058839797974,-0.08409246802330017
1733358356355732000,0.16973193359375,0.059593748301267624,0.07422613352537155,-0.10276689380407333
1733358356365697000,0.179697021484375,0.06250831484794617,0.08890867233276367,-0.10251309722661972
1733358356375660800,0.189660888671875,0.09334837645292282,0.1035713329911232,-0.10056014358997345
1733358356385625900,0.1996259765625,0.09780410677194595,0.11444955319166183,-0.10007065534591675
1733358356395591000,0.2095908203125,0.0865061804652214,0.1369979977607727,-0.11169162392616272
1733358356405555000,0.219554931640625,0.09786296635866165,0.1706281304359436,-0.13123363256454468
1733358356415520000,0.22952001953125,0.12429483979940414,0.19022367894649506,-0.15910467505455017
1733358356425484000,0.239484130859375,0.14880232512950897,0.19490684568881989,-0.18861782550811768
1733358356435448800,0.24944873046875,0.16039009392261505,0.20200234651565552,-0.2049606442451477
1733358356445414000,0.259413818359375,0.15494632720947266,0.2187861204147339,-0.2135879546403885
1733358356455378000,0.2693779296875,0.12968800961971283,0.26021525263786316,-0.23069976270198822
1733358356465343000,0.279343017578125,0.10428810864686966,0.3397899866104126,-0.2707369327545166
1733358356475307000,0.28930712890625,0.1004704162478447,0.39405307173728943,-0.29834815859794617
1733358356485271800,0.299271728515625,0.1133212298154831,0.38578635454177856,-0.30611154437065125
1733358356495236900,0.30923681640625,0.14582784473896027,0.35184773802757263,-0.2972235679626465
1733358356505201000,0.319200927734375,0.18558937311172485,0.3218288719654083,-0.30687326192855835
1733358356515166000,0.329166015625,0.22388727962970734,0.3006126880645752,-0.32818830013275146
1733358356525130000,0.3391298828125,0.2647886276245117,0.2744114398956299,-0.34337469935417175
1733358356535095000,0.349094970703125,0.2942116856575012,0.2506166994571686,-0.35015344619750977
1733358356545059800,0.359059814453125,0.31986698508262634,0.2576884627342224,-0.35877278447151184
1733358356555024000,0.36902392578125,0.33548876643180847,0.2945578098297119,-0.3717472553253174
1733358356564989000,0.378989013671875,0.3559764623641968,0.3253793716430664,-0.38237354159355164
1733358356574953000,0.388952880859375,0.37686532735824585,0.33372893929481506,-0.3745090067386627
1733358356584918000,0.39891796875,0.41013461351394653,0.3315123915672302,-0.3590157926082611
1733358356594883000,0.408883056640625,0.45412179827690125,0.3196527063846588,-0.3471164405345917
1733358356604846800,0.418846923828125,0.5019902586936951,0.2899121046066284,-0.35307127237319946
1733358356614812000,0.42881201171875,0.5505058169364929,0.30162307620048523,-0.3692895174026489
1733358356624776000,0.43877587890625,0.5641265511512756,0.4100147783756256,-0.39846229553222656
1733358356634740700,0.44874072265625,0.540928304195404,0.561566948890686,-0.44262057542800903
1733358356644706000,0.4587060546875,0.5088140368461609,0.6084167957305908,-0.4539949297904968
1733358356654670000,0.468670166015625,0.49257656931877136,0.4969375729560852,-0.3958560526371002
1733358356664635000,0.478634765625,0.4814717471599579,0.30324506759643555,-0.3147888779640198
1733358356674599000,0.488598876953125,0.47557327151298523,0.12201990187168121,-0.25429898500442505
1733358356684564000,0.49856396484375,0.4879697561264038,0.002959292847663164,-0.20770537853240967
1733358356694528800,0.50852880859375,0.5128586292266846,-0.03939032927155495,-0.1714818775653839
1733358356704492800,0.518492919921875,0.5369194746017456,-0.04103190451860428,-0.1316567063331604
1733358356714458000,0.5284580078125,0.5286449790000916,0.017150960862636566,-0.09684742987155914
1733358356724422000,0.538421875,0.46940189599990845,0.15613681077957153,-0.0724499449133873
1733358356734387000,0.548386962890625,0.3899245262145996,0.3106122612953186,-0.08531203120946884
1733358356744351700,0.558351806640625,0.33935776352882385,0.36067676544189453,-0.09998871386051178
1733358356754315800,0.568315673828125,0.3148754835128784,0.31718072295188904,-0.08984082192182541
1733358356764281000,0.578281005859375,0.30135250091552734,0.27221617102622986,-0.07478038221597672
1733358356774245000,0.5882451171875,0.30845752358436584,0.2566104829311371,-0.0652366578578949
1733358356784210000,0.5982099609375,0.3264690041542053,0.2647099494934082,-0.060626983642578125
1733358356794175000,0.608175048828125,0.3395671546459198,0.3099861145019531,-0.05995795875787735
1733358356804139000,0.618138916015625,0.33910349011421204,0.40739789605140686,-0.0653039813041687
1733358356814103800,0.628103759765625,0.350507527589798,0.46455875039100647,-0.056344613432884216
1733358356824067800,0.63806787109375,0.3894250988960266,0.4458942413330078,-0.03675200417637825
1733358356834033000,0.648032958984375,0.4487534761428833,0.3542684018611908,-0.010926044546067715
1733358356843998000,0.657998046875,0.5031855702400208,0.2323094606399536,0.004165024030953646
1733358356853962000,0.6679619140625,0.5428915023803711,0.12229738384485245,0.0007204210269264877
1733358356863926800,0.6779267578125,0.5705745220184326,0.042635053396224976,-0.02060803771018982
1733358356873890800,0.687890869140625,0.5829153060913086,0.0020731110125780106,-0.03690745681524277
1733358356883856000,0.69785595703125,0.5750144720077515,-0.0045499037951231,-0.05350853502750397
1733358356893821000,0.707821044921875,0.5635808706283569,-0.003423239104449749,-0.08290113508701324
1733358356903785000,0.717784912109375,0.5564888715744019,0.0020817816257476807,-0.10810502618551254
1733358356913750000,0.72775,0.5653026103973389,0.006789591163396835,-0.1032831072807312
1733358356923714000,0.737714111328125,0.5927754640579224,-0.03915206715464592,-0.06689580529928207
1733358356933678800,0.747678955078125,0.6118866801261902,-0.10127267986536026,-0.020531663671135902
1733358356943644000,0.757643798828125,0.5877576470375061,-0.1268582046031952,0.0022040095645934343
1733358356953608000,0.76760791015625,0.5258910655975342,-0.12111134082078934,0.01853853650391102
1733358356963573000,0.777572998046875,0.45206236839294434,-0.11798001080751419,0.05441637709736824
1733358356973537000,0.787537109375,0.37471771240234375,-0.12783178687095642,0.11346346139907837
1733358356983501800,0.797501708984375,0.32306623458862305,-0.15179970860481262,0.18019962310791016
1733358356993467000,0.807466796875,0.3067753314971924,-0.18340033292770386,0.24287918210029602
1733358357003431000,0.817430908203125,0.300413578748703,-0.221999391913414,0.2853962779045105
1733358357013396000,0.82739599609375,0.29549118876457214,-0.24717757105827332,0.31378453969955444
1733358357023360000,0.837360107421875,0.2788754403591156,-0.2596816420555115,0.3357902467250824
1733358357033325000,0.847324951171875,0.2524455189704895,-0.24784082174301147,0.35157886147499084
1733358357043289900,0.857289794921875,0.2196952849626541,-0.21259336173534393,0.36349359154701233
1733358357053254000,0.86725390625,0.18681198358535767,-0.17368294298648834,0.3678325414657593
1733358357063219000,0.877218994140625,0.14985211193561554,-0.12770959734916687,0.3689691722393036
1733358357073182700,0.8871826171875,0.11850032955408096,-0.07759445905685425,0.3587528467178345
1733358357083148000,0.89714794921875,0.08116201311349869,-0.023715779185295105,0.33522701263427734
1733358357093112800,0.90711279296875,0.042775943875312805,0.03736651688814163,0.2955225110054016
1733358357103076900,0.917076904296875,0.01867912895977497,0.10156627744436264,0.2558872103691101
1733358357113042000,0.9270419921875,0.01337434258311987,0.14848041534423828,0.225111722946167
1733358357123006000,0.937005859375,0.013160224072635174,0.16743892431259155,0.20162291824817657
1733358357132970800,0.946970703125,0.015380091965198517,0.17335818707942963,0.17542976140975952
1733358357142936300,0.956936279296875,0.010007163509726524,0.1700926125049591,0.14461351931095123
1733358357152900000,0.966900146484375,0.005159361287951469,0.1765870898962021,0.11220192164182663
1733358357162865400,0.976865478515625,0.0034725149162113667,0.1910688281059265,0.08169993758201599
1733358357172829400,0.986829345703125,0.009893393144011497,0.2030232548713684,0.05352851375937462
1733358357182794200,0.996794189453125,0.03206101432442665,0.2033654749393463,0.027025533840060234
1733358357192759300,1.00675927734375,0.06138145923614502,0.19074000418186188,0.0007605762220919132
1733358357202723300,1.016723388671875,0.10190385580062866,0.17360521852970123,-0.02411787584424019
1733358357212688100,1.026688232421875,0.134968101978302,0.1524752825498581,-0.04603331536054611
1733358357222652200,1.036652099609375,0.1651259958744049,0.144471675157547,-0.055569831281900406
1733358357232617500,1.046617431640625,0.19026914238929749,0.13162128627300262,-0.05361877381801605
1733358357242582300,1.056582275390625,0.20185361802577972,0.11030827462673187,-0.0413820818066597
1733358357252546300,1.06654638671875,0.20153696835041046,0.10245618969202042,-0.028321968391537666
1733358357262511400,1.076511474609375,0.20100726187229156,0.0924682691693306,-0.01847998984158039
1733358357272475100,1.08647509765625,0.19506239891052246,0.07673358172178268,-0.009104901924729347
1733358357282440200,1.096440185546875,0.19654124975204468,0.05647411569952965,-0.0011545667657628655
1733358357292405200,1.1064052734375,0.20021148025989532,0.03820681571960449,0.0021084235049784184
1733358357302369300,1.116369384765625,0.20435082912445068,0.04017515480518341,-0.0021529006771743298
1733358357312334300,1.126334228515625,0.20594805479049683,0.07154222577810287,-0.013784730806946754
1733358357322299100,1.136299072265625,0.20952947437763214,0.11970895528793335,-0.030568238347768784
1733358357332263200,1.14626318359375,0.21793819963932037,0.1690293401479721,-0.040665097534656525
1733358357342228500,1.156228515625,0.22680705785751343,0.2122122198343277,-0.043971944600343704
1733358357352192500,1.166192626953125,0.23616963624954224,0.24025198817253113,-0.03464902192354202
1733358357362157300,1.1761572265625,0.24248771369457245,0.25051742792129517,-0.018253803253173828
1733358357372122400,1.186122314453125,0.2449716180562973,0.24874334037303925,0.00211165240034461
1733358357382086400,1.19608642578125,0.241130530834198,0.26423922181129456,0.012183194980025291
1733358357392051200,1.20605126953125,0.24009664356708527,0.2796763777732849,0.01843089610338211
1733358357402015200,1.21601513671875,0.2390950322151184,0.275674432516098,0.030247874557971954
1733358357411980300,1.225980224609375,0.23636285960674286,0.2527138888835907,0.04512271657586098
1733358357421945300,1.2359453125,0.23039524257183075,0.22213201224803925,0.054375603795051575
1733358357431909400,1.245909423828125,0.22067426145076752,0.19892841577529907,0.055473171174526215
1733358357441874200,1.255874267578125,0.2058148831129074,0.18616627156734467,0.04468150809407234
1733358357451838200,1.265838134765625,0.18377894163131714,0.1789017766714096,0.029029807075858116
1733358357461803300,1.27580322265625,0.15729087591171265,0.17710919678211212,0.01786104217171669
1733358357471768300,1.285768310546875,0.14034299552440643,0.1701882779598236,0.01321449689567089
1733358357481732400,1.295732421875,0.13127519190311432,0.16021740436553955,0.009551319293677807
1733358357491697400,1.305697509765625,0.12183929979801178,0.1543731987476349,0.0010570659069344401
1733358357501661200,1.3156611328125,0.11722564697265625,0.15999352931976318,-0.007005387917160988
1733358357511626200,1.325626220703125,0.10768802464008331,0.17367620766162872,-0.01511522475630045
1733358357521591300,1.33559130859375,0.10658121109008789,0.1819210946559906,-0.021750224754214287
1733358357531555300,1.345555419921875,0.10052724927663803,0.17825768887996674,-0.022193623706698418
1733358357541520400,1.355520263671875,0.09531677514314651,0.1643352061510086,-0.015456359833478928
1733358357551484400,1.365484375,0.079505555331707,0.13418227434158325,0.000001980341039597988
1733358357561449200,1.37544921875,0.06238488480448723,0.10245390236377716,0.014237374998629093
1733358357571414300,1.385414306640625,0.03361692279577255,0.06978289783000946,0.02063695527613163
1733358357581378300,1.39537841796875,0.011711889877915382,0.03304352983832359,0.02647220715880394
1733358357591343400,1.40534326171875,-0.007161947898566723,-0.017738765105605125,0.03601736202836037
1733358357601307400,1.415307373046875,-0.018871068954467773,-0.06576860696077347,0.051163025200366974
1733358357611272400,1.4252724609375,-0.03061845153570175,-0.09864558279514313,0.06158594414591789
1733358357621237200,1.4352373046875,-0.03861459344625473,-0.11669090390205383,0.06606165319681168
1733358357631201300,1.445201171875,-0.04443054273724556,-0.12140566855669022,0.06159638985991478
1733358357641166300,1.455166259765625,-0.05311324819922447,-0.11139696836471558,0.053985871374607086
1733358357651130000,1.465130126953125,-0.05684109032154083,-0.09502261132001877,0.04530516266822815
1733358357661095400,1.475095458984375,-0.05621498078107834,-0.08079253882169724,0.040652886033058167
1733358357671060200,1.485060302734375,-0.0479075163602829,-0.06692042946815491,0.032986417412757874
1733358357681024300,1.495024169921875,-0.03954891860485077,-0.048721980303525925,0.031439390033483505
1733358357690989300,1.5049892578125,-0.03301306068897247,-0.02942117303609848,0.03368077054619789
1733358357700953300,1.514953369140625,-0.02294471487402916,-0.007713480852544308,0.034010738134384155
1733358357710918100,1.524918212890625,-0.011531186290085316,0.010248526930809021,0.03813077136874199
1733358357720883500,1.534883544921875,-0.00196165032684803,0.021877219900488853,0.03731025010347366
1733358357730847200,1.54484716796875,-0.0005494267679750919,0.027926411479711533,0.028637006878852844
1733358357740812300,1.554812255859375,0.0037984498776495457,0.03928346186876297,0.023115474730730057
1733358357750776300,1.5647763671875,0.007238128688186407,0.040429577231407166,0.02723853848874569
1733358357760741000,1.5747412109375,0.009901555255055428,0.034047313034534454,0.03621179237961769
1733358357770706400,1.58470654296875,0.01728668436408043,0.024147771298885345,0.045461878180503845
1733358357780670500,1.59467041015625,0.02103135548532009,0.01666082814335823,0.04724060371518135
1733358357790635300,1.60463525390625,0.025286251679062843,0.016979504376649857,0.04060136526823044
1733358357800599300,1.614599365234375,0.031974781304597855,0.028989296406507492,0.026928963139653206
1733358357810564400,1.624564453125,0.040421262383461,0.0480431504547596,0.011659728363156319
1733358357820529200,1.634529052734375,0.04572503641247749,0.05959833040833473,-0.005088812205940485
1733358357830493200,1.6444931640625,0.05423254147171974,0.06699240952730179,-0.029033074155449867
1733358357840458500,1.65445849609375,0.05651700124144554,0.07808820903301239,-0.048864301294088364
1733358357850422300,1.66442236328125,0.05702591314911842,0.09153474867343903,-0.059768714010715485
1733358357860387300,1.67438720703125,0.058416347950696945,0.09129798412322998,-0.05644189193844795
1733358357870352400,1.684352294921875,0.06049617752432823,0.09167366474866867,-0.05282370746135712
1733358357880316200,1.694316162109375,0.06644541025161743,0.09883330762386322,-0.05821048468351364
1733358357890281200,1.70428125,0.07223201543092728,0.10306218266487122,-0.06302614510059357
1733358357900245200,1.714245361328125,0.08279784023761749,0.10239958763122559,-0.05841781571507454
1733358357910210300,1.724210205078125,0.08757712692022324,0.11491264402866364,-0.05433986335992813
1733358357920175400,1.73417529296875,0.07563631236553192,0.1486266553401947,-0.0587410032749176
1733358357930139400,1.744139404296875,0.07356252521276474,0.1642056703567505,-0.05837735906243324
1733358357940104200,1.754104248046875,0.08738912642002106,0.1591251641511917,-0.06042852625250816
1733358357950069200,1.7640693359375,0.10287251323461533,0.15070144832134247,-0.08122434467077255
1733358357960033500,1.774033447265625,0.10897195339202881,0.1560509353876114,-0.1070367693901062
1733358357969998300,1.783998291015625,0.1059132069349289,0.2192884087562561,-0.1466054618358612
1733358357979962400,1.79396240234375,0.09586749970912933,0.2913833558559418,-0.21291685104370117
1733358357989927200,1.80392724609375,0.09264853596687317,0.31539684534072876,-0.264383465051651
1733358357999892200,1.813892333984375,0.1021038219332695,0.2943626642227173,-0.2838149666786194
1733358358009856300,1.823856201171875,0.1054944396018982,0.2523341476917267,-0.28288957476615906
1733358358019821300,1.8338212890625,0.11419232189655304,0.22766181826591492,-0.27939099073410034
1733358358029785300,1.843785400390625,0.12906759977340698,0.22865846753120422,-0.2820546329021454
1733358358039750400,1.85375048828125,0.14300072193145752,0.24750033020973206,-0.2961976230144501
1733358358049715200,1.863715087890625,0.1596721112728119,0.2669384479522705,-0.31043997406959534
1733358358059679200,1.87367919921875,0.1724608838558197,0.2695408761501312,-0.3168949484825134
1733358358069644300,1.883644287109375,0.1838665008544922,0.2789938449859619,-0.32931143045425415
1733358358079608300,1.8936083984375,0.18156500160694122,0.2842181622982025,-0.33692672848701477
1733358358089573400,1.903573486328125,0.16730251908302307,0.26804256439208984,-0.33415207266807556
1733358358099538400,1.913538330078125,0.13883891701698303,0.22407379746437073,-0.30725547671318054
1733358358109502200,1.923502197265625,0.10851466655731201,0.15881603956222534,-0.2646941542625427
1733358358119467300,1.93346728515625,0.07890750467777252,0.08441184461116791,-0.21403497457504272
1733358358129431300,1.943431396484375,0.06217975169420242,0.04234987497329712,-0.17220810055732727
1733358358139401200,1.953401123046875,0.05339691415429115,0.037883758544921875,-0.13819260895252228
1733358358149366000,1.963365966796875,0.05744509771466255,0.058834273368120193,-0.12449155747890472
1733358358159330000,1.973330078125,0.07614874839782715,0.1065935418009758,-0.1393221765756607
1733358358169295000,1.983295166015625,0.09669554233551025,0.16589385271072388,-0.1538170725107193
1733358358179259100,1.993259033203125,0.11799763888120651,0.20567135512828827,-0.1474079042673111
1733358358189224200,2.00322412109375,0.12563709914684296,0.235373854637146,-0.12124748528003693
1733358358199189200,2.013189208984375,0.12766216695308685,0.2552186846733093,-0.09406779706478119
1733358358209153300,2.0231533203125,0.12632283568382263,0.23994621634483337,-0.07162889093160629
1733358358219118000,2.0331181640625,0.12458645552396774,0.1832890659570694,-0.03828904405236244
1733358358229082000,2.04308203125,0.12307047843933105,0.11096473038196564,0.005612669512629509
1733358358239047200,2.053047119140625,0.11999186873435974,0.05962618067860603,0.038631871342659
1733358358249012200,2.06301220703125,0.12671855092048645,0.032885853201150894,0.06118986755609512
1733358358258976300,2.072976318359375,0.14434441924095154,0.023762661963701248,0.07236236333847046
1733358358268941000,2.082941162109375,0.1758228987455368,0.022765636444091797,0.07248810678720474
1733358358278905000,2.092905029296875,0.20909404754638672,0.030383873730897903,0.06193932518362999
1733358358288870100,2.1028701171875,0.23393090069293976,0.0726720318198204,0.053949449211359024
1733358358298835200,2.112835205078125,0.2437896579504013,0.14142632484436035,0.02828509919345379
1733358358308799200,2.12279931640625,0.2516384422779083,0.15796351432800293,-0.009917229413986206
1733358358318764300,2.132764404296875,0.2508775591850281,0.11585839092731476,-0.03367102891206741
1733358358328729000,2.14272900390625,0.2560870051383972,0.047025345265865326,-0.04562307521700859
1733358358338693000,2.152693115234375,0.26378753781318665,-0.030248936265707016,-0.05568742752075195
1733358358348658200,2.162658203125,0.26188862323760986,-0.07933629304170609,-0.06870953738689423
1733358358358622000,2.1726220703125,0.2586052119731903,-0.09149149060249329,-0.08860628306865692
1733358358368587300,2.182587158203125,0.2541377544403076,-0.08453217148780823,-0.11747107654809952
1733358358378552300,2.19255224609375,0.251604288816452,-0.10056892782449722,-0.1358729898929596
1733358358388516000,2.20251611328125,0.2471996396780014,-0.1454394906759262,-0.1368350088596344
1733358358398481200,2.212481201171875,0.2553076446056366,-0.21575972437858582,-0.12381402403116226
1733358358408445200,2.222445068359375,0.2709224820137024,-0.27738824486732483,-0.10614968091249466
1733358358418410000,2.232409912109375,0.2943583130836487,-0.3374262750148773,-0.0729091688990593
1733358358428375300,2.242375244140625,0.30366551876068115,-0.35501399636268616,-0.050985366106033325
1733358358438339300,2.25233935546875,0.29993122816085815,-0.3608196973800659,-0.029909910634160042
1733358358448304000,2.26230419921875,0.2929558753967285,-0.38078245520591736,0.003162049688398838
1733358358458268200,2.27226806640625,0.2856124937534332,-0.37536370754241943,0.027730509638786316
1733358358468233200,2.282233154296875,0.2704050540924072,-0.3325057327747345,0.03594805672764778
1733358358478198300,2.2921982421875,0.25872817635536194,-0.2730751633644104,0.03178101032972336
1733358358488162300,2.302162353515625,0.2551841139793396,-0.21351540088653564,0.026661451905965805
1733358358498127000,2.312127197265625,0.2586294412612915,-0.14119753241539001,0.013737131841480732
1733358358508091100,2.322091064453125,0.2690895199775696,-0.07794079929590225,-0.008670439012348652
1733358358518056200,2.33205615234375,0.27230530977249146,-0.013333306647837162,-0.030978938564658165
1733358358528021000,2.34202099609375,0.27625933289527893,0.04344533756375313,-0.03692112863063812
1733358358537985000,2.351985107421875,0.2724163830280304,0.08644766360521317,-0.04713861271739006
1733358358547950300,2.361950439453125,0.2725551426410675,0.13375550508499146,-0.06762074679136276
1733358358557914400,2.371914306640625,0.2798506021499634,0.13927890360355377,-0.06985034048557281
1733358358567879200,2.381879150390625,0.28393352031707764,0.15337012708187103,-0.06533801555633545
1733358358577844200,2.39184423828125,0.2816924750804901,0.15950578451156616,-0.05396925285458565
1733358358587808300,2.401808349609375,0.2820179760456085,0.15748348832130432,-0.03368930146098137
1733358358597773000,2.41177294921875,0.2713911533355713,0.17014361917972565,-0.015414956957101822
1733358358607738400,2.42173828125,0.2583732306957245,0.18581514060497284,0.007785086520016193
1733358358617702100,2.4317021484375,0.24842074513435364,0.18066805601119995,0.034359171986579895
1733358358627667200,2.441667236328125,0.23566149175167084,0.16586452722549438,0.06043476238846779
1733358358637631200,2.45163134765625,0.21814987063407898,0.1605459302663803,0.0853065550327301
1733358358647596000,2.461595947265625,0.20067524909973145,0.15399502217769623,0.11369892209768295
1733358358657561000,2.47156103515625,0.1877187043428421,0.13309800624847412,0.14800043404102325
1733358358667525400,2.481525390625,0.17316582798957825,0.11938659101724625,0.18212191760540009
1733358358677490200,2.491490234375,0.1482548862695694,0.12966959178447723,0.21090003848075867
1733358358687454200,2.5014541015625,0.11961980909109116,0.1384918987751007,0.22561919689178467
1733358358697419300,2.511419189453125,0.07944096624851227,0.13771691918373108,0.21633674204349518
1733358358707384000,2.521384033203125,0.02546513080596924,0.11241330951452255,0.18052823841571808
1733358358717348000,2.53134814453125,-0.049716170877218246,0.0671563521027565,0.13822099566459656
1733358358727313400,2.5413134765625,-0.13371355831623077,0.00792564358562231,0.10645375400781631
1733358358737277200,2.551277099609375,-0.2078157514333725,-0.05553775280714035,0.10097642987966537
1733358358747242200,2.5612421875,-0.26113179326057434,-0.10873861610889435,0.12264099717140198
1733358358757207000,2.57120703125,-0.287048876285553,-0.15760204195976257,0.16697970032691956
1733358358767171000,2.581171142578125,-0.28848329186439514,-0.200958713889122,0.21169832348823547
1733358358777136000,2.59113623046875,-0.27216610312461853,-0.2290998101234436,0.24304133653640747
1733358358787100200,2.60110009765625,-0.2495409995317459,-0.24132780730724335,0.26930999755859375
1733358358797065200,2.611065185546875,-0.2236524075269699,-0.2571760416030884,0.29335060715675354
1733358358807030300,2.6210302734375,-0.19687041640281677,-0.28191596269607544,0.30782797932624817
1733358358816994300,2.630994384765625,-0.17944321036338806,-0.31184297800064087,0.30966904759407043
1733358358826959000,2.640958984375,-0.16969245672225952,-0.3362698554992676,0.3023780584335327
1733358358836924200,2.650924072265625,-0.16689373552799225,-0.34829509258270264,0.2915099561214447
1733358358846888200,2.66088818359375,-0.16767890751361847,-0.34989747405052185,0.28054147958755493
1733358358856853200,2.670853271484375,-0.1728994995355606,-0.34056177735328674,0.26880812644958496
1733358358866817300,2.6808173828125,-0.17885063588619232,-0.3357357084751129,0.2605888545513153
1733358358876782000,2.690781982421875,-0.18345443904399872,-0.33360758423805237,0.2575049102306366
1733358358886747100,2.7007470703125,-0.186141699552536,-0.33074426651000977,0.2655278444290161
1733358358896711200,2.710711181640625,-0.176316499710083,-0.3466140329837799,0.2851704955101013
1733358358906676200,2.72067626953125,-0.15555928647518158,-0.3700479567050934,0.2987990081310272
1733358358916640300,2.73064013671875,-0.12249614298343658,-0.3879372179508209,0.2923419177532196
1733358358926605300,2.740605224609375,-0.08192773163318634,-0.39434707164764404,0.2699888050556183
1733358358936570000,2.750570068359375,-0.04627332463860512,-0.38597944378852844,0.2410690039396286
1733358358946534100,2.7605341796875,-0.0173124261200428,-0.37164977192878723,0.21411283314228058
1733358358956499200,2.770499267578125,-0.0007848478853702545,-0.3538611829280853,0.1925116628408432
1733358358966463000,2.780462890625,0.008982131257653236,-0.3409501016139984,0.17847919464111328
1733358358976428300,2.79042822265625,0.010439146310091019,-0.3311171531677246,0.16867929697036743
1733358358986393000,2.80039306640625,0.00647641671821475,-0.3187519609928131,0.16056421399116516
1733358358996357000,2.810357177734375,-0.004309651907533407,-0.30271199345588684,0.15385065972805023
1733358359006322200,2.820322265625,-0.0186596866697073,-0.2828308343887329,0.15961895883083344
1733358359016286200,2.8302861328125,-0.03215844929218292,-0.2705525755882263,0.1738988310098648
1733358359026251000,2.8402509765625,-0.03905019536614418,-0.2748589813709259,0.18725553154945374
1733358359036216300,2.85021630859375,-0.04210164397954941,-0.2736775875091553,0.19098475575447083
1733358359046180400,2.860180419921875,-0.04249110445380211,-0.274125337600708,0.19470416009426117
1733358359056145200,2.870145263671875,-0.04410604387521744,-0.2820519804954529,0.19973567128181458
1733358359066109200,2.880109130859375,-0.04670635983347893,-0.28785285353660583,0.20798644423484802
1733358359076074200,2.89007421875,-0.04854287579655647,-0.28688398003578186,0.2097308188676834
1733358359086039000,2.9000390625,-0.04996173828840256,-0.2722180187702179,0.20413334667682648
1733358359096003300,2.91000341796875,-0.054270464926958084,-0.24673688411712646,0.18823453783988953
1733358359105968000,2.919968017578125,-0.06119178608059883,-0.2181575745344162,0.16011075675487518
1733358359115933200,2.92993310546875,-0.06481261551380157,-0.17918993532657623,0.12995897233486176
1733358359125897200,2.939897216796875,-0.05990077555179596,-0.14604130387306213,0.08835498988628387
1733358359135862000,2.949862060546875,-0.051329657435417175,-0.1104942187666893,0.04637478291988373
1733358359145821200,2.9598212890625,-0.04419751465320587,-0.07335826754570007,0.010429850779473782
1733358359155786200,2.9697861328125,-0.03613372892141342,-0.031165270134806633,-0.017864903435111046
1733358359165751300,2.979751220703125,-0.033255260437726974,0.008698107674717903,-0.04336485266685486
1733358359175715300,2.98971533203125,-0.027077261358499527,0.04825457185506821,-0.06788511574268341
1733358359185680100,2.99968017578125,-0.01727551408112049,0.08455047756433487,-0.09387236088514328
1733358359195644200,3.00964404296875,-0.008056983351707458,0.11897982656955719,-0.11698620021343231
1733358359205609000,3.01960888671875,0.0008125341846607625,0.14758999645709991,-0.13860034942626953
1733358359215574300,3.02957421875,0.006260296795517206,0.16769260168075562,-0.15460434556007385
1733358359225538300,3.039538330078125,0.013641439378261566,0.18648581206798553,-0.16527743637561798
1733358359235503000,3.049503173828125,0.019165899604558945,0.19850172102451324,-0.16801410913467407
1733358359245467100,3.059467041015625,0.022922344505786896,0.20625272393226624,-0.16031908988952637
1733358359255432200,3.06943212890625,0.02217399701476097,0.2102421373128891,-0.14985527098178864
1733358359265397000,3.07939697265625,0.024005485698580742,0.20334574580192566,-0.1370324045419693
1733358359275361000,3.089361083984375,0.025394856929779053,0.18859395384788513,-0.11908908933401108
1733358359285326300,3.099326416015625,0.030331026762723923,0.16799573600292206,-0.10123232752084732
1733358359295291100,3.109291015625,0.037090662866830826,0.15200452506542206,-0.08677323162555695
1733358359305255200,3.119255126953125,0.04300905764102936,0.14028865098953247,-0.07963956147432327
1733358359315220200,3.12922021484375,0.04842166602611542,0.13548137247562408,-0.0814499780535698
1733358359325184000,3.13918408203125,0.05111344903707504,0.13671183586120605,-0.08771157264709473
1733358359335149300,3.1491494140625,0.05097097158432007,0.14026395976543427,-0.09773571044206619
1733358359345114000,3.159114013671875,0.04999702051281929,0.14287053048610687,-0.10251687467098236
1733358359355078100,3.169078125,0.04721508175134659,0.1416284441947937,-0.09888672083616257
1733358359365043200,3.179043212890625,0.041881583631038666,0.13710832595825195,-0.08794524520635605
1733358359375007200,3.18900732421875,0.03595711663365364,0.12867756187915802,-0.07691416889429092
1733358359384972000,3.198971923828125,0.02690332569181919,0.12008509039878845,-0.062328509986400604
1733358359394937300,3.208937255859375,0.02311045117676258,0.10783401876688004,-0.04711093753576279
1733358359404901400,3.2189013671875,0.014100373722612858,0.08896931260824203,-0.028744937852025032
1733358359414866200,3.2288662109375,0.007410246878862381,0.06834978610277176,-0.009996815584599972
1733358359424830200,3.238830322265625,-0.00022602721583098173,0.04499458149075508,0.011408541351556778
1733358359434795300,3.248795166015625,-0.00854228064417839,0.019139014184474945,0.030998755246400833
1733358359444760000,3.258760009765625,-0.013233138248324394,0.0000892840325832367,0.043530795723199844
1733358359454724000,3.26872412109375,-0.015430512838065624,-0.007134273648262024,0.048464033752679825
1733358359464689200,3.278689208984375,-0.016387544572353363,0.00040438026189804077,0.0418848991394043
1733358359474654200,3.288654296875,-0.014467139728367329,0.01168712880462408,0.024838801473379135
1733358359484618200,3.2986181640625,-0.012413435615599155,0.030170170590281487,0.002392023801803589
1733358359494583000,3.3085830078125,-0.009866122156381607,0.04603595286607742,-0.022661665454506874
1733358359504547000,3.318547119140625,-0.01042558066546917,0.05833969637751579,-0.04350493475794792
1733358359514512100,3.32851220703125,-0.014574785716831684,0.06782401353120804,-0.056632719933986664
1733358359524477200,3.338477294921875,-0.01819648966193199,0.07292935252189636,-0.06482323259115219
1733358359534441200,3.348441162109375,-0.022724395617842674,0.07294639945030212,-0.061837825924158096
1733358359544406300,3.35840625,-0.021633407101035118,0.0705399215221405,-0.06013467162847519
1733358359554370000,3.3683701171875,-0.02079717442393303,0.06461944431066513,-0.05339181423187256
1733358359564335000,3.378335205078125,-0.020043782889842987,0.05382613465189934,-0.04379124194383621
1733358359574300400,3.388300537109375,-0.020587867125868797,0.03902135789394379,-0.03336603194475174
1733358359584264200,3.39826416015625,-0.02023478038609028,0.025676053017377853,-0.021131087094545364
1733358359594229200,3.408229248046875,-0.024063074961304665,0.00973570253700018,-0.006287426687777042
1733358359604194000,3.418194091796875,-0.02652548998594284,-0.001585260033607483,0.002591207157820463
1733358359614158000,3.428157958984375,-0.03398367390036583,-0.009112684056162834,0.007728711236268282
1733358359624123100,3.438123046875,-0.03957499563694,-0.014364756643772125,0.008568815886974335
1733358359634087200,3.448087158203125,-0.044402241706848145,-0.01632244698703289,0.011154744774103165
1733358359644052200,3.45805224609375,-0.050083454698324203,-0.021119553595781326,0.012688130140304565
1733358359654017300,3.468017333984375,-0.05896243453025818,-0.02666425332427025,0.018296213820576668
1733358359663981300,3.477981201171875,-0.06667713820934296,-0.033835504204034805,0.025615278631448746
1733358359673946000,3.487946044921875,-0.07205432653427124,-0.04338746517896652,0.03472515568137169
1733358359683910100,3.49791015625,-0.07718868553638458,-0.045179128646850586,0.041437551379203796
1733358359693875200,3.507875244140625,-0.07984811812639236,-0.046200186014175415,0.04775936156511307
1733358359703840300,3.51784033203125,-0.08094386756420135,-0.04483809322118759,0.050293806940317154
1733358359713804300,3.52780419921875,-0.08161205053329468,-0.048965197056531906,0.051204074174165726
1733358359723769000,3.53776904296875,-0.07968060672283173,-0.055156685411930084,0.048221927136182785
1733358359733734100,3.547734130859375,-0.08095119893550873,-0.06400397419929504,0.04757824167609215
1733358359743698200,3.5576982421875,-0.08293046057224274,-0.07655012607574463,0.05089227855205536
1733358359753663000,3.5676630859375,-0.08480079472064972,-0.09220524877309799,0.05849960073828697
1733358359763627300,3.577627197265625,-0.08573479950428009,-0.11256255954504013,0.06877942383289337
1733358359773592300,3.58759228515625,-0.08252329379320145,-0.13219590485095978,0.07997295260429382
1733358359783557000,3.59755712890625,-0.0787852481007576,-0.14915664494037628,0.08971775323152542
1733358359793521200,3.607521240234375,-0.07164505124092102,-0.16560539603233337,0.10185271501541138
1733358359803486200,3.617486328125,-0.06661421060562134,-0.17504887282848358,0.11125903576612473
1733358359813450000,3.627449951171875,-0.063145712018013,-0.17985215783119202,0.11793024837970734
1733358359823415300,3.637415283203125,-0.06051701307296753,-0.1807025521993637,0.11889943480491638
1733358359833380000,3.647380126953125,-0.05521226301789284,-0.18095076084136963,0.11996869742870331
1733358359843344100,3.65734423828125,-0.05029922351241112,-0.18188543617725372,0.1206219345331192
1733358359853309200,3.66730908203125,-0.04663391783833504,-0.18469934165477753,0.12459270656108856
1733358359863274000,3.67727392578125,-0.04425490275025368,-0.1855035275220871,0.12695322930812836
1733358359873238000,3.687238037109375,-0.03995789214968681,-0.1826837658882141,0.12702779471874237
1733358359883203300,3.697203369140625,-0.036554597318172455,-0.1772545725107193,0.12253926694393158
1733358359893167400,3.70716748046875,-0.03362565115094185,-0.171000137925148,0.11848566681146622
1733358359903132200,3.717132080078125,-0.029672794044017792,-0.16247877478599548,0.10933932662010193
1733358359913097200,3.72709716796875,-0.026073265820741653,-0.15394441783428192,0.10097034275531769
1733358359923061200,3.737061279296875,-0.019972603768110275,-0.14470461010932922,0.09101603925228119
1733358359933026000,3.747026123046875,-0.01873716339468956,-0.13074991106987,0.08017031848430634
1733358359942990000,3.756989990234375,-0.01245838962495327,-0.1202830895781517,0.07287907600402832
1733358359952955100,3.766955078125,-0.0112892622128129,-0.1086922213435173,0.06822307407855988
1733358359962920200,3.776920166015625,-0.009797483682632446,-0.0908302292227745,0.06268789619207382
1733358359972884200,3.78688427734375,-0.005690090823918581,-0.06985010951757431,0.056158892810344696
1733358359982849000,3.79684912109375,-0.004052387550473213,-0.047391314059495926,0.04605305194854736
1733358359992814000,3.80681396484375,-0.002004949375987053,-0.02875051647424698,0.03761748969554901
1733358360002778400,3.8167783203125,-0.0032301086466759443,-0.015013465657830238,0.028522834181785583
1733358360012743200,3.8267431640625,-0.002881500869989395,-0.0009437194094061852,0.016683219000697136
1733358360022707200,3.836707275390625,-0.0033729614224284887,0.014084188267588615,0.0018936831038445234
1733358360032672300,3.84667236328125,-0.005745038855820894,0.0283757746219635,-0.011445824056863785
1733358360042637000,3.856636962890625,-0.0037936335429549217,0.04519980400800705,-0.02053019404411316
1733358360052601000,3.86660107421875,-0.0033227866515517235,0.058650366961956024,-0.028590785339474678
1733358360062566400,3.87656640625,-0.0023814309388399124,0.0668252632021904,-0.033941563218832016
1733358360072530200,3.8865302734375,0.0019126501865684986,0.07177341729402542,-0.039248447865247726
1733358360082495200,3.8964951171875,0.006985188461840153,0.07337485253810883,-0.04124487191438675
1733358360092460000,3.9064599609375,0.00737321050837636,0.0759434700012207,-0.04221053421497345
1733358360102424000,3.916424072265625,0.008112384006381035,0.07636810839176178,-0.042212773114442825
1733358360112389000,3.92638916015625,0.007258574478328228,0.07455848902463913,-0.03852642700076103
1733358360122354200,3.936354248046875,0.008792929351329803,0.07013395428657532,-0.03627505153417587
1733358360132318200,3.946318115234375,0.009861921891570091,0.06324302405118942,-0.03461163863539696
1733358360142283500,3.956283447265625,0.01034686341881752,0.05678616464138031,-0.03175336867570877
1733358360152247600,3.96624755859375,0.009608102031052113,0.050916291773319244,-0.029268907383084297
1733358360162212400,3.97621240234375,0.01179601438343525,0.04732777550816536,-0.027049899101257324
1733358360172177400,3.986177490234375,0.011610391549766064,0.045065153390169144,-0.03064649924635887
1733358360182141400,3.996141357421875,0.01175624318420887,0.041363101452589035,-0.030376536771655083
1733358360192106500,4.0061064453125,0.013393554836511612,0.03676249086856842,-0.02830752730369568
1733358360202071600,4.016071533203125,0.012678708881139755,0.02999710850417614,-0.024387722834944725
1733358360212035300,4.026035400390625,0.012262457050383091,0.020980708301067352,-0.019164998084306717
1733358360222000400,4.03600048828125,0.012163955718278885,0.015350091271102428,-0.013929775916039944
1733358360231964400,4.04596435546875,0.009166301228106022,0.013125819154083729,-0.010693502612411976
1733358360241929500,4.055929443359375,0.0073835658840835094,0.014230955392122269,-0.012605530209839344
1733358360251894500,4.06589453125,0.00717743718996644,0.01309138908982277,-0.014245238155126572
1733358360261858600,4.075858642578125,0.004006603732705116,0.016106702387332916,-0.012951676733791828
1733358360271823400,4.0858232421875,0.003013244830071926,0.013593211770057678,-0.011257107369601727
1733358360281787400,4.095787353515625,0.0003090018290095031,0.009644846431910992,-0.013790021650493145
1733358360291752400,4.10575244140625,-0.0018534850096330047,0.008901824243366718,-0.014934382401406765
1733358360301717500,4.115717529296875,-0.001836617710068822,0.009235244244337082,-0.010083086788654327
1733358360311681500,4.125681640625,-0.0047450559213757515,0.009358814917504787,-0.006518711801618338
1733358360321646300,4.135646240234375,-0.004444579593837261,0.008136097341775894,-0.00891000498086214
1733358360331611400,4.145611328125,-0.005486674606800079,0.005634856875985861,-0.009443969465792179
1733358360341575400,4.155575439453125,-0.004792460240423679,0.004586963448673487,-0.008960031904280186
1733358360351540200,4.165540283203125,-0.003921606577932835,0.003354984801262617,-0.009487870149314404
1733358360361504300,4.175504150390625,-0.0023711142130196095,0.004287091549485922,-0.007151212077587843
1733358360371469600,4.185469482421875,-0.002493619453161955,0.006584600545465946,-0.008445775136351585
1733358360381434400,4.195434326171875,-0.0033052614890038967,0.009070385247468948,-0.00739694107323885
1733358360391398400,4.2053984375,-0.0023422627709805965,0.008991556242108345,-0.00476813456043601
1733358360401363500,4.215363525390625,-0.003128145355731249,0.0015976307913661003,-0.0012132021365687251
1733358360411327500,4.225327392578125,-0.003740672254934907,-0.008396146818995476,0.004201004281640053
1733358360421292500,4.23529248046875,-0.0010728765046223998,-0.016396503895521164,0.005349829327315092
1733358360431257600,4.245257568359375,0.0007958635687828064,-0.01703033782541752,0.007105651311576366
1733358360441221400,4.255221435546875,0.001262039877474308,-0.01715672016143799,0.006562716327607632
1733358360451186400,4.2651865234375,0.0043451813980937,-0.015858426690101624,0.005414361134171486
1733358360461151500,4.2751513671875,0.006197837181389332,-0.013136743567883968,0.007601388730108738
1733358360471115300,4.285115234375,0.007480149157345295,-0.016412965953350067,0.013805754482746124
1733358360481080600,4.29508056640625,0.008521055802702904,-0.024913359433412552,0.015212354250252247
1733358360491044600,4.305044677734375,0.009419339708983898,-0.032221075147390366,0.021710466593503952
1733358360501009400,4.315009521484375,0.0068453410640358925,-0.03920377418398857,0.029407698661088943
1733358360510974500,4.324974365234375,0.0016327360644936562,-0.041753217577934265,0.032674066722393036
1733358360520938500,4.3349384765625,-0.004594036377966404,-0.040143441408872604,0.0346757173538208
1733358360530903300,4.3449033203125,-0.011231433600187302,-0.03426957130432129,0.02613522671163082
1733358360540868600,4.35486865234375,-0.013425718992948532,-0.02908017858862877,0.01683127135038376
1733358360550832400,4.364832275390625,-0.018879340961575508,-0.022627074271440506,0.011853822506964207
1733358360560797400,4.37479736328125,-0.017238210886716843,-0.023758389055728912,0.007731863297522068
1733358360570761500,4.384761474609375,-0.014484768733382225,-0.024921923875808716,0.006859411485493183
1733358360580726300,4.394726318359375,-0.01331503875553608,-0.030440032482147217,0.009086327627301216
1733358360590691300,4.40469140625,-0.01091313362121582,-0.03194578364491463,0.011840036138892174
1733358360600655400,4.4146552734375,-0.0076146479696035385,-0.033609259873628616,0.01444438099861145
1733358360610620400,4.424620361328125,-0.003774369368329644,-0.03160123899579048,0.01378604769706726
1733358360620584400,4.43458447265625,-0.0010468297405168414,-0.02355632372200489,0.009395314380526543
1733358360630549500,4.444549560546875,0.000006983114872127771,-0.016842229291796684,0.005207227077335119
1733358360640514300,4.454514404296875,0.0026053402107208967,-0.011789940297603607,0.0008110651397146285
1733358360650478300,4.464478271484375,0.0006628304254263639,-0.00916006788611412,-0.001570866210386157
1733358360660443600,4.474443603515625,-0.0003654862230177969,-0.013001642189919949,0.00016420416068285704
1733358360670408400,4.484408447265625,0.0008313383441418409,-0.01720064878463745,0.004313675221055746
1733358360680372500,4.49437255859375,-0.0018257165793329477,-0.01816527172923088,0.007583402097225189
1733358360690337500,4.504337646484375,-0.0022084126248955727,-0.012743609957396984,0.00723985442891717
1733358360700301300,4.51430126953125,0.00133337895385921,-0.009833152405917645,0.004486247897148132
1733358360710266400,4.524266357421875,0.004164585378021002,-0.007364668883383274,0.0025946046225726604
1733358360720231400,4.5342314453125,0.00855056382715702,-0.005698809400200844,0.00009029090870171785
1733358360730195500,4.544195556640625,0.007288490887731314,-0.006329979747533798,0.0011779258493334055
1733358360740160500,4.554160400390625,0.006811751052737236,-0.009805530309677124,0.003997148480266333
1733358360750125300,4.564125244140625,0.007518287748098373,-0.011213811114430428,0.007391081191599369
1733358360760089300,4.57408935546875,0.0069354805164039135,-0.012349691241979599,0.007603129837661982
1733358360770054400,4.584054443359375,0.004633178003132343,-0.0060643646866083145,0.007982363924384117
1733358360780018400,4.594018310546875,0.003689725650474429,0.0012809652835130692,0.0030935583636164665
1733358360789983500,4.6039833984375,0.006840778049081564,0.0068110194988548756,-0.004303637892007828
1733358360799948500,4.613948486328125,0.00646598357707262,0.011560485698282719,-0.009353892877697945
1733358360809912300,4.623912353515625,0.008861497044563293,0.01190030574798584,-0.00989824254065752
1733358360819877400,4.63387744140625,0.009017130360007286,0.00917808897793293,-0.008056442253291607
1733358360829842400,4.643842529296875,0.008761733770370483,0.006444887258112431,-0.006461208686232567
1733358360839806200,4.65380615234375,0.006268305703997612,0.003996103070676327,-0.0007361291209235787
1733358360849771500,4.663771484375,0.005947927013039589,0.0010818056762218475,0.00044684705790132284
1733358360859735600,4.673735595703125,0.005213197320699692,0.0032089529559016228,-0.0023540386464446783
1733358360869700400,4.683700439453125,0.0068691507913172245,0.00598982535302639,-0.004083761479705572
1733358360879665400,4.69366552734375,0.010339462198317051,0.009672312065958977,-0.009518824517726898
1733358360889629400,4.70362939453125,0.010108299553394318,0.010932520031929016,-0.012025924399495125
1733358360899594200,4.71359423828125,0.011092480272054672,0.01286132913082838,-0.013464379124343395
1733358360909559600,4.7235595703125,0.010938815772533417,0.011996867135167122,-0.011409218423068523
1733358360919523600,4.733523681640625,0.008451475761830807,0.007696306332945824,-0.0059530772268772125
1733358360929488400,4.74348828125,0.007846671156585217,0.0015159081667661667,0.000012137345038354397
1733358360939452400,4.753452392578125,0.006349531933665276,-0.0026250481605529785,0.0028109350241720676
1733358360949417500,4.76341748046875,0.006427296437323093,-0.008029666729271412,0.004382466431707144
1733358360959382500,4.773382568359375,0.00962830986827612,-0.007239864207804203,0.00390152377076447
1733358360969346600,4.7833466796875,0.012587614357471466,-0.007858251221477985,0.002629864262416959
1733358360979311400,4.793311279296875,0.01270255632698536,-0.007717389613389969,0.0036747008562088013
1733358360989276400,4.8032763671875,0.01626533456146717,-0.006313903257250786,0.003174292854964733
1733358360999240400,4.813240478515625,0.02018621563911438,-0.006098712794482708,0.006691447459161282
1733358361009205200,4.823205322265625,0.015841800719499588,-0.010634609498083591,0.009934112429618835
1733358361019169300,4.833169189453125,0.013432156294584274,-0.014104274101555347,0.015597430989146233
1733358361029134600,4.843134521484375,0.007218468468636274,-0.017538685351610184,0.016276005655527115
1733358361039099400,4.853099365234375,-0.0019443327328190207,-0.015118150971829891,0.015958284959197044
1733358361049063400,4.8630634765625,-0.006029888056218624,-0.00933696050196886,0.006415114272385836
1733358361059028500,4.873028564453125,-0.011313102208077908,-0.002939376048743725,0.002757796086370945
1733358361068993300,4.8829931640625,-0.013744302093982697,0.0005176728591322899,-0.0030324487015604973
1733358361078957300,4.892957275390625,-0.014347472228109837,-0.0018636221066117287,-0.003111830912530422
1733358361088922600,4.902922607421875,-0.015479582361876965,-0.005804034881293774,-0.002626869361847639
1733358361098886400,4.912886474609375,-0.01680132746696472,-0.010881380178034306,-0.0015718290815129876
1733358361108851500,4.9228515625,-0.01618453860282898,-0.015893183648586273,-0.0019257630920037627
1733358361118816300,4.932816162109375,-0.017269492149353027,-0.0184420645236969,-0.0015624038642272353
1733358361128780300,4.9427802734375,-0.013139462098479271,-0.01700422540307045,-0.0018715969054028392
1733358361138745300,4.952745361328125,-0.01046467199921608,-0.016128569841384888,-0.0026610405184328556
1733358361148710000,4.9627099609375,-0.005416650325059891,-0.013880595564842224,-0.002875691279768944
1733358361158674000,4.972673828125,-0.004011460579931736,-0.007479354739189148,-0.00456630764529109
1733358361168639000,4.982638916015625,-0.0009549506939947605,-0.002694719471037388,-0.00607312424108386
1733358361178603800,4.992603759765625,-0.0009088240331038833,-0.0032541193068027496,-0.005915381014347076
1733358361188567800,5.00256787109375,-0.0011421169620007277,-0.0048714568838477135,-0.004456235095858574
1733358361198532900,5.012532958984375,-0.0015505393967032433,-0.007167298346757889,-0.0026682312600314617
1733358361208497000,5.022496826171875,-0.004093059338629246,-0.011372163891792297,0.0010705806780606508
1733358361218462000,5.0324619140625,-0.001905148266814649,-0.012344389222562313,0.004594005178660154
1733358361228427000,5.042427001953125,0.0014198082499206066,-0.011469540186226368,0.00625475263223052
1733358361238391000,5.05239111328125,0.006426799111068249,-0.011952181346714497,0.004384275525808334
1733358361248355800,5.06235595703125,0.012618648819625378,-0.01052179653197527,0.00715529453009367
1733358361258321000,5.07232080078125,0.01394698116928339,-0.010993041098117828,0.007306208834052086
1733358361268285000,5.082284912109375,0.012080637738108635,-0.01076427660882473,0.00910091307014227
1733358361278250000,5.09225,0.009158652275800705,-0.011210252530872822,0.007993817329406738
1733358361288214000,5.102214111328125,0.0056400843895971775,-0.008231506682932377,0.007291275076568127
1733358361298178800,5.1121787109375,0.0019599683582782745,-0.008429335430264473,0.005728738382458687
1733358361308143900,5.122143798828125,-0.0035945866256952286,-0.008030127733945847,0.004343095701187849
1733358361318108000,5.13210791015625,-0.0018193775322288275,-0.004598557949066162,0.0005186776397749782
1733358361328073000,5.142072998046875,-0.00370729248970747,-0.0030976003035902977,-0.003476862795650959
1733358361338038000,5.1520380859375,-0.0006334531935863197,-0.0035412078723311424,-0.004253302235156298
1733358361348002000,5.162001953125,0.0006794852088205516,-0.003244532272219658,-0.0045196181163191795
1733358361357966800,5.171966796875,0.0007212081691250205,-0.0011392934247851372,-0.004013700410723686
1733358361367931000,5.181930908203125,-0.0003970531979575753,0.0008551478385925293,-0.005954346153885126
1733358361377896000,5.19189599609375,-0.00015012582298368216,0.0046809082850813866,-0.007253614719957113
1733358361387861000,5.201861083984375,-0.0011469470337033272,0.009614946320652962,-0.009647530503571033
1733358361397825000,5.211824951171875,0.0003247165586799383,0.010802742093801498,-0.011593219824135303
1733358361407789800,5.221789794921875,0.003180157858878374,0.012594250962138176,-0.014860652387142181
1733358361417755000,5.2317548828125,0.004046110901981592,0.015236037783324718,-0.014538099989295006
1733358361427719000,5.241718994140625,0.003621869720518589,0.015430981293320656,-0.01648460514843464
1733358361437683700,5.25168359375,0.002141844481229782,0.015331069007515907,-0.01441873051226139
1733358361447649000,5.26164892578125,0.003507247194647789,0.015131065621972084,-0.011179261840879917
1733358361457613000,5.271613037109375,0.0009714030893519521,0.007224458735436201,-0.004849870223551989
1733358361467577900,5.281577880859375,0.001807369408197701,-0.0006984453648328781,-0.00035791622940450907
1733358361477542000,5.2915419921875,0.0014158312696963549,-0.007060627453029156,0.0005613037501461804
1733358361487507000,5.3015068359375,0.0028427529614418745,-0.008914186619222164,0.0021059371065348387
1733358361497471700,5.3114716796875,0.0035909591242671013,-0.009771629236638546,0.0007800127496011555
1733358361507436000,5.32143603515625,0.0073297712951898575,-0.009001444093883038,0.002519323257729411
1733358361517401000,5.331401123046875,0.010414297692477703,-0.0071842120960354805,0.004166325554251671
1733358361527366000,5.341365966796875,0.012953621335327625,-0.009122193790972233,0.007565317675471306
1733358361537330000,5.351329833984375,0.015109662897884846,-0.010683496482670307,0.010227843187749386
1733358361547295000,5.361294921875,0.013887538574635983,-0.01358980406075716,0.013193006627261639
1733358361557258800,5.3712587890625,0.007683010306209326,-0.014796196483075619,0.012445916421711445
1733358361567224000,5.38122412109375,0.0034539103507995605,-0.014366363175213337,0.011369466781616211
1733358361577188900,5.39118896484375,-0.00018343288684263825,-0.009070641361176968,0.007710829842835665
1733358361587153000,5.40115283203125,-0.00441013602539897,-0.004286537878215313,0.007175800856202841
1733358361597118000,5.411117919921875,-0.00970371812582016,-0.0037113232538104057,0.005157018080353737
1733358361607082800,5.421082763671875,-0.012544245459139347,-0.0033123819157481194,0.007647872436791658
1733358361617046800,5.431046875,-0.01420177984982729,-0.0033163242042064667,0.007267962209880352
1733358361627012000,5.44101220703125,-0.01362946629524231,0.0018177172169089317,0.006846384145319462
1733358361636977000,5.450976806640625,-0.0134292496368289,0.012077633291482925,0.002734077163040638
1733358361646941000,5.46094091796875,-0.013250552117824554,0.026223011314868927,-0.004869514144957066
1733358361656906000,5.470906005859375,-0.010415351018309593,0.03750362992286682,-0.013965274207293987
1733358361666869800,5.480869873046875,-0.009303746744990349,0.04500282555818558,-0.023432545363903046
1733358361676834800,5.490834716796875,-0.008674567565321922,0.04764935374259949,-0.027252929285168648
1733358361686800100,5.500800048828125,-0.005659603048115969,0.042398400604724884,-0.02395353838801384
1733358361696764000,5.510763916015625,-0.006561153568327427,0.02730632573366165,-0.01748228445649147
1733358361706729000,5.52072900390625,-0.00539122661575675,0.0075984010472893715,-0.006826710421591997
1733358361716693800,5.53069384765625,-0.007071113213896751,-0.012423939071595669,0.007461128756403923
1733358361726657800,5.54065771484375,-0.005019946489483118,-0.02756054699420929,0.01893269643187523
1733358361736622800,5.550622802734375,-0.0032937410287559032,-0.03714890778064728,0.0218370221555233
1733358361746588000,5.560587890625,-0.001064408803358674,-0.0401577465236187,0.020435133948922157
1733358361756552000,5.570552001953125,-0.0019908843096345663,-0.039703257381916046,0.016729621216654778
1733358361766517000,5.58051708984375,0.0008733454160392284,-0.04016318544745445,0.014383376576006413
1733358361776481000,5.59048095703125,0.00006139982724562287,-0.043889082968235016,0.012711531482636929
1733358361786445800,5.60044580078125,-0.0014387588016688824,-0.049305420368909836,0.018779277801513672
1733358361796411100,5.6104111328125,-0.004206527955830097,-0.055354878306388855,0.024455657228827477
1733358361806375000,5.620375,-0.007157843094319105,-0.06040103733539581,0.031248848885297775
1733358361816340000,5.630340087890625,-0.006324877962470055,-0.05920524150133133,0.03368406742811203
1733358361826305000,5.640304931640625,-0.009372067637741566,-0.055267490446567535,0.03357008472084999
1733358361836268800,5.650268798828125,-0.008566230535507202,-0.04943260923027992,0.029502391815185547
1733358361846233900,5.66023388671875,-0.007442908361554146,-0.043480176478624344,0.02650873176753521
1733358361856199000,5.670198974609375,-0.006847069598734379,-0.03806009516119957,0.02231621742248535
1733358361866163000,5.680162841796875,-0.007949085906147957,-0.03012866899371147,0.017332645133137703
1733358361876128000,5.6901279296875,-0.007590576075017452,-0.023155342787504196,0.012635437771677971
1733358361886092000,5.700092041015625,-0.005203318782150745,-0.015118454582989216,0.005595637951046228
1733358361896056800,5.710056884765625,-0.003934231121093035,-0.004439695738255978,-0.00020889181178063154
1733358361906022000,5.72002197265625,-0.004070851486176252,0.006449969485402107,-0.004265152849256992
1733358361915986000,5.72998583984375,-0.0025820215232670307,0.01561453752219677,-0.009284612722694874
1733358361925951000,5.739950927734375,0.002185036661103368,0.022340882569551468,-0.01298906933516264
1733358361935916000,5.749916015625,0.004141345154494047,0.022238221019506454,-0.013081839308142662
1733358361945880000,5.759880126953125,0.0023391838185489178,0.021825429052114487,-0.011210436001420021
1733358361955844900,5.769844970703125,0.004219782538712025,0.018810611218214035,-0.012309600599110126
1733358361965810000,5.779809814453125,0.004259730223566294,0.020724359899759293,-0.011861923150718212
1733358361975773700,5.789773681640625,0.0026130625046789646,0.018626749515533447,-0.011070678010582924
1733358361985739000,5.799739013671875,-0.00011001969687640667,0.013785123825073242,-0.008480222895741463
1733358361995703000,5.809703125,-0.0001505877880845219,0.008848164230585098,-0.006016083527356386
1733358362005667800,5.819667724609375,-0.0002424668346066028,0.004635575693100691,-0.0032128402963280678
1733358362015633000,5.8296328125,0.0007370086386799812,0.0019616587087512016,-0.004126284271478653
1733358362025597000,5.839596923828125,0.0038166879676282406,0.002398683223873377,-0.005331631749868393
1733358362035562000,5.84956201171875,0.00639759236946702,0.0014672130346298218,-0.00441419193521142
1733358362045527000,5.859527099609375,0.008350222371518612,0.003812126349657774,-0.0037284279242157936
1733358362055491000,5.869490966796875,0.006752254907041788,0.00023715756833553314,0.002731108572334051
1733358362065455900,5.879455810546875,0.007620712276548147,0.002029730938374996,0.00782759953290224
1733358362075421000,5.8894208984375,0.0044456543400883675,0.004636574070900679,0.008013494312763214
1733358362085385000,5.899385009765625,0.0035955728963017464,0.007041408680379391,0.008084068074822426
1733358362095350000,5.90935009765625,-0.0032263253815472126,0.009772658348083496,0.002963992301374674
1733358362105315000,5.919315185546875,-0.0077654169872403145,0.017575187608599663,-0.003995114006102085
1733358362115278800,5.92927880859375,-0.014638751745223999,0.027388188987970352,-0.017018113285303116
1733358362125244000,5.939243896484375,-0.015286965295672417,0.03575291112065315,-0.02589389681816101
1733358362135208000,5.9492080078125,-0.016196399927139282,0.03679005056619644,-0.031511589884757996
1733358362145173000,5.959173095703125,-0.015389195643365383,0.03284484148025513,-0.030828755348920822
1733358362155138300,5.96913818359375,-0.016342274844646454,0.027078747749328613,-0.024420708417892456
1733358362165102300,5.979102294921875,-0.01583787053823471,0.019169427454471588,-0.017116721719503403
1733358362175067100,5.989067138671875,-0.01476582232862711,0.013811797834932804,-0.01398902852088213
1733358362185032200,5.9990322265625,-0.01086349319666624,0.013179829344153404,-0.013981305994093418
1733358362194996200,6.008996337890625,-0.008788267150521278,0.013823267072439194,-0.01895359717309475
1733358362204961000,6.0189609375,-0.006076369900256395,0.015329284593462944,-0.02196003869175911
1733358362214926300,6.02892626953125,-0.005670114420354366,0.015559476800262928,-0.023043613880872726
1733358362224890000,6.03889013671875,-0.0066980947740375996,0.016840457916259766,-0.023164521902799606
1733358362234855200,6.048855224609375,-0.007426130585372448,0.012816917151212692,-0.01856420375406742
1733358362244820200,6.0588203125,-0.00918008852750063,0.007589931134134531,-0.012011229060590267
1733358362254784000,6.068783935546875,-0.00946410745382309,0.0011260537430644035,-0.0062684668228030205
1733358362264749300,6.078749267578125,-0.008834268897771835,-0.0018710680305957794,0.0000900966115295887
1733358362274713300,6.08871337890625,-0.004973378963768482,-0.002031346783041954,0.0012719492660835385
1733358362284678100,6.09867822265625,-0.0032622981816530228,-0.0005010943859815598,0.0016341392183676362
1733358362294643200,6.108643310546875,-0.0010281370487064123,-0.0036637606099247932,0.0024543735198676586
1733358362304607200,6.118607177734375,0.00433253962546587,-0.004570833407342434,0.0067170290276408195
1733358362314572000,6.128572021484375,0.004954493138939142,-0.008082699961960316,0.011416385881602764
1733358362324537300,6.138537353515625,0.006846136413514614,-0.011084348894655704,0.012911750003695488
1733358362334501400,6.14850146484375,0.007613074034452438,-0.011085301637649536,0.01360326912254095
1733358362344466200,6.158466064453125,0.008250368759036064,-0.009624293074011803,0.013024031184613705
1733358362354431200,6.16843115234375,0.0059316447004675865,-0.0074623217806220055,0.010797725059092045
1733358362364395300,6.178395263671875,0.006690911948680878,-0.006851925514638424,0.01016469206660986
1733358362374360000,6.188360107421875,0.0041207680478692055,-0.004336872138082981,0.009574243798851967
1733358362384325400,6.198325439453125,0.0023241995368152857,-0.006850362755358219,0.00935346819460392
1733358362394289200,6.2082890625,0.0029622907750308514,-0.006176608614623547,0.008741459809243679
1733358362404254200,6.218254150390625,-0.00036559527507051826,-0.004653814248740673,0.006957674399018288
1733358362414219300,6.22821923828125,-0.0004114055773243308,-0.005392598919570446,0.004214874468743801
1733358362424183000,6.23818310546875,-0.0018468494527041912,-0.008166280575096607,0.00399676151573658
1733358362434148000,6.248148193359375,-0.0025912378914654255,-0.00888357125222683,0.00333871366456151
1733358362444112100,6.258112060546875,-0.004829092416912317,-0.01309722475707531,0.007966488599777222
1733358362454077200,6.2680771484375,-0.008291289210319519,-0.014474338851869106,0.009084930643439293
1733358362464042200,6.278042236328125,-0.012079102918505669,-0.01634148135781288,0.007766133639961481
1733358362474006300,6.28800634765625,-0.012137727811932564,-0.0146560687571764,0.006324849557131529
1733358362483971000,6.29797119140625,-0.013404592871665955,-0.014517052099108696,0.006824458949267864
1733358362493936000,6.30793603515625,-0.01371200941503048,-0.014415045268833637,0.007324249483644962
1733358362503900400,6.317900390625,-0.01648302935063839,-0.016056884080171585,0.01055759284645319
1733358362513865200,6.327865234375,-0.015329229645431042,-0.01927950605750084,0.01472895871847868
1733358362523830300,6.337830322265625,-0.016112465411424637,-0.01952558010816574,0.015596882440149784
1733358362533794000,6.3477939453125,-0.012339611537754536,-0.017964033409953117,0.015099841170012951
1733358362543759000,6.357759033203125,-0.0045213703997433186,-0.010958055034279823,0.010782857425510883
1733358362553724400,6.367724365234375,0.006187230348587036,-0.006728876382112503,0.006706062704324722
1733358362563688200,6.377688232421875,0.010501285083591938,-0.0002155844122171402,0.0020937337540090084
1733358362573653200,6.3876533203125,0.010904990136623383,0.002004348672926426,0.002263405593112111
1733358362583617300,6.3976171875,0.010906055569648743,0.005356469191610813,0.004273825790733099
1733358362593582000,6.40758203125,0.0079043535515666,0.005726492963731289,0.004813810810446739
1733358362603547100,6.417547119140625,0.006948012392967939,0.005092128179967403,0.008262338116765022
1733358362613511200,6.42751123046875,0.004232173785567284,0.005154868122190237,0.013105932623147964
1733358362623476200,6.437476318359375,0.0006992242415435612,0.0037628337740898132,0.016592543572187424
1733358362633441300,6.447441162109375,-0.0012359900865703821,0.0038004270754754543,0.014628139324486256
1733358362643405300,6.4574052734375,-0.0034314999356865883,0.0010824054479599,0.013885383494198322
1733358362653370000,6.4673701171875,-0.0058960383757948875,0.0015523219481110573,0.010017581284046173
1733358362663335200,6.477335205078125,-0.007951732724905014,0.004262886941432953,0.002456068526953459
1733358362673299200,6.48729931640625,-0.010964036919176579,0.00761604867875576,-0.005027159582823515
1733358362683264300,6.49726416015625,-0.01251186616718769,0.009244571439921856,-0.009250666946172714
1733358362693229300,6.507229248046875,-0.013011136092245579,0.008393124677240849,-0.010636336170136929
1733358362703193000,6.517193115234375,-0.00835140235722065,0.005615181289613247,-0.008024840615689754
1733358362713158100,6.527158203125,-0.009511640295386314,0.0034982534125447273,-0.007343672215938568
1733358362723123200,6.537123291015625,-0.007116394117474556,-0.000957215204834938,-0.004146014805883169
1733358362733087000,6.5470869140625,-0.006432407535612583,0.0003895368427038193,-0.004488677717745304
1733358362743052300,6.55705224609375,-0.00722736120223999,0.0038308738730847836,-0.005539827048778534
1733358362753017000,6.56701708984375,-0.004346845671534538,0.009198070503771305,-0.01074125710874796
1733358362762981000,6.576981201171875,-0.002092746552079916,0.009510992094874382,-0.011094924993813038
1733358362772946200,6.5869462890625,-0.0006587391253560781,0.012071311473846436,-0.014385735616087914
1733358362782910200,6.59691015625,-0.0002795049804262817,0.012816996313631535,-0.013091705739498138
1733358362792875300,6.606875244140625,0.0004288958734832704,0.010496851056814194,-0.01042588148266077
1733358362802840300,6.61684033203125,0.0020883113611489534,0.009919211268424988,-0.007634888403117657
1733358362812804000,6.62680419921875,0.0023962953127920628,0.009662843309342861,-0.003622503951191902
1733358362822769200,6.63676904296875,0.005060788244009018,0.011802161112427711,-0.0030816160142421722
1733358362832734200,6.646734130859375,0.007150067016482353,0.013416647911071777,-0.0017082513077184558
1733358362842698000,6.656697998046875,0.0120982201769948,0.01385393925011158,0.0012084427289664745
1733358362852663300,6.666663330078125,0.020614538341760635,0.015143112279474735,0.006873109843581915
1733358362862628000,6.676628173828125,0.033245380967855453,0.015910102054476738,0.0127555001527071
1733358362872592100,6.686592041015625,0.05095262825489044,0.022634251043200493,0.011431689374148846
1733358362882557200,6.69655712890625,0.07299427688121796,0.033956412225961685,0.002750050276517868
1733358362892522000,6.70652197265625,0.09224221110343933,0.044520702213048935,-0.005091588944196701
1733358362902486000,6.716486083984375,0.09951157122850418,0.04697294160723686,-0.008259685710072517
1733358362912451300,6.726451416015625,0.09612003713846207,0.0396130308508873,-0.00561436777934432
1733358362922416000,6.736416015625,0.08166107535362244,0.025862766429781914,0.003218473168089986
1733358362932380200,6.746380126953125,0.063202403485775,0.011777978390455246,0.011653510853648186
1733358362942345200,6.75634521484375,0.03877296298742294,0.004660147707909346,0.01806214265525341
1733358362952310000,6.76631005859375,0.01948004588484764,0.0022332007065415382,0.015608390793204308
1733358362962274000,6.776274169921875,0.00712510896846652,-0.0016712592914700508,0.010515628382563591
1733358362972239400,6.7862392578125,-0.005094623193144798,-0.004949844442307949,0.004545545671135187
1733358362982204200,6.7962041015625,-0.01436961442232132,-0.013922033831477165,0.0006349599570967257
1733358362992168200,6.806168212890625,-0.018419794738292694,-0.021352671086788177,0.004125830717384815
1733358363002133200,6.81613330078125,-0.02295728772878647,-0.025837969034910202,0.008278231136500835
1733358363012097000,6.826096923828125,-0.02472860738635063,-0.028890104964375496,0.011161264032125473
1733358363022062000,6.83606201171875,-0.020429998636245728,-0.025515882298350334,0.010071231983602047
1733358363032027100,6.846027099609375,-0.017947863787412643,-0.014633465558290482,0.0037102350033819675
1733358363041991200,6.8559912109375,-0.014582959935069084,-0.003207172267138958,-0.003611061256378889
1733358363051956200,6.865956298828125,-0.006762992590665817,0.005823725834488869,-0.009003354236483574
1733358363061921000,6.875921142578125,-0.006149134133011103,0.01028558611869812,-0.01330915279686451
1733358363071885000,6.885885009765625,-0.00399689469486475,0.010509971529245377,-0.01286554615944624
1733358363081850400,6.895850341796875,-0.003979051485657692,0.010149645619094372,-0.009255630895495415
1733358363091815200,6.905815185546875,-0.0025654227938503027,0.006407713983207941,-0.006120425183326006
1733358363101779200,6.915779296875,-0.003172090742737055,0.000598561018705368,-0.0012918481370434165
1733358363111744300,6.925744140625,-0.00470099039375782,-0.00678604282438755,0.003673217725008726
1733358363121709000,6.935708984375,-0.004286602139472961,-0.010483575984835625,0.005978716537356377
1733358363131673000,6.945673095703125,0.00016862503252923489,-0.012741084210574627,0.005234857089817524
1733358363141638400,6.955638427734375,0.0023092739284038544,-0.01592009887099266,0.007065247744321823
1733358363151603500,6.965603515625,0.006751698441803455,-0.020998723804950714,0.00898725911974907
1733358363161567500,6.9755673828125,0.008870510384440422,-0.026360198855400085,0.011328711174428463
1733358363171532500,6.985532470703125,0.012859925627708435,-0.029986359179019928,0.013119952753186226
1733358363181497600,6.99549755859375,0.011887605302035809,-0.030792497098445892,0.01856798119843006
1733358363191461600,7.005461669921875,0.011363284662365913,-0.02769346535205841,0.01963203027844429
1733358363201426400,7.015426513671875,0.007124065421521664,-0.024821512401103973,0.01849326118826866
1733358363211391500,7.0253916015625,0.0018461036961525679,-0.022109948098659515,0.014493772760033607
1733358363221355500,7.03535546875,-0.005285841878503561,-0.017909875139594078,0.006741843651980162
1733358363231320600,7.045320556640625,-0.010506528429687023,-0.011602727696299553,-0.0003401292487978935
1733358363241284600,7.05528466796875,-0.017115162685513496,-0.005364007316529751,-0.00475644925609231
1733358363251249700,7.065249755859375,-0.01980126090347767,-0.0011062473058700562,-0.004868017043918371
1733358363261214500,7.07521435546875,-0.023316901177167892,-0.0007898639887571335,-0.003233368508517742
1733358363271178500,7.085178466796875,-0.01986551284790039,-0.0016705133020877838,-0.0031531695276498795
1733358363281143600,7.0951435546875,-0.018091315403580666,-0.005334223620593548,-0.005287426523864269
1733358363291108600,7.105108642578125,-0.014851406216621399,-0.006337719038128853,-0.005916026886552572
1733358363301072600,7.11507275390625,-0.011150943115353584,-0.006202962249517441,-0.011048205196857452
1733358363311037400,7.125037353515625,-0.008869744837284088,-0.0013215690851211548,-0.011553625576198101
1733358363321002500,7.13500244140625,-0.005665695760399103,0.0028665182180702686,-0.014233298599720001
1733358363330966500,7.144966552734375,-0.005237302277237177,0.00818957481533289,-0.017211198806762695
1733358363340931600,7.154931640625,-0.002867089118808508,0.011427445337176323,-0.017578447237610817
1733358363350896600,7.164896728515625,-0.005417210515588522,0.015540260821580887,-0.015169817954301834
1733358363360860700,7.174860595703125,-0.004172182641923428,0.013923188671469688,-0.014893649145960808
1733358363370825500,7.184825439453125,-0.0051458291709423065,0.011355127207934856,-0.013769252225756645
1733358363380790500,7.19479052734375,-0.006521617993712425,0.006255972199141979,-0.010151348076760769
1733358363390754600,7.204754638671875,-0.0057789720594882965,0.002323748078197241,-0.006964828819036484
1733358363400719600,7.2147197265625,-0.007749444805085659,-0.001125311478972435,-0.0050300415605306625
1733358363410684700,7.2246845703125,-0.00417323736473918,-0.003201175481081009,-0.0047159940004348755
1733358363420648400,7.2346484375,-0.002915426390245557,-0.005402278155088425,-0.003870174055919051
1733358363430613500,7.244613525390625,0.0015433660009875894,-0.006554774008691311,-0.0017835134640336037
1733358363440578600,7.25457861328125,0.003320226911455393,-0.005783257074654102,0.0009068117360584438
1733358363450542300,7.264542236328125,0.005065541714429855,-0.0006272057071328163,0.000289689633063972
1733358363460507600,7.274507568359375,0.006042655557394028,0.00024098530411720276,-0.0006251061568036675
1733358363470472400,7.284472412109375,0.00507688894867897,0.0012191198766231537,-0.002046112436801195
1733358363480436500,7.2944365234375,0.0076742698438465595,0.00027662795037031174,-0.0008703266503289342
1733358363490401500,7.304401611328125,0.006741630844771862,-0.0007012849673628807,-0.000013321521691977978
1733358363500366300,7.314366455078125,0.006736570969223976,-0.0044611357152462006,-0.0009014856768772006
1733358363510330400,7.324330322265625,0.005651720799505711,-0.006609147414565086,-0.0015874487580731511
1733358363520295700,7.334295654296875,0.005332674365490675,-0.007296241819858551,0.00024267553817480803
1733358363530259700,7.344259765625,0.005146348848938942,-0.0076887523755431175,0.0023975439835339785
1733358363540224500,7.354224609375,0.005296018905937672,-0.005913489498198032,0.0008784768870100379
1733358363550189600,7.364189453125,0.005196945276111364,-0.003477785736322403,-0.00442894734442234
1733358363560153600,7.374153564453125,0.005557803437113762,0.0005265427753329277,-0.004554382525384426
1733358363570118700,7.38411865234375,0.006157738622277975,0.0006043436005711555,-0.004673129878938198
1733358363580083700,7.394083740234375,0.0033928449265658855,-0.0011554732918739319,-0.0031729713082313538
1733358363590047500,7.404047607421875,-0.000026000372599810362,-0.004279532469809055,-0.0012498346623033285
1733358363600012500,7.414012451171875,-0.0019208394223824143,-0.008691325783729553,0.0019659323152154684
1733358363609977600,7.4239775390625,-0.0009688975987955928,-0.011241182684898376,0.0040619149804115295
1733358363619941400,7.43394140625,-0.004750852473080158,-0.012540539726614952,0.0067237443290650845
1733358363629906700,7.44390673828125,-0.006144925020635128,-0.014457733370363712,0.005544058047235012
1733358363639871500,7.45387158203125,-0.0036639240570366383,-0.011668072082102299,0.0014624976320192218
1733358363649835500,7.46383544921875,-0.006485635880380869,-0.008900264278054237,-0.0003307031001895666
1733358363659800600,7.473800537109375,-0.006690166424959898,-0.004744134843349457,-0.0006489508086815476
1733358363669765400,7.483765380859375,-0.006676688324660063,-0.003016319125890732,-0.003462524153292179
1733358363679729400,7.4937294921875,-0.0054750703275203705,-0.002307118847966194,-0.0013341257581487298
1733358363689694700,7.50369482421875,-0.00558894919231534,-0.0077942535281181335,0.0016184644773602486
1733358363699659500,7.513659423828125,-0.0026128669269382954,-0.008276019245386124,0.0040459358133375645
1733358363709623600,7.52362353515625,0.002254314022138715,-0.007945547811686993,0.002467897953465581
1733358363719588600,7.533588623046875,0.006335341837257147,-0.008268057368695736,0.0012052932288497686
1733358363729553400,7.543553466796875,0.008966400288045406,-0.012116762809455395,0.0036959482822567225
1733358363739517400,7.553517333984375,0.010690530762076378,-0.014470997266471386,0.006919172126799822
1733358363749482800,7.563482666015625,0.013028769753873348,-0.017252985388040543,0.011560405604541302
1733358363759447600,7.573447509765625,0.015392324887216091,-0.017318766564130783,0.012376132421195507
1733358363769411600,7.58341162109375,0.011328531429171562,-0.020016778260469437,0.014556490816175938
1733358363779376400,7.59337646484375,0.009663524106144905,-0.021094027906656265,0.014435583725571632
1733358363789341400,7.603341552734375,0.004777335561811924,-0.019618626683950424,0.012870624661445618
1733358363799305500,7.613305419921875,-0.000095982919447124,-0.013798022642731667,0.006850281730294228
1733358363809270500,7.6232705078125,-0.006283235270529985,-0.006405148655176163,0.0010472164722159505
1733358363819235600,7.633235595703125,-0.007492310833185911,-0.0008463328704237938,-0.004875920247286558
1733358363829199600,7.64319970703125,-0.008513204753398895,0.0007840115576982498,-0.005626608617603779
1733358363839164400,7.653164306640625,-0.009520412422716618,-0.0013047056272625923,-0.004282777663320303
1733358363849128400,7.66312841796875,-0.013306807726621628,-0.0035233935341238976,-0.002973747905343771
1733358363859093800,7.67309375,-0.011450052261352539,-0.005855523981153965,-0.0031543103978037834
1733358363869058600,7.68305859375,-0.009427663870155811,-0.007631904445588589,-0.004137673415243626
1733358363879022600,7.693022705078125,-0.007544010877609253,-0.006621235050261021,-0.006560883484780788
1733358363888987600,7.702987548828125,-0.009311464615166187,-0.007616997696459293,-0.008183194324374199
1733358363898952400,7.712952392578125,-0.0067753358744084835,-0.005040123127400875,-0.009405585937201977
1733358363908916500,7.72291650390625,-0.006637847516685724,-0.002607385627925396,-0.011560119688510895
1733358363918881500,7.732881591796875,-0.005145678296685219,-0.0001253196969628334,-0.009924938902258873
1733358363928846600,7.7428466796875,-0.008196039125323296,0.0008249720558524132,-0.012014324776828289
1733358363938810600,7.752810546875,-0.007182440720498562,0.0015080729499459267,-0.011757595464587212
1733358363948775400,7.762775390625,-0.007420544512569904,-0.0004885494709014893,-0.00952998548746109
1733358363958740500,7.772740478515625,-0.008122554048895836,-0.002703234553337097,-0.0066788047552108765
1733358363968704500,7.78270458984375,-0.005409233272075653,-0.007998647168278694,-0.0035500277299433947
1733358363978669600,7.792669677734375,-0.007234031334519386,-0.01025301218032837,-0.0016740972641855478
1733358363988634600,7.802634521484375,-0.0011543752625584602,-0.010376816615462303,-0.0011110765626654029
1733358363998598700,7.8125986328125,-0.00008032249752432108,-0.008995167911052704,-0.0019427816150709987
1733358364008563500,7.8225634765625,0.0025389313232153654,-0.005199526436626911,-0.0006538307061418891
1733358364018528500,7.832528564453125,0.003255055285990238,-0.0022391565144062042,-0.0009236090118065476
1733358364028492500,7.842492431640625,0.004229314159601927,-0.0013582194223999977,-0.001432567834854126
1733358364038457600,7.85245751953125,0.0033273014705628157,0.003822161816060543,-0.003032328560948372
1733358364048422700,7.862422607421875,0.003850005567073822,0.00427253870293498,-0.0036458922550082207
1733358364058386700,7.87238671875,0.0034033935517072678,0.0031651961617171764,-0.00397106446325779
1733358364068351500,7.8823515625,0.0027972685638815165,0.0021492261439561844,-0.0009887393098324537
1733358364078316500,7.892316650390625,0.0033914195373654366,0.0014988826587796211,-0.0012502616737037897
1733358364088280300,7.9022802734375,0.004633067175745964,0.0035958453081548214,-0.0028902580961585045
1733358364098245600,7.91224560546875,0.007507150061428547,0.009621246717870235,-0.006552903912961483
1733358364108210700,7.922210693359375,0.008182452991604805,0.011504670605063438,-0.008743325248360634
1733358364118174500,7.932174560546875,0.0054457890801131725,0.01211613230407238,-0.008987003937363625
1733358364128139500,7.942139404296875,0.0058452975936234,0.010093563236296177,-0.00939635094255209
1733358364138104300,7.952104248046875,0.004139543045312166,0.006668471731245518,-0.007815232500433922
1733358364148068000,7.962068115234375,0.0014251451939344406,0.006754981819540262,-0.006294776685535908
1733358364158033400,7.972033447265625,-0.0001698221021797508,0.003139208070933819,-0.0036657045129686594
1733358364167998200,7.981998291015625,-0.0013386724749580026,0.0021229730919003487,-0.0028756943065673113
1733358364177962200,7.991962158203125,-0.005458049941807985,-0.0021743038669228554,0.0013563347747549415
1733358364187927300,8.00192724609375,-0.00417321315035224,-0.0043699610978364944,0.00028395443223416805
1733358364197892000,8.01189208984375,-0.0068254549987614155,-0.007811563089489937,0.0030373968183994293
1733358364207856400,8.0218564453125,-0.006514328997582197,-0.007601233199238777,0.0037590758875012398
1733358364217821400,8.031821533203125,-0.007696506101638079,-0.005094933323562145,0.00182002829387784
1733358364227785500,8.041785400390625,-0.0060892472974956036,-0.00149554293602705,-0.00031477236188948154
1733358364237750300,8.051750244140624,-0.005652755498886108,0.0033266423270106316,-0.0023137410171329975
1733358364247715300,8.06171533203125,-0.006081513129174709,0.004881955683231354,-0.003475296078249812
1733358364257679000,8.07167919921875,-0.005474312696605921,0.007004761137068272,-0.0038579923566430807
1733358364267644400,8.08164453125,-0.0050239721313118935,0.008221292868256569,-0.0035714360419660807
1733358364277609500,8.091609375,-0.003290786873549223,0.003437457140535116,-0.0016156104393303394
1733358364287573200,8.1015732421875,-0.0021818464156240225,0.002749030012637377,0.0008038713131099939
1733358364297538300,8.111538330078124,0.0009508299408480525,0.0028566215187311172,-0.003831360721960664
1733358364307503000,8.121503173828126,0.00007772468961775303,0.004384648520499468,-0.0035408777184784412
1733358364317467100,8.131467041015625,0.003073248313739896,-0.0024255868047475815,0.0023588233161717653
1733358364327432400,8.141432373046875,0.0013043818762525916,-0.004351027309894562,0.005323995370417833
1733358364337397200,8.151397216796875,0.003257277887314558,-0.005638399161398411,0.008814600296318531
1733358364347361300,8.161361328125,0.003947176039218903,-0.0064172279089689255,0.012404998764395714
1733358364357326300,8.171326416015624,0.003465676214545965,-0.005943983793258667,0.011164498515427113
1733358364367291100,8.181291015625,0.001896767527796328,-0.0034660398960113525,0.00852505024522543
1733358364377255200,8.191255126953125,-0.0005650586099363863,0.0026560346595942974,0.00174331059679389
1733358364387220500,8.201220458984375,-0.007181132677942514,0.012237606570124626,-0.0066734859719872475
1733358364397185300,8.211185302734375,-0.00921179261058569,0.017164720222353935,-0.01114599872380495
1733358364407149300,8.2211494140625,-0.009736781939864159,0.016815347597002983,-0.01278285589069128
1733358364417114400,8.2311142578125,-0.012486230581998825,0.010369432158768177,-0.0066301547922194
1733358364427079200,8.2410791015625,-0.01725013367831707,0.0011587617918848991,-0.002479607705026865
1733358364437043200,8.251043212890625,-0.01327802799642086,-0.0038602314889431,-0.0010550828883424401
1733358364447008300,8.26100830078125,-0.01305085513740778,-0.006438146345317364,0.0004362961044535041
1733358364456973300,8.270973388671875,-0.012417289428412914,-0.007426978088915348,-0.002797846682369709
1733358364466937300,8.280937255859374,-0.008738214150071144,-0.004285503178834915,-0.007617879658937454
1733358364476902100,8.290902099609376,-0.006306747440248728,-0.00006199628114700317,-0.01107972301542759
1733358364486867200,8.3008671875,-0.005746128037571907,0.003849997650831938,-0.01379495207220316
1733358364496831500,8.31083154296875,-0.007282772101461887,0.006294779479503632,-0.014350221492350101
1733358364506796300,8.32079638671875,-0.006438712123781443,0.006852755323052406,-0.009403987787663937
1733358364516761300,8.33076123046875,-0.0062301866710186005,0.005833563860505819,-0.00598022760823369
1733358364526725400,8.340725341796874,-0.006444085389375687,0.0008381418883800507,-0.00034534174483269453
1733358364536690200,8.350690185546876,-0.006631571799516678,0.000022149644792079926,0.000804877607151866
1733358364546655500,8.360655517578126,-0.005438567604869604,-0.0013086479157209396,0.000807179429102689
1733358364556619500,8.37061962890625,-0.006011413410305977,0.0022482695057988167,-0.0005747348768636584
1733358364566584300,8.380584228515625,-0.003715079976245761,0.005510573275387287,-0.004316960461437702
1733358364576549400,8.39054931640625,-0.0003067664511036128,0.009730352088809013,-0.006720729172229767
1733358364586513400,8.400513427734374,0.00456923246383667,0.010614573024213314,-0.005629242397844791
1733358364596478200,8.410478271484376,0.005309857428073883,0.009027594700455666,-0.002880859887227416
1733358364606443500,8.420443603515626,0.006714280229061842,0.006339547224342823,0.00041499442886561155
1733358364616407300,8.4304072265625,0.0019038122845813632,0.005941404961049557,0.0027479236014187336
1733358364626372400,8.440372314453125,0.0025476785376667976,0.007532918360084295,0.003841063939034939
1733358364636337400,8.45033740234375,0.0017202342860400677,0.00992017611861229,0.0016652614576742053
1733358364646301200,8.46030126953125,0.0018204039661213756,0.013888655230402946,-0.0019699716940522194
1733358364656266200,8.470266357421876,0.00003502069739624858,0.01505964808166027,-0.0062432801350951195
1733358364666231300,8.480231201171875,0.0018811238696798682,0.014492128044366837,-0.009672898799180984
1733358364676195300,8.4901953125,0.000735165667720139,0.013073195703327656,-0.00705980509519577
1733358364686160400,8.500160400390625,-0.0012670850846916437,0.011095806024968624,-0.007420483976602554
1733358364696125200,8.510125244140625,-0.0018071741797029972,0.008531981147825718,-0.004628959111869335
1733358364706089200,8.520089111328126,-0.003051901236176491,0.00799252837896347,-0.003566642524674535
1733358364716054300,8.53005419921875,-0.005633569788187742,0.005206595174968243,-0.004443354904651642
1733358364726019300,8.540019287109375,-0.0049270158633589745,0.007569137029349804,-0.005370277911424637
1733358364735983400,8.5499833984375,-0.004525410942733288,0.006573115009814501,-0.006861114874482155
1733358364745948400,8.559948486328125,-0.0034254840575158596,0.003948698285967112,-0.006554330233484507
1733358364755912200,8.569912109375,-0.006603434216231108,0.003590503241866827,-0.004285317379981279
1733358364765877200,8.579877197265626,-0.009878098033368587,0.003809818997979164,0.0010833607520908117
1733358364775842300,8.58984228515625,-0.01182220596820116,0.0016361474990844727,0.002455154899507761
1733358364785806300,8.599806396484375,-0.013358773663640022,-0.0011639362201094627,0.004921478219330311
1733358364795771400,8.609771484375,-0.013841072097420692,0.0014401031658053398,0.004288178402930498
1733358364805736200,8.619736083984375,-0.01324229035526514,0.004963775165379047,0.0018209698610007763
1733358364815700200,8.6297001953125,-0.009709074161946774,0.009175031445920467,-0.0004784035263583064
1733358364825665300,8.639665283203126,-0.007413875311613083,0.010936438106000423,-0.001274868380278349
1733358364835630300,8.64963037109375,-0.006168581545352936,0.008163554593920708,-0.00010787113569676876
1733358364845594400,8.659594482421875,-0.0038046143017709255,0.003859791439026594,0.0028867856599390507
1733358364855559400,8.669559326171875,-0.0022471975535154343,-0.0009927544742822647,0.005029564723372459
1733358364865524200,8.679524169921875,-0.0002905731671489775,0.0003745127469301224,0.006811752449721098
1733358364875488300,8.68948828125,0.0007379396120086312,0.0004914253950119019,0.0033837314695119858
1733358364885453300,8.699453369140626,0.004868657793849707,0.0005416916683316231,0.0012117067817598581
1733358364895418400,8.70941845703125,0.007426091469824314,-0.0025608912110328674,0.002958207856863737
1733358364905382400,8.71938232421875,0.006994711235165596,-0.0074327243492007256,0.00716344453394413
1733358364915347500,8.729347412109375,0.005087887868285179,-0.009605064056813717,0.010128607973456383
1733358364925312300,8.739312255859375,0.0050218538381159306,-0.010151763446629047,0.01303812675178051
1733358364935276300,8.7492763671875,0.0023783999495208263,-0.0098106125369668,0.011492162011563778
1733358364945241000,8.759240966796876,0.0016441198531538248,-0.004808281548321247,0.008329128846526146
1733358364955206400,8.769206298828125,-0.0019551424775272608,-0.0033984044566750526,0.0035242533776909113
1733358364965170400,8.77917041015625,-0.008646756410598755,0.0036015170626342297,-0.00308363139629364
1733358364975135200,8.78913525390625,-0.011677966453135014,0.01649787463247776,-0.014062246307730675
1733358364985100300,8.799100341796875,-0.014424698427319527,0.02476474642753601,-0.02190275490283966
1733358364995064300,8.809064208984376,-0.01612645946443081,0.01831536926329136,-0.01786753349006176
1733358365005029000,8.819029052734376,-0.015427535399794579,0.005173804704099894,-0.008981678634881973
1733358365014994400,8.828994384765625,-0.01677030138671398,-0.000333346426486969,-0.001331481384113431
1733358365024958500,8.83895849609375,-0.01604922115802765,-0.0014505879953503609,0.001109096105210483
1733358365034923300,8.84892333984375,-0.015157061628997326,-0.0010103676468133926,0.0013868637615814805
1733358365044888300,8.858888427734374,-0.013840030878782272,0.0023811878636479378,-0.0033794590272009373
1733358365054852400,8.868852294921876,-0.012232014909386635,0.005224112421274185,-0.006448752246797085
1733358365064817200,8.878817138671875,-0.008904146030545235,0.009893913753330708,-0.01153684500604868
1733358365074782500,8.888782470703125,-0.0067515126429498196,0.012196483090519905,-0.01361570879817009
1733358365084746200,8.898746337890625,-0.006234424654394388,0.013532573357224464,-0.010836103931069374
1733358365094711300,8.908711181640625,-0.008601974695920944,0.01387026160955429,-0.006934040226042271
1733358365104676400,8.91867626953125,-0.011236784979701042,0.009674014523625374,-0.0029014148749411106
1733358365114640100,8.92864013671875,-0.009069504216313362,0.00557381147518754,0.0031117363832890987
1733358365124605400,8.93860546875,-0.00965539924800396,0.0021013151854276657,0.0036156065762043
1733358365134570200,8.9485703125,-0.007706764619797468,0.0006648069247603416,0.005079013295471668
1733358365144534300,8.9585341796875,-0.004809304140508175,0.0007423898205161095,0.002575263613834977
1733358365154499600,8.96849951171875,-0.0022971441503614187,0.0002771364524960518,0.0015384949510917068
1733358365164464400,8.97846435546875,0.0020318240858614445,-0.0034014880657196045,0.0036863344721496105
1733358365174428400,8.988428466796876,0.004221741575747728,-0.005016429349780083,0.004574232269078493
1733358365184393500,8.9983935546875,0.006911371368914843,-0.007975423708558083,0.007409111596643925
1733358365194358300,9.008358154296875,0.005220530554652214,-0.007862772792577744,0.008292482234537601
1733358365204322300,9.018322265625,0.0040397667326033115,-0.00506886001676321,0.007569411303848028
1733358365214287600,9.02828759765625,0.0033540029544383287,-0.003525557927787304,0.005736091174185276
1733358365224252400,9.03825244140625,0.0033143337350338697,0.0014109034091234207,0.0019941991195082664
1733358365234216400,9.048216552734376,0.004652305506169796,0.0032652621157467365,-0.00036749220453202724
1733358365244181500,9.058181396484375,0.0031657118815928698,0.006493761204183102,-0.004127732943743467
1733358365254146300,9.068146240234375,0.004914343357086182,0.00883361417800188,-0.008031927049160004
1733358365264110300,9.0781103515625,0.006427827291190624,0.011076288297772408,-0.00846830103546381
1733358365274075400,9.088075439453124,0.004697571508586407,0.0069198934361338615,-0.005377436056733131
1733358365284040400,9.09804052734375,0.0032357703894376755,0.0010804049670696259,-0.0018575307913124561
1733358365294004500,9.10800439453125,0.00245732837356627,-0.003299696370959282,-0.00027907523326575756
1733358365303969300,9.11796923828125,0.0010291095823049545,-0.004636499099433422,-0.0000897430581972003
1733358365313934300,9.127934326171875,-0.0013706648023799062,-0.002921423874795437,-0.002004023175686598
1733358365323898400,9.1378984375,-0.0019048191606998444,-0.000030064024031162262,-0.0004855189472436905
1733358365333863400,9.147863525390624,-0.0016901683993637562,0.0025891545228660107,-0.0022924738004803658
1733358365343828500,9.157828369140624,-0.0028116151224821806,0.002300493884831667,0.0012760128593072295
1733358365353792500,9.16779248046875,-0.00398633535951376,-0.001064942218363285,0.0018022534204646945
1733358365363757300,9.17775732421875,-0.004736789967864752,-0.0023058997467160225,0.0033635287545621395
1733358365373722400,9.187722412109375,-0.004300297703593969,-0.0056987665593624115,0.004292971920222044
1733358365383686700,9.197686767578125,-0.004719160962849855,-0.00398113951086998,0.0037838807329535484
1733358365393651500,9.2076513671875,-0.005098395049571991,-0.003475937992334366,0.00322967697866261
1733358365403616500,9.217616455078126,-0.004401857499033213,-0.0018156282603740692,0.0009783083805814385
1733358365413580500,9.22758056640625,-0.002950434572994709,0.0017665894702076912,-0.0014297219458967447
1733358365423545300,9.23754541015625,-0.003523073857650161,0.004109459463506937,-0.002258874475955963
1733358365433510700,9.2475107421875,-0.0027712637092918158,0.0016194041818380356,-0.0014708450762555003
1733358365443474400,9.257474365234375,-0.002492862520739436,-0.0004239976406097412,-0.00009975058492273092
1733358365453439500,9.267439453125,-0.0009575501899234951,0.0003328723832964897,-0.0005498247919604182
1733358365463404500,9.277404541015626,0.003503244835883379,0.00031689368188381195,-0.002949865534901619
1733358365473368300,9.287368408203125,0.006954926531761885,-0.0017461199313402176,-0.00038656173273921013
1733358365483333400,9.29733349609375,0.008536671288311481,-0.005559483543038368,0.003279106691479683
1733358365493298400,9.30729833984375,0.009350532665848732,-0.005921939387917519,0.005390993319451809
1733358365503262500,9.317262451171874,0.011039072647690773,-0.006263071671128273,0.006747279316186905
1733358365513227500,9.3272275390625,0.01159061398357153,-0.009711598977446556,0.009636010974645615
1733358365523192300,9.3371923828125,0.009672862477600574,-0.011461587622761726,0.010999164544045925
1733358365533156400,9.34715625,0.006870417855679989,-0.013599308207631111,0.010286236181855202
1733358365543121400,9.357121337890625,0.0016675969818606973,-0.012419735081493855,0.009447643533349037
1733358365553086500,9.36708642578125,-0.003206520341336727,-0.008037769235670567,0.0039056059904396534
1733358365563050500,9.377050537109374,-0.006896226201206446,0.00029557105153799057,-0.0052445391193032265
1733358365573015600,9.387015625,-0.006181167438626289,0.009054175578057766,-0.010097084566950798
1733358365582980400,9.39698046875,-0.008251242339611053,0.011898165568709373,-0.011081389151513577
1733358365592944400,9.4069443359375,-0.006183297839015722,0.00883952435106039,-0.010386570356786251
1733358365602909400,9.416909423828125,-0.007526054047048092,0.0021568816155195236,-0.004696874413639307
1733358365612874500,9.42687451171875,-0.007202746346592903,-0.00222801323980093,-0.000701600220054388
1733358365622838500,9.436838623046874,-0.008512858301401138,-0.007070215418934822,0.0019043580396100879
1733358365632803300,9.44680322265625,-0.005974066909402609,-0.0058667343109846115,0.0019102169899269938
1733358365642767400,9.456767333984375,-0.007751135155558586,-0.0051392437890172005,-0.0024599190801382065
1733358365652732400,9.466732421875,-0.005394503939896822,-0.001592446118593216,-0.006250396370887756
1733358365662697200,9.476697265625,-0.003664068877696991,0.0020251991227269173,-0.008728021755814552
1733358365672661500,9.48666162109375,-0.0031498123425990343,0.0018635457381606102,-0.009622843936085701
1733358365682626600,9.49662646484375,-0.00018808324239216745,0.003988826647400856,-0.008399145677685738
1733358365692591400,9.50659130859375,0.0021214100997895002,0.004056737292557955,-0.006836935877799988
1733358365702555400,9.516555419921875,-0.00164655945263803,0.003662202972918749,-0.004423652309924364
1733358365712520400,9.5265205078125,-0.002654565963894129,-0.0004917960613965988,0.0002163732424378395
1733358365722485500,9.536485595703125,0.00008758809417486191,-0.0010582925751805305,0.0017472130712121725
1733358365732449500,9.546449462890624,0.0001373892300762236,-0.003516923636198044,0.002444694982841611
1733358365742414600,9.55641455078125,0.006328044459223747,-0.0024443212896585464,0.0003553719725459814
1733358365752379400,9.56637939453125,0.009599737823009491,-0.003632890060544014,0.001999607775360346
1733358365762343400,9.576343505859375,0.010936593636870384,-0.003690570592880249,0.002492985688149929
1733358365772308200,9.58630810546875,0.012268973514437675,-0.0029890937730669975,0.0028948565013706684
1733358365782273500,9.5962734375,0.013034895062446594,-0.005492201074957848,0.0025243000127375126
1733358365792237600,9.606237548828124,0.010045763105154037,-0.00751859974116087,0.005328608676791191
1733358365802202400,9.616202392578124,0.008493984118103981,-0.006753342226147652,0.0042157708667218685
1733358365812167400,9.62616748046875,0.007153881713747978,-0.006009256467223167,0.003603510092943907
1733358365822131500,9.63613134765625,0.005088144447654486,-0.0047035422176122665,0.003561781719326973
1733358365832096300,9.64609619140625,0.0051778932102024555,-0.0036518601700663567,0.00373142515309155
1733358365842061600,9.6560615234375,0.003919662442058325,-0.005198288708925247,0.00020721275359392166
1733358365852025600,9.666025634765624,0.0052893259562551975,-0.004406530410051346,-0.00011449714656919241
1733358365861990400,9.675990478515626,0.0031172598246484995,-0.005907196551561356,-0.0019619266968220472
1733358365871955500,9.68595556640625,0.003759614424780011,-0.007354624569416046,-0.0024921621661633253
1733358365881919500,9.69591943359375,0.002031661570072174,-0.0032539060339331627,-0.0014344470109790564
1733358365891884300,9.70588427734375,0.0022686829324811697,-0.0038011856377124786,-0.0035591169726103544
1733358365901849600,9.715849609375,0.00048060884000733495,-0.0015706010162830353,-0.004717300646007061
1733358365911813400,9.7258134765625,0.0009591788402758539,0.0008547399193048477,-0.005007318686693907
1733358365921778400,9.7357783203125,0.00004911830183118582,-0.0002993866801261902,-0.003353341482579708
1733358365931743500,9.745743408203126,-0.0023517212830483913,0.0006313873454928398,-0.002555724699050188
1733358365941707300,9.755707275390625,-0.002969111315906048,-0.00267806276679039,-0.0011173144448548555
1733358365951672300,9.76567236328125,-0.0032535367645323277,-0.004819510504603386,0.000978859607130289
1733358365961637400,9.775637451171875,-0.005477149039506912,-0.006034590303897858,0.0031880266033113003
1733358365971601400,9.785601318359374,-0.007165593095123768,-0.008776316419243813,0.0031475466676056385
1733358365981566500,9.79556640625,-0.008247102610766888,-0.007889483124017715,0.0032508771400898695
1733358365991531300,9.80553125,-0.006258520297706127,-0.006849784404039383,0.0005475023644976318
1733358366001495300,9.815495361328125,-0.006036634091287851,-0.0045106010511517525,-0.0004963577957823873
1733358366011460600,9.825460693359375,-0.003470944706350565,-0.0033369455486536026,0.0006772972992621362
1733358366021425400,9.83542529296875,-0.0024581721518188715,-0.006912584416568279,0.004545563831925392
1733358366031389400,9.845389404296874,-0.002939139027148485,-0.012304420582950115,0.006843871437013149
1733358366041354500,9.8553544921875,0.00043983827345073223,-0.016016194596886635,0.009539535269141197
1733358366051319300,9.8653193359375,0.00041160883847624063,-0.012291764840483665,0.007990640588104725
1733358366061283300,9.875283447265625,0.0034902822226285934,-0.008019608445465565,0.002039919141680002
1733358366071248600,9.88524853515625,0.008200348354876041,-0.007699496112763882,-0.0007587970467284322
1733358366081213400,9.89521337890625,0.010582812130451202,-0.009966111741960049,-0.0005806315457448363
1733358366091177500,9.905177490234376,0.013802574016153812,-0.009610314853489399,0.0020617570262402296
1733358366101142500,9.915142578125,0.015585587359964848,-0.011386298574507236,0.005796549376100302
1733358366111107300,9.925107421875,0.017333952710032463,-0.012700035236775875,0.008752924390137196
1733358366121071400,9.9350712890625,0.014896299690008163,-0.011962521821260452,0.011639834381639957
1733358366131036400,9.945036376953125,0.009621376171708107,-0.010702313855290413,0.011816934682428837
1733358366141001500,9.95500146484375,0.003489845199510455,-0.006295724771916866,0.009596843272447586
1733358366150965500,9.964965576171876,-0.005744932219386101,-0.0015105577185750008,0.004177310969680548
1733358366160930300,9.974930419921876,-0.01298302598297596,0.004625699948519468,0.0002387115964666009
1733358366170895400,9.984895263671875,-0.017484301701188087,0.00686275539919734,-0.0006731548346579075
1733358366180859400,9.994859375,-0.02128387615084648,0.0064133526757359505,-0.00027659605257213116
1733358366190824400,10.004824462890625,-0.020991194993257523,0.0018460312858223915,-0.00021028344053775072
1733358366200789500,10.01478955078125,-0.020131509751081467,-0.002993416041135788,-0.0003093413542956114
1733358366210753500,10.02475341796875,-0.017458494752645493,-0.005404641851782799,-0.005115015432238579
1733358366220718300,10.03471826171875,-0.012774276547133923,-0.0036605866625905037,-0.010789157822728157
1733358366230683400,10.044683349609375,-0.008560357615351677,0.005501752719283104,-0.017144791781902313
1733358366240647400,10.0546474609375,-0.0035144509747624397,0.015495046973228455,-0.024172862991690636
1733358366250612500,10.064612548828125,0.0003460671869106591,0.019184857606887817,-0.0253361314535141
1733358366260577500,10.07457763671875,0.0025211749598383904,0.01803494617342949,-0.0228397399187088
1733358366270541300,10.084541259765626,-0.0010360092855989933,0.011301676742732525,-0.015174897387623787
1733358366280506400,10.09450634765625,-0.0032540522515773773,0.0018395092338323593,-0.008980173617601395
1733358366290471400,10.104471435546875,-0.004242351278662682,-0.006784073077142239,0.0006431587971746922
1733358366300435500,10.114435546875,-0.004989659413695335,-0.01468361634761095,0.0050186035223305225
1733358366310400500,10.124400390625,-0.007630184292793274,-0.015957672148942947,0.00444708950817585
1733358366320365300,10.134365234375,-0.0034289357718080282,-0.01562630757689476,0.0020512589253485203
1733358366330329300,10.144329345703126,-0.0028734004590660334,-0.01075458712875843,0.0008539017871953547
1733358366340294400,10.15429443359375,0.0017281892942264676,-0.00805493351072073,0.00028842571191489697
1733358366350259500,10.164259521484375,0.004217179492115974,-0.007297796197235584,0.0053598834201693535
1733358366360223500,10.174223388671875,0.009468384087085724,-0.00538729690015316,0.008118527941405773
1733358366370188500,10.1841884765625,0.011601042933762074,-0.00601926539093256,0.011305799707770348
1733358366380153300,10.1941533203125,0.013585837557911873,-0.004081727936863899,0.012516094371676445
1733358366390117400,10.204117431640626,0.01395654957741499,-0.0019093872979283333,0.010960809886455536
1733358366400082400,10.21408251953125,0.01264986488968134,-0.000666104257106781,0.008557380177080631
1733358366410047500,10.224047607421875,0.011358764953911304,0.000024187378585338593,0.00489420210942626
1733358366420011500,10.234011474609375,0.007069580722600222,0.0027401214465498924,0.0018418976105749607
1733358366429976600,10.2439765625,0.003696953412145376,0.0008471468463540077,-0.002271887380629778
1733358366439941400,10.25394140625,0.0009172912687063217,-0.000421144999563694,-0.005182790569961071
1733358366449905400,10.263905517578126,-0.003892910201102495,0.00005343090742826462,-0.004593167454004288
1733358366459870500,10.273870361328125,-0.004678335972130299,-0.00011186487972736359,-0.004239077214151621
1733358366469835500,10.28383544921875,-0.004216277971863747,0.00019280053675174713,-0.0027053626254200935
1733358366479799600,10.293799560546875,-0.004008306190371513,0.0020835911855101585,-0.004073396325111389
1733358366489764400,10.303764404296874,-0.006409145891666412,0.0035150405019521713,-0.005441728513687849
1733358366499729400,10.3137294921875,-0.0071529545821249485,0.004220804665237665,-0.006372121162712574
1733358366509693400,10.323693359375,-0.007185445167124271,0.002375766634941101,-0.006234969012439251
1733358366519658200,10.333658203125,-0.007774484809488058,0.00004858430474996567,-0.005028451792895794
1733358366529623600,10.34362353515625,-0.008722037076950073,-0.0022015199065208435,-0.004134428687393665
1733358366539587600,10.353587646484375,-0.008704246021807194,-0.0038568293675780296,-0.0024266482796519995
1733358366549552400,10.363552490234374,-0.00936817191541195,-0.004270951263606548,-0.004048779606819153
1733358366559517400,10.373517333984376,-0.0075308228842914104,0.0007329657673835754,-0.0019196011126041412
1733358366569481500,10.3834814453125,-0.008141485042870045,0.0026765409857034683,-0.0016317134723067284
1733358366579446300,10.3934462890625,-0.00730486586689949,0.004413282964378595,-0.002410619519650936
1733358366589411600,10.40341162109375,-0.005773282144218683,0.006988027133047581,-0.0032066386193037033
1733358366599375400,10.413375244140624,-0.0036725462414324284,0.009757816791534424,-0.004081771709024906
1733358366609340400,10.42334033203125,-0.0025332458317279816,0.008180959150195122,-0.001935796346515417
1733358366619305500,10.433305419921876,0.002685422543436289,0.009023137390613556,-0.0017109820619225502
1733358366629269200,10.443269287109375,0.007421055343002081,0.00631124060600996,-0.0026673232205212116
1733358366639234600,10.453234619140625,0.010509070008993149,0.004680819343775511,-0.0013886591186746955
1733358366649199400,10.463199462890625,0.012406572699546814,-0.001524079591035843,0.0012822251301258802
1733358366659163400,10.473163330078124,0.014506276696920395,-0.00316011905670166,0.006436470430344343
1733358366669128400,10.48312841796875,0.01345139928162098,-0.007131424732506275,0.010752389207482338
1733358366679093200,10.49309326171875,0.01276498194783926,-0.012264763005077839,0.014467163942754269
1733358366689057300,10.503057373046875,0.012727431021630764,-0.015384656377136707,0.012766735628247261
1733358366699022600,10.513022705078125,0.010110118426382542,-0.014338972046971321,0.012627705931663513
1733358366708987400,10.5229873046875,0.00440030125901103,-0.011337855830788612,0.0086396224796772
1733358366718951400,10.532951416015624,0.001427432056516409,-0.0039278240874409676,0.004564576782286167
1733358366728916500,10.54291650390625,-0.0023222987074404955,0.004208665806800127,-0.004120790399610996
1733358366738881300,10.55288134765625,-0.005943433381617069,0.009880831465125084,-0.007630703505128622
1733358366748845300,10.56284521484375,-0.010307022370398045,0.011804432608187199,-0.007762263063341379
1733358366758810600,10.572810546875,-0.010370482690632343,0.010439329780638218,-0.0068038757890462875
1733358366768775400,10.582775390625,-0.01128075085580349,0.008444888517260551,-0.0054131727665662766
1733358366778739500,10.592739501953124,-0.010440918616950512,0.00732597429305315,-0.007758692372590303
1733358366788704500,10.60270458984375,-0.010938663966953754,0.005921689327806234,-0.009685755707323551
1733358366798668300,10.612668212890625,-0.008159508928656578,0.005515195894986391,-0.012460305355489254
1733358366808633300,10.62263330078125,-0.007862566038966179,0.006033180747181177,-0.01424275990575552
1733358366818598400,10.632598388671875,-0.01094670407474041,0.0022490350529551506,-0.011555134318768978
1733358366828562400,10.6425625,-0.011225803755223751,-0.0039942143484950066,-0.0068991295993328094
1733358366838527500,10.652527587890624,-0.013040335848927498,-0.00890757329761982,-0.0018804711289703846
1733358366848492300,10.6624921875,-0.013586017303168774,-0.01059255562722683,0.00048095372039824724
1733358366858457300,10.672457275390625,-0.01287052035331726,-0.011278070509433746,0.0015887366607785225
1733358366868421400,10.68242138671875,-0.009610811248421669,-0.006855359300971031,-0.00459618866443634
1733358366878386400,10.692386474609375,-0.006699726916849613,-0.00495870690792799,-0.005484476685523987
1733358366888350500,10.7023505859375,-0.004978259559720755,-0.0036859819665551186,-0.004707898944616318
1733358366898315500,10.7123154296875,-0.0018999290186911821,-0.0010577607899904251,-0.003621719777584076
1733358366908280300,10.7222802734375,0.00027933571254834533,0.0011113844811916351,-0.0015279423678293824
1733358366918244400,10.732244384765625,0.0020108448807150126,0.002848598640412092,0.0028572515584528446
1733358366928209700,10.742209716796875,0.007258337456732988,0.001815025694668293,0.004499622620642185
1733358366938174500,10.752174560546875,0.010804028250277042,0.0007323212921619415,0.005099531728774309
1733358366948139500,10.762139404296875,0.012665578164160252,0.0026284921914339066,0.00492269778624177
1733358366958103300,10.772103271484376,0.013281317427754402,0.004834973253309727,0.00575612485408783
1733358366968068400,10.782068359375,0.01110098697245121,0.00483896816149354,0.00535265589132905
1733358366978032400,10.792032470703125,0.008209559135138988,0.005583751015365124,0.003705509239807725
1733358366987997400,10.80199755859375,0.0043996404856443405,0.00035942811518907547,0.0030194788705557585
1733358366997962500,10.81196240234375,0.004382869228720665,-0.0037692468613386154,0.0016005540965124965
1733358367007926500,10.821926513671874,0.003123460104689002,-0.004995100200176239,-0.0002455491339787841
1733358367017891300,10.831891357421876,0.0027569166850298643,-0.006648938171565533,-0.002124503254890442
1733358367027856400,10.8418564453125,0.0057463147677481174,-0.004339978098869324,-0.0024677845649421215
1733358367037820400,10.8518203125,0.0026672198437154293,-0.0037693744525313377,-0.002695380011573434
1733358367047785500,10.861785400390625,0.001986782532185316,-0.005739846266806126,-0.0007059986237436533
1733358367057750500,10.87175048828125,0.000021334970369935036,-0.005779897794127464,0.00017286313232034445
1733358367067714600,10.881714599609374,-0.0017853535246104002,-0.0055175768211483955,0.004341509193181992
1733358367077679400,10.891679443359376,-0.0046977088786661625,-0.006737337447702885,0.004366092383861542
1733358367087644400,10.90164453125,-0.0070780422538518906,-0.007579694502055645,0.0022965501993894577
1733358367097608400,10.9116083984375,-0.009653877466917038,-0.0076673924922943115,0.0005186467315070331
1733358367107573500,10.921573486328125,-0.006956361699849367,-0.0055512432008981705,-0.0003801700659096241
1733358367117538600,10.93153857421875,-0.009180326946079731,-0.0002639424055814743,-0.0036707832477986813
1733358367127502300,10.94150244140625,-0.00821306649595499,0.006674124859273434,-0.008050351403653622
1733358367137467400,10.95146728515625,-0.0068561057560145855,0.008837644010782242,-0.007736285217106342
1733358367147432400,10.961432373046875,-0.0018192693823948503,0.007675440050661564,-0.007850002497434616
1733358367157396500,10.971396484375,-0.0015042175073176622,0.004189096391201019,-0.0035412737634032965
1733358367167361500,10.981361572265625,-0.0014898363733664155,-0.00036490894854068756,-0.00018409290350973606
1733358367177326600,10.99132666015625,0.00006661785300821066,-0.003753471188247204,0.0006595414597541094
1733358367187290600,11.00129052734375,0.002813668455928564,-0.005968955345451832,0.002011628355830908
1733358367197255700,11.011255615234376,0.004653062205761671,-0.009188870899379253,0.005027019884437323
1733358367207220500,11.021220458984375,0.003948123659938574,-0.013613712973892689,0.005376160144805908
1733358367217184500,11.0311845703125,0.00464808801189065,-0.013252864591777325,0.008401865139603615
1733358367227149600,11.041149658203125,0.007793547585606575,-0.01873764395713806,0.011606979183852673
1733358367237114600,11.051114501953125,0.009176567196846008,-0.018967077136039734,0.015382381156086922
1733358367247078700,11.06107861328125,0.009647680446505547,-0.022585783153772354,0.017827697098255157
1733358367257043700,11.071043701171876,0.005562411155551672,-0.023139137774705887,0.0166521817445755
1733358367267008500,11.081008544921875,0.00350485322996974,-0.0196693055331707,0.01424255408346653
1733358367276972500,11.09097265625,-0.00025375228142365813,-0.007292523048818111,0.008302818983793259
1733358367286937600,11.1009375,-0.0024812202900648117,0.0024991221725940704,0.000996436458081007
1733358367296902700,11.110902587890624,-0.003177069593220949,0.010500692762434483,-0.00554617028683424
1733358367306866700,11.12086669921875,-0.001624180469661951,0.013413658365607262,-0.007798139005899429
1733358367316831500,11.13083154296875,-0.0038551532197743654,0.008668843656778336,-0.006330723874270916
1733358367326796500,11.140796630859375,-0.0038157382514327765,0.0025342516601085663,-0.00507371174171567
1733358367336760600,11.150760498046875,-0.005292882211506367,-0.0031217020004987717,-0.0051709674298763275
1733358367346725600,11.1607255859375,-0.006655355449765921,-0.005140644498169422,-0.004833545070141554
1733358367356690700,11.170690673828124,-0.007121855393052101,-0.0040857745334506035,-0.0071719796396791935
1733358367366654700,11.18065478515625,-0.00756420660763979,-0.0005858484655618668,-0.009687601588666439
1733358367376619500,11.19061962890625,-0.010276739485561848,0.0026732855476439,-0.01121540181338787
1733358367386584600,11.20058447265625,-0.00606281915679574,0.005431787576526403,-0.00952988676726818
1733358367396548600,11.210548583984375,-0.008103616535663605,0.0034087984822690487,-0.008796043694019318
1733358367406513700,11.220513671875,-0.004952032119035721,-0.0009169746190309525,-0.006623436696827412
1733358367416478700,11.230478759765624,-0.0051370528526604176,-0.002590297721326351,-0.003009564708918333
1733358367426442500,11.2404423828125,-0.004478985443711281,-0.0030182674527168274,-0.0028894562274217606
1733358367436407600,11.250407470703125,-0.003777329111471772,-0.0028496813029050827,-0.00192121765576303
1733358367446372600,11.26037255859375,-0.0023112590424716473,-0.000637393444776535,-0.004150816239416599
1733358367456336400,11.27033642578125,0.004082011990249157,0.0007013697177171707,-0.005992837715893984
1733358367466301700,11.2803017578125,0.003501442726701498,-0.0001601632684469223,-0.003068953286856413
1733358367476266500,11.2902666015625,0.005804852582514286,-0.0019078664481639862,0.000029471120797097683
1733358367486230500,11.30023046875,0.006779302842915058,-0.0038700830191373825,0.0011701029725372791
1733358367496195600,11.310195556640625,0.00872769858688116,-0.007030646316707134,0.004672819748520851
1733358367506160400,11.320160400390625,0.006861089263111353,-0.00628229696303606,0.00496550090610981
1733358367516124400,11.33012451171875,0.006600639782845974,-0.0024971216917037964,0.0037497736047953367
1733358367526089700,11.34008984375,0.006768418941646814,0.001941036432981491,0.0016189784510061145
1733358367536054500,11.350054443359374,0.005981171038001776,-0.00011843815445899963,-0.001369744772091508
1733358367546018600,11.3600185546875,0.004356376361101866,-0.002160816453397274,-0.001191312912851572
1733358367555983600,11.369983642578125,0.0032725909259170294,-0.0048475852236151695,0.00046097999438643456
1733358367565948400,11.379948486328125,0.002863795729354024,-0.007533116266131401,0.0008319583721458912
1733358367575912400,11.389912353515625,0.0004845451330766082,-0.007140514440834522,0.001496008364483714
1733358367585877800,11.399877685546874,0.0009109171805903316,-0.005766856484115124,0.000612105242908001
1733358367595842600,11.409842529296874,-0.0024033868685364723,-0.005390285514295101,-0.0005913771456107497
1733358367605806600,11.419806640625,-0.006312641315162182,-0.0020046094432473183,-0.0035424260422587395
1733358367615771600,11.429771728515625,-0.00563705712556839,0.0010354751721024513,-0.003757719649001956
1733358367625736400,11.439736328125,-0.007742286194115877,0.004717295058071613,-0.003189401002600789
1733358367635700700,11.44970068359375,-0.010266833938658237,0.006215444300323725,-0.003794398158788681
1733358367645665500,11.45966552734375,-0.006092594936490059,0.0049472469836473465,-0.004662588704377413
1733358367655630600,11.469630615234376,-0.005301369819790125,0.0073550110682845116,-0.007499653846025467
1733358367665594600,11.4795947265625,-0.006667305249720812,0.008679401129484177,-0.005857815500348806
1733358367675559400,11.489559326171875,-0.006410886533558369,0.012249771505594254,-0.006344360299408436
1733358367685524700,11.499524658203125,-0.007912109605967999,0.011062534525990486,-0.004700923338532448
1733358367695488800,11.50948876953125,-0.008884912356734276,0.006001083645969629,-0.003975486382842064
1733358367705453600,11.51945361328125,-0.010681746527552605,0.0011517340317368507,0.0006943662883713841
1733358367715418600,11.529418701171876,-0.00858131144195795,-0.0009287279099225998,-0.0004995288327336311
1733358367725382700,11.539382568359375,-0.005726936273276806,-0.0002967594191431999,-0.003991466015577316
1733358367735347500,11.549347412109375,-0.004247024655342102,-0.00002833642065525055,-0.003957649692893028
1733358367745312800,11.559312744140625,-0.0007028896943666041,0.0012712860479950905,-0.004546208307147026
1733358367755276800,11.56927685546875,0.0029064579866826534,0.00074014812707901,-0.0008760876953601837
1733358367765241600,11.57924169921875,0.005974685773253441,0.001594756729900837,0.005346122197806835
1733358367775206700,11.58920654296875,0.007391908206045628,0.0008322251960635185,0.008140094578266144
1733358367785170400,11.59917041015625,0.006395087577402592,-0.001329994760453701,0.009507894515991211
1733358367795135500,11.609135498046875,0.005546286702156067,-0.00034211669117212296,0.0089354757219553
1733358367805100800,11.619100830078125,0.002282582689076662,0.0035247928462922573,0.005518373101949692
1733358367815064600,11.629064697265624,-0.0031518389005213976,0.00787327904254198,0.0005162871675565839
1733358367825029600,11.639029541015624,-0.00878389272838831,0.011988128535449505,-0.003858753480017185
1733358367834994400,11.648994384765626,-0.010913844220340252,0.013566979207098484,-0.007480019703507423
1733358367844958500,11.65895849609375,-0.010703720152378082,0.009629229083657265,-0.006357763893902302
1733358367854923500,11.668923583984375,-0.013218923471868038,0.007214205805212259,-0.004927442874759436
1733358367864888600,11.678888671875,-0.013608544133603573,0.0032218610867857933,-0.005028909537941217
1733358367874852600,11.6888525390625,-0.012102997861802578,0.0016537075862288475,-0.005420703440904617
1733358367884817700,11.698817626953126,-0.008309057913720608,0.0032313638366758823,-0.005465711001306772
1733358367894782500,11.708782470703126,-0.007073084823787212,0.002291534561663866,-0.0061623938381671906
1733358367904746500,11.71874658203125,-0.005098883528262377,0.004309145268052816,-0.005717379506677389
1733358367914711600,11.728711669921875,-0.004319127649068832,0.003033972345292568,-0.003080707509070635
1733358367924676600,11.738676513671875,-0.0047910395078361034,0.0029303752817213535,-0.0011168927885591984
1733358367934640600,11.748640625,-0.0072855111211538315,-0.0003508375957608223,-0.00005407538264989853
1733358367944605700,11.758605712890626,-0.00473580090329051,-0.0017279582098126411,0.0001858754549175501
1733358367954570500,11.768570556640626,-0.0058630649000406265,-0.003990158438682556,0.0011495125945657492
1733358367964534500,11.778534423828125,-0.004278750158846378,-0.0042093368247151375,0.002402263693511486
1733358367974499600,11.78849951171875,-0.005009341984987259,-0.0035246293991804123,0.0015936410054564476
1733358367984464600,11.798464599609375,-0.004788299556821585,-0.0041105253621935844,0.001995778176933527
1733358367994428700,11.8084287109375,-0.005329814273864031,-0.003468720242381096,0.002495028544217348
1733358368004393500,11.8183935546875,-0.003184371627867222,-0.00044336915016174316,0.004076680168509483
1733358368014358500,11.828358642578126,0.0010876051383093,-0.0007384475320577621,0.0036361929960548878
1733358368024322600,11.838322509765625,0.0027443477883934975,0.0006615510210394859,0.0058013396337628365
