time,seconds_elapsed,z,y,x
1733359145457081600,0.02008154296875,-0.023915337398648262,-0.05267232283949852,-0.01409158855676651
1733359145467046400,0.03004638671875,-0.027724450454115868,-0.0728539526462555,-0.0022380035370588303
1733359145477012700,0.0400126953125,-0.032457951456308365,-0.08691703528165817,0.008627960458397865
1733359145486977500,0.0499775390625,-0.042727645486593246,-0.08289694786071777,0.014801586046814919
1733359145496942600,0.059942626953125,-0.05840887129306793,-0.07427337020635605,0.021689586341381073
1733359145506908700,0.06990869140625,-0.06852647662162781,-0.09375271201133728,0.04429515078663826
1733359145516873500,0.07987353515625,-0.07383069396018982,-0.11314824968576431,0.0796896293759346
1733359145526839600,0.089839599609375,-0.074775330722332,-0.12179628759622574,0.1122027114033699
1733359145536804600,0.0998046875,-0.07662489265203476,-0.11169837415218353,0.13889744877815247
1733359145546770700,0.109770751953125,-0.07627838850021362,-0.0928451418876648,0.15513893961906433
1733359145556735500,0.119735595703125,-0.07263012230396271,-0.08498455584049225,0.1644245833158493
1733359145566700500,0.129700439453125,-0.06348274648189545,-0.07847532629966736,0.1570010930299759
1733359145576666600,0.13966650390625,-0.05575904622673988,-0.07507766783237457,0.1421649008989334
1733359145586631400,0.14963134765625,-0.050737399607896805,-0.07813972234725952,0.12631045281887054
1733359145596597800,0.15959765625,-0.04270796850323677,-0.09292745590209961,0.10928166657686234
1733359145606562600,0.1695625,-0.033691275864839554,-0.10573076456785202,0.09685251861810684
1733359145616528400,0.1795283203125,-0.02417154423892498,-0.05327874422073364,0.07873237133026123
1733359145626493400,0.189493408203125,-0.03667004406452179,0.053345613181591034,0.05000394582748413
1733359145636458800,0.199458740234375,-0.08195602893829346,0.1830495446920395,-0.004358092788606882
1733359145646424600,0.209424560546875,-0.1453014314174652,0.27937883138656616,-0.058015622198581696
1733359145656389400,0.219389404296875,-0.14836272597312927,0.24719400703907013,-0.07344570755958557
1733359145666355700,0.229355712890625,-0.09046777337789536,0.09605297446250916,-0.028672197833657265
1733359145676320500,0.239320556640625,-0.03272325173020363,0.004739040043205023,0.01805589348077774
1733359145686286300,0.249286376953125,-0.016345059499144554,-0.019550494849681854,0.04449213668704033
1733359145696251600,0.259251708984375,-0.0245105791836977,-0.007884519174695015,0.052163902670145035
1733359145706217500,0.269217529296875,-0.020049752667546272,0.02561989240348339,0.04952799156308174
1733359145716182500,0.2791826171875,-0.01637299172580242,0.06449884921312332,0.04719133302569389
1733359145726147600,0.289147705078125,-0.010204887948930264,0.0949028953909874,0.03976490721106529
1733359145736113700,0.29911376953125,-0.001890499610453844,0.1150078997015953,0.034300632774829865
1733359145746078500,0.309078369140625,0.01118246279656887,0.12669183313846588,0.027715779840946198
1733359145756044500,0.31904443359375,0.02706262469291687,0.13905051350593567,0.025546900928020477
1733359145766009600,0.329009521484375,0.03898772597312927,0.15539033710956573,0.027773303911089897
1733359145775975400,0.338975341796875,0.051579419523477554,0.16952000558376312,0.028473714366555214
1733359145785940700,0.348940673828125,0.060719914734363556,0.17117053270339966,0.021396242082118988
1733359145795905500,0.358905517578125,0.0668470486998558,0.16633078455924988,0.009267408400774002
1733359145805871400,0.368871337890625,0.06579242646694183,0.15554429590702057,-0.004294184502214193
1733359145815836700,0.378836669921875,0.05666710063815117,0.1336914598941803,-0.011180853471159935
1733359145825802500,0.388802490234375,0.04316329583525658,0.11421152949333191,-0.010953182354569435
1733359145835767600,0.398767578125,0.028092999011278152,0.11001385748386383,-0.012620055116713047
1733359145845733600,0.408733642578125,0.009555516764521599,0.11283139139413834,-0.007844848558306694
1733359145855698200,0.4186982421875,-0.011698905378580093,0.12445608526468277,-0.0006383339641615748
1733359145865664300,0.428664306640625,-0.029997726902365685,0.15046973526477814,0.003651181235909462
1733359145875629300,0.43862939453125,-0.04957142472267151,0.1809312403202057,0.0003965322393923998
1733359145885594000,0.448593994140625,-0.06695306301116943,0.1969018429517746,-0.011084377765655518
1733359145895560200,0.458560302734375,-0.07950986921787262,0.19931147992610931,-0.020652316510677338
1733359145905525200,0.468525146484375,-0.08370064944028854,0.19198021292686462,-0.023990679532289505
1733359145915491000,0.478490966796875,-0.08433394879102707,0.1685052514076233,-0.016955673694610596
1733359145925456400,0.488456298828125,-0.07608959078788757,0.13061487674713135,-0.003576766699552536
1733359145935422200,0.498422119140625,-0.06091942638158798,0.07966061681509018,0.009109467267990112
1733359145945387000,0.508386962890625,-0.03848310187458992,0.017362136393785477,0.019923385232686996
1733359145955352000,0.51835205078125,-0.022288423031568527,-0.020855821669101715,0.03488475829362869
1733359145965318100,0.528318115234375,-0.02101808972656727,-0.015023890882730484,0.0445227287709713
1733359145975283200,0.538283203125,-0.02987815998494625,0.009672933258116245,0.04122813045978546
1733359145985249300,0.548249267578125,-0.04042617231607437,0.025274548679590225,0.0225979071110487
1733359145995214300,0.55821435546875,-0.054825883358716965,0.015811804682016373,-0.007550142239779234
1733359146005180200,0.56818017578125,-0.05945257470011711,-0.0012414511293172836,-0.03887107968330383
1733359146015145200,0.578145263671875,-0.0567510649561882,-0.011050673201680183,-0.06852724403142929
1733359146025111300,0.588111328125,-0.050535790622234344,-0.012108292430639267,-0.09064864367246628
1733359146035076000,0.598076171875,-0.0368061289191246,-0.01091732643544674,-0.09593235701322556
1733359146045041200,0.608041259765625,-0.015015062876045704,-0.018075216561555862,-0.0844578817486763
1733359146055007200,0.61800732421875,0.004451578948646784,-0.03285602480173111,-0.06217893958091736
1733359146064972300,0.62797216796875,0.02332673780620098,-0.04596982151269913,-0.035911925137043
1733359146074938400,0.6379384765625,0.039656709879636765,-0.053308695554733276,-0.009172989055514336
1733359146084903200,0.647903076171875,0.050155144184827805,-0.058341752737760544,0.013083466328680515
1733359146094869200,0.657869140625,0.05861201137304306,-0.06511364877223969,0.029076281934976578
1733359146104834000,0.667833984375,0.06230585649609566,-0.07538886368274689,0.04554148018360138
1733359146114799400,0.67779931640625,0.0670449510216713,-0.09347891062498093,0.06311408430337906
1733359146124765200,0.68776513671875,0.06883057951927185,-0.11123030632734299,0.07807961106300354
1733359146134730000,0.69772998046875,0.07039225846529007,-0.12418578565120697,0.09029339998960495
1733359146144696300,0.7076962890625,0.07021405547857285,-0.12982214987277985,0.09964621812105179
1733359146154661000,0.7176611328125,0.06497348845005035,-0.12248595058917999,0.099629707634449
1733359146164627200,0.727627197265625,0.05628972500562668,-0.10617326945066452,0.0943550318479538
1733359146174592300,0.73759228515625,0.044126804918050766,-0.08870852738618851,0.08973018079996109
1733359146184558000,0.74755810546875,0.0245888140052557,-0.08131249248981476,0.08337131142616272
1733359146194523100,0.757523193359375,0.007600777316838503,-0.0807577595114708,0.0775991752743721
1733359146204488200,0.76748828125,-0.013086122460663319,-0.08032026141881943,0.06918585300445557
1733359146214454300,0.777454345703125,-0.03176633641123772,-0.0772954449057579,0.0565536804497242
1733359146224419000,0.787419189453125,-0.05085481330752373,-0.0736214891076088,0.03897150233387947
1733359146234385200,0.79738525390625,-0.06495171785354614,-0.07024858891963959,0.017333848401904106
1733359146244350200,0.80735009765625,-0.07642195373773575,-0.06902087479829788,-0.002478205133229494
1733359146254316000,0.81731591796875,-0.08414351940155029,-0.06952740997076035,-0.01995333656668663
1733359146264281300,0.82728125,-0.08623330295085907,-0.06778144091367722,-0.03018706478178501
1733359146274246100,0.83724609375,-0.08437015861272812,-0.06985284388065338,-0.02735479362308979
1733359146284212200,0.847212158203125,-0.07886487245559692,-0.07194735109806061,-0.02078305557370186
1733359146294177300,0.85717724609375,-0.07162559777498245,-0.07432235777378082,-0.011568517424166203
1733359146304143000,0.86714306640625,-0.06316797435283661,-0.07072515040636063,-0.0008444323902949691
1733359146314108200,0.877108154296875,-0.05055231600999832,-0.0658627524971962,0.010411684401333332
1733359146324074200,0.88707421875,-0.039591480046510696,-0.061232827603816986,0.01894954964518547
1733359146334039300,0.897039306640625,-0.02727755531668663,-0.056229278445243835,0.027690311893820763
1733359146344005000,0.907005126953125,-0.016249706968665123,-0.04972255975008011,0.03600288927555084
1733359146353970200,0.91697021484375,-0.005166429560631514,-0.04763437807559967,0.04068206250667572
1733359146363935200,0.926935302734375,0.007252694573253393,-0.04974479228258133,0.04024769365787506
1733359146373901000,0.936901123046875,0.016349252313375473,-0.061215292662382126,0.03940586745738983
1733359146383866000,0.9468662109375,0.02247210219502449,-0.07791507989168167,0.034653231501579285
1733359146393832200,0.956832275390625,0.02733876369893551,-0.09878307580947876,0.030127987265586853
1733359146403797200,0.96679736328125,0.02818324975669384,-0.11589115858078003,0.025948558002710342
1733359146413763300,0.976763427734375,0.02758297324180603,-0.12886688113212585,0.02720237337052822
1733359146423728000,0.98672802734375,0.02425673045217991,-0.1296987235546112,0.02638511173427105
1733359146433693200,0.996693115234375,0.019465437158942223,-0.1198495551943779,0.026528121903538704
1733359146443659000,1.006658935546875,0.01461099088191986,-0.1002458706498146,0.03029242530465126
1733359146453624300,1.016624267578125,0.005248115863651037,-0.0784260630607605,0.03147593513131142
1733359146463590100,1.026590087890625,0.001098412787541747,-0.055017489939928055,0.03527195006608963
1733359146473555200,1.03655517578125,-0.0010627424344420433,-0.03291139006614685,0.03627995774149895
1733359146483521300,1.046521240234375,-0.0028313747607171535,-0.016403360292315483,0.037361107766628265
1733359146493486000,1.056486083984375,-0.002425775397568941,-0.005643123760819435,0.03674511983990669
1733359146503452400,1.066452392578125,-0.0035863390658050776,0.006623920984566212,0.035968344658613205
1733359146513417200,1.076417236328125,-0.0027535685803741217,0.012402714230120182,0.033131279051303864
1733359146523382300,1.08638232421875,-0.0008294692961499095,0.018675874918699265,0.029838066548109055
1733359146533348000,1.09634814453125,0.003885923884809017,0.018765889108181,0.02451920136809349
1733359146543313200,1.106313232421875,0.005583447404205799,0.010215180926024914,0.0236472450196743
1733359146553279200,1.116279296875,0.008558996953070164,0.0016736239194869995,0.021150797605514526
1733359146563244000,1.126244140625,0.01283733919262886,-0.00791332870721817,0.02070329524576664
1733359146573210000,1.136210205078125,0.01478517521172762,-0.010365301743149757,0.015586829744279385
1733359146583175200,1.146175048828125,0.01849917694926262,-0.01584341749548912,0.012386174872517586
1733359146593140200,1.15614013671875,0.018550843000411987,-0.014714770950376987,0.008731518872082233
1733359146603106300,1.166106201171875,0.018171904608607292,-0.010728241875767708,0.005880026612430811
1733359146613071000,1.176071044921875,0.01917538233101368,-0.0019768280908465385,0.006651278119534254
1733359146623037200,1.186037109375,0.013524187728762627,0.006947404704988003,0.0052976771257817745
1733359146633002200,1.196002197265625,0.009544359520077705,0.011429504491388798,0.008452191017568111
1733359146642968000,1.205968017578125,0.004649432376027107,0.01515248417854309,0.007938924245536327
1733359146652933000,1.21593310546875,-0.002157873474061489,0.01706676557660103,0.010562403127551079
1733359146662899200,1.225899169921875,-0.006694556213915348,0.01659879833459854,0.009885542094707489
1733359146672864300,1.2358642578125,-0.01086107175797224,0.01876820996403694,0.009855448268353939
1733359146682829000,1.2458291015625,-0.011956962756812572,0.01983507163822651,0.0067009348422288895
1733359146692795400,1.25579541015625,-0.013731160201132298,0.017884839326143265,0.0041597462259233
1733359146702760200,1.26576025390625,-0.011491183191537857,0.01826266199350357,-0.002365918830037117
1733359146712726000,1.27572607421875,-0.012478416785597801,0.019564149901270866,-0.009047523140907288
1733359146722691300,1.28569140625,-0.01168534904718399,0.022067822515964508,-0.014577144756913185
1733359146732657200,1.2956572265625,-0.01078227162361145,0.022756781429052353,-0.018896792083978653
1733359146742622200,1.305622314453125,-0.009296168573200703,0.022810664027929306,-0.021481480449438095
1733359146752587000,1.3155869140625,-0.00547746242955327,0.01857064664363861,-0.01933923363685608
1733359146762553000,1.325552978515625,-0.004965873900800943,0.011054798029363155,-0.015424645505845547
1733359146772518100,1.33551806640625,-0.0017277362057939172,0.004448027815669775,-0.010042130015790462
1733359146782484200,1.345484130859375,0.00004909287963528186,-0.0029949545860290527,-0.005570500623434782
1733359146792449300,1.35544921875,0.0030659218318760395,-0.003550756722688675,-0.004121740814298391
1733359146802415000,1.3654150390625,0.006774388253688812,-0.002918100915849209,-0.0006407462060451508
1733359146812380200,1.375380126953125,0.005664382595568895,-0.002599320374429226,-0.0017158642876893282
1733359146822346200,1.38534619140625,0.007721127010881901,-0.004311888478696346,-0.0031440947204828262
1733359146832311000,1.39531103515625,0.006359186954796314,-0.0033952277153730392,-0.005482882726937532
1733359146842276000,1.405276123046875,0.0036723334342241287,-0.0002785157412290573,-0.010663812048733234
1733359146852242200,1.4152421875,0.00022939874907024205,0.0029239351861178875,-0.014183444902300835
1733359146862206500,1.42520654296875,-0.0030054987873882055,0.0004276847466826439,-0.016569707542657852
1733359146872172500,1.435172607421875,-0.006687052547931671,-0.008703495375812054,-0.01696998067200184
1733359146882137600,1.4451376953125,-0.011693036183714867,-0.0194464772939682,-0.016309987753629684
1733359146892103700,1.455103759765625,-0.010889559984207153,-0.022014830261468887,-0.016382157802581787
1733359146902068700,1.46506884765625,-0.013861137442290783,-0.017778770998120308,-0.019068054854869843
1733359146912034600,1.47503466796875,-0.011571884155273438,-0.010501682758331299,-0.022818317636847496
1733359146921999400,1.484999267578125,-0.012773726135492325,-0.011879341676831245,-0.021632343530654907
1733359146931964700,1.494964599609375,-0.011939091607928276,-0.020238472148776054,-0.012883061543107033
1733359146941930500,1.504930419921875,-0.010336954146623611,-0.027601342648267746,-0.0028325277380645275
1733359146951895600,1.5148955078125,-0.007454881444573402,-0.02786100283265114,0.002748126396909356
1733359146961861600,1.524861572265625,-0.00970264058560133,-0.02313123643398285,0.004408020991832018
1733359146971826400,1.534826416015625,-0.008220325224101543,-0.014777167700231075,0.004672473296523094
1733359146981792500,1.54479248046875,-0.008128374814987183,-0.01046254113316536,0.0053324270993471146
1733359146991757600,1.554757568359375,-0.011604066006839275,-0.005841955542564392,0.006197422277182341
1733359147001722600,1.56472265625,-0.016215326264500618,-0.005791749805212021,0.006916201673448086
1733359147011688400,1.5746884765625,-0.019073696807026863,-0.003792514093220234,0.005143601447343826
1733359147021653800,1.58465380859375,-0.022743305191397667,-0.0020354175940155983,0.002057058969512582
1733359147031619600,1.59461962890625,-0.024612843990325928,-0.0030191894620656967,-0.0029928269796073437
1733359147041584400,1.60458447265625,-0.024899926036596298,-0.0032870257273316383,-0.010709481313824654
1733359147051550700,1.61455078125,-0.0214732363820076,-0.0035328352823853493,-0.016018224880099297
1733359147061515500,1.624515625,-0.018276918679475784,-0.009489008225500584,-0.017600128427147865
1733359147071481300,1.6344814453125,-0.013368448242545128,-0.016167152673006058,-0.014426970854401588
1733359147081446700,1.64444677734375,-0.008653809316456318,-0.023302361369132996,-0.011388374492526054
1733359147091411700,1.65441162109375,-0.006122741382569075,-0.028304845094680786,-0.006992560811340809
1733359147101377500,1.66437744140625,-0.0052643995732069016,-0.031025923788547516,-0.0027802460826933384
1733359147111342600,1.674342529296875,-0.002202562987804413,-0.03214338421821594,-0.0016587889986112714
1733359147121308700,1.68430859375,0.0044762976467609406,-0.029958046972751617,0.0016943893861025572
1733359147131273500,1.6942734375,0.007566895801573992,-0.025969695299863815,0.003980979323387146
1733359147141239600,1.704239501953125,0.011606669053435326,-0.017498277127742767,0.003469348419457674
1733359147151204600,1.71420458984375,0.01341202575713396,-0.008095454424619675,-0.0005118111148476601
1733359147161169400,1.72416943359375,0.012956362217664719,-0.001434951089322567,0.0007099102949723601
1733359147171135700,1.7341357421875,0.013994728215038776,0.0015499191358685493,-0.0016781463054940104
1733359147181100500,1.7441005859375,0.01274439413100481,0.007858443073928356,-0.0030422480776906013
1733359147191066600,1.754066650390625,0.014263994060456753,0.01350434496998787,-0.003893127664923668
1733359147201031400,1.764031494140625,0.012981132604181767,0.019258279353380203,-0.007676254492253065
1733359147210997500,1.77399755859375,0.01288632396608591,0.021325958892703056,-0.00892048329114914
1733359147220962600,1.783962646484375,0.014136956073343754,0.024011973291635513,-0.01216410007327795
1733359147230928600,1.7939287109375,0.01182852778583765,0.02195041999220848,-0.014412873424589634
1733359147240893700,1.803893798828125,0.008192780427634716,0.018492039293050766,-0.015027795918285847
1733359147250858500,1.8138583984375,0.009401855990290642,0.011287655681371689,-0.013342548161745071
1733359147260824300,1.82382421875,0.009065762162208557,0.0030684052035212517,-0.011527467519044876
1733359147270789600,1.83378955078125,0.006632964592427015,-0.0034856339916586876,-0.010220387950539589
1733359147280755500,1.84375537109375,0.005271553993225098,-0.011022583581507206,-0.007666012737900019
1733359147290720500,1.853720458984375,0.003220920218154788,-0.018860265612602234,-0.009406921453773975
1733359147300686600,1.8636865234375,0.0003920981544069946,-0.023011552169919014,-0.010447265580296516
1733359147310651600,1.873651611328125,-0.0015842337161302567,-0.025922121480107307,-0.00951462797820568
1733359147320617700,1.88361767578125,-0.006719015073031187,-0.02734709531068802,-0.011214347556233406
1733359147330582500,1.89358251953125,-0.011380611918866634,-0.027514342218637466,-0.011430596932768822
1733359147340547600,1.903547607421875,-0.01343076303601265,-0.024310098960995674,-0.009779626503586769
1733359147350513400,1.913513427734375,-0.016819102689623833,-0.02043839357793331,-0.00960811972618103
1733359147360478700,1.923478759765625,-0.017066216096282005,-0.016407325863838196,-0.01103548239916563
1733359147370444500,1.933444580078125,-0.016002284362912178,-0.014938059262931347,-0.007912126369774342
1733359147380409600,1.94340966796875,-0.014183399267494678,-0.015805665403604507,-0.006198831833899021
1733359147390375700,1.953375732421875,-0.013936790637671947,-0.019228626042604446,-0.003830482717603445
1733359147400340500,1.963340576171875,-0.013507520779967308,-0.022078722715377808,-0.0031850170344114304
1733359147410306600,1.973306640625,-0.012897923588752747,-0.02605455368757248,-0.005303561687469482
1733359147420271600,1.983271728515625,-0.010998202487826347,-0.03249208256602287,-0.0076299686916172504
1733359147430236700,1.993236572265625,-0.010162768885493279,-0.04034361243247986,-0.009603370912373066
1733359147440202500,2.003202392578125,-0.006868988275527954,-0.04586683586239815,-0.006002883892506361
1733359147450167600,2.01316748046875,-0.0023000692017376423,-0.05027090758085251,-0.00558876246213913
1733359147460133600,2.023133544921875,-0.0006915370468050241,-0.0583622083067894,0.002168386708945036
1733359147470098400,2.033098388671875,-0.0031437757425010204,-0.07088146358728409,0.0155105572193861
1733359147480064500,2.043064453125,-0.0028039244934916496,-0.08138632774353027,0.02347562275826931
1733359147490029600,2.053029541015625,-0.002958920318633318,-0.08016633242368698,0.0306235458701849
1733359147499994600,2.06299462890625,-0.004437534604221582,-0.0657118633389473,0.027665749192237854
1733359147509960700,2.072960693359375,-0.006557943299412727,-0.047839924693107605,0.023258483037352562
1733359147519925500,2.082925537109375,-0.006453234702348709,-0.03806918486952782,0.012741722166538239
1733359147529891600,2.0928916015625,-0.00892411544919014,-0.03261290118098259,0.008995719254016876
1733359147539856600,2.102856689453125,-0.009876479394733906,-0.023798726499080658,0.007124476134777069
1733359147549822500,2.112822509765625,-0.010682351887226105,-0.009062924422323704,0.004563580267131329
1733359147559787500,2.12278759765625,-0.010081589221954346,0.012273122556507587,0.0045291646383702755
1733359147569753600,2.132753662109375,-0.007211766671389341,0.028662748634815216,0.0029259417206048965
1733359147579718700,2.14271875,-0.004573609679937363,0.04092957824468613,0.002181010087952018
1733359147589683500,2.152683349609375,-0.0041248672641813755,0.045984525233507156,0.006850330159068108
1733359147599649800,2.16264990234375,-0.0048841615207493305,0.050992224365472794,0.011636738665401936
1733359147609614600,2.172614501953125,-0.003938472829759121,0.05777955800294876,0.013790703378617764
1733359147619580400,2.182580322265625,0.000900199927855283,0.06508123874664307,0.01278007123619318
1733359147629545500,2.19254541015625,0.006844108924269676,0.06767995655536652,0.010460990481078625
1733359147639511600,2.202511474609375,0.010221860371530056,0.0634835734963417,0.007433410733938217
1733359147649476600,2.2124765625,0.018137305974960327,0.05358434095978737,0.006543382070958614
1733359147659442700,2.222442626953125,0.019324511289596558,0.04302392154932022,0.006559680216014385
1733359147669407500,2.232407470703125,0.02035994827747345,0.03225809335708618,0.005302402190864086
1733359147679372500,2.24237255859375,0.021748287603259087,0.02067698910832405,0.004569447133690119
1733359147689338400,2.25233837890625,0.022749368101358414,0.009944450110197067,0.003130008466541767
1733359147699303700,2.2623037109375,0.022650588303804398,-0.00013511907309293747,0.002087213331833482
1733359147709269500,2.27226953125,0.02128012478351593,-0.005441200919449329,0.0004240693524479866
1733359147719234600,2.282234619140625,0.017856817692518234,-0.004361607134342194,-0.0016018049791455269
1733359147729200600,2.29220068359375,0.018519677221775055,0.0023373086005449295,-0.006434909999370575
1733359147739165400,2.30216552734375,0.015330828726291656,0.013831009157001972,-0.010856852866709232
1733359147749130500,2.312130615234375,0.013598176650702953,0.0228790994733572,-0.008359073661267757
1733359147759096600,2.3220966796875,0.008094243705272675,0.026950238272547722,-0.004434540402144194
1733359147769061600,2.3320615234375,0.0067184544168412685,0.024249527603387833,-0.002538369968533516
1733359147779027500,2.34202734375,0.003767654998227954,0.023433443158864975,-0.0011413823813199997
1733359147788992800,2.35199267578125,0.0015987763181328773,0.022334355860948563,-0.0008550926577299833
1733359147798958600,2.36195849609375,0.0024811308830976486,0.02003425545990467,-0.0011537090176716447
1733359147808923400,2.37192333984375,0.002807101933285594,0.013445062562823296,-0.0016642370028421283
1733359147818889700,2.3818896484375,0.001797184580937028,0.004286317620426416,0.0010673066135495901
1733359147828854500,2.3918544921875,-0.002507282653823495,-0.005135946907103062,0.007306826300919056
1733359147838819600,2.401819580078125,-0.004656989127397537,-0.011464884504675865,0.01275951974093914
1733359147848785700,2.41178564453125,-0.00679577374830842,-0.016627956181764603,0.01829010620713234
1733359147858751000,2.4217509765625,-0.009659393690526485,-0.018779348582029343,0.022743726149201393
1733359147868717000,2.431717041015625,-0.011747578158974648,-0.022338664159178734,0.022224942222237587
1733359147878681900,2.441681884765625,-0.009903107769787312,-0.02390318363904953,0.02567645162343979
1733359147888648000,2.45164794921875,-0.012961216270923615,-0.024048328399658203,0.027337731793522835
1733359147898613000,2.461613037109375,-0.013909013010561466,-0.025697126984596252,0.027516260743141174
1733359147908579000,2.4715791015625,-0.015683209523558617,-0.027203146368265152,0.028047028928995132
1733359147918544100,2.481544189453125,-0.01965428702533245,-0.026060502976179123,0.026984620839357376
1733359147928509000,2.491509033203125,-0.019982390105724335,-0.02448497712612152,0.024313468486070633
1733359147938475000,2.50147509765625,-0.022248482331633568,-0.02095656655728817,0.023996036499738693
1733359147948440000,2.511440185546875,-0.02117549441754818,-0.015369521453976631,0.018701672554016113
1733359147958406000,2.521406005859375,-0.021437814459204674,-0.01347687654197216,0.016103355213999748
1733359147968371000,2.531370849609375,-0.02001861482858658,-0.011702144518494606,0.01331449206918478
1733359147978337000,2.5413369140625,-0.01667660102248192,-0.0131209222599864,0.0132841095328331
1733359147988302000,2.551302001953125,-0.013334598392248154,-0.017154544591903687,0.013023652136325836
1733359147998267000,2.561266845703125,-0.007633036933839321,-0.021760746836662292,0.018893791362643242
1733359148008233000,2.57123291015625,-0.002783953445032239,-0.027552057057619095,0.022272810339927673
1733359148018198000,2.581197998046875,0.0026656463742256165,-0.029554061591625214,0.023851973935961723
1733359148028163800,2.591163818359375,0.009386931546032429,-0.024463430047035217,0.022828521206974983
1733359148038129200,2.601129150390625,0.0147670553997159,-0.018618717789649963,0.0213501937687397
1733359148048095000,2.611094970703125,0.020592186599969864,-0.01201461162418127,0.017886219546198845
1733359148058060000,2.62106005859375,0.02407829649746418,-0.008045988157391548,0.010873399674892426
1733359148068026000,2.631026123046875,0.024952346459031105,-0.0020192544907331467,0.007907437160611153
1733359148077991000,2.640990966796875,0.025124110281467438,0.007913523353636265,0.0006926835048943758
1733359148087956000,2.6509560546875,0.02436031587421894,0.020382177084684372,-0.0049119386821985245
1733359148097922000,2.660922119140625,0.023069236427545547,0.023240510374307632,-0.00629695039242506
1733359148107887000,2.67088720703125,0.020891837775707245,0.022182170301675797,-0.008420554921030998
1733359148117853000,2.68085302734375,0.0164954736828804,0.02764049544930458,-0.009869154542684555
1733359148127818000,2.69081787109375,0.014165474101901054,0.04396993666887283,-0.016735581681132317
1733359148137784000,2.7007841796875,0.015269082970917225,0.058309853076934814,-0.022258970886468887
1733359148147748900,2.710748779296875,0.014954297803342342,0.06345614045858383,-0.027226831763982773
1733359148157715200,2.720715087890625,0.014182808808982372,0.05675513669848442,-0.02659730799496174
1733359148167680000,2.730679931640625,0.01182085182517767,0.045236434787511826,-0.02033994346857071
1733359148177645000,2.74064501953125,0.009052167646586895,0.039098892360925674,-0.015847494825720787
1733359148187611100,2.750611083984375,0.0054510412737727165,0.03704666346311569,-0.017328478395938873
1733359148197576000,2.760575927734375,0.005340234376490116,0.0349067822098732,-0.025739775970578194
1733359148207542000,2.7705419921875,0.00539323128759861,0.02751171588897705,-0.02835766412317753
1733359148217507000,2.780507080078125,0.00383371626958251,0.01651550456881523,-0.025074968114495277
1733359148227473000,2.790472900390625,-0.00047953956527635455,0.00020896922796964645,-0.015983734279870987
1733359148237438000,2.80043798828125,-0.004011963959783316,-0.01007011067122221,-0.009580817073583603
1733359148247404000,2.810404052734375,-0.00485085928812623,-0.01937972381711006,-0.008563224226236343
1733359148257369000,2.820369140625,-0.009555057622492313,-0.030007585883140564,-0.00791662372648716
1733359148267334000,2.830333984375,-0.012643791735172272,-0.03706176578998566,-0.010560343973338604
1733359148277300200,2.84030029296875,-0.01593412645161152,-0.0498523972928524,-0.004369026981294155
1733359148287265000,2.85026513671875,-0.0200955830514431,-0.06096683070063591,-0.0009268912253901362
1733359148297230800,2.86023095703125,-0.021797070279717445,-0.06829731166362762,0.0011564919259399176
1733359148307196000,2.87019580078125,-0.022837568074464798,-0.07109123468399048,0.003026297315955162
1733359148317162000,2.880161865234375,-0.020571237429976463,-0.07107795029878616,0.0055928160436451435
1733359148327127000,2.890126953125,-0.021684439852833748,-0.06657321006059647,0.007571012247353792
1733359148337091800,2.900091796875,-0.020755501464009285,-0.06357704848051071,0.012072645127773285
1733359148347058200,2.91005810546875,-0.020829537883400917,-0.06251977384090424,0.013601033017039299
1733359148357023000,2.92002294921875,-0.019931763410568237,-0.06032642722129822,0.012884474359452724
1733359148366989000,2.929989013671875,-0.018468355759978294,-0.05401553213596344,0.01189724076539278
1733359148376954000,2.9399541015625,-0.015235268510878086,-0.044399112462997437,0.006013237871229649
1733359148386920000,2.949919921875,-0.013537237420678139,-0.04485584422945976,0.002701596822589636
1733359148396885000,2.959885009765625,-0.010485545732080936,-0.052742697298526764,0.0037655681371688843
1733359148406851000,2.96985107421875,-0.0074010733515024185,-0.06360573321580887,-0.001051823957823217
1733359148416815900,2.97981591796875,-0.008050383068621159,-0.07087507098913193,-0.00904778204858303
1733359148426781000,2.989781005859375,-0.006061801686882973,-0.071598120033741,-0.01686362735927105
1733359148436747000,2.9997470703125,-0.006894581485539675,-0.08207287639379501,-0.013871816918253899
1733359148446712000,3.009712158203125,-0.007030669134110212,-0.09881723672151566,-0.0025557796470820904
1733359148456678000,3.019677978515625,-0.0075590526685118675,-0.12029638141393661,0.011177228763699532
1733359148466643200,3.029643310546875,-0.0031568470876663923,-0.1348969042301178,0.02218460664153099
1733359148476609000,3.039609130859375,0.0007332662935368717,-0.14012902975082397,0.030203863978385925
1733359148486573800,3.04957373046875,0.0033207936212420464,-0.14080627262592316,0.0355706661939621
1733359148496540200,3.0595400390625,0.004942920058965683,-0.1387389898300171,0.0366511195898056
1733359148506505000,3.0695048828125,0.006003124173730612,-0.12851804494857788,0.030758608132600784
1733359148516470000,3.079469970703125,0.004550369922071695,-0.1186252161860466,0.018442021682858467
1733359148526436000,3.08943603515625,0.0031034748535603285,-0.10988444834947586,0.0017703658668324351
1733359148536401200,3.099401123046875,0.0029492804314941168,-0.10252033919095993,-0.01630517840385437
1733359148546367000,3.109366943359375,0.0016171671450138092,-0.10038501769304276,-0.0344943031668663
1733359148556332000,3.11933203125,-0.0018063753377646208,-0.09511975198984146,-0.04987504705786705
1733359148566298000,3.129298095703125,-0.00463571771979332,-0.09114152193069458,-0.05961422622203827
1733359148576263000,3.139262939453125,-0.010851802304387093,-0.08442316949367523,-0.06287606805562973
1733359148586228200,3.149228271484375,-0.017528878524899483,-0.07461767643690109,-0.060731157660484314
1733359148596194000,3.159194091796875,-0.02226204425096512,-0.06445474922657013,-0.058391544967889786
1733359148606158800,3.169158935546875,-0.02305007353425026,-0.049493372440338135,-0.058088477700948715
1733359148616125200,3.179125244140625,-0.018543461337685585,-0.03682529926300049,-0.05644546076655388
1733359148626090000,3.189090087890625,-0.016212662681937218,-0.028614774346351624,-0.05482705682516098
1733359148636056000,3.19905615234375,-0.012923438102006912,-0.02603030763566494,-0.05177167430520058
1733359148646021000,3.209021240234375,-0.009799017570912838,-0.02934194914996624,-0.04727572575211525
1733359148655987000,3.218987060546875,-0.009638890624046326,-0.03481417894363403,-0.04281916841864586
1733359148665952000,3.228951904296875,-0.01174039114266634,-0.03992904722690582,-0.03861243650317192
1733359148675916800,3.238916748046875,-0.01763588935136795,-0.04457740858197212,-0.034152351319789886
1733359148685883100,3.248883056640625,-0.023635191842913628,-0.04569913446903229,-0.022339368239045143
1733359148695848000,3.258847900390625,-0.028594592586159706,-0.04609916731715202,-0.008805222809314728
1733359148705814000,3.26881396484375,-0.03017624467611313,-0.0445590615272522,0.0074440548196434975
1733359148715779000,3.278779052734375,-0.029958374798297882,-0.038005586713552475,0.02194187045097351
1733359148725745000,3.288744873046875,-0.02976103499531746,-0.03176047280430794,0.03336283564567566
1733359148735710000,3.2987099609375,-0.027473080903291702,-0.02575080096721649,0.04180220887064934
1733359148745676000,3.308676025390625,-0.02005271427333355,-0.020591728389263153,0.04459346830844879
1733359148755641000,3.31864111328125,-0.01371175330132246,-0.013811489567160606,0.045552246272563934
1733359148765606000,3.32860595703125,-0.004558735527098179,-0.007496336475014687,0.04041687399148941
1733359148775572000,3.338572021484375,0.001857103081420064,0.000796574167907238,0.028965653851628304
1733359148785537000,3.348537109375,0.005200701765716076,0.001736670732498169,0.01925630122423172
1733359148795502800,3.3585029296875,0.006636927369982004,-0.005308548919856548,0.016727255657315254
1733359148805468200,3.36846826171875,0.0021734696347266436,-0.017398500815033913,0.010548989288508892
1733359148815434000,3.37843408203125,-0.0007234482909552753,-0.032084401696920395,0.006535765714943409
1733359148825399000,3.38839892578125,-0.00707322359085083,-0.04734911024570465,0.003826265223324299
1733359148835364000,3.398364013671875,-0.011950341053307056,-0.05738607048988342,0.00019848416559398174
1733359148845330000,3.408329833984375,-0.01711554266512394,-0.06950505077838898,0.0012855865061283112
1733359148855295200,3.418295166015625,-0.017721358686685562,-0.07817289233207703,0.0062586902640759945
1733359148865261300,3.42826123046875,-0.01794746145606041,-0.08223794400691986,0.016565922647714615
1733359148875226400,3.438226318359375,-0.019039617851376534,-0.08646956831216812,0.03096615895628929
1733359148885192200,3.448192138671875,-0.01860232651233673,-0.08781419694423676,0.043200187385082245
1733359148895157200,3.4581572265625,-0.019534964114427567,-0.0852309912443161,0.053818609565496445
1733359148905123300,3.468123291015625,-0.02010381408035755,-0.07682844996452332,0.05973215773701668
1733359148915088100,3.478088134765625,-0.01735570654273033,-0.06068737432360649,0.05932137742638588
1733359148925053400,3.488053466796875,-0.014080549590289593,-0.03817513957619667,0.05153802037239075
1733359148935019300,3.498019287109375,-0.010440834797918797,-0.009560647420585155,0.0385904386639595
1733359148944984300,3.507984375,-0.005727305542677641,0.011729193851351738,0.022848760709166527
1733359148954950400,3.517950439453125,-0.00042412622133269906,0.02156754955649376,0.004270906560122967
1733359148964915200,3.527915283203125,0.003433995181694627,0.02639106661081314,-0.011371701955795288
1733359148974881300,3.53788134765625,0.009383494034409523,0.02877412550151348,-0.02362610213458538
1733359148984846300,3.547846435546875,0.015997188165783882,0.028676921501755714,-0.03030744008719921
1733359148994812200,3.557812255859375,0.01969391293823719,0.026781534776091576,-0.03820928931236267
1733359149004777200,3.567777099609375,0.02107449620962143,0.02890247479081154,-0.042988862842321396
1733359149014742300,3.5777421875,0.01816869154572487,0.03597845137119293,-0.04236297681927681
1733359149024708400,3.587708251953125,0.017826208844780922,0.05207033455371857,-0.03736502304673195
1733359149034673200,3.597673095703125,0.01766722835600376,0.06025451421737671,-0.030821651220321655
1733359149044639200,3.60763916015625,0.018904797732830048,0.05812904238700867,-0.024185052141547203
1733359149054604300,3.617604248046875,0.015928758308291435,0.05012703686952591,-0.017755581066012383
1733359149064570000,3.627570068359375,0.01801294833421707,0.038061849772930145,-0.010503526777029037
1733359149074535400,3.637535400390625,0.01909308321774006,0.017327018082141876,0.00037035730201750994
1733359149084500200,3.647500244140625,0.01747015304863453,-0.003583323210477829,0.00967863854020834
1733359149094466300,3.65746630859375,0.011444199830293655,-0.01894713006913662,0.017144840210676193
1733359149104431000,3.66743115234375,0.01165698654949665,-0.029438121244311333,0.025023270398378372
1733359149114397200,3.677397216796875,0.010184568352997303,-0.035405002534389496,0.03181426227092743
1733359149124362200,3.6873623046875,0.009582428261637688,-0.04397958144545555,0.035040147602558136
1733359149134328300,3.697328369140625,0.009291613474488258,-0.051668718457221985,0.03118268959224224
1733359149144293400,3.70729345703125,0.009969654493033886,-0.05194462090730667,0.023374833166599274
1733359149154259200,3.71725927734375,0.010331816971302032,-0.05063818395137787,0.015507765114307404
1733359149164224300,3.727224365234375,0.011535032652318478,-0.04366496205329895,0.014145558699965477
1733359149174189300,3.737189208984375,0.00974808819591999,-0.03531530126929283,0.016065506264567375
1733359149184155100,3.747155029296875,0.007589596323668957,-0.032566651701927185,0.024247270077466965
1733359149194120200,3.7571201171875,0.00462092412635684,-0.03280114382505417,0.030843326821923256
1733359149204086300,3.767086181640625,0.0019692147616297007,-0.03619774058461189,0.03194853663444519
1733359149214051300,3.77705126953125,0.0008928242023102939,-0.03650977835059166,0.0290842168033123
1733359149224017400,3.787017333984375,-0.0009833727963268757,-0.035520147532224655,0.01824888028204441
1733359149233982200,3.796982177734375,-0.00040975736919790506,-0.028632722795009613,0.005006890278309584
1733359149243948300,3.8069482421875,0.0013836153084412217,-0.023837700486183167,-0.0050737070851027966
1733359149253913000,3.8169130859375,0.00031036135624162853,-0.019803810864686966,-0.010954232886433601
1733359149263878400,3.82687841796875,0.003333581844344735,-0.014694269746541977,-0.010456488467752934
1733359149273844200,3.83684423828125,0.005879911594092846,-0.007397693581879139,-0.007905439473688602
1733359149283809300,3.846809326171875,0.006276189815253019,0.001669570803642273,-0.0068476321175694466
1733359149293775400,3.856775390625,0.0064130001701414585,0.017721600830554962,-0.007793867029249668
1733359149303740200,3.866740234375,0.007070534396916628,0.03666013851761818,-0.01253482699394226
1733359149313706200,3.876706298828125,0.005242520943284035,0.053304336965084076,-0.01872025430202484
1733359149323671300,3.88667138671875,0.003027303609997034,0.06995681673288345,-0.023545103147625923
1733359149333636400,3.89663623046875,0.002124479738995433,0.08218184113502502,-0.025121010839939117
1733359149343602200,3.906602294921875,0.0017686814535409212,0.08941924571990967,-0.0256725512444973
1733359149353567500,3.9165673828125,-0.0004664877778850496,0.09013320505619049,-0.026351023465394974
1733359149363533300,3.926533203125,-0.006121710408478975,0.08505243062973022,-0.02874493971467018
1733359149373498000,3.936498046875,-0.009969736449420452,0.0753527581691742,-0.028970472514629364
1733359149383464400,3.94646435546875,-0.012450470589101315,0.05852850154042244,-0.029705237597227097
1733359149393429200,3.95642919921875,-0.013285879977047443,0.038341909646987915,-0.02976706065237522
1733359149403395000,3.96639501953125,-0.01595223695039749,0.014115134254097939,-0.0272304005920887
1733359149413360400,3.9763603515625,-0.015469380654394627,-0.009522915817797184,-0.021760838106274605
1733359149423325200,3.9863251953125,-0.01410424429923296,-0.033379778265953064,-0.0149042634293437
1733359149433291300,3.996291259765625,-0.013576147146522999,-0.05285102501511574,-0.005188374780118465
1733359149443256300,4.00625634765625,-0.014040602371096611,-0.06114223971962929,0.005833649542182684
1733359149453222400,4.016222412109375,-0.010747872292995453,-0.06851141154766083,0.017678726464509964
1733359149463187200,4.026187255859375,-0.008271665312349796,-0.07082383334636688,0.028204871341586113
1733359149473153300,4.0361533203125,-0.0012558314483612776,-0.07320903241634369,0.037204090505838394
1733359149483118300,4.046118408203125,0.0019375650444999337,-0.0730215460062027,0.04482632130384445
1733359149493083100,4.056083251953125,0.006805514916777611,-0.06972028315067291,0.048958681523799896
1733359149503049500,4.066049560546875,0.012628783471882343,-0.06386878341436386,0.053463682532310486
1733359149513014300,4.07601416015625,0.012675709091126919,-0.05913347005844116,0.05405828356742859
1733359149522980000,4.08597998046875,0.01433645561337471,-0.05094638094305992,0.050127193331718445
1733359149532945200,4.095945068359375,0.01255903858691454,-0.040495507419109344,0.04356200620532036
1733359149542911200,4.1059111328125,0.012690066359937191,-0.02698316052556038,0.030723173171281815
1733359149552876300,4.115876220703125,0.009511599317193031,-0.008840284310281277,0.013674254529178143
1733359149562842400,4.12584228515625,0.006965351291000843,0.014306047931313515,-0.008902959525585175
1733359149572807400,4.135807373046875,0.004445444326847792,0.03969326242804527,-0.02953389845788479
1733359149582772200,4.145772216796875,0.004299769178032875,0.05099331960082054,-0.05022719129920006
1733359149592738000,4.155738037109375,0.004006845876574516,0.048978276550769806,-0.06372279673814774
1733359149602703400,4.165703369140625,0.004549864213913679,0.04218268766999245,-0.06987176835536957
1733359149612669200,4.175669189453125,0.005427137017250061,0.030108019709587097,-0.0722312480211258
1733359149622634200,4.18563427734375,0.010013633407652378,0.01465689018368721,-0.07135506719350815
1733359149632600300,4.195600341796875,0.016144996508955956,-0.004822512157261372,-0.06644561141729355
1733359149642565400,4.2055654296875,0.029543092474341393,-0.021591372787952423,-0.058352794498205185
1733359149652531500,4.215531494140625,0.03954034671187401,-0.0344449020922184,-0.04378039389848709
1733359149662496300,4.225496337890625,0.04633034020662308,-0.03623853996396065,-0.031044360250234604
1733359149672461300,4.23546142578125,0.05351153761148453,-0.025421343743801117,-0.02053229883313179
1733359149682427100,4.24542724609375,0.06093110516667366,-0.004121912643313408,-0.017832119017839432
1733359149692392400,4.255392333984375,0.06875814497470856,0.034027617424726486,-0.018738143146038055
1733359149702358300,4.265358154296875,0.07737347483634949,0.07515455037355423,-0.021215682849287987
1733359149712323000,4.275322998046875,0.08863251656293869,0.1145172119140625,-0.025238530710339546
1733359149722289400,4.285289306640625,0.09969822317361832,0.14636462926864624,-0.030785895884037018
1733359149732254200,4.295254150390625,0.11041773855686188,0.1784118115901947,-0.04384182021021843
1733359149742219300,4.30521923828125,0.12325017899274826,0.20984643697738647,-0.06436014920473099
1733359149752185300,4.315185302734375,0.12910087406635284,0.25278228521347046,-0.08831818401813507
1733359149762150400,4.325150390625,0.140652596950531,0.2909906804561615,-0.11900339275598526
1733359149772116200,4.3351162109375,0.15716469287872314,0.3098495304584503,-0.1506962925195694
1733359149782081300,4.345081298828125,0.17808835208415985,0.3175026476383209,-0.18605054914951324
1733359149792047400,4.35504736328125,0.20645742118358612,0.3284590542316437,-0.21913209557533264
1733359149802012200,4.36501220703125,0.2271437793970108,0.33804643154144287,-0.25943583250045776
1733359149811978200,4.374978271484375,0.23016592860221863,0.3493609130382538,-0.30517464876174927
1733359149821943300,4.384943359375,0.21277602016925812,0.3601730763912201,-0.34836289286613464
1733359149831908400,4.394908447265625,0.19407398998737335,0.385545551776886,-0.3894919753074646
1733359149841874400,4.40487451171875,0.18347406387329102,0.40732541680336,-0.41959768533706665
1733359149851839200,4.414839111328125,0.1781429648399353,0.401303231716156,-0.44485509395599365
1733359149861804500,4.424804443359375,0.18032436072826385,0.3526499271392822,-0.46560725569725037
1733359149871769300,4.434769287109375,0.1916787326335907,0.25599077343940735,-0.4690999984741211
1733359149881735700,4.444735595703125,0.21059569716453552,0.14278697967529297,-0.4585869014263153
1733359149891700500,4.454700439453125,0.23182907700538635,0.04152952507138252,-0.42973431944847107
1733359149901665500,4.46466552734375,0.24291874468326569,-0.02461167797446251,-0.3869549036026001
1733359149911631600,4.474631591796875,0.24994228780269623,-0.05902095139026642,-0.34094634652137756
1733359149921596400,4.484596435546875,0.2506791651248932,-0.09722612798213959,-0.305083692073822
1733359149931562500,4.4945625,0.24832789599895477,-0.16775144636631012,-0.28443852066993713
1733359149941527600,4.504527587890625,0.24475127458572388,-0.2721569538116455,-0.268421471118927
1733359149951493400,4.514493408203125,0.23584698140621185,-0.396278977394104,-0.254157692193985
1733359149961458400,4.52445849609375,0.2308889776468277,-0.5239520072937012,-0.23133333027362823
1733359149971424500,4.534424560546875,0.22331231832504272,-0.6277982592582703,-0.19259411096572876
1733359149981389600,4.5443896484375,0.2146325409412384,-0.6803232431411743,-0.13368898630142212
1733359149991354400,4.554354248046875,0.20308029651641846,-0.6881982684135437,-0.07083681225776672
1733359150001320700,4.56432080078125,0.20075322687625885,-0.6462100744247437,-0.0170351043343544
1733359150011285500,4.574285400390625,0.20389516651630402,-0.5782249569892883,0.02616850472986698
1733359150021251300,4.584251220703125,0.21529722213745117,-0.49647384881973267,0.052978817373514175
1733359150031216600,4.594216552734375,0.2325899749994278,-0.4247604310512543,0.06780417263507843
1733359150041182500,4.604182373046875,0.24776600301265717,-0.35475045442581177,0.07419895380735397
1733359150051147500,4.6141474609375,0.2620367705821991,-0.2756601572036743,0.07406970858573914
1733359150061113600,4.624113525390625,0.26416730880737305,-0.16547530889511108,0.061009034514427185
1733359150071078700,4.63407861328125,0.252582311630249,-0.04619324579834938,0.034064214676618576
1733359150081043500,4.64404345703125,0.23608003556728363,0.07147346436977386,0.00893569178879261
1733359150091009500,4.654009521484375,0.22701676189899445,0.16495999693870544,-0.0314631313085556
1733359150100974600,4.663974609375,0.21607756614685059,0.23925873637199402,-0.07611847668886185
1733359150110940400,4.6739404296875,0.2071727067232132,0.2745066285133362,-0.12208766490221024
1733359150120905500,4.683905517578125,0.2030075341463089,0.24731603264808655,-0.1597181260585785
1733359150130871600,4.69387158203125,0.20087751746177673,0.1999780535697937,-0.1756874918937683
1733359150140836400,4.70383642578125,0.19241638481616974,0.14432862401008606,-0.17230580747127533
1733359150150801400,4.713801513671875,0.1601298749446869,0.0855732411146164,-0.155485600233078
1733359150160767500,4.723767578125,0.1396259367465973,0.008276321925222874,-0.13533879816532135
1733359150170732500,4.733732666015625,0.12410370260477066,-0.05502348020672798,-0.10973584651947021
1733359150180698600,4.74369873046875,0.1001693457365036,-0.15965056419372559,-0.09095203876495361
1733359150190663700,4.75366357421875,0.07994712144136429,-0.3273203670978546,-0.07943074405193329
1733359150200629500,4.76362939453125,0.055142443627119064,-0.5152409672737122,-0.0455649234354496
1733359150210594300,4.77359423828125,0.01847396045923233,-0.6680214405059814,0.016009807586669922
1733359150220560600,4.783560546875,-0.026798179373145103,-0.774293839931488,0.10604489594697952
1733359150230525400,4.793525390625,-0.06444040685892105,-0.8299181461334229,0.2042226493358612
1733359150240490500,4.803490478515625,-0.07415428757667542,-0.8594347834587097,0.2869601547718048
1733359150250456600,4.81345654296875,-0.03786182776093483,-0.8558495044708252,0.3404468894004822
1733359150260421600,4.823421630859375,0.028460737317800522,-0.8650195598602295,0.365943968296051
1733359150270387500,4.833387451171875,0.10541228950023651,-0.861020565032959,0.3674491345882416
1733359150280352500,4.8433525390625,0.18095631897449493,-0.8264735341072083,0.3412233889102936
1733359150290318600,4.853318603515625,0.24481196701526642,-0.761889636516571,0.3100501596927643
1733359150300283400,4.863283447265625,0.291223406791687,-0.6756397485733032,0.27698782086372375
1733359150310248700,4.873248779296875,0.3224814832210541,-0.5415953993797302,0.23769885301589966
1733359150320214500,4.883214599609375,0.3469737768173218,-0.39532795548439026,0.18395839631557465
1733359150330179300,4.893179443359375,0.36933448910713196,-0.2556189000606537,0.1203538104891777
1733359150340145700,4.903145751953125,0.3739050030708313,-0.11796516180038452,0.042679257690906525
1733359150350110500,4.9131103515625,0.3741515874862671,-0.0285085067152977,-0.0399634912610054
1733359150360076500,4.92307666015625,0.38258448243141174,0.05503459274768829,-0.10115654021501541
1733359150370041600,4.93304150390625,0.38362154364585876,0.17756441235542297,-0.15090683102607727
1733359150380007400,4.94300732421875,0.34104984998703003,0.29882851243019104,-0.22878165543079376
1733359150389972500,4.952972412109375,0.30469879508018494,0.3841937482357025,-0.30345556139945984
1733359150399937500,4.9629375,0.29408106207847595,0.47198164463043213,-0.3608298897743225
1733359150409903600,4.972903564453125,0.3006203770637512,0.5326348543167114,-0.4000020921230316
1733359150419868400,4.982868408203125,0.3060164749622345,0.5790968537330627,-0.41979286074638367
1733359150429834500,4.99283447265625,0.3032872974872589,0.6287185549736023,-0.41604551672935486
1733359150439799600,5.002799560546875,0.2950320243835449,0.6920847296714783,-0.40501683950424194
1733359150449765400,5.012765380859375,0.28685635328292847,0.7562443614006042,-0.3891976475715637
1733359150459730700,5.022730712890625,0.27753421664237976,0.8305523991584778,-0.37122637033462524
1733359150469695500,5.032695556640625,0.27176955342292786,0.9018110632896423,-0.35894107818603516
1733359150479661600,5.04266162109375,0.2720036506652832,0.9753311276435852,-0.34667348861694336
1733359150489626400,5.05262646484375,0.2690393030643463,0.9886986613273621,-0.34024837613105774
1733359150499592400,5.062592529296875,0.259431391954422,0.9527579545974731,-0.33340805768966675
1733359150509557500,5.0725576171875,0.22917307913303375,0.9310075044631958,-0.31061336398124695
1733359150519523600,5.082523681640625,0.18287323415279388,0.9158008694648743,-0.2756609618663788
1733359150529488600,5.092488525390625,0.1409606784582138,0.8824528455734253,-0.22769810259342194
1733359150539454500,5.102454345703125,0.11278948932886124,0.832267701625824,-0.16141283512115479
1733359150549419500,5.11241943359375,0.0860942080616951,0.7658296823501587,-0.06897541135549545
1733359150559384600,5.122384521484375,0.03725529834628105,0.6919701099395752,0.0320659838616848
1733359150569350400,5.132350341796875,-0.01948438212275505,0.6324288845062256,0.12036143988370895
1733359150579315500,5.1423154296875,-0.07322084903717041,0.5772233605384827,0.1768750548362732
1733359150589281500,5.152281494140625,-0.10921395570039749,0.5195491313934326,0.20386144518852234
1733359150599246600,5.16224658203125,-0.13703225553035736,0.473483145236969,0.2087819129228592
1733359150609212400,5.17221240234375,-0.16134321689605713,0.4502424895763397,0.21267308294773102
1733359150619177500,5.182177490234375,-0.19353924691677094,0.4487149119377136,0.22686932981014252
1733359150629142500,5.192142578125,-0.2152019590139389,0.4615802764892578,0.2516510486602783
1733359150639108400,5.2021083984375,-0.22417201101779938,0.48280513286590576,0.273902028799057
1733359150649073700,5.21207373046875,-0.21543656289577484,0.5022961497306824,0.2896881401538849
1733359150659039500,5.22203955078125,-0.1980312019586563,0.5053545236587524,0.2980975806713104
1733359150669004500,5.232004638671875,-0.1815982162952423,0.49579885601997375,0.29633238911628723
1733359150678970600,5.241970703125,-0.1664368361234665,0.46078547835350037,0.2869007885456085
1733359150688935400,5.251935302734375,-0.15100780129432678,0.40011149644851685,0.2675792872905731
1733359150698901500,5.261901611328125,-0.14669401943683624,0.3285102844238281,0.24400204420089722
1733359150708866600,5.271866455078125,-0.15822552144527435,0.25018858909606934,0.22198879718780518
1733359150718831600,5.28183154296875,-0.17742052674293518,0.17668695747852325,0.1963164508342743
1733359150728797400,5.29179736328125,-0.19010032713413239,0.09942664951086044,0.18316663801670074
1733359150738762500,5.301762451171875,-0.1936926692724228,0.03838539868593216,0.1729036122560501
1733359150748728600,5.311728515625,-0.19270384311676025,-0.029428552836179733,0.18880723416805267
1733359150758693400,5.321693359375,-0.1917291283607483,-0.07702323794364929,0.215348020195961
1733359150768659700,5.33165966796875,-0.18042875826358795,-0.09898000955581665,0.2366095632314682
1733359150778624500,5.34162451171875,-0.17261824011802673,-0.10488049685955048,0.25139784812927246
1733359150788589600,5.351589599609375,-0.16068781912326813,-0.1097835972905159,0.25926417112350464
1733359150798555600,5.3615556640625,-0.14674563705921173,-0.11224755644798279,0.2582186162471771
1733359150808520400,5.3715205078125,-0.12792325019836426,-0.122772216796875,0.2629339396953583
1733359150818486500,5.381486572265625,-0.10721690952777863,-0.13570399582386017,0.26198264956474304
1733359150828451600,5.39145166015625,-0.09274977445602417,-0.14354190230369568,0.25494277477264404
1733359150838417400,5.40141748046875,-0.07762781530618668,-0.15261049568653107,0.24181605875492096
1733359150848382500,5.411382568359375,-0.0656508058309555,-0.16164129972457886,0.21855925023555756
1733359150858349600,5.421349609375,-0.0523267425596714,-0.166805699467659,0.19494393467903137
1733359150868314600,5.431314697265625,-0.046683743596076965,-0.16470542550086975,0.17460359632968903
1733359150878279700,5.44127978515625,-0.04021146148443222,-0.15259364247322083,0.15731222927570343
1733359150888245500,5.45124560546875,-0.036558978259563446,-0.11471734941005707,0.14270950853824615
1733359150898210600,5.46121044921875,-0.03353096544742584,-0.06473860144615173,0.12290864437818527
1733359150908176600,5.4711767578125,-0.02697877213358879,-0.013873531483113766,0.09658831357955933
1733359150918141700,5.4811416015625,-0.014536483213305473,0.03217758238315582,0.06465328484773636
1733359150928107800,5.491107666015625,-0.0035940425004810095,0.07149482518434525,0.026448311284184456
1733359150938072600,5.501072509765625,0.0022044579964131117,0.1047356054186821,-0.015861328691244125
1733359150948037600,5.51103759765625,-0.002005757996812463,0.14075042307376862,-0.05286857485771179
1733359150958003700,5.521003662109375,0.0022651534527540207,0.1643684059381485,-0.08451545238494873
1733359150967968800,5.53096875,0.01585148461163044,0.17037995159626007,-0.10062336921691895
1733359150977934600,5.5409345703125,0.021482471376657486,0.17714491486549377,-0.10901499539613724
1733359150987899600,5.550899658203125,0.0243786983191967,0.18818163871765137,-0.1117842048406601
1733359150997865700,5.56086572265625,0.022111549973487854,0.19607125222682953,-0.11241670697927475
1733359151007830500,5.57083056640625,0.025910306721925735,0.20005184412002563,-0.11668431758880615
1733359151017796900,5.580796875,0.028907960280776024,0.19569145143032074,-0.12252835929393768
1733359151027761700,5.59076171875,0.030811017379164696,0.1921173632144928,-0.12372925877571106
1733359151037726700,5.600726806640625,0.032611846923828125,0.18397635221481323,-0.1200421079993248
1733359151047692500,5.610692626953125,0.031107956543564796,0.1683703064918518,-0.11257447302341461
1733359151057657600,5.62065771484375,0.018401216715574265,0.1604577898979187,-0.0984213650226593
1733359151067623700,5.630623779296875,0.01034460961818695,0.15163157880306244,-0.08172532916069031
1733359151077588500,5.64058837890625,0.01146020833402872,0.13315296173095703,-0.06533143669366837
1733359151087554800,5.650554931640625,0.007946725934743881,0.11106907576322556,-0.046698808670043945
1733359151097519600,5.66051953125,0.002774334978312254,0.08904580026865005,-0.035317789763212204
1733359151107484700,5.670484619140625,-0.006551046390086412,0.06686471402645111,-0.022629735991358757
1733359151117450800,5.68045068359375,-0.010108496062457561,0.04357297718524933,-0.01187722384929657
1733359151127415600,5.69041552734375,-0.014644649811089039,0.02056567370891571,-0.0035724376793950796
1733359151137381600,5.700381591796875,-0.011260304600000381,0.0031728348694741726,0.007959050126373768
1733359151147346700,5.7103466796875,-0.010859988629817963,-0.008443345315754414,0.017631452530622482
1733359151157312500,5.7203125,-0.01481504924595356,-0.010181325487792492,0.026269681751728058
1733359151167277600,5.730277587890625,-0.013656599447131157,-0.013321628794074059,0.027840452268719673
1733359151177243600,5.74024365234375,-0.016889942809939384,-0.015297161415219307,0.028557641431689262
1733359151187208700,5.750208740234375,-0.01655089110136032,-0.018206417560577393,0.02881711721420288
1733359151197173500,5.760173583984375,-0.018681420013308525,-0.02499108761548996,0.02742561511695385
1733359151207139800,5.770139892578125,-0.016895011067390442,-0.024745868518948555,0.027064019814133644
1733359151217104600,5.780104736328125,-0.015346381813287735,-0.020722629502415657,0.022976599633693695
1733359151227070500,5.790070556640625,-0.009623493067920208,-0.01685735210776329,0.01970420591533184
1733359151237035800,5.800035888671875,-0.004354695789515972,-0.017963629215955734,0.015757136046886444
1733359151247001600,5.810001708984375,-0.0032744829077273607,-0.017705919221043587,0.009526883251965046
1733359151256966700,5.819966552734375,0.001368738361634314,-0.01327388733625412,0.00573054701089859
1733359151266932700,5.8299326171875,0.0029309119563549757,-0.0005518198013305664,-0.002849701326340437
1733359151276897800,5.839897705078125,0.002445950172841549,0.012116838246583939,-0.014125525020062923
1733359151286862600,5.849862548828125,0.00523348106071353,0.022246969863772392,-0.025239961221814156
1733359151296828700,5.85982861328125,0.007146163377910852,0.025758080184459686,-0.028290079906582832
1733359151306793700,5.869793701171875,0.0024009770713746548,0.023019734770059586,-0.03021453320980072
1733359151316759600,5.879759521484375,-0.003524023573845625,0.026247752830386162,-0.02520992048084736
1733359151326724600,5.889724609375,-0.007953671738505363,0.03424873948097229,-0.019928719848394394
1733359151336690700,5.899690673828125,-0.02014695480465889,0.045041996985673904,-0.012010876089334488
1733359151346655500,5.909655517578125,-0.03528863936662674,0.05964987352490425,-0.011112698353827
1733359151356620500,5.91962060546875,-0.023238370195031166,0.04768455773591995,-0.013389967381954193
1733359151366586600,5.929586669921875,-0.014541841112077236,0.03660910576581955,-0.01339525543153286
1733359151376551700,5.9395517578125,-0.016121095046401024,0.03436485677957535,-0.013271951116621494
1733359151386517500,5.949517578125,-0.016294164583086967,0.03607339411973953,-0.013085720129311085
1733359151396482800,5.95948291015625,-0.014808387495577335,0.03647207096219063,-0.015928644686937332
1733359151406448600,5.96944873046875,-0.01210367027670145,0.03573145717382431,-0.017442665994167328
1733359151416413400,5.979413330078125,-0.006960840430110693,0.03158598393201828,-0.021741008386015892
1733359151426379800,5.9893798828125,-0.0031309311743825674,0.031043853610754013,-0.026775076985359192
1733359151436344600,5.999344482421875,0.0009303895058110356,0.029358606785535812,-0.03225213289260864
1733359151446309600,6.0093095703125,0.0024112972896546125,0.02805720642209053,-0.03713371977210045
1733359151456275700,6.019275634765625,0.003964186180382967,0.026271291077136993,-0.03816330060362816
1733359151466240800,6.02924072265625,0.002202038886025548,0.025001926347613335,-0.03713662177324295
1733359151476206600,6.03920654296875,0.002656906843185425,0.021449267864227295,-0.031028129160404205
1733359151486171600,6.049171630859375,0.0031497941818088293,0.017896654084324837,-0.023143475875258446
1733359151496137700,6.0591376953125,0.0009622736251913011,0.01126058865338564,-0.01697799190878868
1733359151506102500,6.0691025390625,-0.002161066746339202,0.009144064038991928,-0.010015713050961494
1733359151516067800,6.07906787109375,-0.0012830225750803947,0.009798934683203697,-0.004534394014626741
1733359151526033700,6.08903369140625,0.0009732344187796116,0.010576151311397552,-0.002882610075175762
1733359151535998500,6.09899853515625,-0.0005194674013182521,0.00881526991724968,0.00015392608474940062
1733359151545964800,6.10896484375,-0.00238238787278533,0.006415703799575567,0.002523134695366025
1733359151555929600,6.1189296875,-0.0001322830794379115,0.0031698429957032204,0.002993449103087187
1733359151565895700,6.128895751953125,-0.004339759703725576,0.0004030931740999222,0.004881950095295906
1733359151575860700,6.13886083984375,-0.0038819622714072466,-0.0028158696368336678,0.009526768699288368
1733359151585826600,6.14882666015625,-0.005934699438512325,-0.006404375657439232,0.010160692036151886
1733359151595791600,6.15879150390625,-0.008961382322013378,-0.012160265818238258,0.014106963761150837
1733359151605756700,6.168756591796875,-0.011499485932290554,-0.009177087806165218,0.016611706465482712
1733359151615722800,6.17872265625,-0.012418009340763092,-0.010120646096765995,0.019504431635141373
1733359151625687600,6.1886875,-0.01342165470123291,-0.011301144026219845,0.020828532055020332
1733359151635653600,6.198653564453125,-0.009525716304779053,-0.010757059790194035,0.015897156670689583
1733359151645618700,6.20861865234375,-0.009378782473504543,-0.00981693621724844,0.014577408321201801
1733359151655584500,6.21858447265625,-0.005678587127476931,-0.008344476111233234,0.0128239830955863
1733359151665549800,6.2285498046875,-0.003031306667253375,-0.0046952711418271065,0.00798752997070551
1733359151675514600,6.2385146484375,0.0009522495674900711,0.0019365325570106506,0.001456393743865192
1733359151685480700,6.248480712890625,0.00311920209787786,0.007391998078674078,-0.002593779005110264
1733359151695445500,6.258445556640625,0.006310202181339264,0.00753927044570446,-0.005489966832101345
1733359151705411600,6.26841162109375,0.006113959010690451,0.007444440387189388,-0.007837992161512375
1733359151715376600,6.278376708984375,0.008311066776514053,0.010360069572925568,-0.008062763139605522
1733359151725342700,6.2883427734375,0.006748042535036802,0.012913621962070465,-0.005613430868834257
1733359151735307800,6.298307861328125,0.0048859603703022,0.0171070359647274,-0.007860872894525528
1733359151745273600,6.308273681640625,0.003140495391562581,0.02107483521103859,-0.00687385955825448
1733359151755238700,6.31823876953125,0.0048872628249228,0.02187058888375759,-0.00317100016400218
1733359151765203700,6.32820361328125,0.0032606208696961403,0.02023017406463623,-0.0021735397167503834
1733359151775169500,6.33816943359375,0.0030616826843470335,0.019462116062641144,0.0031008506193757057
1733359151785134600,6.348134521484375,0.00003257139178458601,0.018145736306905746,0.00401529623195529
1733359151795100700,6.3581005859375,-0.0024399072863161564,0.0179249607026577,0.002719135954976082
1733359151805065700,6.368065673828125,-0.006980853155255318,0.01566315069794655,0.0037276598159223795
1733359151815031600,6.378031494140625,-0.008180873468518257,0.011904366314411163,0.0026304377242922783
1733359151824996600,6.38799658203125,-0.010078873485326767,0.004960624035447836,0.006209938786923885
1733359151834961700,6.397961669921875,-0.00727030448615551,-0.0026275208219885826,0.008436341769993305
1733359151844927500,6.407927490234375,-0.006865538656711578,-0.00809597410261631,0.010411661118268967
1733359151854892800,6.417892822265625,-0.004758711904287338,-0.011434512212872505,0.014728378504514694
1733359151864858400,6.4278583984375,-0.003560767974704504,-0.022689353674650192,0.01732887141406536
1733359151874823400,6.437823486328125,-0.0031122916843742132,-0.03694844990968704,0.021073276177048683
1733359151884789500,6.44778955078125,-0.003934463486075401,-0.0501512810587883,0.025859326124191284
1733359151894754300,6.45775439453125,-0.006442362442612648,-0.05585736781358719,0.02750995382666588
1733359151904720400,6.467720458984375,-0.007340610027313232,-0.05129285901784897,0.027303369715809822
1733359151914685400,6.477685546875,-0.008096947334706783,-0.04531938582658768,0.026245826855301857
1733359151924650500,6.487650390625,-0.006466609425842762,-0.03841574862599373,0.02609596773982048
1733359151934616300,6.4976162109375,-0.0025368486531078815,-0.03636165335774422,0.02959189936518669
1733359151944581600,6.50758154296875,-0.0014704674249514937,-0.03636510297656059,0.031493980437517166
1733359151954547500,6.51754736328125,0.0029067040886729956,-0.03210058435797691,0.03560776636004448
1733359151964512300,6.52751220703125,0.007934735156595707,-0.022747119888663292,0.03476157411932945
1733359151974478600,6.537478515625,0.013581168837845325,-0.018609900027513504,0.026217088103294373
1733359151984443400,6.547443359375,0.016046736389398575,-0.014059405773878098,0.017017045989632607
1733359151994408400,6.557408447265625,0.014913294464349747,-0.008165830746293068,0.011614024639129639
1733359152004374500,6.56737451171875,0.011315598152577877,0.005123362876474857,0.007876461371779442
1733359152014339300,6.57733935546875,0.0074763852171599865,0.020590469241142273,0.006004259455949068
1733359152024305400,6.587305419921875,0.0035192188806831837,0.03465905413031578,0.002556226681917906
1733359152034270200,6.597270263671875,0.0010035969316959381,0.041965171694755554,-0.0003293083282187581
1733359152044236500,6.607236572265625,-0.0011503677815198898,0.04456920921802521,-0.0029346784576773643
1733359152054201300,6.617201416015625,-0.0038606668822467327,0.04097500815987587,-0.0034915455617010593
1733359152064167400,6.62716748046875,-0.004643922206014395,0.032995615154504776,-0.0034209415316581726
1733359152074132500,6.637132568359375,-0.009788882918655872,0.025301210582256317,-0.0010201017139479518
1733359152084097300,6.64709716796875,-0.014951169490814209,0.01854594796895981,0.0023600049316883087
1733359152094063400,6.6570634765625,-0.018072661012411118,0.013361038640141487,0.005532628390938044
1733359152104028400,6.6670283203125,-0.018963448703289032,0.006331149023026228,0.010608552955091
1733359152113994200,6.676994140625,-0.02021833136677742,-0.00038321223109960556,0.015893328934907913
1733359152123959300,6.686959228515625,-0.016846517100930214,-0.004620189778506756,0.02219146117568016
1733359152133925400,6.69692529296875,-0.010432825423777103,-0.00813449826091528,0.023197602480649948
1733359152143890400,6.706890380859375,-0.008354215882718563,-0.008024024777114391,0.022914890199899673
1733359152153855200,6.716855224609375,-0.004065994173288345,-0.008880230598151684,0.02036784403026104
1733359152163821600,6.726821533203125,-0.00001399690518155694,-0.01242803130298853,0.019834015518426895
1733359152173786400,6.736786376953125,0.0037711537443101406,-0.017067790031433105,0.020631100982427597
1733359152183752200,6.746752197265625,0.00451471796259284,-0.021474242210388184,0.020819105207920074
1733359152193717500,6.756717529296875,0.008720914833247662,-0.02481943741440773,0.02392647974193096
1733359152203683300,6.766683349609375,0.00921995472162962,-0.0247481856495142,0.025152523070573807
1733359152213648400,6.7766484375,0.010746478103101254,-0.023054683580994606,0.025930432602763176
1733359152223614500,6.786614501953125,0.012234649620950222,-0.020294252783060074,0.02456223964691162
1733359152233579500,6.79657958984375,0.01168390829116106,-0.01611149311065674,0.02413560077548027
1733359152243544300,6.80654443359375,0.009690569713711739,-0.010051349177956581,0.022227521985769272
1733359152253510400,6.816510498046875,0.008845282718539238,-0.0033074254170060158,0.018152618780732155
1733359152263475500,6.826475341796875,0.00779492873698473,0.004003546200692654,0.014801434241235256
1733359152273441300,6.836441162109375,0.004522969014942646,0.007488825358450413,0.010525994934141636
1733359152283406600,6.846406494140625,0.0026084103155881166,0.010627410374581814,0.009866748005151749
1733359152293372400,6.856372314453125,-0.0028774351812899113,0.013084175996482372,0.007456054911017418
1733359152303337200,6.866337158203125,-0.002871832810342312,0.014120958745479584,0.0013560692314058542
1733359152313302300,6.87630224609375,-0.003393546212464571,0.012308677658438683,-0.0014863224932923913
1733359152323268400,6.886268310546875,-0.007306259591132402,0.010914449580013752,-0.005782671272754669
1733359152333233400,6.8962333984375,-0.007985365577042103,0.011087554506957531,-0.007854343391954899
1733359152343199500,6.906199462890625,-0.007651723455637693,0.009614018723368645,-0.006586998701095581
1733359152353164500,6.91616455078125,-0.006694050505757332,0.008255007676780224,-0.0062407879158854485
1733359152363130400,6.92613037109375,-0.0034102892968803644,0.008398006670176983,-0.003080544527620077
1733359152373095200,6.93609521484375,-0.000022748441551811993,0.004963860847055912,-0.001734849181957543
1733359152383061500,6.9460615234375,0.0036560832522809505,0.0023229867219924927,0.0013917937176302075
1733359152393026300,6.9560263671875,0.005077412351965904,-0.001990002579987049,0.0012064377078786492
1733359152402991400,6.965991455078125,0.006970684975385666,-0.0028483597561717033,0.0017290335381403565
1733359152412957400,6.97595751953125,0.00889348704367876,-0.006241759285330772,0.002507209312170744
1733359152422922500,6.985922607421875,0.006572012789547443,-0.007173929363489151,0.0029907021671533585
1733359152432888600,6.995888671875,0.0076380763202905655,-0.00800643302500248,0.006004069000482559
1733359152442853400,7.005853271484375,0.007564860861748457,-0.01026722602546215,0.006933610886335373
1733359152452819500,7.0158193359375,0.007297213189303875,-0.011517580598592758,0.0070273540914058685
1733359152462784300,7.0257841796875,0.005138166714459658,-0.010828319936990738,0.00631006620824337
1733359152472749600,7.03574951171875,0.006220741663128138,-0.0059973448514938354,0.005382220726460218
1733359152482715400,7.04571533203125,0.005951762665063143,-0.0013874135911464691,0.0020804337691515684
1733359152492680200,7.05568017578125,0.00332508678548038,0.003484840039163828,-0.00005835085175931454
1733359152502646500,7.065646484375,0.0008328490075655282,0.009078002534806728,-0.004836647771298885
1733359152512611300,7.075611328125,-0.00011150791397085413,0.009995727799832821,-0.009631669148802757
1733359152522577400,7.085577392578125,-0.004884358961135149,0.008043259382247925,-0.011246579699218273
1733359152532542500,7.09554248046875,-0.006565612740814686,0.01141828391700983,-0.012091333977878094
1733359152542508300,7.10550830078125,-0.005990657955408096,0.013555772602558136,-0.012159876525402069
1733359152552473300,7.115473388671875,-0.005624739918857813,0.009024137631058693,-0.009858106262981892
1733359152562438400,7.1254384765625,-0.003962932154536247,0.0023674266412854195,-0.006921164691448212
1733359152572404500,7.135404541015625,-0.0031043291091918945,-0.00010451953858137131,-0.007366711273789406
1733359152582369300,7.145369384765625,-0.0025149518623948097,0.0023397570475935936,-0.008413097821176052
1733359152592335400,7.15533544921875,-0.001751423580572009,0.005995211657136679,-0.010257603600621223
1733359152602300400,7.165300537109375,-0.003151412820443511,0.005332265980541706,-0.010338351130485535
1733359152612266200,7.175266357421875,-0.003437170060351491,-0.0010926099494099617,-0.007405678275972605
1733359152622231600,7.1852314453125,-0.0046729655005037785,-0.008872095495462418,0.00017328339163213968
1733359152632196400,7.1951962890625,-0.009285826236009598,-0.019582264125347137,0.011405698023736477
1733359152642162400,7.205162353515625,-0.010132714174687862,-0.02797808311879635,0.02190454676747322
1733359152652127500,7.21512744140625,-0.010807293467223644,-0.03289960324764252,0.03013850934803486
1733359152662093300,7.22509326171875,-0.012506663799285889,-0.03721826523542404,0.030374877154827118
1733359152672058400,7.235058349609375,-0.016101397573947906,-0.03559267148375511,0.02997060865163803
1733359152682024400,7.2450244140625,-0.017726939171552658,-0.030838917940855026,0.02829393558204174
1733359152691989500,7.254989501953125,-0.017711227759718895,-0.023121345788240433,0.024766579270362854
1733359152701955300,7.264955322265625,-0.01673494651913643,-0.014695819467306137,0.021034210920333862
1733359152711920400,7.27492041015625,-0.014290165156126022,-0.01031784899532795,0.01668473705649376
1733359152721885400,7.284885498046875,-0.011778735555708408,-0.007981093600392342,0.01317485049366951
1733359152731851300,7.294851318359375,-0.011179258115589619,-0.008481767028570175,0.011817170307040215
1733359152741816300,7.30481640625,-0.010554278269410133,-0.007429774850606918,0.014156324788928032
1733359152751782400,7.314782470703125,-0.008683674037456512,-0.004657691344618797,0.0184184480458498
1733359152761747500,7.32474755859375,-0.00610679155215621,-0.003592350520193577,0.023079635575413704
1733359152771713500,7.334713623046875,-0.0019930065609514713,-0.002035200595855713,0.0219656340777874
1733359152781678300,7.34467822265625,0.005464394111186266,0.0020959870889782906,0.022732464596629143
1733359152791643400,7.354643310546875,0.012654395774006844,0.003592950291931629,0.021003540605306625
1733359152801609200,7.364609130859375,0.023275375366210938,0.012383083812892437,0.014905525371432304
1733359152811574500,7.374574462890625,0.027034960687160492,0.02048761583864689,0.004682448692619801
1733359152821540400,7.384540283203125,0.035145342350006104,0.028133004903793335,-0.008090855553746223
1733359152831505400,7.39450537109375,0.036406613886356354,0.03258128464221954,-0.017845481634140015
1733359152841471500,7.404471435546875,0.03545423224568367,0.04021904617547989,-0.029519394040107727
1733359152851436300,7.414436279296875,0.03318149223923683,0.044711001217365265,-0.03772672265768051
1733359152861402400,7.42440234375,0.02825007401406765,0.04725971072912216,-0.04214617609977722
1733359152871367200,7.4343671875,0.022512558847665787,0.04599417746067047,-0.044317178428173065
1733359152881332500,7.44433251953125,0.01579216495156288,0.04815667122602463,-0.04506034776568413
1733359152891298300,7.45429833984375,0.009583271108567715,0.0511854812502861,-0.044383905827999115
1733359152901263400,7.464263427734375,0.004575162194669247,0.05588178709149361,-0.04643635079264641
1733359152911229400,7.4742294921875,-0.0003277172800153494,0.057008303701877594,-0.05142977833747864
1733359152921194200,7.4841943359375,-0.006886321119964123,0.06022182106971741,-0.050691090524196625
1733359152931160300,7.494160400390625,-0.009973191656172276,0.058438561856746674,-0.04989933222532272
1733359152941125400,7.50412548828125,-0.013754856772720814,0.05689788982272148,-0.045209407806396484
1733359152951090400,7.51409033203125,-0.019631920382380486,0.05172576755285263,-0.03982742503285408
1733359152961056300,7.52405615234375,-0.034430548548698425,0.05238547548651695,-0.03276529908180237
1733359152971021300,7.534021240234375,-0.035631366074085236,0.03672981262207031,-0.02327033318579197
1733359152980987400,7.5439873046875,-0.03086032345890999,0.015127367340028286,-0.016625594347715378
1733359152990952200,7.5539521484375,-0.025949722155928612,-0.003935540094971657,-0.006500788498669863
1733359153000918300,7.563918212890625,-0.02745363861322403,-0.01910814456641674,0.0019609187729656696
1733359153010883300,7.57388330078125,-0.02781609445810318,-0.03475634753704071,0.009095527231693268
1733359153020849200,7.58384912109375,-0.024963293224573135,-0.0446806475520134,0.01417214423418045
1733359153030814500,7.593814453125,-0.02312544733285904,-0.04993479698896408,0.02120022475719452
1733359153040779300,7.603779296875,-0.021465783938765526,-0.048711370676755905,0.02789437770843506
1733359153050745300,7.613745361328125,-0.020183738321065903,-0.04458613693714142,0.030356470495462418
1733359153060710100,7.623710205078125,-0.018832195550203323,-0.0416446253657341,0.03075476363301277
1733359153070676200,7.63367626953125,-0.016251858323812485,-0.041625186800956726,0.03193294629454613
1733359153080641300,7.643641357421875,-0.013991324231028557,-0.03852107375860214,0.03231317922472954
1733359153090607400,7.653607421875,-0.011396871879696846,-0.033309001475572586,0.028759723529219627
1733359153100572400,7.663572509765625,-0.008327613584697247,-0.02950778789818287,0.024288861081004143
1733359153110538200,7.673538330078125,-0.016058504581451416,-0.01862211711704731,0.017628828063607216
1733359153120503600,7.683503662109375,-0.016537578776478767,-0.007764569483697414,0.004339745733886957
1733359153130468400,7.69346826171875,-0.0010510317515581846,-0.017895765602588654,-0.003353593870997429
1733359153140434200,7.70343408203125,0.00799360778182745,-0.023818153887987137,-0.009545063599944115
1733359153150399200,7.713399169921875,0.012864263728260994,-0.023723609745502472,-0.012648711912333965
1733359153160365300,7.723365234375,0.013191010802984238,-0.015064042992889881,-0.013679985888302326
1733359153170330400,7.733330322265625,0.01596788875758648,0.001547425054013729,-0.018267013132572174
1733359153180296400,7.74329638671875,0.016889583319425583,0.016047699376940727,-0.025897596031427383
1733359153190261200,7.75326123046875,0.016581987962126732,0.036065347492694855,-0.03417496383190155
1733359153200226300,7.763226318359375,0.01605098694562912,0.05464800447225571,-0.04200711101293564
1733359153210192100,7.773192138671875,0.017504006624221802,0.07526033371686935,-0.04922907054424286
1733359153220157400,7.783157470703125,0.01539317425340414,0.090821772813797,-0.0564466156065464
1733359153230123300,7.793123291015625,0.009888953529298306,0.09766022861003876,-0.06004614382982254
1733359153240088300,7.80308837890625,0.0077874548733234406,0.0899931937456131,-0.05925985053181648
1733359153250054400,7.813054443359375,0.009829300455749035,0.07631706446409225,-0.05839192494750023
1733359153260019200,7.823019287109375,0.005761583335697651,0.0657511055469513,-0.05911789461970329
1733359153269985300,7.8329853515625,0.00040969473775476217,0.06204664334654808,-0.0603053979575634
1733359153279950300,7.842950439453125,-0.0003932728723157197,0.05637234449386597,-0.0612633042037487
1733359153289915400,7.852915283203125,-0.004818381275981665,0.04322884604334831,-0.057529550045728683
1733359153299881200,7.862881103515625,-0.002989082597196102,0.02909880504012108,-0.04883281886577606
1733359153309846500,7.872846435546875,-0.005668755620718002,0.02027042582631111,-0.03835621476173401
1733359153319812400,7.882812255859375,-0.003082769922912121,0.017820999026298523,-0.03386501222848892
1733359153329777200,7.892777099609375,0.0006280787638388574,0.016973048448562622,-0.028964795172214508
1733359153339743500,7.902743408203125,0.0006877508712932467,0.01448201946914196,-0.02275979146361351
1733359153349708300,7.912708251953125,-0.002110965084284544,0.011114719323813915,-0.014111439697444439
1733359153359674000,7.922674072265625,-0.006938201375305653,0.008474473841488361,-0.0031187261920422316
1733359153369639400,7.932639404296875,-0.012999821454286575,0.003556947223842144,0.009520103223621845
1733359153379604200,7.942604248046875,-0.01882418990135193,0.0010715043172240257,0.019489968195557594
1733359153389570300,7.9525703125,-0.023992054164409637,-0.00507107749581337,0.027424056082963943
1733359153399535400,7.962535400390625,-0.027820102870464325,-0.014440310187637806,0.030479401350021362
1733359153409501400,7.97250146484375,-0.031251322478055954,-0.026386186480522156,0.031817641109228134
1733359153419466200,7.98246630859375,-0.03198021650314331,-0.04109220951795578,0.032935481518507004
1733359153429432300,7.992432373046875,-0.03360527753829956,-0.052367497235536575,0.03388596326112747
1733359153439397400,8.0023974609375,-0.029246779158711433,-0.059849366545677185,0.0356033518910408
1733359153449362200,8.012362060546875,-0.027793757617473602,-0.05989038199186325,0.03497644513845444
1733359153459328500,8.02232861328125,-0.021557144820690155,-0.058309026062488556,0.030474470928311348
1733359153469293300,8.032293212890625,-0.012767914682626724,-0.052648477256298065,0.024738555774092674
1733359153479259100,8.042259033203125,-0.005332862492650747,-0.04229697957634926,0.015069621615111828
1733359153489224200,8.05222412109375,0.0020395666360855103,-0.027958519756793976,0.005597556941211224
1733359153499190300,8.062190185546875,0.008210638538002968,-0.0069780126214027405,-0.0031916662119328976
1733359153509155300,8.0721552734375,0.01402964536100626,0.014075075276196003,-0.015115170739591122
1733359153519121400,8.082121337890625,0.02029099315404892,0.03065989539027214,-0.02418028935790062
1733359153529086500,8.09208642578125,0.025362452492117882,0.04318740591406822,-0.028710059821605682
1733359153539051300,8.10205126953125,0.031376175582408905,0.047087330371141434,-0.031929485499858856
1733359153549017000,8.11201708984375,0.03283612057566643,0.052220575511455536,-0.03401181101799011
1733359153558982400,8.121982421875,0.03356604650616646,0.05150032415986061,-0.037428177893161774
1733359153568948200,8.1319482421875,0.03143338859081268,0.05161057785153389,-0.04208098724484444
1733359153578913300,8.141913330078125,0.024436423555016518,0.04859934374690056,-0.04480839893221855
1733359153588879400,8.15187939453125,0.013839705847203732,0.0512518547475338,-0.044832631945610046
1733359153598844400,8.161844482421875,-0.005513429641723633,0.06366446614265442,-0.04276677221059799
1733359153608810500,8.171810546875,-0.007553943898528814,0.0589221715927124,-0.0408405065536499
1733359153618775300,8.181775390625,-0.008122269995510578,0.05204235389828682,-0.03804804012179375
1733359153628740400,8.191740234375,-0.010186752304434776,0.054471421986818314,-0.03314888849854469
1733359153638706200,8.2017060546875,-0.01659964583814144,0.053009677678346634,-0.03609207645058632
1733359153648671500,8.21167138671875,-0.01766677387058735,0.05064798519015312,-0.04072890430688858
1733359153658637300,8.22163720703125,-0.022395191714167595,0.04602537676692009,-0.04305588826537132
1733359153668602000,8.23160205078125,-0.02213286980986595,0.03722469508647919,-0.04392540827393532
1733359153678568400,8.241568359375,-0.02158273756504059,0.024419832974672318,-0.041321780532598495
1733359153688533200,8.251533203125,-0.019645554944872856,0.008326883427798748,-0.0355115607380867
1733359153698498300,8.261498291015625,-0.017483029514551163,-0.006357727572321892,-0.02538255602121353
1733359153708464400,8.27146435546875,-0.01783749647438526,-0.018670320510864258,-0.01569237746298313
1733359153718429400,8.281429443359375,-0.018008196726441383,-0.027472257614135742,-0.0050422740168869495
1733359153728395300,8.291395263671875,-0.017066236585378647,-0.032251033931970596,0.003153337864205241
1733359153738360300,8.3013603515625,-0.013799586333334446,-0.031893808394670486,0.006862961687147617
1733359153748326400,8.311326416015625,-0.00900882575660944,-0.030159026384353638,0.010264084674417973
1733359153758291200,8.321291259765625,-0.006876965519040823,-0.027498263865709305,0.011346126906573772
1733359153768257300,8.33125732421875,-0.004010605160146952,-0.02222733572125435,0.01037061121314764
1733359153778222300,8.341222412109374,-0.0022353935055434704,-0.013207484036684036,0.008808346465229988
1733359153788187400,8.3511875,-0.00008782044460531324,-0.006133329123258591,0.005381391383707523
1733359153798153500,8.361153564453126,0.0007132902974262834,0.0031589530408382416,0.0006756697548553348
1733359153808118300,8.3711181640625,-0.00005609694926533848,0.010103678330779076,-0.0038575627841055393
1733359153818084400,8.38108447265625,0.0008230075472965837,0.018937507644295692,-0.008672283962368965
1733359153828049400,8.39104931640625,0.001958313165232539,0.018667196854948997,-0.011699765920639038
1733359153838015200,8.40101513671875,0.0014509808970615268,0.017697807401418686,-0.015772005543112755
1733359153847980300,8.410980224609375,0.0008262032642960548,0.01423463225364685,-0.017809057608246803
1733359153857946400,8.4209462890625,0.004125857725739479,0.015290373004972935,-0.019407881423830986
1733359153867910700,8.43091064453125,0.0013172879116609693,0.011313741095364094,-0.02437227964401245
1733359153877875500,8.44087548828125,0.0004576512146741152,0.004880055785179138,-0.020899701863527298
1733359153887841800,8.450841796875,0.003587131854146719,-0.002522733062505722,-0.01664077490568161
1733359153897806600,8.460806640625,0.0017367627006024122,0.00003429502248764038,-0.01433579996228218
1733359153907772700,8.470772705078126,0.0009093185653910041,0.008835509419441223,-0.017440780997276306
1733359153917737700,8.48073779296875,0.0025719546247273684,0.0162200890481472,-0.021819856017827988
1733359153927703600,8.49070361328125,0.003207118483260274,0.022552287206053734,-0.026598630473017693
1733359153937668900,8.5006689453125,0.007325892336666584,0.023561589419841766,-0.025423666462302208
1733359153947633700,8.510633544921875,0.006230534054338932,0.02220231294631958,-0.019930364564061165
1733359153957599700,8.520599853515625,0.006741863209754229,0.019487954676151276,-0.014024408534169197
1733359153967564500,8.530564453125,0.005942382384091616,0.014586140401661396,-0.011164706200361252
1733359153977530600,8.540530517578125,0.0058595724403858185,0.008652507327497005,-0.011256609112024307
1733359153987495700,8.55049560546875,0.007152537349611521,-0.001856326125562191,-0.01048802025616169
1733359153997461800,8.560461669921875,0.006391369272023439,-0.010900276713073254,-0.00938501488417387
1733359154007426800,8.5704267578125,0.0013164497213438153,-0.016009017825126648,-0.009466773830354214
1733359154017392600,8.580392578125,0.0005404879339039326,-0.01229365449398756,-0.0038657428231090307
1733359154027357700,8.590357666015626,-0.004950684029608965,-0.0058328257873654366,-0.003025782061740756
1733359154037322800,8.60032275390625,-0.004851907957345247,0.0005749017000198364,-0.0010399539023637772
1733359154047288600,8.61028857421875,-0.007060200907289982,0.009058134630322456,0.00010706949979066849
1733359154057253600,8.620253662109375,-0.008484705351293087,0.013110961765050888,0.0026594125665724277
1733359154067219700,8.6302197265625,-0.008838106878101826,0.014501132071018219,0.003829605644568801
1733359154077184800,8.640184814453125,-0.008202960714697838,0.016655802726745605,0.0009205283131450415
1733359154087150600,8.650150634765625,-0.010241078212857246,0.0134666683152318,0.0018574283458292484
1733359154097115600,8.66011572265625,-0.01200435683131218,0.008879640139639378,0.007353393826633692
1733359154107081700,8.670081787109375,-0.009022415615618229,0.00623325677588582,0.014061097986996174
1733359154117046500,8.680046630859374,-0.008853096514940262,0.0025316416285932064,0.02000323310494423
1733359154127011800,8.69001171875,-0.0066775609739124775,-0.005447987467050552,0.025379089638590813
1733359154136977700,8.699977783203124,-0.001838589902035892,-0.010985421016812325,0.027304410934448242
1733359154146942700,8.709942626953126,0.0001896735921036452,-0.015141816809773445,0.027802955359220505
1733359154156908800,8.71990869140625,0.003440618747845292,-0.01571369171142578,0.028183216229081154
1733359154166873600,8.72987353515625,0.004389236215502024,-0.015385856851935387,0.029471121728420258
1733359154176839700,8.739839599609375,0.008117113262414932,-0.016942568123340607,0.03459706902503967
1733359154186804700,8.7498046875,0.013129714876413345,-0.02176874689757824,0.042302925139665604
1733359154196770600,8.7597705078125,0.01657743752002716,-0.024102352559566498,0.04722578823566437
1733359154206735600,8.769735595703125,0.017796101048588753,-0.023072507232427597,0.04976537823677063
1733359154216700700,8.77970068359375,0.022234046831727028,-0.02078336849808693,0.04712356626987457
1733359154226666800,8.789666748046875,0.024153387174010277,-0.02031358703970909,0.041770610958337784
1733359154236631600,8.799631591796874,0.02460400015115738,-0.02146046981215477,0.032487887889146805
1733359154246598000,8.809597900390624,0.023803187534213066,-0.020181089639663696,0.027497392147779465
1733359154256562700,8.819562744140624,0.02025716006755829,-0.01776517555117607,0.021431419998407364
1733359154266528500,8.829528564453126,0.016146305948495865,-0.014913993887603283,0.017880892381072044
1733359154276493800,8.839493896484376,0.014154789038002491,-0.009514308534562588,0.013219568878412247
1733359154286459600,8.849459716796876,0.006411382462829351,-0.004550709389150143,0.007862886413931847
1733359154296424700,8.8594248046875,0.0012251276057213545,-0.0008562617003917694,0.002008749172091484
1733359154306389500,8.869389404296875,0.00024535064585506916,0.006119622848927975,-0.004984179511666298
1733359154316355600,8.87935546875,-0.004318491090089083,0.011387180536985397,-0.01057085208594799
1733359154326320600,8.889320556640625,-0.010103143751621246,0.017932165414094925,-0.015719009563326836
1733359154336286700,8.89928662109375,-0.012298366986215115,0.023430291563272476,-0.018812300637364388
1733359154346251800,8.909251708984375,-0.01304991077631712,0.027573902159929276,-0.018604574725031853
1733359154356217600,8.919217529296875,-0.015841761603951454,0.03290466591715813,-0.01788782700896263
1733359154366182700,8.9291826171875,-0.018258845433592796,0.03633401542901993,-0.014874991960823536
1733359154376147700,8.939147705078126,-0.01819731667637825,0.03697286173701286,-0.012015974149107933
1733359154386113500,8.949113525390626,-0.015401529148221016,0.035225026309490204,-0.009264929220080376
1733359154396078600,8.95907861328125,-0.0118709746748209,0.02999025583267212,-0.0034151666332036257
1733359154406044700,8.969044677734376,-0.005333979148417711,0.022128604352474213,0.004234763793647289
1733359154416009700,8.979009765625,0.0023407258559018373,0.011343679390847683,0.012031023390591145
1733359154425975800,8.988975830078125,0.004870462231338024,0.0006255209445953369,0.019886016845703125
1733359154435940900,8.99894091796875,0.00615354161709547,-0.0017667775973677635,0.031148971989750862
1733359154445906700,9.00890673828125,0.008167956955730915,0.0002934439107775688,0.036468639969825745
1733359154455871500,9.01887158203125,0.010126498527824879,0.00007101800292730331,0.03999830782413483
1733359154465836800,9.0288369140625,0.011507081799209118,-0.004791381768882275,0.0410609096288681
1733359154475802600,9.038802734375,0.012850387953221798,-0.010527754202485085,0.04380728304386139
1733359154485767700,9.048767578125,0.015583058819174767,-0.015599478036165237,0.04825050011277199
1733359154495733800,9.058733642578124,0.014077545143663883,-0.017933577299118042,0.050168681889772415
1733359154505698600,9.068698486328126,0.011602403596043587,-0.024865787476301193,0.0554896779358387
1733359154515664600,9.07866455078125,0.0071698506362736225,-0.033411916345357895,0.0576418936252594
1733359154525629700,9.088629638671875,0.0036896318197250366,-0.03740745782852173,0.05754575505852699
1733359154535595800,9.098595703125,0.004583090078085661,-0.03581433743238449,0.054029498249292374
1733359154545560600,9.108560546875,0.0017715912545099854,-0.028543375432491302,0.04684961587190628
1733359154555526000,9.11852587890625,0.003847811371088028,-0.022292908281087875,0.03846622258424759
1733359154565491700,9.12849169921875,0.004770862869918346,-0.021251078695058823,0.028863660991191864
1733359154575456500,9.13845654296875,0.008413522504270077,-0.02033516950905323,0.024242963641881943
1733359154585422800,9.1484228515625,0.00921273697167635,-0.018252044916152954,0.020999765023589134
1733359154595387600,9.1583876953125,0.010048740543425083,-0.013123475015163422,0.018112976104021072
1733359154605353500,9.168353515625,0.011094030924141407,-0.007664525881409645,0.013097178190946579
1733359154615318800,9.17831884765625,0.011374498717486858,-0.005992209538817406,0.00923061091452837
1733359154625284600,9.18828466796875,0.010013889521360397,-0.004552770406007767,0.004935730714350939
1733359154635249700,9.198249755859376,0.006829679477959871,-0.0010198242962360382,0.0005466489819809794
1733359154645214700,9.208214599609375,0.0073423380963504314,0.00748577993363142,-0.00013858231250196695
1733359154655180800,9.218180908203125,0.0028803141321986914,0.014067274518311024,-0.0004639122635126114
1733359154665145600,9.2281455078125,0.0019671160262078047,0.01888333633542061,-0.00001596857327967882
1733359154675111700,9.238111572265625,0.0028803141321986914,0.01978614553809166,0.0035936799831688404
1733359154685076700,9.24807666015625,0.0025175914634019136,0.016446541994810104,0.010086200200021267
1733359154695042600,9.25804248046875,0.000658973993267864,0.012269577011466026,0.01658870279788971
1733359154705007900,9.2680078125,0.0001596312940819189,0.009000547230243683,0.024099085479974747
1733359154714973700,9.2779736328125,-0.0013223884161561728,0.005105183459818363,0.02707512117922306
1733359154724938800,9.287938720703124,0.000688298256136477,-0.0005018357187509537,0.028622150421142578
1733359154734903600,9.297903564453126,-0.0010374989360570908,-0.003068956546485424,0.02991415746510029
1733359154744869600,9.30786962890625,-0.0012281812960281968,-0.009868006221950054,0.030372221022844315
1733359154754834700,9.317834716796876,-0.0002987380139529705,-0.016338687390089035,0.03321141377091408
1733359154764800800,9.32780078125,-0.0018031577346846461,-0.021463140845298767,0.03462475538253784
1733359154774765800,9.337765869140625,0.001739682164043188,-0.02467772364616394,0.033939335495233536
1733359154784731600,9.347731689453125,-0.0004638172686100006,-0.028097491711378098,0.030438875779509544
1733359154794696400,9.357696533203125,-0.00010274878877680749,-0.022477302700281143,0.024662433192133904
1733359154804662800,9.367662841796875,-0.0013549671275541186,-0.021300453692674637,0.01807830110192299
1733359154814627600,9.377627685546875,-0.001716656144708395,-0.01706601120531559,0.015578307211399078
1733359154824592600,9.387592529296874,-0.003061286173760891,-0.014510976150631905,0.01576313003897667
1733359154834558700,9.397558837890625,-0.0014518669340759516,-0.01199770625680685,0.014921862632036209
1733359154844523800,9.407523681640624,-0.001378896413370967,-0.009301521815359592,0.015331989154219627
1733359154854489600,9.417489501953124,-0.003553914837539196,-0.008634556084871292,0.014484060928225517
1733359154864455200,9.427455078125,-0.0015509515069425106,-0.005459269508719444,0.01612350158393383
1733359154874421200,9.437421142578126,-0.0017344261286780238,-0.0016039861366152763,0.012550711631774902
1733359154884386300,9.44738623046875,-0.0023967542219907045,0.0030022175051271915,0.011490242555737495
1733359154894352100,9.45735205078125,-0.003164843888953328,0.008622901514172554,0.01041277963668108
1733359154904317400,9.4673173828125,-0.0016457770252600312,0.013753747567534447,0.010390142910182476
1733359154914282200,9.4772822265625,-0.0018910273211076856,0.018283626064658165,0.013779640197753906
1733359154924248300,9.487248291015625,-0.00018367475422564894,0.017255112528800964,0.014449158683419228
1733359154934213400,9.49721337890625,-0.0002614464028738439,0.017558902502059937,0.013906550593674183
1733359154944179200,9.50717919921875,0.0034318254329264164,0.016233179718255997,0.011301713064312935
1733359154954144300,9.517144287109375,0.005019345320761204,0.016186058521270752,0.008147981949150562
1733359154964110300,9.5271103515625,0.007126971147954464,0.014421180821955204,0.0034256649669259787
1733359154974075400,9.537075439453124,0.01041546743363142,0.011350192129611969,0.004211525898426771
1733359154984041200,9.547041259765624,0.011710030026733875,0.0034017213620245457,0.007157514803111553
1733359154994006300,9.55700634765625,0.016147900372743607,-0.002765592187643051,0.014725053682923317
1733359155003971300,9.566971435546876,0.013531343080103397,-0.008160091005265713,0.017297668382525444
1733359155013937200,9.576937255859375,0.014624008908867836,-0.011886964552104473,0.01966073550283909
1733359155023902500,9.58690234375,0.011816504411399364,-0.016447894275188446,0.021139057353138924
1733359155033868300,9.596868408203125,0.011144344694912434,-0.020903659984469414,0.021828114986419678
1733359155043833300,9.606833251953125,0.007992759346961975,-0.02407948113977909,0.02436211332678795
1733359155053799400,9.61679931640625,0.005938155576586723,-0.023974649608135223,0.027605272829532623
1733359155063764200,9.62676416015625,0.007957098074257374,-0.025744322687387466,0.029060423374176025
1733359155073730300,9.636730224609375,0.004729297943413258,-0.027960143983364105,0.029742270708084106
1733359155083695400,9.6466953125,0.005755946505814791,-0.028004087507724762,0.026717718690633774
1733359155093660400,9.656660400390624,0.0039074537344276905,-0.02598266862332821,0.02355879731476307
1733359155103626200,9.666626220703124,0.0011614683317020535,-0.02362976409494877,0.019429033622145653
1733359155113591300,9.67659130859375,0.00025758653646335006,-0.01852516084909439,0.014810054562985897
1733359155123557400,9.686557373046876,-0.0033850851468741894,-0.01343266200274229,0.011589227244257927
1733359155133522200,9.696522216796875,-0.0037699288222938776,-0.0038307271897792816,0.007243640720844269
1733359155143488500,9.706488525390625,-0.004278859123587608,0.006743886508047581,0.005251063499599695
1733359155153453300,9.716453369140625,-0.005829370580613613,0.012659268453717232,0.0008411647868342698
1733359155163419100,9.726419189453125,-0.0044115036725997925,0.011699465103447437,0.0005823054816573858
1733359155173384200,9.73638427734375,-0.0023232558742165565,0.0073166657239198685,0.0025063417851924896
1733359155183349200,9.746349365234375,-0.0009967352962121367,0.008368615061044693,0.00204907706938684
1733359155193315300,9.7563154296875,0.0009407045436091721,0.009866361506283283,0.0015145957004278898
1733359155203280100,9.766280029296874,0.004571924451738596,0.011278902180492878,-0.0018665535608306527
1733359155213246500,9.77624658203125,0.005701930727809668,0.006694908253848553,-0.0037863352335989475
1733359155223211300,9.786211181640626,0.0063341655768454075,-0.0012202728539705276,0.00006006855983287096
1733359155233177300,9.79617724609375,0.009061736054718494,-0.011589348316192627,0.006797660607844591
1733359155243142400,9.806142333984376,0.011559780687093735,-0.017550567165017128,0.01579301990568638
1733359155253108200,9.816108154296876,0.014102564193308353,-0.024236906319856644,0.021633734926581383
1733359155263073300,9.8260732421875,0.01603415608406067,-0.02968600019812584,0.025133393704891205
1733359155273038300,9.836038330078125,0.01476543303579092,-0.031021494418382645,0.02565496414899826
1733359155283004200,9.846004150390625,0.014664499089121819,-0.027233414351940155,0.023568643257021904
1733359155292969200,9.85596923828125,0.015567305497825146,-0.021495776250958443,0.02302696369588375
1733359155302935300,9.865935302734375,0.01252278033643961,-0.01064605638384819,0.022312970831990242
1733359155312900400,9.875900390625,0.010717151686549187,-0.0008660042658448219,0.01803567446768284
1733359155322866200,9.8858662109375,0.008408190682530403,0.008001256734132767,0.013527742587029934
1733359155332831500,9.89583154296875,0.007312021683901548,0.012302574701607227,0.010286827571690083
1733359155342797300,9.90579736328125,0.0007313507376238704,0.010259397327899933,0.010189088992774487
1733359155352762000,9.91576220703125,-0.004261805210262537,0.006091692019253969,0.011731584556400776
1733359155362728400,9.925728515625,-0.009093312546610832,0.0020471494644880295,0.013311105780303478
1733359155372693200,9.935693359375,-0.011768198572099209,-0.004790861159563065,0.01413576491177082
1733359155382658300,9.945658203125,-0.015300615690648556,-0.006746419705450535,0.015508357435464859
1733359155392624400,9.955624267578125,-0.015891848132014275,-0.009471052326261997,0.014831001870334148
1733359155402589400,9.96558935546875,-0.013583154417574406,-0.00858475174754858,0.01285227295011282
1733359155412555300,9.97555517578125,-0.008256788365542889,-0.002836650237441063,0.006442775018513203
1733359155422520300,9.985520263671875,-0.0006718395161442459,0.003630570136010647,0.005143152549862862
1733359155432486400,9.995486328125,0.0036749548744410276,0.009670792147517204,0.00018743588589131832
1733359155442451200,10.005451171875,0.006630796939134598,0.022729337215423584,-0.003837665542960167
1733359155452417300,10.015417236328124,0.007435616571456194,0.028043892234563828,-0.008225375786423683
1733359155462382300,10.02538232421875,0.009677199646830559,0.030015964061021805,-0.01634189300239086
1733359155472347100,10.03534716796875,0.00971846841275692,0.02946600690484047,-0.0249545406550169
1733359155482313500,10.0453134765625,0.0056382399052381516,0.023606518283486366,-0.022757166996598244
1733359155492278300,10.0552783203125,0.003620357718318701,0.018305622041225433,-0.017069444060325623
1733359155502244400,10.065244384765625,-0.0006926317000761628,0.005125638097524643,-0.007490852847695351
1733359155512209400,10.07520947265625,-0.0010678687831386924,-0.0046721938997507095,-0.0008783610537648201
1733359155522175200,10.08517529296875,-0.0026274158153682947,-0.008746030740439892,-0.0032203448936343193
1733359155532140300,10.095140380859375,-0.0015831831842660904,-0.011052252724766731,-0.012102930806577206
1733359155542106400,10.1051064453125,-0.0021062279120087624,-0.011803263798356056,-0.018025003373622894
1733359155552071400,10.115071533203125,-0.0026055434718728065,-0.010238816030323505,-0.016591597348451614
1733359155562036200,10.1250361328125,-0.004194119479507208,-0.006157253868877888,-0.012153705582022667
1733359155572002300,10.135002197265624,-0.006866659969091415,0.0016446523368358612,-0.010823099873960018
1733359155581967400,10.14496728515625,-0.010188420303165913,0.010743342339992523,-0.010727225802838802
1733359155591933200,10.15493310546875,-0.012499470263719559,0.020197030156850815,-0.01822262443602085
1733359155601898200,10.164898193359376,-0.014175130985677242,0.02402452379465103,-0.025645652785897255
1733359155611864300,10.1748642578125,-0.013587931171059608,0.023726942017674446,-0.028356043621897697
1733359155621829400,10.184829345703125,-0.016291840001940727,0.019880004227161407,-0.028681747615337372
1733359155631795500,10.19479541015625,-0.011856898665428162,0.018689604476094246,-0.024421587586402893
1733359155641760300,10.20476025390625,-0.01296211127191782,0.018065093085169792,-0.024173647165298462
1733359155651725300,10.214725341796875,-0.011080557480454445,0.017220117151737213,-0.022268999367952347
1733359155661691400,10.22469140625,-0.007525237742811441,0.016099460422992706,-0.020343534648418427
1733359155671656400,10.234656494140625,-0.006608618889003992,0.01720600575208664,-0.020381154492497444
1733359155681622300,10.244622314453125,-0.0033720796927809715,0.016863789409399033,-0.018537448719143867
1733359155691587300,10.25458740234375,-0.0005901072872802615,0.017418446019291878,-0.01783709041774273
1733359155701553400,10.264553466796874,0.0008693050476722419,0.01420907024294138,-0.01814894564449787
1733359155711518200,10.274518310546876,0.000947333115618676,0.01337050274014473,-0.017899537459015846
1733359155721484500,10.284484619140626,-0.0001922335068229586,0.012320684269070625,-0.01744094118475914
1733359155731449300,10.294449462890626,0.0012696050107479095,0.010697534307837486,-0.016611145809292793
1733359155741414400,10.304414306640625,0.0025183612015098333,0.0067619145847857,-0.014477686025202274
1733359155751380200,10.314380126953125,0.00039926671888679266,0.001071445643901825,-0.010450826957821846
1733359155761345300,10.32434521484375,-0.0010233939392492175,-0.004934515804052353,-0.005943160969763994
1733359155771311400,10.334311279296875,-0.0016808841610327363,-0.008710946887731552,-0.0026744655333459377
1733359155781276200,10.344276123046875,-0.003738975152373314,-0.009730137884616852,-0.00037455931305885315
1733359155791242200,10.3542421875,-0.0009727913420647383,-0.007239277474582195,-0.0027775983326137066
1733359155801207300,10.364207275390624,-0.002980015706270933,-0.006002507172524929,-0.006343037821352482
1733359155811173000,10.374173095703124,-0.001966414274647832,-0.0037636496126651764,-0.009107270278036594
1733359155821138400,10.384138427734374,-0.0023722799960523844,0.0011323057115077972,-0.010683328844606876
1733359155831104300,10.394104248046874,-0.00010003679199144244,0.010248224250972271,-0.01592235080897808
1733359155841069300,10.4040693359375,0.001358576468192041,0.015722353011369705,-0.018616406247019768
1733359155851034400,10.414034423828125,0.000505539181176573,0.015217043459415436,-0.018029803410172462
1733359155861000200,10.424000244140625,-0.00007423097849823534,0.007070166990160942,-0.01326301135122776
1733359155870964500,10.433964599609375,-0.0035155874211341143,0.0020905593410134315,-0.01071939617395401
1733359155880930600,10.4439306640625,-0.00412758206948638,0.0017877575010061264,-0.011575601994991302
1733359155890895600,10.4538955078125,-0.002503312425687909,0.006652631796896458,-0.0133584663271904
1733359155900861700,10.46386181640625,-0.0010657382663339376,0.005462731700390577,-0.016572635620832443
1733359155910826800,10.47382666015625,-0.00036422722041606903,0.0007443269714713097,-0.01545762363821268
1733359155920792600,10.48379248046875,-0.00004784368502441794,-0.006570576690137386,-0.01313135214149952
1733359155930757600,10.493757568359374,-0.0000547899107914418,-0.006095170043408871,-0.01037587784230709
1733359155940722700,10.50372265625,0.0006634646560996771,-0.0014314418658614159,-0.010863236151635647
1733359155950688500,10.5136884765625,0.002598233986645937,-0.0007377816364169121,-0.014438103884458542
1733359155960653600,10.523653564453125,0.0008671793038956821,0.00332167511805892,-0.016854390501976013
1733359155970619600,10.53361962890625,-0.0018244677921757102,0.0034766867756843567,-0.015518298372626305
1733359155980584700,10.543584716796875,-0.006082596257328987,0.004706268198788166,-0.015150515362620354
1733359155990550800,10.55355078125,-0.008157235570251942,0.009304891340434551,-0.015400129370391369
1733359156000515600,10.563515625,-0.007869347929954529,0.012915072031319141,-0.013461614958941936
1733359156010481700,10.573481689453125,-0.009341266937553883,0.012634923681616783,-0.013312759809195995
1733359156020446500,10.583446533203125,-0.008911965414881706,0.011928120627999306,-0.013903981074690819
1733359156030411800,10.593411865234375,-0.007087660953402519,0.008382447995245457,-0.011819851584732533
1733359156040377600,10.603377685546874,-0.0072812726721167564,0.00584685243666172,-0.011053926311433315
1733359156050342700,10.6133427734375,-0.0068724676966667175,0.00012240279465913773,-0.009431811049580574
1733359156060308700,10.623308837890624,-0.002922466956079006,-0.004334930330514908,-0.012076329439878464
1733359156070273500,10.6332734375,-0.0028729322366416454,-0.008745391853153706,-0.013473423197865486
1733359156080239600,10.643239501953126,-0.001342413597740233,-0.012097246013581753,-0.014137350022792816
1733359156090204700,10.65320458984375,0.0010189695749431849,-0.016722887754440308,-0.01534995622932911
1733359156100170500,10.66317041015625,0.0003076393040828407,-0.016003835946321487,-0.019013933837413788
1733359156110135600,10.673135498046875,0.002279715146869421,-0.015758149325847626,-0.01838623359799385
1733359156120101600,10.6831015625,0.00291461287997663,-0.014687825925648212,-0.019914088770747185
1733359156130066700,10.693066650390625,0.002413430018350482,-0.007632141932845116,-0.022540802136063576
1733359156140031500,10.703031494140625,0.0018022346775978804,-0.003261362202465534,-0.022891007363796234
1733359156149997800,10.712997802734375,0.0008589528151787817,0.0005807951092720032,-0.023371722549200058
1733359156159962600,10.722962646484374,0.0015162209747359157,0.002438882365822792,-0.021869434043765068
1733359156169928400,10.732928466796874,-0.000014857170754112303,0.0038169603794813156,-0.01860741898417473
1733359156179893800,10.742893798828124,-0.0031752302311360836,0.00602631876245141,-0.013305598869919777
1733359156189859600,10.752859619140626,-0.0022638672962784767,0.009327619336545467,-0.010536223649978638
1733359156199824600,10.76282470703125,-0.0038212838117033243,0.0065350281074643135,-0.007310335990041494
1733359156209790700,10.772790771484376,-0.0045046755112707615,0.008696278557181358,-0.006505491212010384
1733359156219755800,10.782755859375,-0.004835706669837236,0.005776122212409973,-0.0023363125510513783
1733359156229720600,10.792720458984375,-0.005831755697727203,0.006091332994401455,-0.0018173542339354753
1733359156239686700,10.802686767578125,-0.0022306290920823812,0.010562247596681118,-0.000029840506613254547
1733359156249651700,10.812651611328125,-0.002617034362629056,0.009417650289833546,-0.0019500097259879112
1733359156259617500,10.822617431640625,-0.00034988531842827797,0.012261640280485153,-0.0038075647316873074
1733359156269582800,10.832582763671875,0.00034786039032042027,0.011253696866333485,-0.00618776073679328
1733359156279548700,10.842548583984374,0.0031098248437047005,0.00944887287914753,-0.007165141403675079
1733359156289513500,10.852513427734374,0.0003542569756973535,0.007981611415743828,-0.008263702504336834
1733359156299479800,10.862479736328124,0.0023071530740708113,0.006135508418083191,-0.010598495602607727
1733359156309444600,10.872444580078126,0.0012485706247389317,0.004633657168596983,-0.012603627517819405
1733359156319409700,10.88240966796875,0.0014592267107218504,-0.0013486016541719437,-0.015744028612971306
1733359156329375700,10.892375732421876,-0.0016228811582550406,-0.0017416663467884064,-0.014006931334733963
1733359156339340800,10.9023408203125,-0.0028023950289934874,-0.004066339693963528,-0.014784308150410652
1733359156349306600,10.912306640625,-0.0026782772038131952,-0.003765779547393322,-0.0125371553003788
1733359156359271400,10.922271484375,-0.0015000947751104832,-0.002899719402194023,-0.008038543164730072
1733359156369237800,10.93223779296875,0.0014663856709375978,0.003980934154242277,-0.006992431357502937
1733359156379202600,10.94220263671875,0.0013936813920736313,0.01363755576312542,-0.007945043966174126
1733359156389168600,10.952168701171875,0.003017708659172058,0.015715070068836212,-0.012440109625458717
1733359156399133700,10.9621337890625,0.005114681553095579,0.020437387749552727,-0.018799206241965294
1733359156409098800,10.9720986328125,0.0022916896268725395,0.02178122103214264,-0.024042772129178047
1733359156419064800,10.98206494140625,-0.00011154705134686083,0.019156942144036293,-0.023117590695619583
1733359156429029600,10.992029541015626,-0.004459897987544537,0.011399774812161922,-0.016595331951975822
1733359156438995700,11.00199560546875,-0.004987736232578754,0.0000054407864809036255,-0.010920936241745949
1733359156448960500,11.01196044921875,-0.006167815066874027,-0.008721454069018364,-0.007622694596648216
1733359156458926600,11.021926513671875,-0.00811139028519392,-0.011020293459296227,-0.007591535337269306
1733359156468891600,11.0318916015625,-0.005942521151155233,-0.008563809096813202,-0.012537010945379734
1733359156478857700,11.041857666015625,-0.004307074006646872,-0.003238285891711712,-0.011529536917805672
1733359156488822800,11.05182275390625,-0.005411425605416298,-0.0011127917096018791,-0.01031509693711996
1733359156498788600,11.06178857421875,-0.004583981353789568,-0.0022781910374760628,-0.004159999080002308
1733359156508753700,11.071753662109375,-0.007299142889678478,-0.0004761321470141411,0.0015179661568254232
1733359156518718700,11.08171875,-0.0063766236416995525,0.005267506930977106,0.003177648177370429
1733359156528684500,11.0916845703125,-0.00918278843164444,0.009988569654524326,0.0009793306235224009
1733359156538649600,11.101649658203126,-0.009196637198328972,0.007171478122472763,0.0027513979002833366
1733359156548615700,11.11161572265625,-0.008226470090448856,-0.003802310675382614,0.012955999001860619
1733359156558580700,11.121580810546876,-0.00833672471344471,-0.008226354606449604,0.019626950845122337
1733359156568546600,11.131546630859376,-0.009162021800875664,-0.00760760810226202,0.019322657957673073
1733359156578511600,11.14151171875,-0.004662877414375544,-0.0022112447768449783,0.015975331887602806
1733359156588477700,11.151477783203125,-0.0015967428917065263,0.0012797489762306213,0.009300461038947105
1733359156598442500,11.1614423828125,-0.00042681634658947587,0.00010103452950716019,0.006161925848573446
1733359156608407800,11.17140771484375,0.0021780238021165133,-0.004321475513279438,0.008411893621087074
1733359156618373600,11.18137353515625,0.0024701727088540792,-0.005222955718636513,0.010268649086356163
1733359156628338700,11.191338623046875,0.002384919673204422,-0.0015001026913523674,0.011458998546004295
1733359156638304800,11.2013046875,0.005585772916674614,-0.0011903773993253708,0.010871239006519318
1733359156648269600,11.21126953125,0.006377560086548328,-0.002532033249735832,0.010992366820573807
1733359156658235600,11.221235595703124,0.00631124759092927,-0.0034558838233351707,0.011597171425819397
1733359156668200700,11.23120068359375,0.005384181626141071,-0.0024636201560497284,0.011831826530396938
1733359156678166500,11.24116650390625,0.003852331079542637,0.001437644474208355,0.012918928638100624
1733359156688131600,11.251131591796875,0.002376385498791933,0.011392572894692421,0.013613115064799786
1733359156698096600,11.2610966796875,0.002845634473487735,0.01847951114177704,0.013086608611047268
1733359156708062700,11.271062744140625,0.00393968028947711,0.02078663744032383,0.011705462820827961
1733359156718027500,11.281027587890625,0.0052182637155056,0.019868113100528717,0.010595723986625671
1733359156727993600,11.29099365234375,0.008676356635987759,0.016155699267983437,0.013172232545912266
1733359156737958700,11.300958740234375,0.009953608736395836,0.010310061275959015,0.0170881450176239
1733359156747924500,11.310924560546875,0.008477425202727318,0.00412361603230238,0.020604437217116356
1733359156757889800,11.320889892578125,0.01099331397563219,-0.000023458153009414673,0.023842308670282364
1733359156767855600,11.330855712890624,0.008596489205956459,-0.004119103774428368,0.025377057492733
1733359156777820700,11.340820556640624,0.008433770388364792,-0.005173715762794018,0.024610068649053574
1733359156787786800,11.350786865234374,0.00890513975173235,-0.0033127134665846825,0.0235994141548872
1733359156797751600,11.36075146484375,0.011298522353172302,-0.0030471961945295334,0.02246011234819889
1733359156807716600,11.370716552734375,0.010877212509512901,0.0005711782723665237,0.021119873970746994
1733359156817682700,11.3806826171875,0.009254815056920052,0.005402951035648584,0.019688425585627556
1733359156827647700,11.390647705078125,0.007379431277513504,0.013174210675060749,0.018967218697071075
1733359156837613600,11.400613525390625,0.0048672715201973915,0.01941053569316864,0.017758144065737724
1733359156847578600,11.41057861328125,0.0032550061587244272,0.01921714097261429,0.01718035154044628
1733359156857544700,11.420544677734375,0.006491279695183039,0.01789141818881035,0.013507319614291191
1733359156867510000,11.430510009765625,0.006580695975571871,0.009864218533039093,0.013620472513139248
1733359156877476000,11.44047607421875,0.005144453141838312,0.000747418962419033,0.014093982987105846
1733359156887441000,11.45044091796875,0.003509306348860264,-0.01060145627707243,0.01561006810516119
1733359156897406200,11.46040625,0.0002533254446461797,-0.022418968379497528,0.01727108098566532
1733359156907372000,11.4703720703125,0.00008710288966540247,-0.02916635014116764,0.015972187742590904
1733359156917336800,11.4803369140625,-0.0025065497029572725,-0.03289291262626648,0.01829952374100685
1733359156927303200,11.49030322265625,-0.005784079898148775,-0.031547512859106064,0.02125413529574871
1733359156937268000,11.50026806640625,-0.006093539297580719,-0.02677220106124878,0.021958807483315468
1733359156947233800,11.51023388671875,-0.004000336397439241,-0.017832767218351364,0.020788278430700302
1733359156957199000,11.52019921875,-0.0037476022262126207,-0.010331708937883377,0.019963763654232025
1733359156967165000,11.5301650390625,-0.0005056704394519329,-0.002509833313524723,0.017873480916023254
1733359156977130000,11.5401298828125,0.0015830467455089092,0.0004888866096735001,0.01144114788621664
1733359156987095000,11.550094970703125,0.0020778498146682978,0.0025198603980243206,0.00796587485820055
1733359156997061000,11.56006103515625,0.0015350974863395095,0.002002142369747162,0.007334705907851458
1733359157007026000,11.57002587890625,-0.00022761945729143918,0.000550498254597187,0.00817941501736641
1733359157016992000,11.579991943359374,0.00006106719956733286,-0.0016255704686045647,0.010326987132430077
1733359157026957000,11.58995703125,0.00021766108693554997,-0.006777722388505936,0.014465807005763054
1733359157036923000,11.5999228515625,-0.000493136583827436,-0.010990843176841736,0.016476226970553398
1733359157046888200,11.60988818359375,0.0018411119235679507,-0.0147714177146554,0.015928832814097404
1733359157056854000,11.61985400390625,0.002880277344956994,-0.013763411901891232,0.016191953793168068
1733359157066819000,11.629819091796875,0.0017052663024514914,-0.010552077554166317,0.012187396176159382
1733359157076784000,11.6397841796875,0.004374286159873009,-0.005774633027613163,0.010908013209700584
1733359157086750000,11.64975,0.004442507401108742,-0.0028896955773234367,0.011145498603582382
1733359157096715000,11.659715087890625,0.005312828347086906,-0.0010949913412332535,0.010944962501525879
1733359157106681000,11.66968115234375,0.0050381761975586414,0.0031289891339838505,0.013412639498710632
1733359157116646100,11.679646240234375,0.0044730533845722675,0.005367642268538475,0.013741273432970047
1733359157126612000,11.689612060546875,0.0045111943036317825,0.005002614576369524,0.012043418362736702
1733359157136577000,11.699576904296874,0.0022975753527134657,0.001613742671906948,0.012533173896372318
1733359157146543000,11.709543212890624,0.0013758381828665733,-0.0032109320163726807,0.017195196822285652
1733359157156508000,11.7195078125,0.0028751979116350412,-0.006860795430839062,0.019508950412273407
1733359157166474000,11.729473876953126,0.004529257770627737,-0.008295220322906971,0.019968656823039055
1733359157176439000,11.73943896484375,0.0008279965259134769,-0.009453960694372654,0.02041819877922535
1733359157186404000,11.749404052734375,0.003647023579105735,-0.01061851903796196,0.01939636841416359
1733359157196370200,11.7593701171875,0.0023524609860032797,-0.015902763232588768,0.017188606783747673
1733359157206335000,11.7693349609375,0.002403593622148037,-0.018597882241010666,0.01627887226641178
1733359157216301000,11.779301025390625,0.00005575078830588609,-0.017864715307950974,0.015471134334802628
1733359157226265900,11.789265869140625,0.0011186085175722837,-0.009758863598108292,0.012340603396296501
1733359157236232000,11.79923193359375,-0.000317900616209954,-0.002598157152533531,0.010763213038444519
1733359157246197000,11.809197021484374,-0.0004414859286043793,-0.0012193284928798676,0.010880682617425919
1733359157256163000,11.8191630859375,0.00006158518954180181,-0.0018454380333423615,0.012550750747323036
1733359157266128100,11.829128173828124,0.00037770747439935803,-0.008024097420275211,0.013620534911751747
1733359157276093000,11.839093017578126,0.0016626827418804169,-0.004797677509486675,0.012322243303060532
1733359157286059000,11.84905908203125,0.0007601348916068673,-0.00187026709318161,0.009996908716857433
1733359157296024000,11.859024169921875,0.004383631981909275,-0.0010380297899246216,0.005726263392716646
1733359157305990000,11.868989990234375,0.0052739093080163,-0.0050645554438233376,0.006105656735599041
