time,seconds_elapsed,z,y,x
1733697942883600000,0.027599853515625,-0.031182359904050827,0.05478280410170555,-0.02606985531747341
1733697942893554700,0.0375546875,-0.016780249774456024,0.0675920695066452,-0.018983183428645134
1733697942903508700,0.0475087890625,-0.018206411972641945,0.08028943836688995,-0.014834913425147533
1733697942913462500,0.057462646484375,-0.03755747526884079,0.08233154565095901,-0.019677072763442993
1733697942923416600,0.06741650390625,-0.05828242376446724,0.09486627578735352,-0.033638205379247665
1733697942933372000,0.077371826171875,-0.06887514889240265,0.11497501283884048,-0.047834716737270355
1733697942943325700,0.08732568359375,-0.0692778006196022,0.13938169181346893,-0.05882929265499115
1733697942953279700,0.09727978515625,-0.07471571117639542,0.17237985134124756,-0.07040338963270187
1733697942963234600,0.107234619140625,-0.08770275861024857,0.2081863135099411,-0.08273216336965561
1733697942973188600,0.117188720703125,-0.08843646198511124,0.23528824746608734,-0.0892379954457283
1733697942983143000,0.127142822265625,-0.08286444842815399,0.23087169229984283,-0.08352300524711609
1733697942993097700,0.13709765625,-0.06573206931352615,0.18893462419509888,-0.06474132835865021
1733697943003051800,0.1470517578125,-0.03818730637431145,0.1340712010860443,-0.03498394414782524
1733697943013005800,0.157005859375,0.0056690978817641735,0.08988215774297714,-0.013249620795249939
1733697943022960600,0.166960693359375,0.032498814165592194,0.11931298673152924,0.009303669445216656
1733697943032914700,0.176914794921875,0.03066469542682171,0.21408823132514954,0.024663982912898064
1733697943042868700,0.18686865234375,0.025301333516836166,0.3302580714225769,0.033986710011959076
1733697943052823800,0.19682373046875,0.059343189001083374,0.12535659968852997,0.0622393861413002
1733697943062777900,0.20677783203125,0.3792217969894409,-1.8139054775238037,0.1514827013015747
1733697943072731600,0.216731689453125,0.38153982162475586,-2.4944403171539307,0.1585131734609604
1733697943082686700,0.226686767578125,0.20867004990577698,-1.9900786876678467,0.18607240915298462
1733697943092640500,0.236640625,0.06877738982439041,-1.185726523399353,0.249853253364563
1733697943102594800,0.2465947265625,0.06714726984500885,-0.7081584334373474,0.2797638475894928
1733697943112548900,0.256548828125,0.15197214484214783,-0.7027143836021423,0.2204914540052414
1733697943122503700,0.266503662109375,0.21491484344005585,-0.9841532707214355,0.12484020739793777
1733697943132457700,0.276457763671875,0.191049724817276,-1.1916381120681763,0.02594718337059021
1733697943142411800,0.286411865234375,0.1071537584066391,-1.106317400932312,-0.03547487407922745
1733697943152366600,0.29636669921875,0.021566154435276985,-0.7917330861091614,-0.0509563609957695
1733697943162321000,0.30632080078125,-0.013783634640276432,-0.463619589805603,-0.02565036527812481
1733697943172275000,0.31627490234375,0.002937821438536048,-0.27003413438796997,0.004910207353532314
1733697943182229800,0.326229736328125,0.0392143689095974,-0.21870727837085724,0.027531584724783897
1733697943192183800,0.336183837890625,0.05189581215381622,-0.23436719179153442,0.024815693497657776
1733697943202137600,0.3461376953125,0.038546472787857056,-0.24426519870758057,0.001797395059838891
1733697943212092700,0.3560927734375,0.022184275090694427,-0.2165619283914566,-0.009028354659676552
1733697943222047000,0.366046875,0.017762109637260437,-0.1549583524465561,-0.010436613112688065
1733697943232000800,0.376000732421875,0.01476258970797062,-0.0917692705988884,-0.007612330839037895
1733697943241955800,0.385955810546875,0.01419375091791153,-0.03058365173637867,0.004347838461399078
1733697943251909600,0.39590966796875,-0.006552540231496096,-0.0004443936632014811,-0.005163908004760742
1733697943261863700,0.40586376953125,-0.024298470467329025,0.007677359506487846,-0.02753395214676857
1733697943271818800,0.41581884765625,-0.04081432893872261,0.060439106076955795,-0.009448690339922905
1733697943281772800,0.425772705078125,-0.059065110981464386,0.06979968398809433,-0.004135953262448311
1733697943291726800,0.435726806640625,-0.06595844030380249,0.04761422052979469,-0.011636479757726192
1733697943301681000,0.445680908203125,-0.05913000553846359,0.03562117740511894,-0.018378693610429764
1733697943311635700,0.4556357421875,-0.05026008188724518,0.045078594237565994,-0.01948603242635727
1733697943321589800,0.46558984375,-0.03643731027841568,0.060530439019203186,-0.01823137328028679
1733697943331543800,0.475543701171875,-0.02043117582798004,0.06234777718782425,-0.01907559484243393
1733697943341499000,0.485498779296875,-0.008393676951527596,0.04860334470868111,-0.017429741099476814
1733697943351453000,0.495452880859375,0.0037258362863212824,0.02935907617211342,-0.019676649942994118
1733697943361406700,0.50540673828125,0.005262778140604496,0.020507805049419403,-0.017196670174598694
1733697943371361800,0.51536181640625,0.005012707319110632,0.023218104615807533,-0.015108487568795681
1733697943381315600,0.525315673828125,0.001544388709589839,0.030004957690835,-0.013192808255553246
1733697943391269600,0.53526953125,-0.000445791520178318,0.03300713747739792,-0.015281525440514088
1733697943401225000,0.545224853515625,-0.003936924040317535,0.024630457162857056,-0.017195625230669975
1733697943411178800,0.5551787109375,0.0016764868050813675,0.015246275812387466,-0.01721932739019394
1733697943421132800,0.5651328125,0.004167908802628517,0.012362374924123287,-0.015477132052183151
1733697943431087600,0.575087646484375,0.00996001809835434,0.022908492013812065,-0.00230860011652112
1733697943441041700,0.585041748046875,0.011102629825472832,0.025650998577475548,0.006150021217763424
1733697943450995700,0.59499560546875,0.014089896343648434,0.011872068047523499,0.012571967206895351
1733697943460950800,0.60495068359375,0.01484815962612629,-0.015774156898260117,0.021715132519602776
1733697943470904800,0.61490478515625,0.01984558254480362,-0.03515051677823067,0.02306242473423481
1733697943480859000,0.62485888671875,0.021090678870677948,-0.04503769800066948,0.0279574915766716
1733697943490812700,0.634812744140625,0.021201465278863907,-0.0508204847574234,0.02891303412616253
1733697943500767700,0.644767822265625,0.02013060823082924,-0.053488463163375854,0.027825485914945602
1733697943510721800,0.6547216796875,0.013711058534681797,-0.048318203538656235,0.025024106726050377
1733697943520675600,0.664675537109375,0.0042785583063960075,-0.04169967398047447,0.015991754829883575
1733697943530631000,0.674630859375,-0.007746946066617966,-0.02893247827887535,0.008457671850919724
1733697943540584700,0.684584716796875,-0.0165464635938406,-0.018657652661204338,-0.0008882051333785057
1733697943550538800,0.694538818359375,-0.01932280883193016,-0.01283012330532074,-0.010011661797761917
1733697943560493800,0.704493896484375,-0.020144056528806686,-0.006691491696983576,-0.014659413136541843
1733697943570447600,0.714447509765625,-0.017412986606359482,-0.005042196251451969,-0.01665358804166317
1733697943580401700,0.724401611328125,-0.012570846825838089,-0.006301476154476404,-0.015339339151978493
1733697943590356700,0.734356689453125,-0.0075670331716537476,-0.009842947125434875,-0.009740308858454227
1733697943600310800,0.744310791015625,-0.0004833915736526251,-0.015353644266724586,-0.0059929294511675835
1733697943610264800,0.754264892578125,0.0029142694547772408,-0.01928606815636158,-0.006057644262909889
1733697943620219600,0.7642197265625,0.007615580689162016,-0.007161723915487528,-0.008544547483325005
1733697943630173700,0.774173583984375,-0.019645601511001587,-0.02875250205397606,-0.06600917875766754
1733697943640127700,0.784127685546875,-0.04612008482217789,0.07378825545310974,-0.10878752917051315
1733697943650082800,0.794082763671875,-0.0289261844009161,0.13472643494606018,-0.0676017478108406
1733697943660036900,0.804036865234375,0.0014157420955598354,0.0957992821931839,0.0065952567383646965
1733697943669990700,0.81399072265625,0.0016929099801927805,-0.0016192258335649967,0.08643291890621185
1733697943679944700,0.82394482421875,-0.028022274374961853,-0.12736347317695618,0.09054390341043472
1733697943689899800,0.833899658203125,-0.02668936178088188,-0.1475374400615692,0.031039301306009293
1733697943699853600,0.843853515625,-0.006322622299194336,-0.05878593400120735,-0.02291170507669449
1733697943709807600,0.8538076171875,0.006784125231206417,0.05463596433401108,-0.04706018418073654
1733697943719762700,0.8637626953125,0.019786743447184563,0.11488652229309082,-0.043890222907066345
1733697943729716700,0.873716796875,0.01915997825562954,0.08948493003845215,-0.02717888541519642
1733697943739670800,0.8836708984375,0.007746091578155756,0.021252745762467384,-0.00807527732104063
1733697943749625600,0.89362548828125,-0.006789707578718662,-0.02541062980890274,0.009025678038597107
1733697943759579600,0.90357958984375,-0.015535794198513031,-0.02680213190615177,0.019780587404966354
1733697943769533700,0.91353369140625,-0.017066046595573425,-0.0030853510834276676,0.024546580389142036
1733697943779488800,0.92348876953125,-0.011223837733268738,0.019464736804366112,0.016468636691570282
1733697943789442800,0.93344287109375,-0.00442292308434844,0.02913094498217106,0.0003820788115262985
1733697943799396900,0.94339697265625,0.0002490112092345953,0.03239021077752113,-0.01240027230232954
1733697943809351700,0.9533515625,-0.001700688968412578,0.029867667704820633,-0.01718304306268692
1733697943819305700,0.9633056640625,-0.0054515330120921135,0.024617334827780724,-0.01077731978148222
1733697943829259500,0.973259521484375,-0.01024122815579176,0.018613504245877266,-0.00013985531404614449
1733697943839214800,0.98321484375,-0.01448883954435587,0.00988005567342043,0.01047861110419035
1733697943849169000,0.9931689453125,-0.014775928109884262,-0.00017311127157881856,0.016967136412858963
1733697943859122700,1.003122802734375,-0.012669716030359268,-0.007950552739202976,0.013177525252103806
1733697943869076700,1.01307666015625,-0.003018421120941639,-0.01242093462496996,0.006173411384224892
1733697943879031600,1.023031494140625,0.002505140844732523,-0.01206924021244049,-0.0015932992100715637
1733697943888985600,1.032985595703125,0.004846059251576662,-0.0065596927888691425,-0.007249853573739529
1733697943898940000,1.04293994140625,0.006779232993721962,-0.004411193076521158,-0.007743092253804207
1733697943908894700,1.052894775390625,0.0036550783552229404,-0.0048311734572052956,-0.0056589022278785706
1733697943918848800,1.062848876953125,-0.0030080515425652266,-0.002816408174112439,-0.0015022859442979097
1733697943928802800,1.072802734375,-0.006060566753149033,0.00028244603890925646,0.0005792407318949699
1733697943938757400,1.08275732421875,-0.00907018594443798,0.006363912019878626,0.0018791508628055453
1733697943948711400,1.09271142578125,-0.009498422034084797,0.015545958653092384,0.0022549228742718697
1733697943958665700,1.102665771484375,-0.00730143254622817,0.023836689069867134,0.0017643931787461042
1733697943968620500,1.11262060546875,-0.004734678193926811,0.023957064375281334,0.001254930393770337
1733697943978574600,1.12257470703125,-0.0022376826964318752,0.02097339741885662,0.0011063473066315055
1733697943988528400,1.1325283203125,0.00102069485001266,0.016962943598628044,0.00390426442027092
1733697943998483500,1.1424833984375,0.001337884459644556,0.015405233018100262,0.007147015072405338
1733697944008437500,1.1524375,0.0034436460118740797,0.01524384506046772,0.010826172307133675
1733697944018391600,1.1623916015625,0.0011513729114085436,0.018003495410084724,0.013209682889282703
1733697944028346600,1.1723466796875,0.00035455520264804363,0.020665589720010757,0.011479959823191166
1733697944038300400,1.182300537109375,-0.0013315535616129637,0.01786309853196144,0.008128372952342033
1733697944048254500,1.19225439453125,-0.0023699200246483088,0.020120926201343536,0.001101355766877532
1733697944058209500,1.20220947265625,-0.005872414447367191,0.026887571439146996,-0.0028534838929772377
1733697944068163300,1.212163330078125,-0.007649275474250317,0.03388901799917221,-0.00568335922434926
1733697944078117600,1.22211767578125,-0.009149563498795033,0.0369533970952034,-0.007888101041316986
1733697944088071700,1.23207177734375,-0.012197552248835564,0.0400296151638031,-0.006502723786979914
1733697944098026500,1.242026611328125,-0.01228256057947874,0.03814709559082985,-0.006200611591339111
1733697944107980500,1.25198046875,-0.010058288462460041,0.03472413495182991,-0.0036991045344620943
1733697944117934600,1.2619345703125,-0.007117189466953278,0.03506280481815338,-0.0055246553383767605
1733697944127889400,1.271889404296875,-0.008056753315031528,0.03988312557339668,-0.004480164032429457
1733697944137843700,1.28184375,-0.009399538859724998,0.03826376050710678,-0.00027763028629124165
1733697944147797500,1.291797607421875,-0.0053557949140667915,0.028953347355127335,0.005347765050828457
1733697944157752600,1.301752685546875,-0.001354837790131569,0.010092493146657944,0.006905999034643173
1733697944167706400,1.311706298828125,0.00483488105237484,-0.00972994789481163,0.006750737316906452
1733697944177660400,1.321660400390625,0.012455412186682224,-0.11568227410316467,0.010225589387118816
1733697944187615500,1.331615478515625,0.01932290568947792,-0.0846220925450325,0.006835917942225933
1733697944197569500,1.341569580078125,-0.007145626470446587,0.058512132614851,0.026596684008836746
1733697944207523600,1.351523681640625,0.009525496512651443,0.06020137667655945,0.050176579505205154
1733697944217478400,1.361478515625,0.018785571679472923,-0.04206693917512894,0.05702649801969528
1733697944227432400,1.371432373046875,0.005979384295642376,-0.10523725301027298,0.02824726700782776
1733697944237386500,1.381386474609375,-0.002805202268064022,-0.08397725224494934,-0.0067305369302630424
1733697944247341300,1.39134130859375,-0.012298040091991425,-0.005929855164140463,-0.026707706972956657
1733697944257295600,1.401295654296875,-0.01217997819185257,0.06536611169576645,-0.028598884120583534
1733697944267249700,1.411249755859375,-0.008168192580342293,0.08058181405067444,-0.022399045526981354
1733697944277203500,1.421203369140625,-0.006221155636012554,0.039829056710004807,-0.014591988176107407
1733697944287158500,1.431158447265625,-0.004761493764817715,-0.00549142574891448,-0.009560500271618366
1733697944297112600,1.441112548828125,-0.004571493715047836,-0.023639822378754616,-0.004297671839594841
1733697944307066400,1.45106640625,-0.00017035403288900852,-0.01831456460058689,0.0010563470423221588
1733697944317021700,1.461021728515625,0.0019623730331659317,-0.00912498775869608,0.00462036719545722
1733697944326975500,1.4709755859375,0.007384303025901318,-0.00894815381616354,0.004325821530073881
1733697944336929500,1.480929443359375,0.008873725309967995,-0.010509003885090351,-0.0021827903110533953
1733697944346884600,1.490884521484375,0.005624135956168175,-0.007690846920013428,-0.008485428057610989
1733697944356838400,1.50083837890625,0.0010446966625750065,0.0009864108869805932,-0.008299182169139385
1733697944366792400,1.51079248046875,-0.004999880213290453,0.011718150228261948,-0.005509254522621632
1733697944376747500,1.52074755859375,-0.01030745916068554,0.0181945338845253,-0.004370885901153088
1733697944386701600,1.53070166015625,-0.014652139507234097,0.020741581916809082,0.00012719305232167244
1733697944396655600,1.540655517578125,-0.013396227732300758,0.02010664902627468,-0.0003151141572743654
1733697944406610400,1.5506103515625,-0.012879308313131332,0.015981411561369896,-0.0014189942739903927
1733697944416564500,1.560564453125,-0.007025563158094883,0.004298638552427292,-0.0012915399856865406
1733697944426518500,1.5705185546875,0.00016710232011973858,-0.00177443353459239,-0.000634804368019104
1733697944436473600,1.5804736328125,0.009480061009526253,-0.010676564648747444,-0.002252829959616065
1733697944446427600,1.590427734375,0.012191956862807274,-0.013404706493020058,-0.002825143514201045
1733697944456381400,1.60038134765625,0.012180288322269917,-0.014687907882034779,-0.004631321877241135
1733697944466335500,1.61033544921875,0.007622553966939449,-0.013903340324759483,-0.0022240905091166496
1733697944476290600,1.62029052734375,0.003936608321964741,-0.008736688643693924,0.0022978668566793203
1733697944486244400,1.630244384765625,-0.0002900949912145734,-0.005900688469409943,0.003145817434415221
1733697944496198400,1.640198486328125,-0.0014157306868582964,-0.00016027357196435332,0.0036029284819960594
1733697944506153500,1.650153564453125,0.0006937591824680567,-0.00028357800329104066,0.0036122496239840984
1733697944516107500,1.660107421875,-0.0003126829396933317,-0.0017134654335677624,0.0019355675904080272
1733697944526061600,1.6700615234375,0.00011768401600420475,-0.0027259993366897106,0.002411208115518093
1733697944536016400,1.680016357421875,-0.0014729863032698631,-0.004055173136293888,0.0047183469869196415
1733697944545970400,1.689970458984375,0.000036759767681360245,-0.0020207844208925962,0.0027012687642127275
1733697944555924500,1.699924560546875,0.0011097793467342854,0.0021010267082601786,0.001245540683157742
1733697944565879600,1.709879638671875,-0.0000774578657001257,0.0031154248863458633,-0.0003579487092792988
1733697944575833600,1.71983349609375,0.0014992363285273314,0.0045595248229801655,-0.004697255790233612
1733697944585787600,1.72978759765625,0.0001825694926083088,0.0025469742249697447,-0.005222697742283344
1733697944595742500,1.739742431640625,-0.004155075177550316,0.0025714330840855837,-0.00429301243275404
1733697944605696500,1.749696533203125,-0.0038797040469944477,0.0008233340922743082,-0.004177697468549013
1733697944615650300,1.759650390625,-0.005036612041294575,-0.0008281039190478623,-0.0013681051786988974
1733697944625605600,1.769605712890625,-0.002093286719173193,-0.0018464967142790556,-0.000016817357391119003
1733697944635559700,1.7795595703125,-0.0009352294728159904,-0.002758672693744302,-0.0007300360593944788
1733697944645513500,1.789513427734375,0.0005492165219038725,-0.002503808354958892,-0.0003665147814899683
1733697944655467500,1.799467529296875,-0.0005810937145724893,-0.0034588915295898914,-0.004163561388850212
1733697944665422300,1.80942236328125,0.0019965798128396273,-0.0030833855271339417,-0.0035912482999265194
1733697944675376400,1.81937646484375,0.005309216678142548,-0.00762891536578536,-0.0017573938239365816
1733697944685330400,1.829330322265625,-0.000852273078635335,-0.003220584709197283,-0.0033030922058969736
1733697944695285500,1.839285400390625,0.0006331389304250479,0.00207420252263546,0.0008704796200618148
1733697944705239600,1.849239501953125,-0.00007046828977763653,0.001776993740350008,0.0006462414748966694
1733697944715193600,1.859193603515625,0.001772039569914341,-0.0033140252344310284,0.001661262009292841
1733697944725148400,1.8691484375,0.004251708742231131,-0.0056887660175561905,0.0026029557920992374
1733697944735102500,1.8791025390625,0.0026927946601063013,-0.0027496181428432465,0.002515025669708848
1733697944745056500,1.889056396484375,0.0013058206532150507,0.00007013691356405616,0.003133944235742092
1733697944755011600,1.899011474609375,0.00034538423642516136,-0.0007264979067258537,0.0036381264217197895
1733697944764965600,1.908965576171875,-0.0004969736328348517,-0.0019140015356242657,0.0014663184992969036
1733697944774919400,1.91891943359375,-0.003878738032653928,-0.0036266259849071503,-0.002249523065984249
1733697944784874500,1.92887451171875,-0.00540126720443368,-0.0009424258605577052,-0.0040484885685145855
1733697944794828300,1.938828369140625,-0.0069996812380850315,0.0031283549033105373,-0.004340083338320255
1733697944804782300,1.9487822265625,-0.006789557635784149,0.004406405612826347,-0.006003493443131447
1733697944814737700,1.958737548828125,-0.004487937316298485,0.005297747440636158,-0.005960728041827679
1733697944824691500,1.96869140625,-0.0006913349498063326,0.001052402425557375,-0.0026488208677619696
1733697944834645500,1.9786455078125,0.0025863670744001865,-0.000939889985602349,-0.0021309913136065006
1733697944844600300,1.988600341796875,0.004206368234008551,0.0018545647617429495,-0.00009553716517984867
1733697944854554400,1.998554443359375,0.0032927379943430424,0.006663277745246887,0.0013799879234284163
1733697944864508400,2.00850830078125,0.006814236287027597,0.0016916885506361723,0.004149142652750015
1733697944874463500,2.01846337890625,0.009985445998609066,-0.005933686159551144,0.00831545889377594
1733697944884417500,2.02841748046875,0.014340246096253395,-0.01725957728922367,0.01026888843625784
1733697944894371600,2.03837158203125,0.018613215535879135,-0.027763351798057556,0.012934951111674309
1733697944904325400,2.048325439453125,0.021542692556977272,-0.035101160407066345,0.0153480414301157
1733697944914280400,2.058280517578125,0.020480632781982422,-0.039015304297208786,0.014355950057506561
1733697944924234500,2.068234375,0.014896515756845474,-0.03903980553150177,0.014905359596014023
1733697944934189600,2.078189453125,0.00865999050438404,-0.03273496404290199,0.015139629133045673
1733697944944144400,2.088144287109375,-0.0004802446346729994,-0.02350977621972561,0.00961410254240036
1733697944954098400,2.098098388671875,-0.007911846973001957,-0.007823665626347065,0.009645817801356316
1733697944964052500,2.108052490234375,-0.012118842452764511,0.006026369985193014,0.008155512623488903
1733697944974007600,2.118007568359375,-0.014505446888506413,0.007029322907328606,-0.002486411016434431
1733697944983961600,2.127961669921875,-0.01328412164002657,0.007044236641377211,-0.011721454560756683
1733697944993915600,2.13791552734375,-0.008963661268353462,0.005684299860149622,-0.016794754192233086
1733697945003870500,2.147870361328125,-0.0033361362293362617,0.0005401377566158772,-0.015768637880682945
1733697945013824500,2.157824462890625,0.002508504083380103,-0.005407718941569328,-0.012303069233894348
1733697945023778600,2.167778564453125,0.012996298260986805,-0.01709899678826332,-0.005691771395504475
1733697945033733600,2.177733642578125,0.019440999254584312,-0.028131691738963127,-0.0009011221118271351
1733697945043687700,2.187687744140625,0.02087218128144741,-0.03387293219566345,0.0023524616844952106
1733697945053641500,2.197641357421875,0.016166655346751213,-0.03873483091592789,0.00025344383902847767
1733697945063596500,2.207596435546875,0.014230270870029926,-0.04355302080512047,0.002122450154274702
1733697945073550300,2.21755029296875,0.008514064364135265,-0.03662967309355736,-0.00040211109444499016
1733697945083504400,2.22750439453125,0.00661709439009428,-0.026032157242298126,-0.0018242390360683203
1733697945093458400,2.23745849609375,0.003982230555266142,-0.014492607675492764,-0.0009116621222347021
1733697945103413500,2.24741357421875,-0.0013507496332749724,-0.006241868250072002,0.0005719849141314626
1733697945113367600,2.257367431640625,-0.0026042324025183916,0.0005239396123215556,0.0010691954521462321
1733697945123321600,2.267321533203125,-0.0024345892015844584,0.0001670760102570057,0.0009259174112230539
1733697945133276400,2.2772763671875,-0.0036324968095868826,-0.005014241673052311,0.0007839498575776815
1733697945143230500,2.28723046875,-0.0013211392797529697,-0.009517913684248924,0.003236454911530018
1733697945153184500,2.2971845703125,0.006110178306698799,-0.01771109364926815,0.001083777635358274
1733697945163139600,2.3071396484375,0.013296985067427158,-0.02530083619058132,0.00008669006638228893
1733697945173093600,2.31709375,0.017125334590673447,-0.027486559003591537,-0.0003954516723752022
1733697945183047400,2.32704736328125,0.020011667162179947,-0.02575523778796196,0.0017270876560360193
1733697945193002500,2.33700244140625,0.01643890142440796,-0.02474074438214302,0.0059838807210326195
1733697945202956500,2.34695654296875,0.014103843830525875,-0.025603076443076134,0.00939086265861988
1733697945212910300,2.356910400390625,0.009057153016328812,-0.02292580157518387,0.00806354358792305
1733697945222865700,2.36686572265625,0.008143688552081585,-0.019423477351665497,0.010963459499180317
1733697945232819500,2.3768193359375,0.005697639659047127,-0.019829802215099335,0.007328689098358154
1733697945242773500,2.3867734375,0.004440360702574253,-0.023663688451051712,0.0072386739775538445
1733697945252728600,2.396728515625,0.004184367135167122,-0.02371063455939293,0.003336698981001973
1733697945262682400,2.406682373046875,0.004128173924982548,-0.023487195372581482,0.004345770925283432
1733697945272636400,2.416636474609375,0.004899723455309868,-0.02145969308912754,0.0026215959805995226
1733697945282591500,2.426591552734375,0.004987075924873352,-0.016507545486092567,0.004140929318964481
1733697945292545500,2.436545654296875,0.003278639167547226,-0.012147821485996246,0.0017336769960820675
1733697945302499600,2.44649951171875,-0.0006428654305636883,-0.008569331839680672,-0.00015929783694446087
1733697945312453600,2.45645361328125,-0.0027582126203924417,-0.007534092292189598,-0.0020385398529469967
1733697945322408400,2.466408447265625,-0.004095385782420635,-0.005823543760925531,-0.0052745467983186245
1733697945332362500,2.476362548828125,-0.003291844855993986,-0.0034666424617171288,-0.004852941259741783
1733697945342316300,2.48631640625,-0.0035589600447565317,-0.0023241464514285326,-0.0036196312867105007
1733697945352271600,2.496271728515625,-0.001170200644992292,-0.0016307446639984846,-0.0029175765812397003
1733697945362225400,2.506225341796875,0.000013574492186307907,-0.0065373522229492664,-0.001684532966464758
1733697945372179500,2.516179443359375,0.002806532196700573,-0.008249174803495407,-0.001420839224010706
1733697945382134500,2.526134521484375,0.002806265838444233,-0.016487397253513336,0.0008604244794696569
1733697945392088300,2.53608837890625,0.004780936054885387,-0.022394629195332527,0.0008626431226730347
1733697945402042400,2.54604248046875,0.005751126445829868,-0.027981940656900406,-0.00018371292389929295
1733697945411997400,2.55599755859375,0.00838523544371128,-0.03128090873360634,0.006101239938288927
1733697945421951500,2.565951416015625,0.009861158207058907,-0.03062284179031849,0.007170499302446842
1733697945431905500,2.575905517578125,0.007421270478516817,-0.028803285211324692,0.006654599215835333
1733697945441860400,2.5858603515625,0.006648953538388014,-0.025798175483942032,0.006467645522207022
1733697945451814400,2.595814453125,0.0055773635394871235,-0.02326170727610588,0.004798553884029388
1733697945461768400,2.6057685546875,-0.0003763994900509715,-0.02210589498281479,0.00032364437356591225
1733697945471723500,2.6157236328125,-0.0037663616240024567,-0.026039715856313705,-0.004749014973640442
1733697945481677600,2.625677490234375,0.0013676804956048727,-0.026083923876285553,-0.0038360832259058952
1733697945491631600,2.635631591796875,0.003187592374160886,-0.022418798878788948,-0.004718140698969364
1733697945501586400,2.64558642578125,0.0030096929986029863,-0.018798230215907097,-0.00612242566421628
1733697945511540500,2.65554052734375,-0.0014368032570928335,-0.021483441814780235,-0.0073838988319039345
1733697945521494300,2.665494384765625,0.0002071661874651909,-0.022561490535736084,-0.0062829479575157166
1733697945531449600,2.67544970703125,0.002486984943971038,-0.029149891808629036,-0.0037833736278116703
1733697945541403600,2.685403564453125,0.0074425945058465,-0.0315435416996479,-0.0014395255129784346
1733697945551357400,2.695357421875,0.008825510740280151,-0.02485695108771324,0.0002953456714749336
1733697945561311500,2.7053115234375,0.011205045506358147,-0.010033795610070229,0.004592356272041798
1733697945571266300,2.715266357421875,0.009311464615166187,0.00048511262866668403,0.008539428934454918
1733697945581220400,2.725220458984375,0.008829965256154537,-0.005152799189090729,0.011561851017177105
1733697945591174700,2.735174560546875,0.010289951227605343,-0.019265947863459587,0.011538723483681679
1733697945601129500,2.74512939453125,0.01020739320665598,-0.031242448836565018,0.01298561878502369
1733697945611083500,2.75508349609375,0.010448121465742588,-0.03555264323949814,0.016152895987033844
1733697945621037600,2.76503759765625,0.010203910060226917,-0.039989203214645386,0.018874913454055786
1733697945630992400,2.774992431640625,0.01001932006329298,-0.04184120520949364,0.016947893425822258
1733697945640946400,2.784946533203125,0.0028189318254590034,-0.03927285224199295,0.015899406746029854
1733697945650900500,2.794900390625,-0.008993455208837986,-0.043203867971897125,0.0049614496529102325
1733697945660855600,2.80485546875,-0.0065577272325754166,-0.033093445003032684,0.00012142048217356205
1733697945670809600,2.8148095703125,-0.004695747047662735,-0.021998265758156776,-0.0033851179759949446
1733697945680763400,2.824763427734375,-0.004023831337690353,-0.008500568568706512,-0.007706096395850182
1733697945690718500,2.834718505859375,-0.0057800523936748505,-0.004087590146809816,-0.013229582458734512
1733697945700672500,2.844672607421875,-0.010041642934083939,-0.0037496350705623627,-0.014427471905946732
1733697945710626600,2.85462646484375,-0.005675473716109991,-0.008631420321762562,-0.01241565402597189
1733697945720581600,2.86458154296875,-0.00006978586316108704,-0.007754707243293524,-0.007649394683539867
1733697945730535400,2.874535400390625,0.0015664291568100452,-0.006259354762732983,-0.0019854260608553886
1733697945740489500,2.884489501953125,0.003636770648881793,-0.00852996576577425,-0.004836073610931635
1733697945750444300,2.8944443359375,0.003585623810067773,-0.010451894253492355,-0.004527527838945389
1733697945760398300,2.9043984375,0.0016167489811778069,-0.014526797458529472,-0.00503086531534791
1733697945770352600,2.9143525390625,-0.0010483782971277833,-0.010694298893213272,-0.005557146389037371
1733697945780306700,2.924306640625,-0.005371221341192722,-0.006295821629464626,-0.005556880030781031
1733697945790261500,2.934261474609375,-0.008733578957617283,-0.0009024963364936411,-0.006577789783477783
1733697945800215600,2.944215576171875,-0.012855885550379753,0.00325123593211174,-0.007234259508550167
1733697945810169300,2.95416943359375,-0.016567420214414597,0.0067025101743638515,-0.00893128477036953
1733697945820124400,2.96412451171875,-0.01569044031202793,0.013293568044900894,-0.011948113329708576
1733697945830078700,2.97407861328125,-0.01725243404507637,0.013607112690806389,-0.009569887071847916
1733697945840032500,2.984032470703125,-0.013473676517605782,0.010972181335091591,-0.008100088685750961
1733697945849987600,2.993987548828125,-0.0069321151822805405,0.008271211758255959,-0.0068968310952186584
1733697945859941400,3.00394140625,-0.00200899550691247,0.0016095812898129225,-0.006237432360649109
1733697945869895400,3.0138955078125,0.0007776359561830759,-0.004421427380293608,-0.0053384192287921906
1733697945879850500,3.0238505859375,0.004075694363564253,-0.006723197177052498,-0.005035084672272205
1733697945889804500,3.033804443359375,0.005624753423035145,-0.0023986685555428267,-0.0038747640792280436
1733697945899758600,3.043758544921875,0.0023125801235437393,0.0033255298621952534,-0.0008504781872034073
1733697945909713400,3.05371337890625,-0.0019537718035280704,0.010340332984924316,0.00218414980918169
1733697945919667500,3.06366748046875,-0.007165578193962574,0.011484692804515362,0.0017852084711194038
1733697945929621500,3.07362158203125,-0.009694699198007584,0.01008117850869894,0.0005171237280592322
1733697945939576300,3.083576416015625,-0.010258756577968597,0.01014003437012434,0.00014161807484924793
1733697945949530400,3.0935302734375,-0.012242309749126434,0.011502443812787533,-0.0026069001760333776
1733697945959484400,3.103484375,-0.010975710116326809,0.014965352602303028,0.00013748742640018463
1733697945969439500,3.113439453125,-0.01202759426087141,0.018907969817519188,0.0003059774171561003
1733697945979393500,3.1233935546875,-0.012477668933570385,0.019613174721598625,-0.0025164405815303326
1733697945989347600,3.13334765625,-0.01337648555636406,0.021065423265099525,-0.005101923830807209
1733697945999302400,3.143302490234375,-0.01572566106915474,0.018512248992919922,-0.00791235826909542
1733697946009256400,3.15325634765625,-0.01382436417043209,0.01838633045554161,-0.010702286846935749
1733697946019210200,3.163210205078125,-0.01231515035033226,0.015446733683347702,-0.008894000202417374
1733697946029164300,3.173164306640625,-0.011511159129440784,0.014407961629331112,-0.009897234849631786
1733697946039119400,3.183119384765625,-0.00919287744909525,0.013867872767150402,-0.0070380643010139465
1733697946049073400,3.193073486328125,-0.008221711963415146,0.0119720958173275,-0.0056524695828557014
1733697946059027500,3.20302734375,-0.008376441895961761,0.009478844702243805,-0.005625838413834572
1733697946068982300,3.212982177734375,-0.008236785419285297,0.011063436977565289,-0.005765585228800774
1733697946078936300,3.222936279296875,-0.005744599271565676,0.011152386665344238,-0.005377030000090599
1733697946088890400,3.232890380859375,-0.0064211259596049786,0.011453112587332726,-0.003616347210481763
1733697946098845400,3.242845458984375,-0.005917788483202457,0.008504193276166916,-0.0023803741205483675
1733697946108799500,3.252799560546875,-0.003919046372175217,0.006224003154784441,-0.0016982965171337128
1733697946118753500,3.26275341796875,-0.0020801338832825422,0.007034669630229473,0.000659133424051106
1733697946128708400,3.272708251953125,-0.0025641475804150105,0.010871503502130508,0.00026349909603595734
1733697946138662400,3.282662353515625,-0.005231835879385471,0.013033191673457623,0.0005647025536745787
1733697946148616200,3.2926162109375,-0.006715055089443922,0.014108761213719845,-0.000687469495460391
1733697946158571500,3.302571533203125,-0.00864531472325325,0.014396648854017258,-0.0023048073053359985
1733697946168525600,3.312525634765625,-0.010822194628417492,0.017092933878302574,-0.006731981411576271
1733697946178479400,3.322479248046875,-0.012262165546417236,0.019751567393541336,-0.007919751107692719
1733697946188434400,3.332434326171875,-0.012085245922207832,0.023619752377271652,-0.006902757100760937
1733697946198388200,3.34238818359375,-0.011956881731748581,0.025244014337658882,-0.005525636486709118
1733697946208342300,3.35234228515625,-0.010598493739962578,0.02448456361889839,-0.005877992138266563
1733697946218297600,3.362297607421875,-0.010196888819336891,0.020361723378300667,-0.0049751801416277885
1733697946228251400,3.37225146484375,-0.007527585607022047,0.020087292417883873,-0.003747175447642803
1733697946238205400,3.382205322265625,-0.006846082862466574,0.0258953794836998,-0.0023167915642261505
1733697946248160300,3.39216015625,-0.0047963811084628105,0.03384905681014061,-0.0007297240663319826
1733697946258114300,3.4021142578125,-0.004072001203894615,0.037551384419202805,0.0024748577270656824
1733697946268068400,3.412068359375,-0.0044121029786765575,0.02603304572403431,0.0042033144272863865
1733697946278023400,3.4220234375,0.002378425095230341,0.009936900809407234,0.0060781799256801605
1733697946287977500,3.4319775390625,0.009382432326674461,-0.006102797109633684,0.011535193771123886
1733697946297931500,3.441931640625,0.011398178525269032,-0.01606035605072975,0.015738727524876595
1733697946307885300,3.45188525390625,0.012966248206794262,-0.023465808480978012,0.01697150431573391
1733697946317840400,3.46184033203125,0.01358862780034542,-0.02518833987414837,0.015742989256978035
1733697946327794400,3.47179443359375,0.010889172554016113,-0.021134521812200546,0.016208777204155922
1733697946337748200,3.481748291015625,0.0026038128416985273,-0.008970798924565315,0.012937616556882858
1733697946347703600,3.49170361328125,-0.006137224845588207,0.0048196809366345406,0.006892039906233549
1733697946357657300,3.5016572265625,-0.013203123584389687,0.019573859870433807,-0.00248894514515996
1733697946367611400,3.511611328125,-0.020595548674464226,0.02941356971859932,-0.009386287070810795
1733697946377566500,3.52156640625,-0.01942056231200695,0.032592322677373886,-0.016455113887786865
1733697946387520300,3.531520263671875,-0.0165969617664814,0.03556039556860924,-0.016833927482366562
1733697946397474300,3.541474365234375,-0.010903921909630299,0.03514547646045685,-0.011753948405385017
1733697946407429400,3.551429443359375,-0.003868602681905031,0.03720510005950928,-0.006104693748056889
1733697946417383400,3.561383544921875,-0.0008429852314293385,0.03216772899031639,-0.0029677562415599823
1733697946427337500,3.57133740234375,0.00014320132322609425,0.02035728096961975,-0.0003791425842791796
1733697946437292300,3.581292236328125,0.002412747358903289,0.011770716868340969,0.0013772121164947748
1733697946447246300,3.591246337890625,0.0028448288794606924,0.00556313619017601,-0.001602443866431713
1733697946457200400,3.601200439453125,0.0011968647595494986,0.007881151512265205,0.0021696574985980988
1733697946467155500,3.611155517578125,0.0019787009805440903,0.012800762429833412,0.005866659805178642
1733697946477109500,3.621109619140625,-0.0004777988651767373,0.016679922118782997,0.005122305825352669
1733697946487063300,3.631063232421875,-0.0019008171511813998,0.01949208229780197,0.005328652914613485
1733697946497018400,3.641018310546875,-0.00501911249011755,0.024516934528946877,0.005766210146248341
1733697946506972400,3.650972412109375,-0.006859065964818001,0.03366629034280777,0.006460632663220167
1733697946516926200,3.66092626953125,-0.007568265777081251,0.03769458830356598,0.006253438536077738
1733697946526881500,3.670881591796875,-0.007263476029038429,0.03410326689481735,0.006230777129530907
1733697946536835300,3.68083544921875,-0.00708477757871151,0.025887416675686836,0.010917408391833305
1733697946546789400,3.690789306640625,-0.007020094431936741,0.011539332568645477,0.005849190056324005
1733697946556743400,3.700743408203125,-0.0013544855173677206,-0.0031037929002195597,0.0011460474925115705
1733697946566698200,3.7106982421875,0.005762238055467606,-0.011798754334449768,-0.00137947010807693
1733697946576652300,3.72065234375,0.011466728523373604,-0.014640879817306995,-0.0007352514658123255
1733697946586606600,3.730606689453125,0.01245206594467163,-0.013114393688738346,0.0022651099134236574
1733697946596561400,3.7405615234375,0.011800922453403473,-0.007386199664324522,0.00628941273316741
1733697946606515500,3.750515380859375,0.006498874165117741,-0.0062790196388959885,0.007054910995066166
1733697946616469500,3.760469482421875,0.0026436822954565287,-0.007377307862043381,0.0014247223734855652
1733697946626424300,3.77042431640625,-0.0002517967950552702,-0.00353411165997386,0.00044060125946998596
1733697946636378400,3.78037841796875,-0.002857699990272522,-0.0030669933184981346,-0.001993528101593256
1733697946646332400,3.79033251953125,-0.0026049569714814425,-0.0005918805836699903,-0.006531468592584133
1733697946656287500,3.80028759765625,0.002744002267718315,0.0032800892367959023,-0.013089502230286598
1733697946666241300,3.8102412109375,0.01180369220674038,0.01309172622859478,-0.020717749372124672
1733697946676195300,3.8201953125,0.022844891995191574,0.02199760265648365,-0.027428649365901947
1733697946686150400,3.830150390625,0.030638940632343292,0.033496540039777756,-0.02669132873415947
1733697946696104200,3.840104248046875,0.03452129662036896,0.03465741127729416,-0.026321683079004288
1733697946706058500,3.85005859375,0.0388617068529129,0.024119164794683456,-0.029587358236312866
1733697946716013300,3.860013427734375,0.04792178049683571,-0.01061111781746149,-0.06505400687456131
1733697946725967400,3.86996728515625,0.062303293496370316,-0.130647212266922,-0.14454229176044464
1733697946735921400,3.87992138671875,0.06501173228025436,-0.32214874029159546,-0.1990276426076889
1733697946745876200,3.889876220703125,0.07254082709550858,-0.41430792212486267,-0.14617232978343964
1733697946755830300,3.899830322265625,0.1126890480518341,-0.39511772990226746,-0.059492554515600204
1733697946765784600,3.90978466796875,0.14142167568206787,-0.34675145149230957,-0.003987925127148628
1733697946775739400,3.919739501953125,0.13385403156280518,-0.3525097370147705,-0.003951173275709152
1733697946785693400,3.929693359375,0.10021846741437912,-0.45039230585098267,-0.06841820478439331
1733697946795647500,3.9396474609375,0.07053513824939728,-0.5711813569068909,-0.1628086268901825
1733697946805602300,3.949602294921875,0.06798575818538666,-0.6387825608253479,-0.23865406215190887
1733697946815556600,3.959556640625,0.09524454176425934,-0.6240092515945435,-0.2767476439476013
1733697946825510400,3.969510498046875,0.13791429996490479,-0.5557699203491211,-0.2916378080844879
1733697946835464400,3.97946435546875,0.19397330284118652,-0.49020448327064514,-0.3087960183620453
1733697946845419500,3.98941943359375,0.2430492341518402,-0.4549984037876129,-0.3401190936565399
1733697946855373300,3.999373291015625,0.3019047975540161,-0.4339490532875061,-0.3727252185344696
1733697946865327400,4.009327392578125,0.3798545300960541,-0.41282403469085693,-0.40161681175231934
1733697946875282400,4.019282470703125,0.4829641282558441,-0.3749868869781494,-0.4069037139415741
1733697946885236500,4.029236572265625,0.5912600755691528,-0.3138330578804016,-0.40456104278564453
1733697946895190500,4.0391904296875,0.6672754883766174,-0.2477720081806183,-0.4048609137535095
1733697946905145300,4.049145263671875,0.7093976736068726,-0.19172801077365875,-0.4144805073738098
1733697946915099400,4.059099365234375,0.7192828059196472,-0.15401124954223633,-0.4526561200618744
1733697946925053400,4.069053466796875,0.7001275420188904,-0.1323583722114563,-0.516530454158783
1733697946935008300,4.07900830078125,0.6506561040878296,-0.11747636646032333,-0.5749303698539734
1733697946944962300,4.08896240234375,0.5752776265144348,-0.12188643962144852,-0.6165328025817871
1733697946954916400,4.098916259765625,0.5010348558425903,-0.167527437210083,-0.6354673504829407
1733697946964871400,4.108871337890625,0.4481017291545868,-0.261062353849411,-0.648729681968689
1733697946974825500,4.118825439453125,0.4229670763015747,-0.3399505317211151,-0.6344889402389526
1733697946984779300,4.128779296875,0.40931519865989685,-0.40261098742485046,-0.6056357026100159
1733697946994734300,4.138734375,0.38049232959747314,-0.5036987066268921,-0.5786243677139282
1733697947004688400,4.1486884765625,0.36416757106781006,-0.5520939230918884,-0.5301331281661987
1733697947014642400,4.158642333984375,0.36817696690559387,-0.5599222779273987,-0.47453293204307556
1733697947024597500,4.168597412109375,0.3850574195384979,-0.513926088809967,-0.4482358694076538
1733697947034551300,4.17855126953125,0.404772013425827,-0.40715837478637695,-0.46227043867111206
1733697947044505300,4.18850537109375,0.3887890577316284,-0.2720740735530853,-0.4759732186794281
1733697947054460200,4.198460205078125,0.33593809604644775,-0.14417921006679535,-0.47379714250564575
1733697947064414200,4.208414306640625,0.29595762491226196,-0.03265609219670296,-0.4703975021839142
1733697947074368500,4.218368408203125,0.27846917510032654,0.05661226809024811,-0.47028911113739014
1733697947084323300,4.2283232421875,0.27250173687934875,0.13526426255702972,-0.4840109944343567
1733697947094277400,4.23827734375,0.2714223563671112,0.1992536336183548,-0.4910377562046051
1733697947104231400,4.2482314453125,0.25801026821136475,0.24078810214996338,-0.481139600276947
1733697947114185200,4.258185302734375,0.2491491287946701,0.25893434882164,-0.4617699086666107
1733697947124140300,4.268140380859375,0.25854331254959106,0.2502722442150116,-0.45241931080818176
1733697947134094600,4.278094482421875,0.2729654014110565,0.22395168244838715,-0.4476509094238281
1733697947144048400,4.28804833984375,0.3045792281627655,0.19129543006420135,-0.4462990462779999
1733697947154003500,4.29800341796875,0.34726622700691223,0.15860140323638916,-0.4403306543827057
1733697947163957200,4.307957275390625,0.36034101247787476,0.12444855272769928,-0.4390935003757477
1733697947173911300,4.317911376953125,0.353233277797699,0.08467477560043335,-0.4404013752937317
1733697947183866400,4.327866455078125,0.3556455671787262,0.019586488604545593,-0.4192873537540436
1733697947193820400,4.3378203125,0.3665110170841217,-0.07212745398283005,-0.4001008868217468
1733697947203774500,4.3477744140625,0.3872849941253662,-0.1556328982114792,-0.3892210125923157
1733697947213729300,4.357729248046875,0.4080837666988373,-0.21772156655788422,-0.3765808641910553
1733697947223683300,4.367683349609375,0.4199860990047455,-0.2564625144004822,-0.3543916344642639
1733697947233637400,4.377637451171875,0.4383414089679718,-0.28679752349853516,-0.311204195022583
1733697947243592200,4.38759228515625,0.48015478253364563,-0.303408145904541,-0.26166588068008423
1733697947253546500,4.39754638671875,0.5573537349700928,-0.2987571954727173,-0.22089767456054688
1733697947263500500,4.40750048828125,0.6254077553749084,-0.2808951139450073,-0.1880861073732376
1733697947273455400,4.417455322265625,0.6817466616630554,-0.25505658984184265,-0.1555023193359375
1733697947283409400,4.427409423828125,0.7172137498855591,-0.20700813829898834,-0.12253345549106598
1733697947293363500,4.437363525390625,0.7405246496200562,-0.12558437883853912,-0.10920992493629456
1733697947303318300,4.447318359375,0.7658602595329285,0.0005958146648481488,-0.1487465798854828
1733697947313272600,4.4572724609375,0.771649956703186,0.13331231474876404,-0.2694964110851288
1733697947323226400,4.467226318359375,0.7441332936286926,0.20680463314056396,-0.4269106388092041
1733697947333181400,4.477181396484375,0.6636168956756592,0.23666399717330933,-0.47630882263183594
1733697947343135200,4.48713525390625,0.5645720958709717,0.23756764829158783,-0.49280205368995667
1733697947353089300,4.49708935546875,0.4904523491859436,0.25549179315567017,-0.5006868243217468
1733697947363044400,4.50704443359375,0.4470832347869873,0.3057084083557129,-0.49024081230163574
1733697947372998400,4.516998291015625,0.43516504764556885,0.3629370629787445,-0.4620794653892517
1733697947382952400,4.526952392578125,0.43502897024154663,0.40586015582084656,-0.4301491379737854
1733697947392906500,4.536906494140625,0.4225185215473175,0.4165905714035034,-0.4060533940792084
1733697947402861300,4.546861328125,0.4136306643486023,0.412119597196579,-0.3554232120513916
1733697947412815400,4.5568154296875,0.39987093210220337,0.3953733742237091,-0.30464980006217957
1733697947422769400,4.566769287109375,0.36556750535964966,0.36551210284233093,-0.25064271688461304
1733697947432724500,4.576724365234375,0.311970055103302,0.3254232704639435,-0.1924092322587967
1733697947442678500,4.586678466796875,0.24128563702106476,0.2855640649795532,-0.1448986828327179
1733697947452632300,4.59663232421875,0.1683134287595749,0.26799410581588745,-0.09331458806991577
1733697947462587400,4.60658740234375,0.09549055993556976,0.29472845792770386,-0.05034971982240677
1733697947472541400,4.61654150390625,0.033643435686826706,0.3565366864204407,-0.022105565294623375
1733697947482495200,4.6264951171875,-0.01820010505616665,0.44255051016807556,0.0014535796362906694
1733697947492450600,4.636450439453125,-0.06988966464996338,0.5323219299316406,0.02171730436384678
1733697947502404400,4.646404296875,-0.12702158093452454,0.5865353345870972,0.03279838711023331
1733697947512358400,4.6563583984375,-0.1878337860107422,0.6026261448860168,0.04286620020866394
1733697947522313500,4.6663134765625,-0.24576182663440704,0.5937622785568237,0.054975368082523346
1733697947532267300,4.676267333984375,-0.29863491654396057,0.5761678218841553,0.0729527696967125
1733697947542221300,4.68622119140625,-0.32926973700523376,0.5595299601554871,0.08948671817779541
1733697947552176400,4.69617626953125,-0.3363231122493744,0.545945405960083,0.10793790221214294
1733697947562130400,4.70613037109375,-0.3220888376235962,0.5267736315727234,0.12001176178455353
1733697947572084500,4.71608447265625,-0.30206745862960815,0.4969073235988617,0.12868914008140564
1733697947582039300,4.726039306640625,-0.27729228138923645,0.4419129192829132,0.1314266473054886
1733697947591993300,4.735993408203125,-0.25880593061447144,0.35690826177597046,0.12690885365009308
1733697947601947400,4.745947509765625,-0.24622705578804016,0.25593698024749756,0.12217582017183304
1733697947611902500,4.75590234375,-0.2422376424074173,0.13714052736759186,0.1313253790140152
1733697947621856500,4.7658564453125,-0.24658754467964172,-0.0021260299254208803,0.14220614731311798
1733697947631810300,4.775810302734375,-0.24387164413928986,-0.14056167006492615,0.1606147140264511
1733697947641765400,4.785765380859375,-0.2409612238407135,-0.25444626808166504,0.17693811655044556
1733697947651719400,4.795719482421875,-0.2378421276807785,-0.3255433440208435,0.1897314041852951
1733697947661673200,4.805673095703125,-0.23412354290485382,-0.36738890409469604,0.20625945925712585
1733697947671628500,4.815628662109375,-0.21964900195598602,-0.36713483929634094,0.22781401872634888
1733697947681582300,4.825582275390625,-0.1977124661207199,-0.35609325766563416,0.2464442402124405
1733697947691536400,4.835536376953125,-0.17761573195457458,-0.36897632479667664,0.2454434335231781
1733697947701490400,4.845490478515625,-0.17405745387077332,-0.396186888217926,0.22660720348358154
1733697947711445200,4.8554453125,-0.1980155110359192,-0.44152987003326416,0.20015668869018555
1733697947721399300,4.8653994140625,-0.23880358040332794,-0.49964678287506104,0.19595077633857727
1733697947731353300,4.875353271484375,-0.2871650159358978,-0.5641030073165894,0.205556258559227
1733697947741308400,4.885308349609375,-0.3357713520526886,-0.616973340511322,0.20842723548412323
1733697947751262500,4.895262451171875,-0.38086026906967163,-0.6530362367630005,0.2047848403453827
1733697947761216500,4.905216552734375,-0.42494744062423706,-0.6840963363647461,0.21092025935649872
1733697947771171300,4.91517138671875,-0.46993541717529297,-0.7255460619926453,0.22525206208229065
1733697947781125400,4.92512548828125,-0.5155807733535767,-0.7770063877105713,0.23920278251171112
1733697947791079200,4.9350791015625,-0.5594249367713928,-0.8175921440124512,0.2644926607608795
1733697947801034500,4.945034423828125,-0.605178713798523,-0.846222996711731,0.2823152542114258
1733697947810988500,4.954988525390625,-0.6617000102996826,-0.8883622288703918,0.29488804936408997
1733697947820942300,4.9649423828125,-0.7437506318092346,-0.9361722469329834,0.34886905550956726
1733697947830897400,4.9748974609375,-0.8311912417411804,-1.0128902196884155,0.41099342703819275
1733697947840851200,4.984851318359375,-0.9227282404899597,-1.088803768157959,0.4602624475955963
1733697947850805200,4.99480517578125,-1.0163668394088745,-1.1787203550338745,0.5240494012832642
1733697947860760600,5.004760498046875,-1.1005100011825562,-1.255547285079956,0.6083177328109741
1733697947870714400,5.01471435546875,-1.1616830825805664,-1.267337679862976,0.6730064749717712
1733697947880668400,5.02466845703125,-1.1846399307250977,-1.2350612878799438,0.710545539855957
1733697947890623200,5.034623291015625,-1.1773484945297241,-1.1561152935028076,0.7173560261726379
1733697947900577300,5.044577392578125,-1.1479684114456177,-1.0856804847717285,0.7037180662155151
1733697947910531300,5.05453125,-1.112450122833252,-1.088846206665039,0.7151880264282227
1733697947920486400,5.064486328125,-1.0724694728851318,-1.1767144203186035,0.7412824034690857
1733697947930440400,5.0744404296875,-1.0132726430892944,-1.2934614419937134,0.729602575302124
1733697947940393700,5.084393798828125,-0.9617124795913696,-1.4046504497528076,0.7067537307739258
1733697947950348500,5.0943486328125,-0.9095485806465149,-1.53083074092865,0.6946195960044861
1733697947960302600,5.104302490234375,-0.8903157114982605,-1.6789414882659912,0.6726903319358826
1733697947970256600,5.114256591796875,-0.8792423009872437,-1.7958449125289917,0.6760073304176331
1733697947980210400,5.12421044921875,-0.9159029722213745,-1.8891563415527344,0.6514018177986145
1733697947990165800,5.134165771484375,-0.9824327230453491,-1.992946982383728,0.6058535575866699
1733697948000119800,5.144119873046875,-1.021154522895813,-2.0530476570129395,0.543698787689209
1733697948010073600,5.154073486328125,-1.0314087867736816,-2.0063724517822266,0.4668298065662384
1733697948020028700,5.164028564453125,-1.0153828859329224,-1.8946068286895752,0.4056800603866577
1733697948029982500,5.173982421875,-0.9776178598403931,-1.7734944820404053,0.3434843122959137
1733697948039936500,5.1839365234375,-0.925507128238678,-1.6576372385025024,0.28805267810821533
1733697948049891600,5.1938916015625,-0.8668291568756104,-1.5442646741867065,0.23504990339279175
1733697948059845600,5.203845703125,-0.8212680220603943,-1.412258505821228,0.15876874327659607
1733697948069799700,5.213799560546875,-0.7784446477890015,-1.2965174913406372,0.09676449745893478
1733697948079754500,5.22375439453125,-0.7185245156288147,-1.2015072107315063,0.06331366300582886
1733697948089708500,5.23370849609375,-0.6631819009780884,-1.1583725214004517,0.04452958703041077
1733697948099662600,5.24366259765625,-0.6222601532936096,-1.1183903217315674,0.06285646557807922
1733697948109617700,5.25361767578125,-0.6159852147102356,-1.0695348978042603,0.06306792050600052
1733697948119571700,5.26357177734375,-0.6514768600463867,-1.0657011270523071,0.025062501430511475
1733697948129525800,5.27352587890625,-0.7105087637901306,-1.0577446222305298,0.008682462386786938
1733697948139480600,5.28348046875,-0.7555965781211853,-1.0131721496582031,0.0261362437158823
1733697948149434600,5.2934345703125,-0.7371752262115479,-0.9789955019950867,0.07415543496608734
1733697948159388400,5.303388427734375,-0.6752046942710876,-0.8775634765625,0.1552422195672989
1733697948169343700,5.31334375,-0.6058354377746582,-0.786785364151001,0.25897955894470215
1733697948179297800,5.3232978515625,-0.532162070274353,-0.7780407071113586,0.3274182975292206
1733697948189251600,5.33325146484375,-0.4548987150192261,-0.8186491131782532,0.34991374611854553
1733697948199206700,5.34320654296875,-0.3591505289077759,-0.866740882396698,0.33166852593421936
1733697948209160400,5.353160400390625,-0.2636543810367584,-0.9284513592720032,0.30204594135284424
1733697948219114500,5.363114501953125,-0.17224740982055664,-0.9756739735603333,0.3024299144744873
1733697948229069800,5.37306982421875,-0.09827012568712234,-1.0036290884017944,0.3393591642379761
1733697948239023600,5.383023681640625,-0.020467452704906464,-1.04539155960083,0.3701218068599701
1733697948248977700,5.392977783203125,0.0721394419670105,-1.0298038721084595,0.36445218324661255
1733697948258931700,5.402931640625,0.19111967086791992,-0.8970116972923279,0.33054035902023315
1733697948268886500,5.412886474609375,0.3300863206386566,-0.6804684996604919,0.27631041407585144
1733697948278840600,5.422840576171875,0.4487857520580292,-0.45357653498649597,0.22143302857875824
1733697948288794600,5.432794677734375,0.5248581767082214,-0.22247034311294556,0.17648978531360626
1733697948298749700,5.442749755859375,0.5356295704841614,0.013627849519252777,0.1351463347673416
1733697948308703700,5.452703857421875,0.5018500685691833,0.24706830084323883,0.09841468185186386
1733697948318657500,5.462657470703125,0.4448908269405365,0.4813038408756256,0.06147836521267891
1733697948328612600,5.472612548828125,0.39956700801849365,0.7105109095573425,0.03845427185297012
1733697948338566700,5.482566650390625,0.39090245962142944,0.912469208240509,0.02231367491185665
1733697948348520400,5.4925205078125,0.40078625082969666,1.1126986742019653,0.006246556527912617
1733697948358475800,5.502475830078125,0.40879833698272705,1.3054717779159546,-0.019757281988859177
1733697948368429600,5.5124296875,0.42144250869750977,1.5013691186904907,-0.054293688386678696
1733697948378383600,5.522383544921875,0.42784547805786133,1.6841580867767334,-0.10103369504213333
1733697948388338700,5.532338623046875,0.4322972297668457,1.865147352218628,-0.14782410860061646
1733697948398292500,5.54229248046875,0.42379647493362427,2.0157816410064697,-0.19598494470119476
1733697948408246500,5.55224658203125,0.37918585538864136,2.127535581588745,-0.24221129715442657
1733697948418201600,5.56220166015625,0.30699095129966736,2.240764617919922,-0.2716901898384094
1733697948428155600,5.57215576171875,0.21672575175762177,2.333430528640747,-0.29957351088523865
1733697948438109700,5.582109619140625,0.1372271478176117,2.421266555786133,-0.3134341835975647
1733697948448064500,5.592064453125,0.08662282675504684,2.568434953689575,-0.3131351172924042
1733697948458018600,5.6020185546875,0.05649719014763832,2.7115638256073,-0.33221182227134705
1733697948467972600,5.61197265625,0.030648816376924515,2.8067502975463867,-0.37089821696281433
1733697948477927700,5.621927734375,0.02602451667189598,2.866562604904175,-0.4007715880870819
1733697948487881700,5.6318818359375,0.03650858625769615,2.903778314590454,-0.4049721956253052
1733697948497835500,5.64183544921875,0.04442349448800087,2.889218807220459,-0.38189661502838135
1733697948507790600,5.65179052734375,0.0517280139029026,2.8240296840667725,-0.3388417959213257
1733697948517744600,5.66174462890625,0.04456078261137009,2.7199761867523193,-0.28395575284957886
1733697948527698400,5.671698486328125,0.0353718176484108,2.6122264862060547,-0.21835704147815704
1733697948537652700,5.68165283203125,0.029781969264149666,2.5430538654327393,-0.16852226853370667
1733697948547607600,5.691607666015625,0.033675774931907654,2.4921329021453857,-0.13644608855247498
1733697948557561600,5.7015615234375,0.007358286064118147,2.3898446559906006,-0.12685304880142212
1733697948567515600,5.711515625,-0.0014269495150074363,2.2462596893310547,-0.11967608332633972
1733697948577470500,5.721470458984375,0.010784233920276165,2.0995213985443115,-0.10048581659793854
1733697948587424500,5.731424560546875,0.025963719934225082,1.9542208909988403,-0.08085033297538757
1733697948597378800,5.74137890625,0.028758902102708817,1.8281099796295166,-0.06106072664260864
1733697948607333600,5.751333740234375,0.023167595267295837,1.7293331623077393,-0.023900844156742096
1733697948617287700,5.76128759765625,-0.010409723967313766,1.5520764589309692,0.02155693806707859
1733697948627241700,5.77124169921875,-0.03493211045861244,1.281016230583191,0.04036471247673035
1733697948637196500,5.781196533203125,-0.03158002346754074,0.9974153637886047,0.0485001839697361
1733697948647150600,5.791150634765625,-0.010627602227032185,0.7705092430114746,0.05776372179389
1733697948657104600,5.801104736328125,0.015863889828324318,0.5986469388008118,0.0669688954949379
1733697948667059700,5.811059814453125,0.03640245273709297,0.45113709568977356,0.08293881267309189
1733697948677013800,5.821013671875,0.049570340663194656,0.311117947101593,0.09739703685045242
1733697948686967600,5.830967529296875,0.05367906391620636,0.1745702177286148,0.10553006827831268
1733697948696922600,5.840922607421875,0.04950099438428879,0.04549470171332359,0.10684411972761154
1733697948706876400,5.85087646484375,0.032327067106962204,-0.06037180870771408,0.12050426751375198
1733697948716830700,5.860830810546875,0.030829347670078278,-0.12579767405986786,0.1289185732603073
1733697948726785500,5.87078564453125,0.0326048769056797,-0.17297424376010895,0.1394047737121582
1733697948736739600,5.880739501953125,0.03102792799472809,-0.2264576405286789,0.13897784054279327
1733697948746693600,5.890693603515625,0.023311153054237366,-0.30527761578559875,0.12930870056152344
1733697948756648400,5.9006484375,0.01796455681324005,-0.3823932111263275,0.11020802706480026
1733697948766602500,5.9106025390625,0.013427862897515297,-0.44443872570991516,0.0837620347738266
1733697948776556800,5.920556884765625,0.010694730095565319,-0.48870840668678284,0.06131531298160553
1733697948786511600,5.93051171875,0.01187743991613388,-0.522200345993042,0.04656166955828667
1733697948796465700,5.940465576171875,0.010315165854990482,-0.5668511986732483,0.03396979719400406
1733697948806419700,5.950419677734375,0.0039262427017092705,-0.6259505152702332,0.015819288790225983
1733697948816373500,5.96037353515625,0.0036564008332788944,-0.6861464977264404,0.0030987882055342197
1733697948826328600,5.97032861328125,0.00879044272005558,-0.7326338887214661,-0.005108275450766087
1733697948836282600,5.98028271484375,0.021065782755613327,-0.7453784346580505,0.004579728003591299
1733697948846236700,5.990236572265625,0.03197435662150383,-0.7379570007324219,0.011108733713626862
1733697948856191700,6.000191650390625,0.03602819889783859,-0.7211823463439941,0.019032681360840797
1733697948866145500,6.0101455078125,0.037174955010414124,-0.695478081703186,0.018895529210567474
1733697948876099600,6.020099609375,0.03881228715181351,-0.6554511785507202,0.023153677582740784
1733697948886054400,6.030054443359375,0.034640710800886154,-0.592706561088562,0.02474811300635338
1733697948896008700,6.0400087890625,0.029053861275315285,-0.5117877721786499,0.02939506620168686
1733697948905962800,6.049962646484375,0.02956465445458889,-0.4134308695793152,0.03772570192813873
1733697948915917600,6.05991748046875,0.025528356432914734,-0.301071435213089,0.04726014658808708
1733697948925871600,6.06987158203125,0.01139762345701456,-0.19644518196582794,0.039641108363866806
1733697948935826000,6.079825927734375,-0.005588486324995756,-0.10098942369222641,0.02445754036307335
1733697948945780700,6.08978076171875,-0.0118812695145607,-0.00874391570687294,0.014080533757805824
1733697948955734800,6.09973486328125,-0.02537931129336357,0.060537539422512054,0.005282999016344547
1733697948965688800,6.109688720703125,-0.03968101739883423,0.08670257031917572,-0.01699727214872837
1733697948975643600,6.1196435546875,-0.04723674803972244,0.11312367767095566,-0.03415669873356819
1733697948985598000,6.129597900390625,-0.04774541035294533,0.15084148943424225,-0.0428074449300766
1733697948995551700,6.1395517578125,-0.05208425223827362,0.19381649792194366,-0.0401223823428154
1733697949005506800,6.1495068359375,-0.05407922714948654,0.22576937079429626,-0.034187525510787964
1733697949015460600,6.159460693359375,-0.050572723150253296,0.2505594491958618,-0.02534123882651329
1733697949025414700,6.16941455078125,-0.0534697100520134,0.23483961820602417,-0.013635581359267235
1733697949035369700,6.17936962890625,-0.05040033534169197,0.1962146759033203,-0.0072935959324240685
1733697949045323800,6.18932373046875,-0.0429442822933197,0.16023217141628265,-0.0030373320914804935
1733697949055277800,6.19927783203125,-0.03275427967309952,0.12888658046722412,-0.0017408819403499365
1733697949065232600,6.209232666015625,-0.01869465410709381,0.10613493621349335,0.00035369396209716797
1733697949075186700,6.219186767578125,-0.009864436462521553,0.08763415366411209,-0.000825423514470458
1733697949085140700,6.229140625,-0.006289142183959484,0.06592805683612823,-0.006994369439780712
1733697949095095600,6.239095458984375,-0.006519456394016743,0.051821302622556686,-0.0075527941808104515
1733697949105049900,6.2490498046875,-0.008209764026105404,0.05156031250953674,-0.013248230330646038
1733697949115004000,6.25900390625,-0.013534877449274063,0.05461277440190315,-0.014690636657178402
1733697949124957700,6.268957763671875,-0.0144808329641819,0.06199745461344719,-0.020745333284139633
1733697949134912800,6.278912841796875,-0.0118055185303092,0.06773432344198227,-0.028740011155605316
1733697949144866800,6.28886669921875,-0.007698924280703068,0.07452112436294556,-0.02966918796300888
1733697949154820600,6.298820556640625,-0.005755154881626368,0.07683943212032318,-0.02549239806830883
1733697949164776000,6.30877587890625,-0.004872583318501711,0.06656496226787567,-0.017285069450736046
1733697949174729700,6.318729736328125,-0.005578085780143738,0.04119903966784477,-0.008616587147116661
1733697949184683800,6.328683837890625,-0.0030155919957906008,0.017767218872904778,-0.0018369783647358418
1733697949194638800,6.338638916015625,0.0031183355022221804,0.0010413549607619643,0.006691438611596823
1733697949204592600,6.348592529296875,0.008964772336184978,-0.007884494960308075,0.016004778444767
1733697949214546700,6.358546630859375,0.01313864067196846,-0.014080618508160114,0.022022921591997147
1733697949224501800,6.368501708984375,0.01656453311443329,-0.020660489797592163,0.027446448802947998
1733697949234455800,6.378455810546875,0.014836509712040424,-0.02814369462430477,0.02877996303141117
1733697949244409900,6.388409912109375,0.006318389438092709,-0.03203963115811348,0.029171448200941086
1733697949254364700,6.39836474609375,0.000830446369946003,-0.031435322016477585,0.027974579483270645
1733697949264318700,6.408318603515625,-0.0034194262698292732,-0.026465067639946938,0.025738589465618134
1733697949274272800,6.418272705078125,-0.005848295986652374,-0.024447768926620483,0.026529816910624504
1733697949284227800,6.428227783203125,-0.005566800013184547,-0.032353632152080536,0.02613620087504387
1733697949294182000,6.438181884765625,0.00038201315328478813,-0.03874756023287773,0.024347929283976555
1733697949304135700,6.4481357421875,0.009740627370774746,-0.041170503944158554,0.021627509966492653
1733697949314090800,6.4580908203125,0.01782112941145897,-0.04285609349608421,0.01567889377474785
1733697949324044800,6.468044921875,0.02112824283540249,-0.040762316435575485,0.01234621461480856
1733697949333998600,6.47799853515625,0.020170656964182854,-0.034216322004795074,0.012541357427835464
1733697949343954000,6.487953857421875,0.012808614410459995,-0.02420896291732788,0.013143230229616165
1733697949353907700,6.49790771484375,0.0022822096943855286,-0.015125548467040062,0.011548997834324837
1733697949363861800,6.50786181640625,-0.007483069319278002,-0.008215445093810558,0.011772703379392624
1733697949373816800,6.51781689453125,-0.011725442484021187,-0.005649285856634378,0.009081470780074596
1733697949383770600,6.5277705078125,-0.014500988647341728,-0.0018707932904362679,-0.0017389524728059769
1733697949393724700,6.537724609375,-0.017460409551858902,0.0038771256804466248,-0.01111583225429058
1733697949403679700,6.5476796875,-0.012536225840449333,0.012163018807768822,-0.018727412447333336
1733697949413633800,6.5576337890625,-0.009272156283259392,0.02457299642264843,-0.02201133780181408
1733697949423587800,6.567587890625,-0.007926461286842823,0.03262879326939583,-0.021939432248473167
1733697949433542000,6.5775419921875,-0.007542249746620655,0.03243889659643173,-0.018837200477719307
1733697949443496700,6.58749658203125,-0.004601321183145046,0.027880625799298286,-0.016187088564038277
1733697949453450800,6.59745068359375,-0.0013180002570152283,0.020145338028669357,-0.012566834688186646
1733697949463404500,6.607404541015625,0.0014460945967584848,0.01631730981171131,-0.00811536144465208
1733697949473360000,6.61735986328125,0.007006700150668621,0.01015444379299879,-0.0012705025728791952
1733697949483314000,6.62731396484375,0.011186265386641026,0.006481146439909935,0.006512052845209837
1733697949493267700,6.637267822265625,0.013538849540054798,0.006082829087972641,0.012461312115192413
1733697949503222800,6.647222900390625,0.013332189060747623,-0.0014659008011221886,0.01321951299905777
1733697949513176600,6.657176513671875,0.014776570722460747,-0.006287535652518272,0.018462056294083595
1733697949523130600,6.667130615234375,0.012608490884304047,-0.011021303944289684,0.022487424314022064
1733697949533085700,6.677085693359375,0.01077846996486187,-0.01500664185732603,0.024910323321819305
1733697949543039700,6.687039794921875,0.009117190726101398,-0.018545184284448624,0.026778530329465866
1733697949552993800,6.696993896484375,0.00867634266614914,-0.024172289296984673,0.028289208188652992
1733697949562948600,6.706948486328125,0.009436674416065216,-0.03179638460278511,0.03289753943681717
1733697949572902700,6.716902587890625,0.007953671738505363,-0.04147769510746002,0.03073953650891781
1733697949582856700,6.726856689453125,0.008319057524204254,-0.04538508504629135,0.02905881404876709
1733697949592811800,6.736811767578125,0.006704113446176052,-0.04200959950685501,0.027693795040249825
1733697949602765800,6.746765869140625,0.0077001359313726425,-0.03527766093611717,0.0269334614276886
1733697949612719900,6.756719970703125,0.007883231155574322,-0.032169099897146225,0.025347724556922913
1733697949622674700,6.7666748046875,0.0035385501105338335,-0.033360064029693604,0.01725997030735016
1733697949632628700,6.776628662109375,0.00036039832048118114,-0.04542623832821846,0.00967573281377554
1733697949642582500,6.78658251953125,0.004095481708645821,-0.055331602692604065,0.005844243336468935
1733697949652537900,6.796537841796875,0.00820210948586464,-0.045499976724386215,0.008597375825047493
1733697949662492000,6.806491943359375,0.007811422925442457,-0.028712738305330276,0.013827557675540447
1733697949672445700,6.81644580078125,0.008998027071356773,-0.013452377170324326,0.012627849355340004
1733697949682400800,6.82640087890625,0.010328808799386024,-0.013836405239999294,0.015341343358159065
1733697949692354600,6.8363544921875,0.012828853912651539,-0.02690567821264267,0.018089253455400467
1733697949702308600,6.84630859375,0.019288618117570877,-0.038005199283361435,0.027835890650749207
1733697949712262700,6.8562626953125,0.020832885056734085,-0.048198629170656204,0.034282583743333817
1733697949722217700,6.8662177734375,0.01761338859796524,-0.04745613783597946,0.03592761978507042
1733697949732171800,6.876171875,0.014188552275300026,-0.04184848815202713,0.032343603670597076
1733697949742125800,6.886125732421875,0.008337055332958698,-0.028508713468909264,0.027470817789435387
1733697949752080600,6.89608056640625,-0.0024935095570981503,-0.01074290368705988,0.02268536388874054
1733697949762034700,6.90603466796875,-0.010787658393383026,0.005805446766316891,0.013529681600630283
1733697949771988700,6.91598876953125,-0.018573611974716187,0.016404636204242706,0.003734220750629902
1733697949781943800,6.92594384765625,-0.02394680492579937,0.022756541147828102,-0.0066371941938996315
1733697949791897900,6.93589794921875,-0.02174326777458191,0.02750782109797001,-0.01489735022187233
1733697949801851600,6.9458515625,-0.01668885536491871,0.03261736035346985,-0.017928026616573334
1733697949811806700,6.955806640625,-0.011588895693421364,0.031520478427410126,-0.014965656213462353
1733697949821760800,6.9657607421875,-0.006731823086738586,0.024766435846686363,-0.009150377474725246
1733697949831714600,6.975714599609375,-0.002551576355472207,0.014286915771663189,-0.0023940925020724535
1733697949841670000,6.985669921875,-0.0009259828366339207,0.008105718530714512,0.00041421072091907263
1733697949851623700,6.995623779296875,-0.0015178299508988857,0.0046645356342196465,0.0006833219667896628
1733697949861577700,7.00557763671875,-0.00264914077706635,0.005894383415579796,0.00006999587640166283
1733697949871532800,7.01553271484375,-0.002381838159635663,0.0102041345089674,-0.0010647745802998543
1733697949881486600,7.025486572265625,-0.005481757689267397,0.012058493681252003,-0.004415830597281456
1733697949891440600,7.035440673828125,-0.007866905070841312,0.01242613885551691,-0.004689889959990978
1733697949901395700,7.045395751953125,-0.009884249418973923,0.010519315488636494,-0.00608432199805975
1733697949911349800,7.055349853515625,-0.013716382905840874,0.0032867887057363987,-0.005267268978059292
1733697949921303800,7.0653037109375,-0.014256738126277924,0.005832770373672247,-0.0045127952471375465
1733697949931258600,7.075258544921875,-0.012502038851380348,0.006928951945155859,-0.005421859212219715
1733697949941212700,7.085212646484375,-0.010189348831772804,0.0025845372583717108,-0.0012835734523832798
1733697949951166700,7.095166748046875,-0.002023280132561922,-0.007656776811927557,0.0030219804029911757
1733697949961121500,7.10512158203125,0.002871343633159995,-0.010502098128199577,0.004721077159047127
1733697949971075600,7.11507568359375,0.005789267830550671,-0.010925358161330223,0.005210611969232559
1733697949981029600,7.125029541015625,0.009493990801274776,-0.009087510406970978,0.0038212407380342484
1733697949990984700,7.134984619140625,0.006305510178208351,-0.0033721462823450565,0.003176730824634433
1733697950000938800,7.144938720703125,0.0021214180160313845,0.002069490496069193,0.001583095290698111
1733697950010892500,7.154892578125,-0.0045912498608231544,0.007062762044370174,0.002985650207847357
1733697950020847600,7.16484765625,-0.011440367437899113,0.00947052612900734,0.005013114772737026
1733697950030801400,7.174801513671875,-0.011893922463059425,0.008492209017276764,0.0014995851088315248
1733697950040755500,7.18475537109375,-0.012574093416333199,0.0059262532740831375,0.0009744098642840981
1733697950050710800,7.194710693359375,-0.010666877962648869,0.0063898623920977116,-0.0027303388342261314
1733697950060664600,7.20466455078125,-0.01100430078804493,0.009111613035202026,-0.007618037983775139
1733697950070618600,7.21461865234375,-0.010808482766151428,0.012454919517040253,-0.010343670845031738
1733697950080572700,7.22457275390625,-0.011289716698229313,0.013202735222876072,-0.01275782659649849
1733697950090527500,7.234527587890625,-0.012935444712638855,0.012542086653411388,-0.011737082153558731
1733697950100481500,7.2444814453125,-0.013855033554136753,0.012387624010443687,-0.013610349968075752
1733697950110435800,7.254435791015625,-0.014272041618824005,0.01142802368849516,-0.01608772948384285
1733697950120390700,7.264390625,-0.013049650937318802,0.0124895591288805,-0.015230991877615452
1733697950130344700,7.2743447265625,-0.0132388174533844,0.01470136921852827,-0.016977960243821144
1733697950140298500,7.284298583984375,-0.011744251474738121,0.013124777935445309,-0.016754521057009697
1733697950150253600,7.294253662109375,-0.012791398912668228,0.006938758306205273,-0.01408461481332779
1733697950160207600,7.30420751953125,-0.01223613042384386,0.0035426956601440907,-0.014939488843083382
1733697950170161700,7.31416162109375,-0.008930870331823826,0.0021569530945271254,-0.012517409399151802
1733697950180116700,7.32411669921875,-0.010632097721099854,0.007871298119425774,-0.012432454153895378
1733697950190070500,7.334070556640625,-0.008257132023572922,0.01017153263092041,-0.010469329543411732
1733697950200024600,7.344024658203125,-0.006805710028856993,0.009797092527151108,-0.006794433109462261
1733697950209979600,7.353979736328125,-0.008863775990903378,0.004634689539670944,-0.008247699588537216
1733697950219933400,7.363933349609375,-0.007560690864920616,0.00435638939961791,-0.01064587663859129
1733697950229887700,7.3738876953125,-0.00894751027226448,0.00835051853209734,-0.01237075962126255
1733697950239842600,7.383842529296875,-0.008567743003368378,0.01374075748026371,-0.00947590358555317
1733697950249796600,7.393796630859375,-0.00664447620511055,0.017251625657081604,-0.009544992819428444
1733697950259750700,7.403750732421875,-0.005070281680673361,0.01692245714366436,-0.0028061300981789827
1733697950269705500,7.41370556640625,-0.003991670906543732,0.010012924671173096,-0.0021909838542342186
1733697950279659500,7.423659423828125,-0.0054564094170928,0.009620374999940395,0.0015009561320766807
1733697950289613800,7.43361376953125,-0.00442693242803216,0.013319060206413269,-0.0012924517504870892
1733697950299568600,7.443568603515625,-0.004692449700087309,0.021045954897999763,0.0012194416485726833
1733697950309522700,7.453522705078125,-0.008126010186970234,0.023653898388147354,0.004752367734909058
1733697950319476500,7.4634765625,-0.007001889869570732,0.018048742786049843,0.005780082195997238
1733697950329431600,7.473431640625,-0.0005634952103719115,0.005492395721375942,0.0062837740406394005
1733697950339385600,7.483385498046875,0.0027236442547291517,-0.004842267371714115,0.011137651279568672
1733697950349339600,7.493339599609375,0.009496650658547878,-0.013322397135198116,0.014843150973320007
1733697950359294700,7.503294677734375,0.011145413853228092,-0.019732626155018806,0.019403813406825066
1733697950369248500,7.51324853515625,0.010745362378656864,-0.023034419864416122,0.01831347495317459
1733697950379202600,7.52320263671875,0.007312813773751259,-0.02391619235277176,0.0146377794444561
1733697950389157600,7.53315771484375,0.0034234297927469015,-0.015224979259073734,0.0089835524559021
1733697950399111400,7.543111328125,-0.004658997990190983,-0.0025957361795008183,0.006084967404603958
1733697950409065700,7.553065673828125,-0.011325286701321602,0.013375023379921913,0.0013882421189919114
1733697950419020500,7.5630205078125,-0.01901037059724331,0.02129046991467476,-0.00929982215166092
1733697950428974600,7.572974609375,-0.018466603010892868,0.025507479906082153,-0.01814480498433113
1733697950438928600,7.5829287109375,-0.01435547973960638,0.029130710288882256,-0.02181517332792282
1733697950448883500,7.592883544921875,-0.00997980497777462,0.028492897748947144,-0.025384804233908653
1733697950458837500,7.60283740234375,-0.003463316010311246,0.025174332782626152,-0.022253725677728653
1733697950468791800,7.612791748046875,0.0015061961021274328,0.018107276409864426,-0.01516121905297041
1733697950478745600,7.62274560546875,0.0022079392801970243,0.00844239816069603,-0.008584276773035526
1733697950488700700,7.63270068359375,0.005929620936512947,0.000489455705974251,-0.004296520724892616
1733697950498654700,7.64265478515625,0.006975444965064526,-0.001601924654096365,0.0004079533973708749
1733697950508608500,7.6526083984375,0.0061571029946208,-0.002657064236700535,-0.0011590090580284595
1733697950518563600,7.6625634765625,0.0027679644990712404,0.00031955097801983356,-0.0013462293427437544
1733697950528517600,7.672517578125,0.0012363120913505554,0.007962148636579514,-0.001503950683400035
1733697950538471700,7.6824716796875,-0.0029826676473021507,0.015676528215408325,0.00017330795526504517
1733697950548426800,7.6924267578125,-0.008100006729364395,0.017674457281827927,0.0011367263505235314
1733697950558380500,7.702380615234375,-0.010116285644471645,0.015024079009890556,0.0011590969515964389
1733697950568334600,7.71233447265625,-0.01036907359957695,0.018868710845708847,0.0007868101820349693
1733697950578289400,7.722289306640625,-0.008808461017906666,0.02014170214533806,0.0028499611653387547
1733697950588243700,7.73224365234375,-0.005985134281218052,0.014460992068052292,0.007869173772633076
1733697950598197800,7.74219775390625,0.0028797301929444075,0.004948714282363653,0.011267900466918945
1733697950608152600,7.752152587890625,0.007260158658027649,0.0005662909243255854,0.010906687937676907
1733697950618106600,7.762106689453125,0.009445282630622387,-0.007708416786044836,0.008542866446077824
1733697950628060700,7.772060791015625,0.013335670344531536,-0.013572227209806442,0.0031599760986864567
1733697950638015500,7.782015380859375,0.012705566361546516,-0.012733597308397293,0.0033005909062922
1733697950647969800,7.7919697265625,0.011249597184360027,-0.006934968288987875,0.003681135829538107
1733697950657923600,7.801923583984375,0.004366923123598099,-0.003525056876242161,0.007270277943462133
1733697950667878700,7.811878662109375,0.001204140018671751,-0.0017006911803036928,0.00780324125662446
1733697950677832700,7.821832763671875,-0.0009223939850926399,-0.003893537912517786,0.005391482729464769
1733697950687786500,7.831786376953125,0.0003077737055718899,-0.004951172042638063,0.005747790448367596
1733697950697741600,7.841741455078125,-0.001456570578739047,-0.003547952277585864,0.00520157627761364
1733697950707695600,7.851695556640625,-0.0014373641461133957,-0.0017785108648240566,0.003985533025115728
1733697950717649700,7.861649658203125,-0.00008341297507286072,0.0028127788100391626,0.002282175002619624
1733697950727604700,7.871604736328125,0.0020433871541172266,0.0056780739687383175,-0.0004624787252396345
1733697950737558500,7.88155859375,0.0009781229309737682,0.005884469021111727,-0.0029892860911786556
1733697950747512600,7.8915126953125,-0.0012807471211999655,0.004735717084258795,-0.005358679685741663
1733697950757467400,7.90146728515625,-0.0020336227025836706,0.002309311181306839,-0.006516356021165848
1733697950767421700,7.911421630859375,-0.004063411150127649,0.003852321533486247,-0.0054493797942996025
1733697950777375700,7.921375732421875,-0.001482275314629078,0.004663520492613316,-0.006749801803380251
1733697950787330600,7.93133056640625,-0.00420933123677969,0.006721215322613716,-0.003228548914194107
1733697950797284600,7.94128466796875,-0.003343803808093071,0.008595282211899757,-0.002740125171840191
1733697950807238700,7.95123876953125,-0.0024989000521600246,0.00881021749228239,-0.0017016474157571793
1733697950817193500,7.961193359375,-0.0034389961510896683,0.007217381149530411,-0.0007010980043560266
1733697950827147800,7.971147705078125,-0.0041024587117135525,0.003647170728072524,-0.00010599521920084953
1733697950837101800,7.981101806640625,-0.004913657438009977,0.009233417920768261,0.0029284104239195585
1733697950847055600,7.9910556640625,-0.00597273837774992,0.009685889817774296,0.003076789202168584
1733697950857010700,8.0010107421875,-0.002679739613085985,0.007715150248259306,0.0035875835455954075
1733697950866964500,8.010964599609375,-0.0024930727668106556,0.0007842119666747749,0.00289314822293818
1733697950876918500,8.02091845703125,-0.0026099856477230787,-0.0022778904531151056,0.0047597577795386314
1733697950886873600,8.03087353515625,-0.0026054081972688437,-0.0029620525892823935,0.0015397709794342518
1733697950896827600,8.04082763671875,-0.0003702170215547085,0.0006510581006295979,-0.002650712849572301
1733697950906781700,8.05078173828125,0.00020002666860818863,0.004969182889908552,-0.0029099262319505215
1733697950916736500,8.060736572265625,0.0027936792466789484,0.007103173527866602,-0.004646840039640665
1733697950926690600,8.070690673828125,0.0009945817291736603,0.004759375937283039,-0.0052612051367759705
1733697950936645400,8.080645263671874,0.002344537992030382,-0.0014620348811149597,-0.0028044392820447683
1733697950946600200,8.09060009765625,0.003313598223030567,-0.00023945147404447198,-0.002954021329060197
1733697950956554200,8.10055419921875,0.0021338178776204586,0.00758784543722868,-0.0017124556470662355
1733697950966508300,8.11050830078125,-0.002174196531996131,0.010504595004022121,-0.001179755898192525
1733697950976463400,8.12046337890625,-0.0031308040488511324,0.009034263901412487,0.0025611864402890205
1733697950986417400,8.13041748046875,-0.0026291916146874428,0.0029107090085744858,0.005085240118205547
1733697950996371200,8.14037109375,0.004793570842593908,-0.00413574930280447,0.003289204090833664
1733697951006326300,8.150326171875,0.009509843774139881,-0.008204485289752483,0.008296743035316467
1733697951016280000,8.160280029296874,0.015533647499978542,-0.013039986602962017,0.0113199632614851
1733697951026234400,8.170234375,0.016781343147158623,-0.017552809789776802,0.013428323902189732
1733697951036189400,8.180189453125,0.01525881513953209,-0.02223864197731018,0.011212041601538658
1733697951046143200,8.190143310546874,0.00993908941745758,-0.023030012845993042,0.008625516667962074
1733697951056097300,8.20009716796875,0.0031344457529485226,-0.01538088172674179,0.006651581265032291
1733697951066052000,8.210052001953125,-0.006608892232179642,-0.004669031593948603,0.007087228819727898
1733697951076006100,8.220006103515624,-0.012728037312626839,0.0008524999720975757,0.00023145321756601334
1733697951085960400,8.22996044921875,-0.016946282237768173,0.004405615385621786,-0.004925670567899942
1733697951095915300,8.239915283203125,-0.016757464036345482,0.006878094282001257,-0.011023243889212608
1733697951105869300,8.249869384765624,-0.013353601098060608,0.010525532998144627,-0.015774477273225784
1733697951115823400,8.2598232421875,-0.008648593910038471,0.01114897895604372,-0.017329497262835503
1733697951125778200,8.269778076171875,-0.0017849479336291552,0.011663952842354774,-0.01578160747885704
1733697951135732200,8.279732177734376,0.0012795515358448029,0.006284899543970823,-0.012643339112401009
1733697951145686300,8.289686279296875,0.003785471199080348,0.0005289317923597991,-0.008484498597681522
1733697951155641300,8.299641357421875,0.004780960269272327,-0.005137209314852953,-0.004403737373650074
1733697951165595400,8.309595458984376,0.007746758870780468,-0.006859703455120325,-0.0018604355864226818
1733697951175549200,8.319549072265625,0.00836088415235281,-0.006855974905192852,-0.0010484375525265932
1733697951185504300,8.329504150390624,0.0050949230790138245,-0.004898726008832455,-0.0006625491660088301
1733697951195458000,8.3394580078125,0.0034088760148733854,-0.003041171235963702,-0.0017134323716163635
1733697951205412400,8.349412353515625,-0.0022067329846322536,0.0024026192259043455,-0.0019497692119330168
1733697951215367400,8.359367431640624,-0.00457694660872221,0.0035387238021939993,-0.0038826914969831705
1733697951225321200,8.3693212890625,-0.009626263752579689,0.0036893985234200954,-0.0034710748586803675
1733697951235275300,8.379275146484375,-0.007877632044255733,0.0034670245368033648,-0.0015458757989108562
1733697951245230000,8.38922998046875,-0.005912478081882,-0.0010007673408836126,0.00007823482155799866
1733697951255184100,8.39918408203125,-0.000013576354831457138,-0.004736117087304592,0.004774719476699829
1733697951265138400,8.409138427734375,0.005854989401996136,-0.01080188900232315,0.009105393663048744
1733697951275092500,8.419092529296876,0.010859602130949497,-0.010822927579283714,0.008394062519073486
1733697951285047300,8.42904736328125,0.013715386390686035,-0.011463710106909275,0.00770494993776083
1733697951295001300,8.43900146484375,0.013303659856319427,-0.01107462216168642,0.0060063861310482025
1733697951304955100,8.448955078125,0.0087966313585639,-0.008754129521548748,0.0065584126859903336
1733697951314910200,8.45891015625,0.00221436214633286,-0.0027332541067153215,0.007329397834837437
1733697951324864500,8.468864501953124,-0.0015400764532387257,0.0023290931712836027,0.009427901357412338
1733697951334818300,8.478818359375,-0.005711385514587164,0.0017972597852349281,0.008679553866386414
1733697951344773400,8.4887734375,-0.00765842292457819,0.0034153966698795557,0.007668884005397558
1733697951354727200,8.49872705078125,-0.00958708394318819,0.001690467121079564,0.004889609292149544
1733697951364681200,8.50868115234375,-0.007670116610825062,0.0033609371166676283,0.0035316837020218372
1733697951374636300,8.51863623046875,-0.004735046532005072,0.004208621568977833,0.0015604118816554546
1733697951384590300,8.52859033203125,-0.00480218231678009,0.00624660262838006,0.0009611800778657198
1733697951394544400,8.53854443359375,-0.0019888191018253565,0.007948629558086395,-0.002205851022154093
1733697951404499200,8.548499267578125,-0.002271386794745922,0.009449684992432594,-0.002772240899503231
1733697951414453200,8.558453369140626,-0.0011592507362365723,0.007015821989625692,-0.003567993175238371
1733697951424407300,8.5684072265625,0.0000010409858077764511,0.003254900686442852,-0.0025102270301431417
1733697951434362000,8.578362060546874,0.000027139903977513313,0.002171793021261692,0.0009923622710630298
1733697951444316400,8.58831640625,0.002512803301215172,0.0023104925639927387,0.004085065331310034
1733697951454270500,8.5982705078125,0.0008355441968888044,0.0018050246872007847,0.0070156073197722435
1733697951464225300,8.608225341796874,0.0033822129480540752,0.00035245768958702683,0.008983996696770191
1733697951474179300,8.618179443359375,0.0017110793851315975,0.001218784018419683,0.008385851047933102
1733697951484133000,8.628133056640625,0.002334173070266843,0.0019890260882675648,0.007675120607018471
1733697951494088200,8.638088134765624,0.0024233886506408453,0.0036007713060826063,0.007291358895599842
1733697951504042500,8.64804248046875,-0.00041237648110836744,0.002810041420161724,0.007702594622969627
1733697951513996300,8.657996337890625,-0.0007223683642223477,-0.002495241817086935,0.00904802419245243
1733697951523951400,8.667951416015624,0.000801455695182085,-0.0034430003724992275,0.010568264871835709
1733697951533905200,8.6779052734375,0.0016941474750638008,-0.005358345806598663,0.009717384353280067
1733697951543859200,8.687859130859374,0.0028244294226169586,-0.004852672107517719,0.01208482589572668
1733697951553814300,8.697814208984376,0.0033666491508483887,-0.0042396122589707375,0.011593473143875599
1733697951563768300,8.707768310546875,0.002016372513025999,-0.006451008375734091,0.01174742728471756
1733697951573722400,8.717722412109374,0.002223299816250801,-0.011167200282216072,0.011050211265683174
1733697951583677200,8.72767724609375,0.001904299482703209,-0.012014517560601234,0.00731976144015789
1733697951593631200,8.73763134765625,0.0012662059161812067,-0.008002997376024723,0.001997167244553566
1733697951603585300,8.747585205078124,0.0010448121465742588,-0.001081481808796525,-0.0017360488418489695
1733697951613540000,8.7575400390625,0.0033111621160060167,0.003691169200465083,-0.005275656469166279
1733697951623494400,8.767494384765625,0.002455825684592128,0.005701032467186451,-0.005981546360999346
1733697951633448400,8.777448486328124,0.004599404521286488,0.0017153456574305892,-0.005202838219702244
1733697951643403300,8.7874033203125,0.002353253774344921,-0.0027911937795579433,-0.000503048999235034
1733697951653357300,8.797357421875,0.0014810687862336636,-0.0005317677860148251,0.0019984582904726267
1733697951663311400,8.807311279296876,0.0027118592988699675,0.005993891507387161,0.0009445544565096498
1733697951673266200,8.81726611328125,0.0013552450109273195,0.008800596930086613,0.004748613573610783
1733697951683220500,8.827220458984375,0.0033636263106018305,0.003019520081579685,0.006428670138120651
1733697951693174300,8.83717431640625,0.006067001260817051,-0.00904593151062727,0.010243915021419525
1733697951703128300,8.84712841796875,0.012256214395165443,-0.019982600584626198,0.014797141775488853
1733697951713083400,8.85708349609375,0.016640841960906982,-0.028346523642539978,0.01729412190616131
1733697951723037200,8.867037109375,0.01812361739575863,-0.032828498631715775,0.020246706902980804
1733697951732991200,8.8769912109375,0.014988544397056103,-0.03640086203813553,0.01954549551010132
1733697951742946300,8.8869462890625,0.011224120855331421,-0.03367815166711807,0.016907809302210808
1733697951752900400,8.896900390625,0.004935865290462971,-0.02380874566733837,0.017002351582050323
1733697951762854400,8.9068544921875,-0.002655877498909831,-0.011473996564745903,0.014838292263448238
1733697951772809200,8.916809326171874,-0.011902372352778912,-0.00021548307267948985,0.009456043131649494
1733697951782763300,8.92676318359375,-0.01454907562583685,0.005875525064766407,0.0008599149296060205
1733697951792717300,8.93671728515625,-0.01328753586858511,0.009284371510148048,-0.009225210174918175
1733697951802672400,8.94667236328125,-0.009187703020870686,0.010601025074720383,-0.01403255108743906
1733697951812626400,8.95662646484375,-0.00038249383214861155,0.009106725454330444,-0.013836010359227657
1733697951822580200,8.966580322265624,0.0030125435441732407,0.0037467863876372576,-0.009255481883883476
1733697951832535300,8.976535400390626,0.007148432545363903,-0.006243263371288776,-0.00400932040065527
1733697951842489300,8.9864892578125,0.009822428226470947,-0.018299605697393417,-0.0004848260432481766
1733697951852443100,8.996443115234374,0.011718066409230232,-0.023577190935611725,0.0043019396252930164
1733697951862398500,9.0063984375,0.011527075432240963,-0.01905028708279133,0.004571027588099241
1733697951872352300,9.016352294921875,0.009939032606780529,-0.015241701155900955,0.0053010000847280025
1733697951882306300,9.026306396484374,0.006743430159986019,-0.01504573505371809,0.000528351403772831
1733697951892261400,9.036261474609375,0.003782794112339616,-0.012777787633240223,-0.0005971004720777273
1733697951902215200,9.046215087890625,0.0017392016015946865,-0.0057233585976064205,0.0013397055445238948
1733697951912169200,9.056169189453126,-0.0020808367989957333,-0.007215527817606926,0.0024473140947520733
1733697951922124300,9.066124267578125,-0.005030482541769743,-0.004849967546761036,0.0014217928983271122
1733697951932078300,9.076078369140625,-0.0050573805347085,0.0003613061853684485,0.0006516067078337073
1733697951942032400,9.086032470703126,-0.0027530654333531857,-0.0034440658055245876,0.00431915745139122
1733697951951987200,9.0959873046875,-0.0002646076027303934,-0.010102501139044762,0.007860628888010979
1733697951961941500,9.10594140625,0.00531851127743721,-0.01423601619899273,0.009006966836750507
1733697951971895600,9.1158955078125,0.007018406875431538,-0.019734112545847893,0.006186945829540491
1733697951981850400,9.125850341796875,0.009823830798268318,-0.020444544032216072,0.003836279036477208
1733697951991804400,9.135804443359374,0.011980459094047546,-0.017985647544264793,0.0021209369879215956
1733697952001758500,9.145758544921875,0.01103384792804718,-0.009565941989421844,0.004722209647297859
1733697952011713300,9.15571337890625,0.0067557464353740215,-0.0042561315931379795,0.005850590765476227
1733697952021667600,9.16566748046875,0.0030017420649528503,-0.001705521484836936,0.01024034433066845
1733697952031621400,9.175621337890625,-0.001105651375837624,-0.001345994882285595,0.012464616447687149
1733697952041576400,9.185576416015625,-0.0040020085871219635,-0.00236480962485075,0.011394958943128586
1733697952051530200,9.1955302734375,-0.0027178325690329075,-0.003486532950773835,0.009025810286402702
1733697952061484300,9.205484375,-0.004128316417336464,-0.0034675991628319025,0.007170539349317551
1733697952071439400,9.215439453125,-0.0034971474669873714,-0.0005556988180615008,0.006017656996846199
1733697952081393400,9.225393310546876,-0.003459596773609519,0.00460231164470315,0.002832516096532345
1733697952091347500,9.235347412109375,-0.0039038120303303003,0.004129866603761911,0.003755034878849983
1733697952101301500,9.245301513671874,-0.002626401372253895,0.0031457480508834124,0.001637602224946022
1733697952111256300,9.25525634765625,-0.0053441571071743965,-0.0005874712369404733,0.0004335871199145913
1733697952121210400,9.26521044921875,-0.0023085693828761578,-0.0003760347026400268,0.00019512278959155083
1733697952131164400,9.275164306640624,-0.0027517194394022226,0.002300974680110812,-0.0004656075034290552
1733697952141119500,9.285119384765625,-0.0014895827043801546,0.002181206364184618,0.0000706652645021677
1733697952151073500,9.295073486328125,-0.0014405804686248302,0.0005897012306377292,-0.0016310946084558964
1733697952161027300,9.30502734375,-0.00019716168753802776,-0.0005790601135231555,-0.0019514078740030527
1733697952170982400,9.314982421875,-0.0014911915641278028,0.0022582716774195433,-0.0025327762123197317
1733697952180936400,9.3249365234375,-0.001321270945481956,0.0015244707465171814,-0.001195135060697794
1733697952190890200,9.33489013671875,-0.0030664403457194567,0.0020544398576021194,0.0024952071253210306
1733697952200845600,9.344845458984375,-0.002990253269672394,0.000978393480181694,0.0017817671177908778
1733697952210799400,9.35479931640625,-0.0030549680814146996,-0.0021798491943627596,0.0012757665244862437
1733697952220753400,9.36475341796875,-0.0014891341561451554,-0.0035019242204725742,0.002792216604575515
1733697952230708500,9.37470849609375,-0.0009658230701461434,-0.001266999403014779,0.0017368060071021318
1733697952240662300,9.384662353515624,-0.0024101624730974436,0.0010549996513873339,0.0020896054338663816
1733697952250616300,9.3946162109375,-0.005080514121800661,0.0019173312466591597,0.0032041382510215044
1733697952260571400,9.4045712890625,-0.008031593635678291,0.0008307240786962211,0.0015903066378086805
1733697952270525400,9.414525390625,-0.006012119352817535,-0.000949066539760679,-0.002929343841969967
1733697952280479500,9.4244794921875,-0.0061620986089110374,-0.0003005934995599091,-0.003073196392506361
1733697952290434300,9.434434326171875,-0.004711475223302841,0.0012741336831822991,-0.0071337176486849785
1733697952300388400,9.444388427734374,-0.0030581846367567778,0.007071302738040686,-0.00940406322479248
1733697952310342400,9.45434228515625,-0.002757780021056533,0.011544880457222462,-0.01066134124994278
1733697952320297500,9.46429736328125,-0.005336103029549122,0.012007489800453186,-0.00960661843419075
1733697952330251500,9.47425146484375,-0.005675922147929668,0.0032006828114390373,-0.009341367520391941
1733697952340205300,9.484205322265625,-0.007020627148449421,0.0014624632894992828,-0.007231724448502064
1733697952350160400,9.494160400390625,-0.006703178398311138,0.01239580474793911,-0.00817315187305212
1733697952360114400,9.504114501953126,-0.007171398028731346,0.021429041400551796,-0.007164238952100277
1733697952370068200,9.514068115234375,-0.006286961957812309,0.0196982529014349,-0.006548249162733555
1733697952380023600,9.5240234375,-0.005575691349804401,0.009872976690530777,-0.0034509054385125637
1733697952389977300,9.533977294921876,0.001621767645701766,-0.004089710768312216,0.0017065724823623896
1733697952399931400,9.543931396484375,0.006625771522521973,-0.009302188642323017,0.007707677781581879
1733697952409886500,9.553886474609374,0.012096436694264412,-0.012502775527536869,0.014468378387391567
1733697952419840300,9.56384033203125,0.012474605813622475,-0.018108462914824486,0.01536240242421627
1733697952429794300,9.573794189453125,0.00778371375054121,-0.02209707908332348,0.015542964451014996
1733697952439749400,9.583749267578124,0.0005082783754914999,-0.017742903903126717,0.007381950039416552
1733697952449703400,9.593703369140625,-0.009388560429215431,-0.0075113060884177685,0.0020026310812681913
1733697952459657500,9.603657470703125,-0.01777041330933571,0.003413836006075144,-0.004201135598123074
1733697952469612300,9.6136123046875,-0.02404508739709854,0.013558615930378437,-0.013064934872090816
1733697952479566300,9.62356640625,-0.02374737709760666,0.016185253858566284,-0.02214040979743004
1733697952489520400,9.633520263671874,-0.022114060819149017,0.015664339065551758,-0.02696073241531849
1733697952499474200,9.64347412109375,-0.01291463989764452,0.01587134227156639,-0.02568649873137474
1733697952509429500,9.653429443359375,-0.006017053034156561,0.011163138784468174,-0.019829409196972847
1733697952519383600,9.663383544921874,-0.00244179111905396,0.0032074409537017345,-0.01106569916009903
1733697952529337300,9.67333740234375,0.0036099760327488184,-0.006471551954746246,-0.005736714228987694
1733697952539292400,9.68329248046875,0.006261912640184164,-0.01180480606853962,0.0004090206930413842
1733697952549246200,9.69324609375,0.005086126737296581,-0.016042428091168404,0.001030069892294705
1733697952559200300,9.7032001953125,0.004167407751083374,-0.012204768136143684,-0.0021635948214679956
1733697952569155300,9.7131552734375,-0.0015860856510698795,-0.006045675370842218,-0.005887758918106556
1733697952579109400,9.723109375,-0.00385728245601058,0.0010259086266160011,-0.008997509256005287
1733697952589063400,9.7330634765625,-0.006977441720664501,0.006130655761808157,-0.009662501513957977
1733697952599018200,9.743018310546875,-0.009409641847014427,0.00728228036314249,-0.00962024461477995
1733697952608972300,9.75297216796875,-0.013769501820206642,0.005172790493816137,-0.009572840295732021
1733697952618926300,9.76292626953125,-0.013812912628054619,0.00848096888512373,-0.012216826900839806
1733697952628881400,9.77288134765625,-0.012092510238289833,0.009258878417313099,-0.010067389346659184
1733697952638835500,9.78283544921875,-0.01000931952148676,0.007096731103956699,-0.004178962204605341
1733697952648789500,9.79278955078125,-0.005674225743860006,0.002796524902805686,0.0005854330956935883
1733697952658744300,9.802744384765624,-0.0007978103822097182,-0.00028832448879256845,0.002391987480223179
1733697952668698400,9.812698486328125,0.001470137620344758,-0.004730477463454008,0.0010734564857557416
1733697952678652200,9.822652099609375,0.0022889759857207537,-0.004491003695875406,-0.0021805930882692337
1733697952688607500,9.832607421875,0.0013837672304362059,-0.0019870998803526163,-0.005022718571126461
1733697952698561500,9.8425615234375,0.001407745061442256,0.0029074945487082005,-0.003814622526988387
1733697952708515300,9.852515380859375,-0.001763547072187066,0.008109979331493378,-0.003092906204983592
1733697952718470400,9.862470458984374,-0.0033344589173793793,0.009723000228404999,0.00009243376553058624
1733697952728424200,9.872424072265625,-0.0031608210410922766,0.008177035488188267,0.0021968637593090534
1733697952738378200,9.882378173828124,-0.003264079336076975,0.00663184467703104,0.004986638203263283
1733697952748333600,9.89233349609375,-0.0038662198930978775,0.0070600807666778564,0.0037554590962827206
1733697952758287400,9.902287353515625,-0.0018973033875226974,0.004798627458512783,0.0018553994596004486
1733697952768241400,9.912241455078124,-0.0038462046068161726,0.007676705252379179,0.0017251709941774607
1733697952778196200,9.9221962890625,-0.00529974652454257,0.013597249053418636,0.00022035581059753895
1733697952788150300,9.932150390625,-0.007083797827363014,0.016397830098867416,-0.0011847279965877533
1733697952798104300,9.942104248046874,-0.009851259179413319,0.015392597764730453,0.00000637187622487545
1733697952808059400,9.952059326171875,-0.0100062545388937,0.015686610713601112,-0.003790763206779957
1733697952818013400,9.962013427734375,-0.01084382925182581,0.015529850497841835,-0.004353690426796675
1733697952827967500,9.971967529296874,-0.007153221406042576,0.016147702932357788,-0.004065536428242922
1733697952837922300,9.98192236328125,-0.007355213165283203,0.017013810575008392,-0.002288650255650282
1733697952847876400,9.99187646484375,-0.005490734241902828,0.01639063097536564,-0.001340565038844943
1733697952857830400,10.001830322265626,-0.005782182328402996,0.014235224574804306,0.0009999532485380769
1733697952867784200,10.0117841796875,-0.004741685464978218,0.012069275602698326,0.000023904722183942795
1733697952877739500,10.021739501953125,-0.0036300821229815483,0.013300455175340176,0.000055063748732209206
1733697952887693300,10.031693359375,-0.0026870567817240953,0.01140055526047945,-0.0014653350226581097
1733697952897647400,10.0416474609375,-0.0029651338700205088,0.009645329788327217,-0.0013608301524072886
1733697952907602400,10.0516025390625,-0.0015568543458357453,0.007871131412684917,-0.0016785450279712677
1733697952917556200,10.06155615234375,0.0010429664980620146,0.004940791986882687,-0.0016315162647515535
1733697952927510300,10.07151025390625,0.003004917176440358,0.0033554122783243656,0.0016050233971327543
1733697952937465300,10.08146533203125,0.004248453304171562,0.006026644259691238,0.003226575907319784
1733697952947419000,10.0914189453125,0.0042079733684659,0.0063345059752464294,0.007212528958916664
1733697952957373000,10.101373046875,0.00222003273665905,0.002641510684043169,0.008363350294530392
1733697952967327700,10.11132763671875,-0.0013520652428269386,0.00039327010745182633,0.007425118237733841
1733697952977281800,10.12128173828125,-0.004209487233310938,0.0006846382166258991,0.002866696799173951
1733697952987235800,10.13123583984375,-0.005615902598947287,0.006825621239840984,-0.0016348441131412983
1733697952997191000,10.14119091796875,-0.0053957374766469,0.014935506507754326,-0.004499985836446285
1733697953007145000,10.15114501953125,-0.004029535688459873,0.019509753212332726,-0.006868601776659489
1733697953017099000,10.16109912109375,-0.004924099892377853,0.020479774102568626,-0.004535873420536518
1733697953027053800,10.1710537109375,-0.003168544266372919,0.01677851378917694,-0.004684744402766228
1733697953037008000,10.1810078125,-0.0048399996012449265,0.017894737422466278,-0.004073792137205601
1733697953046961700,10.190961669921874,-0.004837336018681526,0.02638169936835766,-0.0019081095233559608
1733697953056917000,10.2009169921875,-0.0079983901232481,0.02868611365556717,0.00011684675700962543
1733697953066871000,10.21087109375,-0.005015383940190077,0.024104943498969078,0.0028931922279298306
1733697953076824800,10.220824951171876,-0.0035718237049877644,0.0150125278159976,0.003484237939119339
1733697953086780000,10.23077978515625,0.0035545292776077986,0.0026352200657129288,0.006445939652621746
1733697953096733700,10.240733642578125,0.013509523123502731,-0.0019421109464019537,0.009596593677997589
1733697953106687700,10.250687744140626,0.016483208164572716,-0.013107679784297943,0.014529033564031124
1733697953116643000,10.26064306640625,0.015133303590118885,-0.025692805647850037,0.014968697912991047
1733697953126596900,10.270596923828125,0.01586274430155754,-0.029519502073526382,0.012562798336148262
1733697953136551000,10.280551025390626,0.010781945660710335,-0.026815466582775116,0.010730789974331856
1733697953146505700,10.290505615234375,0.0054843854159116745,-0.018278969451785088,0.01027086190879345
1733697953156459800,10.300459716796874,-0.003103500697761774,-0.00828628521412611,0.00810819398611784
1733697953166413800,10.310413818359375,-0.009492424316704273,0.0012198678450658917,0.0028489837422966957
1733697953176367900,10.320367919921875,-0.014709428884088993,0.00607043132185936,-0.00758039765059948
1733697953186323000,10.330322998046874,-0.015638606622815132,0.009764235466718674,-0.013116310350596905
1733697953196277000,10.340277099609375,-0.011364477686583996,0.014123168773949146,-0.018699606880545616
1733697953206230800,10.350230712890625,-0.007531123235821724,0.022647947072982788,-0.015964273363351822
1733697953216185900,10.360185791015626,-0.005695512983947992,0.026765111833810806,-0.01429788675159216
1733697953226140000,10.370139892578125,-0.0013846540823578835,0.019076300784945488,-0.008952923119068146
1733697953236093700,10.38009375,-0.0005674900021404028,0.00855050329118967,-0.005176074802875519
1733697953246049000,10.390049072265626,0.0016205632127821445,0.0030713160522282124,-0.0010324623435735703
1733697953256002800,10.4000029296875,0.003806016407907009,0.0022764368914067745,0.0016814770642668009
1733697953265956900,10.409956787109374,0.0016155666671693325,0.0024846959859132767,0.0023725673090666533
1733697953275912000,10.419911865234376,-0.000010514399036765099,0.004423679783940315,0.0018009439809247851
1733697953285865700,10.42986572265625,-0.0012957558501511812,0.00538374949246645,0.0018446198664605618
1733697953295819800,10.43981982421875,-0.003916936926543713,0.009687308222055435,0.0017645908519625664
1733697953305774800,10.44977490234375,-0.006946282461285591,0.011226082220673561,0.0007762917084619403
1733697953315729000,10.45972900390625,-0.0080388393253088,0.015133590437471867,-0.00014338805340230465
1733697953325683000,10.469682861328126,-0.006231085397303104,0.02203943394124508,-0.00003579631447792053
1733697953335637800,10.4796376953125,-0.008124081417918205,0.01904403790831566,0.0028888662345707417
1733697953345591800,10.489591796875,-0.005494742654263973,0.006962342653423548,0.0034337490797042847
1733697953355545900,10.4995458984375,-0.0014089853502810001,-0.004428337328135967,0.004731329157948494
1733697953365501000,10.5095009765625,0.005940539762377739,-0.009338674135506153,0.002006382681429386
1733697953375455000,10.519455078125,0.014259062707424164,-0.008740143850445747,0.0013847106602042913
1733697953385408800,10.52940869140625,0.013832425698637962,-0.008356648497283459,0.002284859074279666
1733697953395363800,10.53936376953125,0.01075360830873251,-0.008069485425949097,0.0007723619928583503
1733697953405318000,10.54931787109375,0.00690107885748148,-0.004477946553379297,0.003055756213143468
1733697953415271700,10.559271728515625,0.0006512484978884459,-0.0020960415713489056,0.007097482681274414
1733697953425227000,10.56922705078125,-0.00257410597987473,0.0002483392017893493,0.008434922434389591
1733697953435180800,10.579180908203124,-0.0029620006680488586,0.000038167345337569714,0.0035975310020148754
1733697953445134800,10.589134765625,-0.0024027368053793907,0.0027125137858092785,0.0007543404353782535
1733697953455089000,10.5990888671875,-0.0035224382299929857,0.004755876492708921,-0.0011297997552901506
1733697953465043700,10.609043701171874,-0.004884112626314163,0.0047651976346969604,-0.0029916157945990562
1733697953474997800,10.618997802734375,-0.0029331976547837257,0.006949541158974171,-0.005712456069886684
1733697953484952000,10.6289521484375,-0.00455133430659771,0.008035844191908836,-0.00896417535841465
1733697953494907000,10.638906982421876,-0.004785678815096617,0.008002188056707382,-0.010076376609504223
1733697953504861000,10.64886083984375,-0.0027550184167921543,0.0054327696561813354,-0.010312599129974842
1733697953514815000,10.65881494140625,-0.002096713986247778,0.003108660690486431,-0.009105460718274117
1733697953524769800,10.668769775390626,-0.0032027247361838818,0.0036271780263632536,-0.006276383996009827
1733697953534723800,10.678723876953125,-0.002431425964459777,0.0020842489320784807,-0.004240038339048624
1733697953544678000,10.688677978515624,-0.0025392838288098574,0.0020541551057249308,0.0009613813599571586
1733697953554633000,10.698633056640626,-0.0031050434336066246,0.0006093779811635613,-0.0002099461853504181
1733697953564586800,10.708586669921875,-0.0025029026437550783,-0.0015629623085260391,0.002229775534942746
1733697953574540800,10.718540771484374,-0.0003470018273219466,-0.00198989175260067,0.0004431743873283267
1733697953584495900,10.728495849609375,-0.0005398147040978074,-0.00013659807154908776,0.0014274788554757833
1733697953594449700,10.73844970703125,0.0009730241727083921,0.0008281826158054173,0.0006613330915570259
1733697953604404000,10.748404052734376,0.001286212122067809,0.0010699976701289415,0.0016757312696427107
1733697953614358800,10.75835888671875,0.000050724949687719345,-0.0015353087801486254,0.0011248324299231172
1733697953624312800,10.768312744140625,-0.000979652046225965,-0.0024634203873574734,0.0039626965299248695
1733697953634267000,10.778266845703126,0.00008687400259077549,-0.002945232205092907,0.005594417452812195
1733697953644221700,10.7882216796875,0.0007593221962451935,0.0009507063077762723,0.005216515157371759
1733697953654175700,10.79817578125,-0.0006493877153843641,0.0029212620574980974,0.006223943084478378
1733697953664130000,10.808130126953126,-0.0002190209925174713,0.0018639869522303343,0.006024472415447235
1733697953674084900,10.8180849609375,-0.0009149463148787618,-0.0028689205646514893,0.0039523751474916935
1733697953684039000,10.828038818359374,-0.0009895148687064648,-0.0052236877381801605,0.002485772594809532
1733697953693993000,10.837992919921875,0.0007882395293563604,-0.004332748707383871,-0.0022499924525618553
1733697953703947800,10.84794775390625,-0.0000858099665492773,0.0019086357206106186,-0.005903050769120455
1733697953713901800,10.85790185546875,-0.0004825431387871504,0.0073017762042582035,-0.007995915599167347
1733697953723856000,10.86785595703125,0.0011691492982208729,0.009128705598413944,-0.00879726093262434
1733697953733810000,10.877809814453125,0.0003995038568973541,0.00477121165022254,-0.010563382878899574
1733697953743765000,10.887764892578126,0.00039124791510403156,0.0022646444849669933,-0.009607573971152306
1733697953753718800,10.89771875,-0.0021771672181785107,0.007723251357674599,-0.005364272277802229
1733697953763672800,10.9076728515625,-0.003112469334155321,0.013155034743249416,-0.002661696169525385
1733697953773627600,10.917627685546876,-0.005290712229907513,0.01426636427640915,0.0005692091071978211
1733697953783582000,10.92758203125,-0.002889073919504881,0.008005806244909763,0.0020182349253445864
1733697953793536000,10.937535888671874,0.0008582277223467827,-0.0004966388805769384,0.004228436388075352
1733697953803490800,10.94749072265625,0.010238946415483952,-0.009083735756576061,0.009107081219553947
1733697953813444900,10.95744482421875,0.016627520322799683,-0.012408611364662647,0.014575064182281494
1733697953823399000,10.96739892578125,0.020740771666169167,-0.017724281176924706,0.017049672082066536
1733697953833353700,10.977353759765625,0.019367294386029243,-0.02369292639195919,0.015905465930700302
1733697953843308000,10.98730810546875,0.014749374240636826,-0.027255438268184662,0.013495838269591331
1733697953853261800,10.99726171875,0.00692136213183403,-0.02227271907031536,0.010961241088807583
1733697953863217000,11.007216796875,-0.0032260804437100887,-0.010730046778917313,0.01082701701670885
1733697953873171000,11.0171708984375,-0.012841520830988884,-0.001145440386608243,0.0038901478983461857
1733697953883124700,11.027124755859376,-0.0193681288510561,0.005864531733095646,-0.00401278305798769
1733697953893079800,11.037079833984375,-0.019591672345995903,0.005632488522678614,-0.0130123570561409
1733697953903033900,11.047033935546875,-0.019053714349865913,0.007769941817969084,-0.01848089136183262
1733697953912988000,11.05698779296875,-0.013116774149239063,0.01050879992544651,-0.018861882388591766
1733697953922943000,11.06694287109375,-0.006781912874430418,0.007547897752374411,-0.01446020882576704
1733697953932896800,11.076896728515624,-0.002465897472575307,0.003010514657944441,-0.009387550875544548
1733697953942851600,11.0868515625,0.0018652013968676329,-0.00001909735146909952,-0.0039941174909472466
1733697953952806700,11.096806640625,0.0007323131430894136,-0.002190768253058195,0.001770315458998084
1733697953962760700,11.1067607421875,-0.0005044587887823582,-0.00006902782479301095,0.002760212402790785
1733697953972714800,11.11671484375,-0.0038769450038671494,0.0028171571902930737,0.0064304908737540245
1733697953982669600,11.126669677734375,-0.007604305166751146,0.006790061015635729,0.006080817896872759
1733697953992623600,11.13662353515625,-0.005765105597674847,0.008845023810863495,0.000407089595682919
1733697954002577700,11.14657763671875,-0.0033392321784049273,0.010688995942473412,-0.00043260492384433746
1733697954012531500,11.156531494140625,0.0007923753000795841,0.008684900589287281,0.00039603421464562416
1733697954022486800,11.16648681640625,0.00472559779882431,0.0060811275616288185,0.0011563666630536318
1733697954032440600,11.176440673828125,0.010663468390703201,0.0011855787597596645,-0.00028062681667506695
1733697954042394600,11.18639453125,0.014965271577239037,-0.005913875997066498,0.0003028716892004013
1733697954052349400,11.196349365234376,0.014564835466444492,-0.013881704770028591,0.006508257240056992
1733697954062303500,11.206303466796875,0.01692306436598301,-0.017000267282128334,0.015143291093409061
1733697954072257500,11.216257568359374,0.017063263803720474,-0.014530203305184841,0.017913665622472763
1733697954082212600,11.226212646484376,0.015151647850871086,-0.010560229420661926,0.01435142196714878
1733697954092166700,11.236166748046875,0.0112345851957798,-0.009806498885154724,0.010668070986866951
1733697954102120700,11.24612060546875,0.009447603486478329,-0.007724173832684755,0.006831254810094833
1733697954112075500,11.256075439453125,0.0034430071245878935,-0.00294482777826488,0.0052309175953269005
1733697954122029600,11.266029541015625,-0.0030497792176902294,0.0020914762280881405,0.010168950073421001
1733697954131983600,11.275983642578124,-0.0055529274977743626,0.002126692794263363,0.01521734707057476
1733697954141938700,11.285938720703125,-0.008275477215647697,-0.0008078442770056427,0.01811273768544197
1733697954151892700,11.295892822265625,-0.004948859103024006,-0.0038855853490531445,0.019111866131424904
1733697954161846500,11.305846435546876,-0.0037642852403223515,-0.0049601709470152855,0.01596827059984207
1733697954171801600,11.315801513671875,-0.0013916625175625086,-0.0034747598692774773,0.015376717783510685
1733697954181755600,11.325755615234375,0.0016011979896575212,0.00023182760924100876,0.011033101938664913
1733697954191709400,11.33570947265625,0.002194303320720792,0.002307366346940398,0.008184339851140976
1733697954201664800,11.345664794921875,0.0027319954242557287,0.0031822146847844124,0.004948066547513008
1733697954211618600,11.35561865234375,0.0046692765317857265,0.002537574153393507,0.005189216695725918
1733697954221572600,11.365572509765625,0.0003160731866955757,-0.000016397389117628336,0.0030813247431069613
1733697954231527700,11.375527587890625,0.0015648622065782547,-0.0022909664548933506,0.0012048172065988183
1733697954241481500,11.3854814453125,0.0037103050854057074,-0.0029157442040741444,-0.0009978832677006721
1733697954251435500,11.395435546875,0.005240407306700945,-0.005787448957562447,-0.0014499325770884752
1733697954261390600,11.405390625,0.006289959419518709,-0.006630872376263142,-0.002693895250558853
1733697954271344600,11.4153447265625,0.007538249250501394,-0.0063189431093633175,-0.0024654841981828213
1733697954281298700,11.425298583984375,0.007758758496493101,-0.007993805222213268,-0.0029949205927550793
1733697954291253500,11.43525341796875,0.006902486551553011,-0.007564310450106859,-0.0012999966274946928
1733697954301207600,11.44520751953125,0.006972261238843203,-0.009123058058321476,0.0002885789144784212
1733697954311161600,11.45516162109375,0.0071366773918271065,-0.008883796632289886,0.0020756940357387066
1733697954321115600,11.46511572265625,0.006816565059125423,-0.014182422310113907,0.0016498545883223414
1733697954331070700,11.47507080078125,0.00968104600906372,-0.01672268472611904,0.0041787708178162575
1733697954341024500,11.4850244140625,0.011587070301175117,-0.014460328966379166,0.008956748060882092
1733697954350978600,11.494978515625,0.010181913152337074,-0.010787829756736755,0.010877126827836037
1733697954360933600,11.50493359375,0.006488640792667866,-0.0060181086882948875,0.01390913501381874
1733697954370887400,11.514887451171875,0.003254006151109934,-0.006118545774370432,0.013897755183279514
1733697954380841700,11.524841796875,-0.0010536568006500602,-0.009169196709990501,0.01407831721007824
1733697954390796500,11.534796630859375,-0.0014476542128250003,-0.010253643617033958,0.009538091719150543
1733697954400750600,11.54475048828125,-0.003101211041212082,-0.008750288747251034,0.005273838061839342
1733697954410704600,11.55470458984375,-0.0013786300551146269,-0.005743645131587982,-0.0017215963453054428
1733697954420659500,11.564659423828125,-0.00011709076352417469,0.00021784077398478985,-0.0047035375609993935
1733697954430613500,11.574613525390625,0.001684354618191719,0.0033286246471107006,-0.005417598411440849
1733697954440567800,11.58456787109375,0.0028870380483567715,0.0017413805471733212,-0.002357626333832741
1733697954450522600,11.594522705078125,0.003104390809312463,-0.006499762646853924,0.0024108057841658592
1733697954460476700,11.6044765625,0.003272169968113303,-0.01057466585189104,0.0017479449743404984
1733697954470430700,11.6144306640625,0.0016394499689340591,-0.0034005683846771717,0.0009726108983159065
1733697954480385500,11.624385498046875,0.00240377732552588,0.004247497767210007,0.0016847401857376099
1733697954490339600,11.634339599609374,0.004815965890884399,0.005200027488172054,0.004050205461680889
1733697954500293600,11.644293701171875,0.00466869305819273,-0.007292062044143677,0.005627063103020191
1733697954510248700,11.654248779296875,0.012175977230072021,-0.020649302750825882,0.010221417061984539
1733697954520202800,11.66420263671875,0.015275631099939346,-0.028972746804356575,0.016618061810731888
1733697954530156500,11.674156494140625,0.018784264102578163,-0.03278261050581932,0.021448038518428802
1733697954540111600,11.684111572265625,0.017838841304183006,-0.04091617092490196,0.02088291570544243
1733697954550065400,11.6940654296875,0.015498189255595207,-0.04549308121204376,0.018752653151750565
1733697954560019700,11.704019775390625,0.009915138594806194,-0.04011083021759987,0.01631506159901619
1733697954569973800,11.713973876953125,0.004044350236654282,-0.02689993567764759,0.010388041846454144
1733697954579928600,11.723928466796876,-0.004252728074789047,-0.014360442757606506,0.007360028102993965
1733697954589882600,11.733882568359375,-0.008155254647135735,-0.0033039904665201902,0.000018137041479349136
1733697954599836700,11.743836669921874,-0.011327613145112991,0.003918502014130354,-0.007912490516901016
1733697954609791500,11.75379150390625,-0.008897071704268456,0.005257150158286095,-0.014610784128308296
1733697954619745800,11.763745849609375,-0.00462003517895937,0.006708040367811918,-0.018223628401756287
1733697954629699600,11.773699462890624,-0.00025965250097215176,0.0034091612324118614,-0.014097237959504128
1733697954639654700,11.783654541015625,0.003699669148772955,-0.006656256038695574,-0.007079009898006916
1733697954649608700,11.793608642578125,0.006542680785059929,-0.01299040112644434,-0.0008549175690859556
1733697954659562500,11.8035625,0.009678819216787815,-0.01675424538552761,0.0008492391789332032
1733697954669517600,11.813517578125,0.009019499644637108,-0.015836015343666077,0.001628859550692141
1733697954679471600,11.8234716796875,0.008261030539870262,-0.013850628398358822,-0.0012710564769804478
1733697954689425700,11.83342578125,0.005007400177419186,-0.011431615799665451,-0.0029000029899179935
1733697954699380700,11.843380615234375,0.0023152108769863844,-0.006527937017381191,-0.004316272214055061
1733697954709334500,11.85333447265625,-0.0011511595221236348,-0.001873263856396079,-0.0062926034443080425
