time,seconds_elapsed,z,y,x
1733697490967363000,0.017363037109375,-0.05466346815228462,-0.07743348181247711,0.005733998026698828
1733697490977316000,0.027316162109375,-0.05325307697057724,-0.036390673369169235,-0.004409498535096645
1733697490987268000,0.03726806640625,-0.04025445133447647,-0.0071640778332948685,-0.010416258126497269
1733697490997221000,0.04722119140625,-0.02621261402964592,0.014192681759595871,-0.008579145185649395
1733697491007174100,0.057174072265625,-0.013974854722619057,0.02910691685974598,-0.00018592714332044125
1733697491017126100,0.067126220703125,-0.005233814008533955,0.045315682888031006,0.010626821778714657
1733697491027079200,0.0770791015625,0.002492282073944807,0.05862376466393471,0.019800879061222076
1733697491037031200,0.08703125,0.005301445722579956,0.06942195445299149,0.023841621354222298
1733697491046984200,0.096984130859375,0.00266864406876266,0.07496825605630875,0.020578984171152115
1733697491056937200,0.106937255859375,-0.004977925214916468,0.0719953179359436,0.017461147159337997
1733697491066889200,0.11688916015625,-0.015586093999445438,0.06180153787136078,0.013651493936777115
1733697491076842200,0.12684228515625,-0.021225983276963234,0.05347102880477905,0.013275327160954475
1733697491086795000,0.136794921875,-0.020638490095734596,0.05436771363019943,0.017433853819966316
1733697491096747300,0.146747314453125,-0.012870410457253456,0.05716877058148384,0.022645853459835052
1733697491106700300,0.1567001953125,0.006219128612428904,0.05889609456062317,0.028922123834490776
1733697491116653300,0.1666533203125,0.024822350591421127,0.058528367429971695,0.029224827885627747
1733697491126605300,0.176605224609375,0.04408419877290726,0.046618446707725525,0.027517743408679962
1733697491136558300,0.186558349609375,0.06195852532982826,0.029940752312541008,0.025376157835125923
1733697491146511400,0.196511474609375,0.07523385435342789,0.014718390069901943,0.029898205772042274
1733697491156463000,0.206463134765625,0.0899391695857048,0.0004594447382260114,0.03534658998250961
1733697491166416100,0.216416015625,0.1046571284532547,-0.017945127561688423,0.03888805955648422
1733697491176369200,0.226369140625,0.11803072690963745,-0.03900700435042381,0.03858339414000511
1733697491186321200,0.236321044921875,0.12453683465719223,-0.05783528462052345,0.03389862924814224
1733697491196274200,0.246274169921875,0.11571697890758514,-0.07142523676156998,0.029025763273239136
1733697491206227200,0.256227294921875,0.09767592698335648,-0.0825500562787056,0.026448354125022888
1733697491216179200,0.26617919921875,0.07243790477514267,-0.0949738547205925,0.021785231307148933
1733697491226132200,0.27613232421875,0.045388709753751755,-0.10490957647562027,0.01670365408062935
1733697491236085200,0.286085205078125,0.022113600745797157,-0.11844676733016968,0.011269514448940754
1733697491246037200,0.296037353515625,0.006869134493172169,-0.135365828871727,0.004617736674845219
1733697491255990300,0.305990234375,-0.0026348165702074766,-0.1500808149576187,-0.0014070195611566305
1733697491265943300,0.315943359375,-0.007705208845436573,-0.16390369832515717,-0.0058864569291472435
1733697491275895000,0.32589501953125,-0.008165511302649975,-0.1776258498430252,-0.009538707323372364
1733697491285848000,0.33584814453125,-0.0053167277947068214,-0.18892697989940643,-0.015166765078902245
1733697491295801000,0.345801025390625,-0.0017040169332176447,-0.1981820911169052,-0.019108686596155167
1733697491305753300,0.35575341796875,0.004506740719079971,-0.19614477455615997,-0.016587739810347557
1733697491315706400,0.365706298828125,0.008817723020911217,-0.1915842443704605,-0.0188121497631073
1733697491325659400,0.375659423828125,0.011497128754854202,-0.17522098124027252,-0.01766166277229786
1733697491335611100,0.385611083984375,0.009577822871506214,-0.14771248400211334,-0.013319233432412148
1733697491345564200,0.395564208984375,0.00029510888271033764,-0.11669943481683731,-0.009305850602686405
1733697491355517200,0.40551708984375,-0.009895379655063152,-0.07465565204620361,-0.004699131473898888
1733697491365469200,0.41546923828125,-0.022535007447004318,-0.027204513549804688,0.0007869800319895148
1733697491375422200,0.425422119140625,-0.032673560082912445,0.01979438029229641,0.007372437044978142
1733697491385375200,0.435375244140625,-0.04237572103738785,0.06613817811012268,0.012729917652904987
1733697491395327000,0.445326904296875,-0.05427753925323486,0.10694625973701477,0.014103617519140244
1733697491405280000,0.455280029296875,-0.056936439126729965,0.13679362833499908,0.01612202636897564
1733697491415233000,0.46523291015625,-0.05375724285840988,0.1526535600423813,0.018028156831860542
1733697491425185300,0.475185302734375,-0.04109737277030945,0.15898069739341736,0.019435370340943336
1733697491435138300,0.48513818359375,-0.025953099131584167,0.1595262587070465,0.018508031964302063
1733697491445091300,0.49509130859375,-0.009590903297066689,0.16367493569850922,0.022019676864147186
1733697491455043300,0.505043212890625,0.002381374128162861,0.1721215695142746,0.02974090911448002
1733697491464996000,0.51499609375,0.005738022271543741,0.18157526850700378,0.04206841439008713
1733697491474949000,0.52494921875,0.0003547503147274256,0.19191138446331024,0.05048072710633278
1733697491484901000,0.534901123046875,-0.010497897863388062,0.20288121700286865,0.06007210165262222
1733697491494854100,0.544854248046875,-0.022593801841139793,0.210995614528656,0.0669601559638977
1733697491504807200,0.55480712890625,-0.03465179726481438,0.21442736685276031,0.07066994160413742
1733697491514760000,0.564760009765625,-0.04172787815332413,0.2146315574645996,0.07113171368837357
1733697491524713000,0.574712890625,-0.04619799181818962,0.20856647193431854,0.061202388256788254
1733697491534666000,0.584666015625,-0.04617197811603546,0.20579996705055237,0.05283430591225624
1733697491544618200,0.5946181640625,-0.04437567666172981,0.20031119883060455,0.0452570803463459
1733697491554571300,0.6045712890625,-0.039830032736063004,0.19903798401355743,0.038447119295597076
1733697491564524300,0.614524169921875,-0.03573568910360336,0.1928812861442566,0.02981261909008026
1733697491574476000,0.62447607421875,-0.02946561761200428,0.17250940203666687,0.02157854475080967
1733697491584429000,0.634428955078125,-0.024805884808301926,0.1326834261417389,0.008345297537744045
1733697491594382000,0.644382080078125,-0.01866023987531662,0.08127761632204056,-0.008556107059121132
1733697491604334000,0.654333984375,-0.006155101582407951,0.018583869561553,-0.02672392688691616
1733697491614287000,0.664287109375,0.011485405266284943,-0.05296939238905907,-0.04050556570291519
1733697491624240000,0.674240234375,0.030191980302333832,-0.13208791613578796,-0.052310291677713394
1733697491634192000,0.68419189453125,0.04832145571708679,-0.20992892980575562,-0.062135446816682816
1733697491644145000,0.694144775390625,0.059829238802194595,-0.28234294056892395,-0.07003677636384964
1733697491654098000,0.704097900390625,0.06609697639942169,-0.34582677483558655,-0.06755432486534119
1733697491664050200,0.71405029296875,0.05914319306612015,-0.39327606558799744,-0.06105940788984299
1733697491674003200,0.724003173828125,0.04462115094065666,-0.4169536828994751,-0.05725396052002907
1733697491683956200,0.733956298828125,0.023139294236898422,-0.4188336133956909,-0.055607862770557404
1733697491693908000,0.743907958984375,0.003713322104886174,-0.4033138155937195,-0.05513681471347809
1733697491703861000,0.753861083984375,-0.012836093083024025,-0.37908223271369934,-0.056020718067884445
1733697491713814000,0.76381396484375,-0.020161041989922523,-0.3535270392894745,-0.05799298733472824
1733697491723766000,0.77376611328125,-0.014318864792585373,-0.3291330337524414,-0.05872562527656555
1733697491733719000,0.783718994140625,0.008413332514464855,-0.30961599946022034,-0.06002352386713028
1733697491743672000,0.793672119140625,0.03596479818224907,-0.2841833233833313,-0.059647753834724426
1733697491753625000,0.803625,0.06468582898378372,-0.2543484568595886,-0.05466475337743759
1733697491763577000,0.8135771484375,0.09010330587625504,-0.22354364395141602,-0.04473702237010002
1733697491773530000,0.823530029296875,0.10661960393190384,-0.19826199114322662,-0.03626571595668793
1733697491783483100,0.833483154296875,0.1179012879729271,-0.1811373233795166,-0.026187783107161522
1733697491793435100,0.84343505859375,0.12879131734371185,-0.18162661790847778,-0.02318471483886242
1733697491803388200,0.85338818359375,0.1373957246541977,-0.198237806558609,-0.016790730878710747
1733697491813341200,0.863341064453125,0.14681950211524963,-0.22468271851539612,-0.012177280150353909
1733697491823293000,0.87329296875,0.14928026497364044,-0.2544182538986206,-0.006167590618133545
1733697491833246000,0.883245849609375,0.14464254677295685,-0.2806660532951355,-0.0023544684518128633
1733697491843199000,0.893198974609375,0.13374489545822144,-0.3037247657775879,0.0004458455368876457
1733697491853151000,0.90315087890625,0.12421440333127975,-0.3181963264942169,-0.000040269456803798676
1733697491863104000,0.91310400390625,0.11458627134561539,-0.32577621936798096,0.0013861196348443627
1733697491873057000,0.92305712890625,0.10255561769008636,-0.33778974413871765,0.0017992807552218437
1733697491883009300,0.93300927734375,0.09193199872970581,-0.3540448844432831,-0.00028810487128794193
1733697491892962000,0.942962158203125,0.08212129026651382,-0.3721829652786255,-0.006106926593929529
1733697491902915000,0.9529150390625,0.07305748760700226,-0.38917526602745056,-0.01133364625275135
1733697491912868000,0.9628681640625,0.06484411656856537,-0.3959335684776306,-0.018802102655172348
1733697491922820000,0.972820068359375,0.052665479481220245,-0.38842612504959106,-0.023165958002209663
1733697491932773000,0.982773193359375,0.041172776371240616,-0.37332433462142944,-0.025073135271668434
1733697491942726100,0.99272607421875,0.03450581803917885,-0.3593991994857788,-0.025430265814065933
1733697491952678000,1.002677978515625,0.04088950529694557,-0.3562243580818176,-0.025142868980765343
1733697491962631000,1.012630859375,0.06253807991743088,-0.3733498156070709,-0.024676548317074776
1733697491972584000,1.022583984375,0.083241306245327,-0.4036664664745331,-0.027233144268393517
1733697491982536200,1.0325361328125,0.09579039365053177,-0.44471269845962524,-0.03345216065645218
1733697491992489200,1.0424892578125,0.09230884164571762,-0.4784272611141205,-0.042141206562519073
1733697492002442200,1.052442138671875,0.07083737105131149,-0.49358251690864563,-0.059718068689107895
1733697492012395300,1.062395263671875,0.03867021203041077,-0.479383260011673,-0.07766949385404587
1733697492022347000,1.072346923828125,0.0056789712980389595,-0.4075929820537567,-0.09071152657270432
1733697492032300000,1.082300048828125,-0.027167845517396927,-0.2796667814254761,-0.08775882422924042
1733697492042253000,1.092253173828125,-0.05861019343137741,-0.10185018181800842,-0.07590483129024506
1733697492052205000,1.102205078125,-0.08668495714664459,0.10289451479911804,-0.05425477772951126
1733697492062158000,1.112157958984375,-0.11575709283351898,0.2991889417171478,-0.03213935345411301
1733697492072111000,1.122111083984375,-0.14520853757858276,0.4519433379173279,-0.011191357858479023
1733697492082064100,1.132064208984375,-0.1655641496181488,0.5569634437561035,0.004871764220297337
1733697492092015900,1.142015869140625,-0.1708819419145584,0.6163661479949951,0.010411213152110577
1733697492101969000,1.151968994140625,-0.16097524762153625,0.6452595591545105,0.01118725910782814
1733697492111922000,1.161921875,-0.14187417924404144,0.6432254314422607,0.0070859333500266075
1733697492121874200,1.171874267578125,-0.1132126972079277,0.6086711883544922,0.001792101887986064
1733697492131827200,1.1818271484375,-0.07979068160057068,0.5477426052093506,-0.001432191114872694
1733697492141780200,1.1917802734375,-0.04393627867102623,0.4615139961242676,0.003185464069247246
1733697492151732000,1.20173193359375,-0.009455554187297821,0.3773335814476013,0.01078866608440876
1733697492161685000,1.21168505859375,0.014546983875334263,0.29735058546066284,0.02048310451209545
1733697492171638000,1.221637939453125,0.0203549861907959,0.22694700956344604,0.030822353437542915
1733697492181591000,1.231591064453125,0.011327137239277363,0.15603581070899963,0.03302984684705734
1733697492191543000,1.24154296875,-0.003145789261907339,0.07380779087543488,0.018783124163746834
1733697492201496000,1.25149609375,0.00014055147767066956,-0.016154054552316666,-0.006743809208273888
1733697492211449000,1.261448974609375,0.02612694725394249,-0.10388417541980743,-0.03253861516714096
1733697492221402000,1.271402099609375,0.05989875644445419,-0.16882376372814178,-0.04161253571510315
1733697492231354000,1.28135400390625,0.08754707872867584,-0.19678455591201782,-0.039770856499671936
1733697492241307100,1.29130712890625,0.10224266350269318,-0.1920638382434845,-0.027956807985901833
1733697492251260200,1.30126025390625,0.0949309840798378,-0.16313818097114563,-0.022475948557257652
1733697492261212200,1.311212158203125,0.06800083816051483,-0.11714485287666321,-0.015258515253663063
1733697492271165200,1.321165283203125,0.023290472105145454,-0.057439178228378296,-0.00990128144621849
1733697492281118200,1.3311181640625,-0.027964193373918533,0.013922085054218769,-0.006056210026144981
1733697492291071200,1.3410712890625,-0.07846634089946747,0.09700339287519455,-0.0005574766546487808
1733697492301023000,1.35102294921875,-0.11242377758026123,0.179392009973526,0.0023259278386831284
1733697492310976000,1.36097607421875,-0.12790003418922424,0.25317302346229553,0.0062870001420378685
1733697492320929000,1.370928955078125,-0.12543314695358276,0.3032010495662689,0.014611242339015007
1733697492330882000,1.380882080078125,-0.1081797182559967,0.3141085207462311,0.021161476150155067
1733697492340834000,1.390833984375,-0.08307915925979614,0.28107067942619324,0.024040887132287025
1733697492350787000,1.400787109375,-0.056498508900403976,0.2099168747663498,0.022496091201901436
1733697492360740000,1.410739990234375,-0.028810689225792885,0.10537556558847427,0.01511833630502224
1733697492370692000,1.420692138671875,0.004154752474278212,-0.010477287694811821,0.006533759646117687
1733697492380645000,1.43064501953125,0.030552007257938385,-0.11660239100456238,-0.0002559693530201912
1733697492390598100,1.44059814453125,0.04961123690009117,-0.1974290907382965,-0.007050415500998497
1733697492400551200,1.45055126953125,0.05178410932421684,-0.2491777539253235,-0.012937599793076515
1733697492410503200,1.460503173828125,0.04938606917858124,-0.2662254869937897,-0.016969872638583183
1733697492420456200,1.470456298828125,0.04959459602832794,-0.263247013092041,-0.016636444255709648
1733697492430409200,1.4804091796875,0.04439888149499893,-0.24802595376968384,-0.012743141502141953
1733697492440362000,1.490362060546875,0.03573615103960037,-0.21786724030971527,-0.008512177504599094
1733697492450314000,1.50031396484375,0.02189212664961815,-0.17600584030151367,-0.004855419509112835
1733697492460267000,1.51026708984375,0.004575187806040049,-0.1262824982404709,-0.004983251448720694
1733697492470220000,1.520219970703125,-0.009343254379928112,-0.0727984830737114,-0.003989274147897959
1733697492480173000,1.530173095703125,-0.020961029455065727,-0.020294256508350372,-0.0038582468405365944
1733697492490125000,1.540125,-0.03253664821386337,0.020980101078748703,-0.008549022488296032
1733697492500078000,1.550078125,-0.04100896045565605,0.04833955317735672,-0.023293348029255867
1733697492510030800,1.56003076171875,-0.046562012284994125,0.06842325627803802,-0.04093854874372482
1733697492519983900,1.56998388671875,-0.051257699728012085,0.09259597212076187,-0.05812179669737816
1733697492529935600,1.579935546875,-0.05320566147565842,0.12033974379301071,-0.06371210515499115
1733697492539888600,1.589888671875,-0.061797551810741425,0.14596761763095856,-0.0744829922914505
1733697492549841700,1.599841552734375,-0.06706490367650986,0.16608670353889465,-0.06616663187742233
1733697492559794700,1.609794677734375,-0.06846413016319275,0.16923801600933075,-0.03966444358229637
1733697492569746700,1.61974658203125,-0.06436366587877274,0.15024489164352417,-0.0033623643685132265
1733697492579699700,1.62969970703125,-0.051393233239650726,0.11195074021816254,0.01805974170565605
1733697492589652700,1.63965283203125,-0.035751067101955414,0.05403038114309311,0.0239685270935297
1733697492599605800,1.649605712890625,-0.019122552126646042,-0.015327655710279942,0.016303950920701027
1733697492609557500,1.6595576171875,-0.001627258025109768,-0.08135568350553513,-0.000011848052963614464
1733697492619510500,1.669510498046875,0.01709849201142788,-0.13041377067565918,-0.012114583514630795
1733697492629463600,1.679463623046875,0.034604307264089584,-0.16919277608394623,-0.01759098656475544
1733697492639416600,1.68941650390625,0.04916540905833244,-0.20888479053974152,-0.015418114140629768
1733697492649368800,1.699368896484375,0.0584719255566597,-0.2501665949821472,-0.007955770939588547
1733697492659321900,1.70932177734375,0.05903012305498123,-0.2916290760040283,0.000767679768614471
1733697492669275000,1.71927490234375,0.05820809304714203,-0.3254697918891907,0.004939814563840628
1733697492679227600,1.7292275390625,0.05787040293216705,-0.34995222091674805,0.004993343725800514
1733697492689180700,1.7391806640625,0.061660103499889374,-0.3592786490917206,0.0003269060980528593
1733697492699132700,1.749132568359375,0.07153963297605515,-0.35488468408584595,-0.005561608821153641
1733697492709085700,1.759085693359375,0.08111171424388885,-0.3330109417438507,-0.00923736672848463
1733697492719038700,1.769038818359375,0.08936618268489838,-0.29527953267097473,-0.008493279106914997
1733697492728991700,1.77899169921875,0.08712094277143478,-0.2458588033914566,-0.005725597031414509
1733697492738943700,1.78894384765625,0.07549358159303665,-0.18844744563102722,-0.0004429505206644535
1733697492748896500,1.798896484375,0.05642103776335716,-0.12759177386760712,0.005832616239786148
1733697492758849500,1.808849609375,0.0292019322514534,-0.06963366270065308,0.008175399154424667
1733697492768802600,1.818802490234375,0.0030175407882779837,-0.018631186336278915,0.010993764735758305
1733697492778755600,1.828755615234375,-0.017266426235437393,0.022243808954954147,0.01743035763502121
1733697492788707800,1.838707763671875,-0.03147386014461517,0.051044486463069916,0.017874756827950478
1733697492798660900,1.848660888671875,-0.03578764945268631,0.06540797650814056,0.014857395552098751
1733697492808614000,1.85861376953125,-0.041344888508319855,0.07079868763685226,0.010807757265865803
1733697492818567000,1.86856689453125,-0.03836880624294281,0.06627930700778961,0.011555572971701622
1733697492828519700,1.878519775390625,-0.03249116241931915,0.05908774584531784,0.010581377893686295
1733697492838471700,1.8884716796875,-0.02982933260500431,0.04110634699463844,0.013391278684139252
1733697492848424700,1.8984248046875,-0.029200244694948196,0.01882682554423809,0.013349107466638088
1733697492858377700,1.908377685546875,-0.029072146862745285,-0.01620332896709442,0.005701574496924877
1733697492868330800,1.918330810546875,-0.02820904180407524,-0.06274256855249405,-0.00543218944221735
1733697492878282800,1.92828271484375,-0.02284090779721737,-0.11114125698804855,-0.022830886766314507
1733697492888235800,1.93823583984375,-0.010068275034427643,-0.1528172641992569,-0.03627139702439308
1733697492898188500,1.9481884765625,0.01333052571862936,-0.18586842715740204,-0.03795105218887329
1733697492908141600,1.9581416015625,0.048832595348358154,-0.215928852558136,-0.03169288858771324
1733697492918094600,1.968094482421875,0.08717918395996094,-0.2573181092739105,-0.018966974690556526
1733697492928046600,1.978046630859375,0.12119036912918091,-0.3192236125469208,-0.013827063143253326
1733697492937999600,1.98799951171875,0.13386568427085876,-0.3905220329761505,-0.014698449522256851
1733697492947952600,1.99795263671875,0.128000870347023,-0.46631959080696106,-0.025079451501369476
1733697492957905700,2.00790576171875,0.10369553416967392,-0.5253413319587708,-0.03748472034931183
1733697492967858700,2.017858642578125,0.07437653094530106,-0.5497651100158691,-0.04884215444326401
1733697492977811700,2.027811767578125,0.04480026662349701,-0.5341480374336243,-0.05547049641609192
1733697492987763700,2.037763671875,0.019767114892601967,-0.48403114080429077,-0.05349980294704437
1733697492997716700,2.047716796875,0.004224907141178846,-0.4106171131134033,-0.04554200917482376
1733697493007669800,2.057669677734375,-0.004364653956145048,-0.32712864875793457,-0.02980133891105652
1733697493017622800,2.067622802734375,-0.00865926779806614,-0.24763140082359314,-0.015178720466792583
1733697493027575800,2.077575927734375,-0.01466318964958191,-0.18298335373401642,-0.00008884561248123646
1733697493037527800,2.08752783203125,-0.018657397478818893,-0.13478785753250122,0.008185861632227898
1733697493047480600,2.09748046875,-0.023331360891461372,-0.10342326760292053,0.008451647125184536
1733697493057433600,2.10743359375,-0.02470102347433567,-0.06695792824029922,0.00668304180726409
1733697493067386600,2.11738671875,-0.02706504613161087,-0.030094163492321968,0.010023919865489006
1733697493077339600,2.127339599609375,-0.02705971896648407,0.01268046349287033,0.015189120545983315
1733697493087291600,2.137291748046875,-0.024723857641220093,0.05172143131494522,0.01734977588057518
1733697493097244700,2.14724462890625,-0.01604781113564968,0.0812513530254364,0.02301272377371788
1733697493107197700,2.15719775390625,0.000593079486861825,0.08027055859565735,0.02926880307495594
1733697493117150700,2.167150634765625,0.02773228846490383,0.052193377166986465,0.038977887481451035
1733697493127103700,2.177103759765625,0.05780257657170296,-0.019398346543312073,0.04344930499792099
1733697493137056500,2.187056396484375,0.0766012966632843,-0.10682059824466705,0.03562040999531746
1733697493147008800,2.1970087890625,0.07444047182798386,-0.17867176234722137,0.019119704142212868
1733697493156961800,2.2069619140625,0.059273239225149155,-0.2248818725347519,0.00039555132389068604
1733697493166914800,2.216914794921875,0.03516480326652527,-0.24701958894729614,-0.02081872709095478
1733697493176867800,2.226867919921875,0.009712442755699158,-0.23970788717269897,-0.03659582883119583
1733697493186820900,2.23682080078125,-0.01590459793806076,-0.20618481934070587,-0.04136794060468674
1733697493196774000,2.24677392578125,-0.04029436036944389,-0.148214191198349,-0.03180452808737755
1733697493206725600,2.2567255859375,-0.06327641010284424,-0.06641080230474472,-0.019215688109397888
1733697493216678700,2.2666787109375,-0.08652527630329132,0.040854670107364655,-0.007003496401011944
1733697493226631700,2.276631591796875,-0.10847970098257065,0.16647519171237946,0.004044677130877972
1733697493236584700,2.286584716796875,-0.12637560069561005,0.28690069913864136,0.012831510975956917
1733697493246537700,2.296537841796875,-0.13601136207580566,0.3881554901599884,0.016364656388759613
1733697493256490800,2.30649072265625,-0.1298235058784485,0.4604720175266266,0.01827600784599781
1733697493266442800,2.31644287109375,-0.11518076062202454,0.4906110167503357,0.02182605303823948
1733697493276395800,2.326395751953125,-0.10161887854337692,0.49626997113227844,0.024099860340356827
1733697493286348800,2.336348876953125,-0.09199044853448868,0.48587027192115784,0.02406386099755764
1733697493296301600,2.346301513671875,-0.08713656663894653,0.45585858821868896,0.020174046978354454
1733697493306254600,2.356254638671875,-0.07586683332920074,0.4087277948856354,0.0154953608289361
1733697493316207600,2.36620751953125,-0.05075056105852127,0.3407426178455353,0.01354140043258667
1733697493326160600,2.37616064453125,-0.013159625232219696,0.2575192153453827,0.01640763133764267
1733697493336112600,2.386112548828125,0.0365392230451107,0.15936388075351715,0.021370431408286095
1733697493346065700,2.396065673828125,0.0839085653424263,0.05450573191046715,0.025807499885559082
1733697493356018700,2.406018798828125,0.11689527332782745,-0.04470127820968628,0.022773893550038338
1733697493365971700,2.4159716796875,0.1300206333398819,-0.12966744601726532,0.01455513946712017
1733697493375924500,2.425924560546875,0.11881323903799057,-0.1995764970779419,0.004332063253968954
1733697493385877500,2.43587744140625,0.09057445824146271,-0.2555921971797943,-0.007011433131992817
1733697493395830500,2.44583056640625,0.05289525166153908,-0.29360058903694153,-0.015599061734974384
1733697493405782800,2.45578271484375,0.017998462542891502,-0.3127167224884033,-0.019269390031695366
1733697493415735800,2.46573583984375,-0.007720748893916607,-0.30627959966659546,-0.019789237529039383
1733697493425688800,2.475688720703125,-0.019931692630052567,-0.2815842926502228,-0.018900718539953232
1733697493435641900,2.485641845703125,-0.025820475071668625,-0.24550029635429382,-0.01950046233832836
1733697493445595000,2.495594970703125,-0.02756032906472683,-0.202347531914711,-0.0209492240101099
1733697493455548000,2.5055478515625,-0.028839444741606712,-0.16733814775943756,-0.023434486240148544
1733697493465500700,2.515500732421875,-0.02517165243625641,-0.1440097540616989,-0.025215964764356613
1733697493475452700,2.52545263671875,-0.01776326820254326,-0.1300548017024994,-0.02476642280817032
1733697493485405700,2.53540576171875,-0.00653141550719738,-0.11879187822341919,-0.023211104795336723
1733697493495358700,2.545358642578125,0.004564911127090454,-0.09674569964408875,-0.017624856904149055
1733697493505311700,2.555311767578125,0.01047180313616991,-0.06374460458755493,-0.012827173806726933
1733697493515265000,2.56526513671875,0.012597537599503994,-0.02294311858713627,-0.007463834248483181
1733697493525218000,2.575218017578125,0.011357627809047699,0.017072204500436783,-0.002741043921560049
1733697493535171000,2.585171142578125,0.003261085832491517,0.05020672082901001,-0.0021048146300017834
1733697493545124000,2.5951240234375,-0.005882091820240021,0.07404512166976929,-0.0038267995696514845
1733697493555076000,2.605076171875,-0.014087291434407234,0.09875419735908508,-0.006876652128994465
1733697493565029000,2.615029052734375,-0.019283995032310486,0.12964466214179993,-0.006101064849644899
1733697493574982100,2.624982177734375,-0.02273012325167656,0.17668646574020386,-0.0032773157581686974
1733697493584935200,2.63493505859375,-0.025890503078699112,0.2324872761964798,0.002900434425100684
1733697493594888000,2.644887939453125,-0.03335187956690788,0.2955552041530609,0.01287317369133234
1733697493604841000,2.654841064453125,-0.044431671500205994,0.35459446907043457,0.020857034251093864
1733697493614794000,2.6647939453125,-0.059239912778139114,0.4148399829864502,0.0266715120524168
1733697493624747000,2.6747470703125,-0.08091866225004196,0.4739699065685272,0.029621854424476624
1733697493634700000,2.684699951171875,-0.103023961186409,0.527449369430542,0.028006913140416145
1733697493644652000,2.694652099609375,-0.1196444034576416,0.5709563493728638,0.025747163221240044
1733697493654605000,2.70460498046875,-0.12896306812763214,0.5993515253067017,0.021783847361803055
1733697493664558000,2.71455810546875,-0.1338343322277069,0.6117728352546692,0.020120743662118912
1733697493674511000,2.724510986328125,-0.1301240175962448,0.6027143597602844,0.017262639477849007
1733697493684463900,2.7344638671875,-0.12365792691707611,0.5857187509536743,0.017015572637319565
1733697493694417000,2.7444169921875,-0.10873889923095703,0.5562154650688171,0.017811058089137077
1733697493704370000,2.754369873046875,-0.0956602618098259,0.5202308893203735,0.021689334884285927
1733697493714323000,2.764322998046875,-0.07892841845750809,0.4787822961807251,0.02683296427130699
1733697493724276000,2.77427587890625,-0.06489966064691544,0.4272019565105438,0.029043875634670258
1733697493734229000,2.78422900390625,-0.047370996326208115,0.36561688780784607,0.02905266359448433
1733697493744181200,2.79418115234375,-0.03246444836258888,0.2984539270401001,0.029354369267821312
1733697493754134300,2.80413427734375,-0.022298095747828484,0.22907139360904694,0.026196394115686417
1733697493764087000,2.814087158203125,-0.01081498060375452,0.16632293164730072,0.025236770510673523
1733697493774040000,2.8240400390625,-0.002666506916284561,0.11014702171087265,0.027066361159086227
1733697493783993000,2.8339931640625,0.002013549441471696,0.06269003450870514,0.027286050841212273
1733697493793946000,2.843946044921875,0.003899333765730262,0.022715985774993896,0.02781708538532257
1733697493803899100,2.853899169921875,0.004012195393443108,-0.011492730118334293,0.025877846404910088
1733697493813852200,2.86385205078125,0.004237499088048935,-0.04244079440832138,0.020681221038103104
1733697493823805200,2.87380517578125,0.004887592978775501,-0.06306140124797821,0.012230128981173038
1733697493833758200,2.88375830078125,0.007196553982794285,-0.07254865020513535,0.0074715930968523026
1733697493843711200,2.893711181640625,0.006640685722231865,-0.07213061302900314,0.0032077147625386715
1733697493853663000,2.9036630859375,0.003241426544263959,-0.06284336745738983,0.0023871948942542076
1733697493863616000,2.913615966796875,-0.001440255087800324,-0.04492511227726936,0.0005910461768507957
1733697493873569000,2.923569091796875,-0.008473397232592106,-0.024649670347571373,0.0022115795873105526
1733697493883522000,2.93352197265625,-0.012305312789976597,-0.004704744555056095,0.0009339582175016403
1733697493893475000,2.94347509765625,-0.016421228647232056,0.012421511113643646,0.001804545521736145
1733697493903428000,2.953427978515625,-0.01541396789252758,0.02696257457137108,0.006233072839677334
1733697493913381000,2.963381103515625,-0.008208252489566803,0.03718032315373421,0.009569214656949043
1733697493923334100,2.973334228515625,-0.0014488821616396308,0.0393654964864254,0.013442816212773323
1733697493933287200,2.983287109375,0.010104176588356495,0.036154523491859436,0.016348326578736305
1733697493943240200,2.993240234375,0.01968943141400814,0.03415827080607414,0.017089784145355225
1733697493953193200,3.003193115234375,0.030556458979845047,0.02443799562752247,0.0189923457801342
1733697493963146000,3.01314599609375,0.04390512406826019,0.010215581394731998,0.021061483770608902
1733697493973099000,3.02309912109375,0.0538933128118515,-0.005140737630426884,0.02340027317404747
1733697493983052000,3.033052001953125,0.06473122537136078,-0.01897251233458519,0.024359486997127533
1733697493993004000,3.043004150390625,0.08010591566562653,-0.039998434484004974,0.024127792567014694
1733697494002957000,3.05295703125,0.10182579606771469,-0.07364451885223389,0.018354332074522972
1733697494012910000,3.06291015625,0.13317306339740753,-0.10859185457229614,0.014806468039751053
1733697494022863000,3.072863037109375,0.16266560554504395,-0.14614421129226685,0.013654257170855999
1733697494032816000,3.082816162109375,0.19417400658130646,-0.1843605786561966,0.021321764215826988
1733697494042769200,3.09276904296875,0.22869692742824554,-0.2210599184036255,0.030938850715756416
1733697494052722000,3.102721923828125,0.2647119164466858,-0.2567979395389557,0.044706329703330994
1733697494062675000,3.112675048828125,0.29210466146469116,-0.3088380992412567,0.06309334188699722
1733697494072628000,3.1226279296875,0.3007309138774872,-0.3754591941833496,0.07324051856994629
1733697494082581000,3.1325810546875,0.2872909903526306,-0.44719356298446655,0.06456803530454636
1733697494092534000,3.142533935546875,0.2563735544681549,-0.5145619511604309,0.043491777032613754
1733697494102487000,3.152487060546875,0.21367448568344116,-0.5696709752082825,0.015736352652311325
1733697494112440000,3.162440185546875,0.16424834728240967,-0.593245267868042,-0.013040433637797832
1733697494122393000,3.17239306640625,0.11191272735595703,-0.5749427676200867,-0.033226873725652695
1733697494132346000,3.18234619140625,0.06183064728975296,-0.5220433473587036,-0.04386566951870918
1733697494142299100,3.192299072265625,0.02526809275150299,-0.44714275002479553,-0.03941396623849869
1733697494152252000,3.202251953125,0.0013955177273601294,-0.36090800166130066,-0.026798304170370102
1733697494162205000,3.212204833984375,-0.01156424731016159,-0.27200302481651306,-0.016656070947647095
1733697494172158000,3.222157958984375,-0.011458253487944603,-0.1861318051815033,-0.007704121991991997
1733697494182110000,3.23210986328125,-0.012639807537198067,-0.10198209434747696,-0.001082046190276742
1733697494192063000,3.24206298828125,-0.013561527244746685,-0.026553377509117126,0.0034892698749899864
1733697494202016000,3.25201611328125,-0.015529418364167213,0.03845511004328728,0.005467891693115234
1733697494211969000,3.261968994140625,-0.019635744392871857,0.09139875322580338,0.006062042899429798
1733697494221922000,3.271922119140625,-0.021326430141925812,0.13817907869815826,0.01036102045327425
1733697494231875000,3.281875,-0.02401755377650261,0.18000428378582,0.020879972726106644
1733697494241827800,3.291827880859375,-0.02482789382338524,0.21671828627586365,0.03543704003095627
1733697494251780900,3.30178076171875,-0.026493702083826065,0.24911776185035706,0.04596132040023804
1733697494261734000,3.31173388671875,-0.031450849026441574,0.2833941578865051,0.05163088068366051
1733697494271687000,3.32168701171875,-0.04181986674666405,0.31449002027511597,0.05429697036743164
1733697494281640000,3.331639892578125,-0.049296412616968155,0.33157622814178467,0.050875093787908554
1733697494291593000,3.341593017578125,-0.05088472366333008,0.3350023627281189,0.04740951955318451
1733697494301546000,3.3515458984375,-0.046532705426216125,0.32525455951690674,0.03936779871582985
1733697494311499000,3.3614990234375,-0.03307361900806427,0.3035370111465454,0.034480899572372437
1733697494321452000,3.3714521484375,-0.02300291135907173,0.2811059057712555,0.03483583778142929
1733697494331405000,3.381405029296875,-0.01571570336818695,0.2538681626319885,0.03724972531199455
1733697494341358000,3.391358154296875,-0.017520057037472725,0.22516539692878723,0.03652232885360718
1733697494351310800,3.401310791015625,-0.021545425057411194,0.19155283272266388,0.030213303864002228
1733697494361263900,3.411263916015625,-0.02713720314204693,0.14772778749465942,0.02243044041097164
1733697494371217000,3.421216796875,-0.030527673661708832,0.09795171022415161,0.013946142047643661
1733697494381170000,3.431169921875,-0.028219668194651604,0.041020315140485764,0.0045686401426792145
1733697494391123000,3.441123046875,-0.020838450640439987,-0.01995408907532692,-0.005286387167870998
1733697494401076000,3.451075927734375,-0.006810625083744526,-0.07492126524448395,-0.014445284381508827
1733697494411029000,3.461029052734375,0.0008891061879694462,-0.1161336824297905,-0.01940329186618328
1733697494420982000,3.47098193359375,0.004745664075016975,-0.12141357362270355,-0.022150443866848946
1733697494430935000,3.48093505859375,0.006173917092382908,-0.09075259417295456,-0.02096799947321415
1733697494440888000,3.49088818359375,0.008083201944828033,-0.03249656409025192,-0.01711178384721279
1733697494450841000,3.500841064453125,-0.00035608955658972263,0.04136833921074867,-0.00645115040242672
1733697494460793900,3.5107939453125,-0.00914220605045557,0.12094034254550934,0.001644879230298102
1733697494470747000,3.520746826171875,-0.028765708208084106,0.19402627646923065,0.003243841230869293
1733697494480700000,3.530699951171875,-0.04778284579515457,0.2500232458114624,0.002705270890146494
1733697494490653000,3.54065283203125,-0.06676719337701797,0.28692641854286194,-0.001465772045776248
1733697494500606000,3.55060595703125,-0.08329842984676361,0.2989257276058197,-0.005907698534429073
1733697494510558500,3.560558349609375,-0.09474735707044601,0.29195836186408997,-0.005880533717572689
1733697494520511500,3.570511474609375,-0.09435230493545532,0.26231008768081665,-0.005320734344422817
1733697494530464500,3.580464599609375,-0.0830565094947815,0.21615804731845856,-0.0020764709915965796
1733697494540417500,3.59041748046875,-0.06590164452791214,0.15985240042209625,0.0007066967664286494
1733697494550370300,3.600370361328125,-0.046148981899023056,0.09911689907312393,0.0014332071878015995
1733697494560323300,3.6103232421875,-0.028776094317436218,0.04250647500157356,0.003857771400362253
1733697494570276400,3.6202763671875,-0.017203060910105705,-0.007292239926755428,0.003063084091991186
1733697494580229400,3.6302294921875,-0.005223052576184273,-0.04941600188612938,0.0032972213812172413
1733697494590182400,3.640182373046875,0.000021510757505893707,-0.07827002555131912,0.002703336300328374
1733697494600135400,3.650135498046875,0.007547405082732439,-0.09902571886777878,0.004100923426449299
1733697494610088400,3.66008837890625,0.011521905660629272,-0.10982749611139297,0.0042223636992275715
1733697494620041500,3.67004150390625,0.015589505434036255,-0.10796932131052017,0.0035070329904556274
1733697494629994500,3.679994384765625,0.014037415385246277,-0.0970732644200325,0.004355249926447868
1733697494639947500,3.689947509765625,0.012517975643277168,-0.07493371516466141,0.0016769606154412031
1733697494649900500,3.699900634765625,0.00957651436328888,-0.049946874380111694,-0.001366499811410904
1733697494659853300,3.709853271484375,0.004801554139703512,-0.022056540474295616,-0.000048360321670770645
1733697494669806300,3.719806396484375,-0.0005031963810324669,0.0012730181915685534,-0.002058514393866062
1733697494679759400,3.72975927734375,-0.00497517641633749,0.017622696235775948,-0.003634040243923664
1733697494689712400,3.73971240234375,-0.00951320305466652,0.027293965220451355,-0.0001024224329739809
1733697494699665400,3.74966552734375,-0.014206863939762115,0.03152727708220482,-0.00012697838246822357
1733697494709618400,3.759618408203125,-0.015300624072551727,0.033136624842882156,0.000377424294129014
1733697494719571500,3.769571533203125,-0.013234655372798443,0.03064633347094059,-0.00048480555415153503
1733697494729524500,3.7795244140625,-0.010274285450577736,0.02312237210571766,-0.00547903124243021
1733697494739477500,3.7894775390625,-0.005725933238863945,0.012730191461741924,-0.009435274638235569
1733697494749430500,3.799430419921875,-0.0012507576029747725,0.004319928586483002,-0.013285140506923199
1733697494759383600,3.809383544921875,0.00036044977605342865,-0.001447170041501522,-0.013529418967664242
1733697494769336300,3.81933642578125,-0.0002230487298220396,-0.0053883823566138744,-0.00919059757143259
1733697494779289300,3.829289306640625,0.0014707099180668592,-0.008659456856548786,-0.00516108050942421
1733697494789242400,3.839242431640625,0.0042726220563054085,-0.009072779677808285,-0.0009764553979039192
1733697494799195400,3.8491953125,0.0018518057186156511,-0.008752161636948586,0.002426731400191784
1733697494809148400,3.8591484375,-0.004700901918113232,-0.006271693855524063,0.0001284233294427395
1733697494819102200,3.869102294921875,-0.0045916978269815445,-0.002678882097825408,-0.005762842483818531
1733697494829055200,3.87905517578125,-0.009090309962630272,0.0006961419712752104,-0.008458494208753109
1733697494839008300,3.88900830078125,-0.012758113443851471,-0.002719955053180456,-0.012556086294353008
1733697494848961300,3.898961181640625,-0.016698526218533516,-0.005190036725252867,-0.013579006306827068
1733697494858914300,3.908914306640625,-0.018322257325053215,-0.0061072297394275665,-0.012340636923909187
1733697494868867300,3.918867431640625,-0.01618773303925991,-0.003991348203271627,-0.006816974841058254
1733697494878820400,3.9288203125,-0.013061040081083775,0.004171060863882303,-0.003070782171562314
1733697494888773400,3.9387734375,-0.008807172998785973,0.007722918875515461,0.0002302061766386032
1733697494898726100,3.94872607421875,-0.005734778009355068,0.0069302963092923164,-0.0020801369100809097
1733697494908679200,3.95867919921875,0.0008735896553844213,0.0033691173885017633,-0.005086579360067844
1733697494918632200,3.968632080078125,0.005693787708878517,-0.0019699041731655598,-0.004943909123539925
1733697494928585200,3.978585205078125,0.009607036598026752,-0.0030926931649446487,-0.0022120384965091944
1733697494938538200,3.988538330078125,0.010501028969883919,-0.00018756469944491982,-0.0006983238272368908
1733697494948491300,3.9984912109375,0.009297280572354794,0.006422933656722307,0.0027004024013876915
1733697494958444300,4.0084443359375,0.007001010701060295,0.004420433659106493,0.0014936745865270495
1733697494968397300,4.018397216796875,0.005028673447668552,-0.0052886526100337505,0.003443641122430563
1733697494978350300,4.028350341796875,0.006510478910058737,-0.0188535675406456,0.003982248716056347
1733697494988304400,4.038304443359375,0.008990680798888206,-0.03342584893107414,0.004574269987642765
1733697494998257400,4.04825732421875,0.01443831343203783,-0.04550795257091522,0.006325847469270229
1733697495008210400,4.05821044921875,0.018069801852107048,-0.05357306823134422,0.008849991485476494
1733697495018163500,4.06816357421875,0.01772509142756462,-0.05506663769483566,0.009208905510604382
1733697495028116200,4.0781162109375,0.014697075821459293,-0.05368712171912193,0.007548158057034016
1733697495038069200,4.0880693359375,0.005296415649354458,-0.048888787627220154,0.0045020608231425285
1733697495048022300,4.098022216796875,-0.0009947693906724453,-0.043721988797187805,0.0001741577871143818
1733697495057975300,4.107975341796875,-0.00810248777270317,-0.03611569106578827,-0.0027661474887281656
1733697495067928300,4.11792822265625,-0.012196831405162811,-0.027729928493499756,-0.004866582341492176
1733697495077881300,4.12788134765625,-0.011981993913650513,-0.017919765785336494,-0.00472077913582325
1733697495087834400,4.13783447265625,-0.008611231110990047,-0.0012403884902596474,-0.004733562469482422
1733697495097787400,4.147787353515625,-0.005959914065897465,0.012372482568025589,-0.0017854247707873583
1733697495107740400,4.157740478515625,-0.005050976760685444,0.02237744629383087,-0.0012458686251193285
1733697495117694500,4.167694580078125,-0.006456219125539064,0.028027886524796486,-0.0010983380489051342
1733697495127647500,4.1776474609375,-0.01008797250688076,0.02613944001495838,-0.003141248831525445
1733697495137600500,4.1876005859375,-0.01068798266351223,0.020391272380948067,-0.002804358722642064
1733697495147553500,4.197553466796875,-0.012228887528181076,0.0152095602825284,-0.004443001933395863
1733697495157506300,4.20750634765625,-0.012563992291688919,0.009988837875425816,-0.00488655548542738
1733697495167459300,4.217459228515625,-0.012338155880570412,0.004554658196866512,-0.0021546848583966494
1733697495177412400,4.227412353515625,-0.009725034236907959,-0.00218002125620842,-0.0023515436332672834
1733697495187365400,4.237365478515625,-0.009109044447541237,-0.00406234385445714,-0.0013672395143657923
1733697495197318400,4.247318359375,-0.0046284254640340805,-0.01156960055232048,-0.0002832608297467232
1733697495207271400,4.257271484375,-0.0019860370084643364,-0.029713183641433716,0.0000014312099665403366
1733697495217224400,4.267224365234375,0.0060113221406936646,-0.05999782308936119,0.001915279310196638
1733697495227177500,4.277177490234375,0.022012924775481224,-0.11167725920677185,0.003977897576987743
1733697495237131300,4.28713134765625,0.057852912694215775,-0.18095417320728302,-0.004378864541649818
1733697495247084300,4.297084228515625,0.10645213723182678,-0.25863248109817505,-0.02160312421619892
1733697495257037300,4.307037353515625,0.14929725229740143,-0.321129709482193,-0.02948310226202011
1733697495266990300,4.316990234375,0.16982170939445496,-0.35512974858283997,-0.026799168437719345
1733697495276943400,4.326943359375,0.17845754325389862,-0.3514900803565979,-0.0070349713787436485
1733697495286896000,4.336896240234375,0.1879730224609375,-0.3151909410953522,0.014750751666724682
1733697495296849200,4.34684912109375,0.19026710093021393,-0.24281293153762817,0.031949758529663086
1733697495306802200,4.35680224609375,0.1746300756931305,-0.12738727033138275,0.038686756044626236
1733697495316755200,4.366755126953125,0.14147284626960754,0.031543899327516556,0.036603931337594986
1733697495326709200,4.376709228515625,0.10685762017965317,0.23056672513484955,0.036124564707279205
1733697495336662300,4.386662353515625,0.08062399178743362,0.4494035542011261,0.041229497641325
1733697495346615300,4.396615234375,0.06573452055454254,0.6625837087631226,0.05805534869432449
1733697495356568300,4.406568359375,0.04547574743628502,0.8557196259498596,0.0777602568268776
1733697495366521300,4.416521240234375,0.02003270387649536,1.0031148195266724,0.09956515580415726
1733697495376474400,4.426474365234375,-0.012480726465582848,1.0955610275268555,0.11903315037488937
1733697495386427400,4.436427490234375,-0.04842434450984001,1.127263069152832,0.12581995129585266
1733697495396380400,4.44638037109375,-0.07678808271884918,1.0930198431015015,0.11722816526889801
1733697495406333200,4.456333251953125,-0.08904395252466202,1.0042074918746948,0.09410020709037781
1733697495416287500,4.46628759765625,-0.0824475958943367,0.8783257007598877,0.06232282891869545
1733697495426240500,4.476240478515625,-0.06042458862066269,0.7315239906311035,0.03620414063334465
1733697495436193300,4.486193359375,-0.027067316696047783,0.5806193351745605,0.024355174973607063
1733697495446146300,4.496146240234375,0.01284307986497879,0.4263072907924652,0.026066256687045097
1733697495456099300,4.506099365234375,0.054509833455085754,0.271087646484375,0.030518192797899246
1733697495466052400,4.51605224609375,0.09436643868684769,0.11379364132881165,0.03566368669271469
1733697495476005400,4.52600537109375,0.12318944931030273,-0.049095142632722855,0.02957543544471264
1733697495485958400,4.53595849609375,0.1389700025320053,-0.20779690146446228,0.01366970594972372
1733697495495912200,4.545912109375,0.1339499056339264,-0.3550633490085602,-0.0059467097744345665
1733697495505865200,4.555865234375,0.11749263852834702,-0.4761865735054016,-0.026142258197069168
1733697495515818800,4.56581884765625,0.09565799683332443,-0.564411461353302,-0.048347070813179016
1733697495525771800,4.575771728515625,0.07725954800844193,-0.6166626811027527,-0.061336636543273926
1733697495535724800,4.585724853515625,0.06825201213359833,-0.6277850866317749,-0.07207466661930084
1733697495545677800,4.595677734375,0.06626236438751221,-0.6078907251358032,-0.0715247169137001
1733697495555630800,4.605630859375,0.06387602537870407,-0.569882333278656,-0.062462590634822845
1733697495565584000,4.615583984375,0.051760509610176086,-0.5332657098770142,-0.04941895976662636
1733697495575538000,4.625537841796875,0.03574668988585472,-0.5059019923210144,-0.03757008910179138
1733697495585491000,4.635490966796875,0.02269800193607807,-0.48578494787216187,-0.030850134789943695
1733697495595444000,4.64544384765625,0.018078332766890526,-0.4576750099658966,-0.027783239260315895
1733697495605397000,4.65539697265625,0.01593795046210289,-0.40622514486312866,-0.020491503179073334
1733697495615349800,4.665349853515625,0.007196737919002771,-0.33988481760025024,-0.011221240274608135
1733697495625302800,4.675302734375,-0.0076919300481677055,-0.26893582940101624,-0.0024549132212996483
1733697495635256800,4.6852568359375,-0.022625990211963654,-0.20211762189865112,0.0021787206642329693
1733697495645209900,4.6952099609375,-0.03973173722624779,-0.1509162187576294,0.0014865651028230786
1733697495655163000,4.705162841796875,-0.04340901970863342,-0.11235277354717255,-0.003530529560521245
1733697495665116000,4.715115966796875,-0.038072578608989716,-0.07513695955276489,-0.009466716088354588
1733697495675069000,4.72506884765625,-0.028135044500231743,-0.02683858387172222,-0.01046067476272583
1733697495685022000,4.73502197265625,-0.02203533984720707,0.024409957230091095,-0.005298936739563942
1733697495694975000,4.74497509765625,-0.022400787100195885,0.07821803539991379,0.003181103151291609
1733697495704928800,4.7549287109375,-0.022699592635035515,0.11837078630924225,0.01097084954380989
1733697495714881800,4.7648818359375,-0.026166144758462906,0.14543670415878296,0.012463456019759178
1733697495724834800,4.774834716796875,-0.032244808971881866,0.1707303524017334,0.009736645966768265
1733697495734787800,4.784787841796875,-0.042892634868621826,0.2004096657037735,0.007764468900859356
1733697495744740900,4.794740966796875,-0.058532312512397766,0.23529309034347534,0.00390980951488018
1733697495754694000,4.80469384765625,-0.06742008030414581,0.275696724653244,0.002839586464688182
1733697495764646700,4.814646728515625,-0.07208646833896637,0.30623918771743774,0.0065704090520739555
1733697495774601000,4.82460107421875,-0.07093223929405212,0.31240153312683105,0.009457316249608994
1733697495784553700,4.8345537109375,-0.0672706589102745,0.2955613136291504,0.0072167981415987015
1733697495794506800,4.8445068359375,-0.0707525983452797,0.26187047362327576,0.0010398592567071319
1733697495804459800,4.854459716796875,-0.08248861879110336,0.22581873834133148,-0.007216473110020161
1733697495814412800,4.864412841796875,-0.09934741258621216,0.19542184472084045,-0.01557057537138462
1733697495824365800,4.87436572265625,-0.1205376535654068,0.183410182595253,-0.016966870054602623
1733697495834320000,4.88431982421875,-0.13797008991241455,0.18218344449996948,-0.011934756301343441
1733697495844273000,4.89427294921875,-0.14169692993164062,0.19148533046245575,-0.004998553078621626
1733697495854226000,4.904225830078125,-0.13427647948265076,0.21274420619010925,0.004671722650527954
1733697495864179000,4.914178955078125,-0.11414296925067902,0.2337173968553543,0.017635459080338478
1733697495874132000,4.924132080078125,-0.09396924823522568,0.2507816553115845,0.03614090755581856
1733697495884086000,4.9340859375,-0.07130441814661026,0.25553566217422485,0.05692901089787483
1733697495894039000,4.9440390625,-0.051733989268541336,0.24044710397720337,0.07604548335075378
1733697495903992000,4.953991943359375,-0.029526956379413605,0.21096643805503845,0.09008007496595383
1733697495913944800,4.96394482421875,0.0017937356606125832,0.16889554262161255,0.09721279889345169
1733697495923897900,4.97389794921875,0.03953605517745018,0.12621518969535828,0.09900909662246704
1733697495933851000,4.983850830078125,0.07445221394300461,0.09113437682390213,0.09547476470470428
1733697495943805000,4.993804931640625,0.09981456398963928,0.05737801268696785,0.08877318352460861
1733697495953757700,5.0037578125,0.11413627862930298,0.022542601451277733,0.07693669945001602
1733697495963710700,5.013710693359375,0.11280709505081177,-0.016515051946043968,0.06085120886564255
1733697495973663700,5.023663818359375,0.1106012761592865,-0.050511203706264496,0.038494471460580826
1733697495983616800,5.03361669921875,0.10906223207712173,-0.06917490065097809,0.012970471754670143
1733697495993570800,5.04357080078125,0.1127280443906784,-0.062116242945194244,-0.010483548045158386
1733697496003523800,5.05352392578125,0.11345349252223969,-0.027936968952417374,-0.030409852042794228
1733697496013476900,5.063476806640625,0.10107208043336868,0.01825723797082901,-0.04133009910583496
1733697496023430000,5.073429931640625,0.07377894222736359,0.07476605474948883,-0.038117263466119766
1733697496033383000,5.0833828125,0.039159566164016724,0.13714899122714996,-0.02421768382191658
1733697496043337000,5.0933369140625,0.011237388476729393,0.20263399183750153,-0.010961000807583332
1733697496053290000,5.1032900390625,-0.004799279384315014,0.2615382671356201,-0.002112995833158493
1733697496063243000,5.113242919921875,-0.009280847385525703,0.2999306619167328,0.001783741288818419
1733697496073196000,5.123196044921875,-0.012357911095023155,0.2963438034057617,0.001721010310575366
1733697496083149000,5.133149169921875,-0.01630258373916149,0.250339537858963,-0.0032420565839856863
1733697496093102800,5.143102783203125,-0.021132823079824448,0.17223507165908813,-0.009366973303258419
1733697496103056000,5.153055908203125,-0.02746821567416191,0.07613995671272278,-0.006674516946077347
1733697496113009000,5.1630087890625,-0.029857154935598373,-0.008709067478775978,-0.004796801134943962
1733697496122961700,5.172961669921875,-0.025552954524755478,-0.07327714562416077,-0.0003589096013456583
1733697496132914700,5.182914794921875,-0.013784357346594334,-0.11168505251407623,0.002426678314805031
1733697496142868700,5.19286865234375,-0.004509099759161472,-0.12678277492523193,0.004695691168308258
1733697496152821800,5.20282177734375,-0.0007976451888680458,-0.12388857454061508,0.0013042837381362915
1733697496162774800,5.21277490234375,0.0007480534259229898,-0.11082471162080765,-0.000946087297052145
1733697496172727800,5.222727783203125,0.0044402554631233215,-0.08898787200450897,-0.008629947900772095
1733697496182681900,5.232681884765625,0.012739996425807476,-0.06446521729230881,-0.008535405620932579
1733697496192635000,5.242634765625,0.026341643184423447,-0.04007500782608986,-0.005827158689498901
1733697496202588000,5.252587890625,0.03814184293150902,-0.021258976310491562,-0.0021181742195039988
1733697496212541000,5.262541015625,0.0452248752117157,-0.007984781637787819,0.002638688078150153
1733697496222494000,5.272493896484375,0.045871756970882416,0.004056168720126152,0.00957409292459488
1733697496232447700,5.28244775390625,0.03374192863702774,0.013057793490588665,0.010931100696325302
1733697496242400800,5.29240087890625,0.016185041517019272,0.012056445702910423,0.006890552118420601
1733697496252353800,5.302353759765625,-0.0007788686780259013,0.0006541966577060521,0.0007418990135192871
1733697496262306800,5.312306884765625,-0.010074898600578308,-0.01750057190656662,-0.007641199044883251
1733697496272260900,5.3222607421875,-0.011429079808294773,-0.04273288697004318,-0.014895453117787838
1733697496282214000,5.3322138671875,-0.006534721702337265,-0.07207079976797104,-0.021417800337076187
1733697496292167000,5.3421669921875,0.005227477755397558,-0.09796133637428284,-0.028316371142864227
1733697496302120000,5.352119873046875,0.020256761461496353,-0.11438877880573273,-0.029865266755223274
1733697496312074000,5.362073974609375,0.03203953802585602,-0.11612726002931595,-0.0254397913813591
1733697496322027000,5.372027099609375,0.03776746243238449,-0.11829134821891785,-0.018530752509832382
1733697496331979800,5.381979736328125,0.03745918348431587,-0.13088786602020264,-0.012181876227259636
1733697496341932800,5.391932861328125,0.03154989331960678,-0.1660999208688736,-0.008774627931416035
1733697496351885800,5.4018857421875,0.025678357109427452,-0.2159498631954193,-0.01220095157623291
1733697496361839900,5.41183984375,0.022758999839425087,-0.2672298550605774,-0.0170215405523777
1733697496371793000,5.42179296875,0.01947121135890484,-0.30085915327072144,-0.020874349400401115
1733697496381746000,5.431745849609375,0.012209834530949593,-0.30019521713256836,-0.02319556102156639
1733697496391699000,5.441698974609375,0.004766233265399933,-0.26729515194892883,-0.021999701857566833
1733697496401652700,5.45165283203125,-0.002726038219407201,-0.20358435809612274,-0.019617503508925438
1733697496411605800,5.461605712890625,-0.0028294497169554234,-0.1351546198129654,-0.015847619622945786
1733697496421558800,5.471558837890625,0.002242274349555373,-0.07506384700536728,-0.011810531839728355
1733697496431511800,5.48151171875,0.008345181122422218,-0.03339599072933197,-0.010016932152211666
1733697496441465900,5.4914658203125,0.018499813973903656,-0.0032524687703698874,-0.005833106115460396
1733697496451419000,5.5014189453125,0.025285325944423676,0.01777997799217701,-0.0005512514617294073
1733697496461372000,5.511371826171875,0.027637429535388947,0.03723277151584625,0.008233984932303429
1733697496471325000,5.521324951171875,0.023263640701770782,0.05314255878329277,0.013762237504124641
1733697496481279000,5.531279052734375,0.015619301237165928,0.06272434443235397,0.01983078196644783
1733697496491232000,5.54123193359375,0.008616871200501919,0.06247292459011078,0.02441558428108692
1733697496501185000,5.55118505859375,0.002744601108133793,0.05373136326670647,0.023484809324145317
1733697496511138800,5.561138916015625,0.0007808993104845285,0.036197319626808167,0.018481580540537834
1733697496521091300,5.57109130859375,0.00021204794757068157,0.022719062864780426,0.008137330412864685
1733697496531044400,5.58104443359375,-0.0007455872837454081,0.00704483175650239,-0.0005955130327492952
1733697496540997400,5.590997314453125,0.0005614922847598791,-0.007345026358962059,-0.007634514477103949
1733697496550951200,5.600951171875,0.00030567822977900505,-0.01581682078540325,-0.01049979031085968
1733697496560904200,5.610904296875,0.0027701673097908497,-0.015401101671159267,-0.009249435737729073
1733697496570857200,5.620857177734375,0.0008514740038663149,0.0044117155484855175,0.0002899100072681904
1733697496580810200,5.630810302734375,-0.0015714699402451515,0.04168079048395157,0.01736236922442913
1733697496590764300,5.640764404296875,-0.01288788765668869,0.08887256681919098,0.027584213763475418
1733697496600717300,5.65071728515625,-0.021093353629112244,0.13183122873306274,0.02999384142458439
1733697496610670300,5.66067041015625,-0.025660216808319092,0.16168729960918427,0.023551233112812042
1733697496620623400,5.670623291015625,-0.02541520819067955,0.16838380694389343,0.0146980881690979
1733697496630577400,5.680577392578125,-0.023860948160290718,0.1468159705400467,0.004668582230806351
1733697496640530400,5.690530517578125,-0.02164493128657341,0.09735094010829926,-0.003052721032872796
1733697496650483500,5.7004833984375,-0.02049577794969082,0.027728455141186714,-0.006151042878627777
1733697496660437200,5.710437255859375,-0.02079484984278679,-0.04937218874692917,-0.004620790481567383
1733697496670390300,5.720390380859375,-0.02179349772632122,-0.11320828646421432,-0.004288944415748119
1733697496680343300,5.73034326171875,-0.0188461784273386,-0.15521380305290222,-0.0036591070238500834
1733697496690296300,5.74029638671875,-0.013518943451344967,-0.1607223004102707,-0.0035837178584188223
1733697496700250400,5.75025048828125,-0.008817930705845356,-0.13298387825489044,-0.008311893790960312
1733697496710203400,5.760203369140625,-0.012381093576550484,-0.08313684165477753,-0.013143209740519524
1733697496720156400,5.770156494140625,-0.02101586014032364,-0.02659554034471512,-0.015603438019752502
1733697496730110500,5.7801103515625,-0.033662181347608566,0.029398612678050995,-0.015358449891209602
1733697496740063500,5.7900634765625,-0.04687119275331497,0.07976644486188889,-0.013815147802233696
1733697496750016300,5.800016357421875,-0.05737486109137535,0.12027715891599655,-0.004403538070619106
1733697496759969300,5.80996923828125,-0.062859907746315,0.14612579345703125,0.002197638852521777
1733697496769923300,5.81992333984375,-0.06419403851032257,0.161040261387825,0.005853529553860426
1733697496779876400,5.82987646484375,-0.05677899718284607,0.16316838562488556,0.0041211433708667755
1733697496789829400,5.839829345703125,-0.039682306349277496,0.15718136727809906,-0.0035462421365082264
1733697496799783200,5.849783203125,-0.01863667368888855,0.13974671065807343,-0.008750325068831444
1733697496809736200,5.859736083984375,0.006812296807765961,0.11676409095525742,-0.010189931839704514
1733697496819689200,5.869689208984375,0.027221698313951492,0.09544122219085693,-0.004126446321606636
1733697496829643300,5.879643310546875,0.0416492223739624,0.07736602425575256,0.0069390349090099335
1733697496839596300,5.88959619140625,0.04718194156885147,0.06398151069879532,0.01701963320374489
1733697496849549300,5.89954931640625,0.04497593641281128,0.050375163555145264,0.020719269290566444
1733697496859502300,5.90950244140625,0.034835152328014374,0.035458799451589584,0.01726754754781723
1733697496869456400,5.919456298828125,0.02102500945329666,0.014759122394025326,0.009633504785597324
1733697496879409400,5.929409423828125,0.0031472097616642714,-0.01310153678059578,0.0018626668024808168
1733697496889362400,5.939362548828125,-0.01274474523961544,-0.04411926865577698,-0.0032878632191568613
1733697496899316200,5.949316162109375,-0.019144054502248764,-0.07158072292804718,-0.009295688942074776
1733697496909269200,5.959269287109375,-0.013744831085205078,-0.09206943958997726,-0.011344951577484608
1733697496919222300,5.96922216796875,-0.001013588858768344,-0.09764529764652252,-0.011426444165408611
1733697496929176300,5.97917626953125,0.012889113277196884,-0.09259987622499466,-0.0073290071450173855
1733697496939129300,5.98912939453125,0.0247082207351923,-0.0832497775554657,-0.0035862005315721035
1733697496949082400,5.999082275390625,0.03139258548617363,-0.07577160000801086,-0.0025860287714749575
1733697496959036400,6.009036376953125,0.029064450412988663,-0.07204929739236832,-0.003471796168014407
1733697496968989400,6.018989501953125,0.02469250187277794,-0.07539582252502441,-0.002850777003914118
1733697496978942500,6.0289423828125,0.01886497251689434,-0.08260367065668106,-0.0058359140530228615
1733697496988896300,6.038896240234375,0.013588039204478264,-0.08941289782524109,-0.011054599657654762
1733697496998849300,6.048849365234375,0.003796394681558013,-0.09334958344697952,-0.011992298997938633
1733697497008802300,6.05880224609375,-0.00034049665555357933,-0.09063650667667389,-0.014938014559447765
1733697497018756400,6.06875634765625,-0.001179126207716763,-0.0828334391117096,-0.015944425016641617
1733697497028709400,6.07870947265625,0.0011168899945914745,-0.06633774936199188,-0.015589563176035881
1733697497038662400,6.088662353515625,0.005274883471429348,-0.056845445185899734,-0.012405754067003727
1733697497048616400,6.098616455078125,0.00962154846638441,-0.05249158293008804,-0.011958928778767586
1733697497058569500,6.108569580078125,0.012720135971903801,-0.052367743104696274,-0.010340792126953602
1733697497068522200,6.118522216796875,0.014490422792732716,-0.04605378955602646,-0.007096412591636181
1733697497078476500,6.1284765625,0.011997170746326447,-0.03304371237754822,-0.001365290256217122
1733697497088429300,6.13842919921875,0.014757889322936535,-0.007981737144291401,0.00011292658746242523
1733697497098382300,6.14838232421875,0.013570385985076427,0.017952924594283104,0.0025419958401471376
1733697497108336000,6.158336181640625,0.01224427204579115,0.038463328033685684,0.005108176730573177
1733697497118289200,6.1682890625,0.010494042187929153,0.045629628002643585,0.0038093531038612127
1733697497128242200,6.1782421875,0.008974064141511917,0.041262611746788025,0.0030389963649213314
1733697497138196200,6.1881962890625,0.000878587132319808,0.029290637001395226,0.0008315021404996514
1733697497148149200,6.198149169921875,-0.007672167383134365,0.02229221910238266,0.0024611810222268105
1733697497158102300,6.208102294921875,-0.01712399162352085,0.022681573405861855,0.008827467449009418
1733697497168056300,6.218056396484375,-0.029170338064432144,0.023296063765883446,0.011198499239981174
1733697497178009300,6.22800927734375,-0.030720030888915062,0.0250614732503891,0.0035475040785968304
1733697497187962400,6.23796240234375,-0.022330008447170258,0.02446013130247593,-0.012786195613443851
1733697497197916200,6.247916259765625,-0.004577643238008022,0.024750681594014168,-0.03156920149922371
1733697497207869200,6.257869140625,0.01718870736658573,0.019609617069363594,-0.04187192767858505
1733697497217823200,6.2678232421875,0.02927919290959835,0.0058980667963624,-0.03963726758956909
1733697497227776300,6.2777763671875,0.025189803913235664,-0.015129812061786652,-0.025219431146979332
1733697497237729300,6.287729248046875,0.01403328962624073,-0.046015556901693344,-0.00968760997056961
1733697497247683300,6.297683349609375,0.005158151034265757,-0.08139967918395996,-0.000019365455955266953
1733697497257636400,6.30763623046875,0.002632675226777792,-0.11249448359012604,-0.0006816934328526258
1733697497267589400,6.31758935546875,0.0019219713285565376,-0.1290123164653778,-0.000930203590542078
1733697497277543400,6.32754345703125,-0.0010067068506032228,-0.13190104067325592,-0.007381444796919823
1733697497287496400,6.337496337890625,-0.011727861128747463,-0.1227058544754982,-0.01381562277674675
1733697497297449500,6.347449462890625,-0.021456655114889145,-0.10715752094984055,-0.013844652101397514
1733697497307403300,6.3574033203125,-0.02686118520796299,-0.09036095440387726,-0.009817913174629211
1733697497317356300,6.367356201171875,-0.029192250221967697,-0.07260512560606003,-0.0036905119195580482
1733697497327310300,6.377310302734375,-0.025564247742295265,-0.0561695359647274,0.0007659636903554201
1733697497337263400,6.387263427734375,-0.020099708810448647,-0.04498612508177757,0.0014993982622399926
1733697497347216400,6.39721630859375,-0.012019699439406395,-0.031585581600666046,-0.0034736539237201214
1733697497357170400,6.40717041015625,-0.0037769495975226164,-0.016622081398963928,-0.004138378892093897
1733697497367123500,6.41712353515625,0.0033023967407643795,0.005911799147725105,-0.0029021762311458588
1733697497377076500,6.427076416015625,0.003912526648491621,0.034311212599277496,0.003342137672007084
1733697497387030300,6.4370302734375,0.00008968217298388481,0.06453326344490051,0.00946064479649067
1733697497396983300,6.4469833984375,-0.011957659386098385,0.08862502127885818,0.007874200120568275
1733697497406937300,6.456937255859375,-0.02297079749405384,0.101844921708107,0.00034589250572025776
1733697497416890400,6.466890380859375,-0.03441227227449417,0.10726845264434814,-0.0046001304872334
1733697497426843400,6.476843505859375,-0.04036642611026764,0.10607755929231644,-0.007227383553981781
1733697497436797400,6.48679736328125,-0.03749873489141464,0.09121765941381454,-0.006944289430975914
1733697497446750500,6.49675048828125,-0.03441173955798149,0.06905332207679749,-0.004888362716883421
1733697497456704300,6.506704345703125,-0.029734959825873375,0.04235006496310234,-0.004077429883182049
1733697497466657300,6.5166572265625,-0.02396697737276554,0.0162180345505476,0.002493293024599552
1733697497476610300,6.5266103515625,-0.011814706027507782,-0.01604110188782215,0.00518921110779047
1733697497486564400,6.536564453125,0.0008677365258336067,-0.0508652999997139,0.009216725826263428
1733697497496517400,6.546517333984375,0.011670583859086037,-0.0878419578075409,0.007778085768222809
1733697497506470400,6.556470458984375,0.01608889363706112,-0.11047102510929108,0.0045574926771223545
1733697497516425000,6.566425048828125,0.015900075435638428,-0.11130300164222717,0.007104539778083563
1733697497526378000,6.5763779296875,0.0121008874848485,-0.09066134691238403,0.009211411699652672
1733697497536331800,6.586331787109375,0.00819110032171011,-0.06237697973847389,0.009630061686038971
1733697497546284800,6.596284912109375,0.006975852884352207,-0.03614863008260727,0.003006590763106942
1733697497556237800,6.60623779296875,0.009263774380087852,-0.019587496295571327,-0.007046043407171965
1733697497566191900,6.61619189453125,0.013027817010879517,-0.012246914207935333,-0.013424564152956009
1733697497576145000,6.626144775390625,0.01882019266486168,-0.016892531886696815,-0.013520171865820885
1733697497586099000,6.636098876953125,0.019921191036701202,-0.03068098984658718,-0.01260971650481224
1733697497596052000,6.646052001953125,0.024826999753713608,-0.053448352962732315,-0.010265601798892021
1733697497606006000,6.656006103515625,0.027923529967665672,-0.08770988881587982,-0.010467953979969025
1733697497615959000,6.665958984375,0.0355050191283226,-0.12914149463176727,-0.01598229631781578
1733697497625912000,6.675912109375,0.044812530279159546,-0.17605750262737274,-0.024779321625828743
1733697497635865900,6.685865966796875,0.056785304099321365,-0.2186931073665619,-0.0289735347032547
1733697497645819000,6.69581884765625,0.0640924870967865,-0.2538626790046692,-0.03467743098735809
1733697497655773000,6.70577294921875,0.06923265755176544,-0.27512216567993164,-0.034442007541656494
1733697497665726000,6.715725830078125,0.06474927067756653,-0.28019052743911743,-0.030841022729873657
1733697497675679000,6.725678955078125,0.057994961738586426,-0.2681333124637604,-0.028362685814499855
1733697497685633000,6.735633056640625,0.04347174987196922,-0.23955689370632172,-0.023182988166809082
1733697497695586000,6.7455859375,0.027468018233776093,-0.19452178478240967,-0.020251380279660225
1733697497705539800,6.755539794921875,0.00869636982679367,-0.14906202256679535,-0.015784701332449913
1733697497715492900,6.765492919921875,-0.008671967312693596,-0.09758977591991425,-0.01600947231054306
1733697497725447000,6.775447021484375,-0.02147218957543373,-0.05055901035666466,-0.013456899672746658
1733697497735400000,6.78539990234375,-0.025897298008203506,-0.006224836688488722,-0.01099320873618126
1733697497745353000,6.79535302734375,-0.02721434459090233,0.02987128682434559,-0.0037014461122453213
1733697497755307000,6.80530712890625,-0.021842483431100845,0.05625122785568237,0.0038515450432896614
1733697497765260000,6.815260009765625,-0.015008069574832916,0.07515683025121689,0.008851643651723862
1733697497775214000,6.825214111328125,-0.009885214269161224,0.08107783645391464,0.011797899380326271
1733697497785167000,6.8351669921875,-0.005075844936072826,0.08020596206188202,0.014800358563661575
1733697497795121000,6.845120849609375,-0.0027256053872406483,0.07696755975484848,0.01473218109458685
1733697497805074000,6.855073974609375,-0.0009094303240999579,0.07131662219762802,0.012634636834263802
1733697497815026700,6.865026611328125,0.00000909389927983284,0.06213856488466263,0.008561065420508385
1733697497824981000,6.87498095703125,-0.000718703493475914,0.05113658308982849,0.0025777940172702074
1733697497834933800,6.884933837890625,0.0033474108204245567,0.03678640350699425,-0.00034103053621947765
1733697497844888000,6.89488818359375,0.005455368664115667,0.026440581306815147,0.003533927258104086
1733697497854840800,6.9048408203125,0.005814895499497652,0.01349309179931879,0.002321922453120351
1733697497864795000,6.914794921875,0.004170711152255535,0.001987221883609891,0.0022929508704692125
1733697497874747600,6.92474755859375,0.0027501804288476706,-0.010791690088808537,-0.0016985947731882334
1733697497884702000,6.934701904296875,0.0008221589960157871,-0.02491871267557144,-0.004553870297968388
1733697497894654700,6.94465478515625,-0.0004207382444292307,-0.03861135616898537,-0.005882521625608206
1733697497904607700,6.954607666015625,0.0010188377927988768,-0.04990512505173683,-0.006351052783429623
1733697497914562000,6.96456201171875,0.001477966783568263,-0.05536860227584839,-0.007869853638112545
1733697497924514800,6.974514892578125,0.00122115109115839,-0.05529508367180824,-0.004350941628217697
1733697497934468900,6.98446875,-0.0010465304367244244,-0.04861268028616905,-0.0009205236565321684
1733697497944422000,6.994421875,-0.003206361085176468,-0.043684232980012894,0.00016831629909574986
1733697497954376000,7.0043759765625,-0.010416602715849876,-0.03692779317498207,0.0009422308066859841
1733697497964328700,7.01432861328125,-0.015931684523820877,-0.028180984780192375,-0.0016616929788142443
1733697497974283000,7.024282958984375,-0.018100297078490257,-0.014637215062975883,-0.0011556923855096102
1733697497984235800,7.03423583984375,-0.01762237399816513,0.00446060998365283,-0.001582097727805376
1733697497994190000,7.044190185546875,-0.017596807330846786,0.02137967199087143,0.0014427205314859748
1733697498004142800,7.054142822265625,-0.020579492673277855,0.0444357730448246,0.002107896376401186
1733697498014096000,7.064095947265625,-0.024300994351506233,0.0655655562877655,0.0040695806965231895
1733697498024049700,7.074049560546875,-0.03184165433049202,0.08263801783323288,0.004499075002968311
1733697498034002700,7.084002685546875,-0.0382782481610775,0.0937308818101883,0.0030375318601727486
1733697498043956700,7.093956787109375,-0.04237082600593567,0.10058467835187912,0.000048420624807477
1733697498053909800,7.10390966796875,-0.04323954880237579,0.09852445125579834,-0.005375905893743038
1733697498063863800,7.11386376953125,-0.039696913212537766,0.0898546501994133,-0.007132014725357294
1733697498073816800,7.12381689453125,-0.02877209708094597,0.07216194272041321,-0.009869745001196861
1733697498083770600,7.1337705078125,-0.013788686133921146,0.05429541692137718,-0.008970240131020546
1733697498093723600,7.1437236328125,0.007306478917598724,0.03203858062624931,-0.003756570164114237
1733697498103677700,7.153677734375,0.023123200982809067,0.010061591863632202,0.0007692879298701882
1733697498113630700,7.163630615234375,0.029686030000448227,-0.013281813822686672,0.004992528818547726
1733697498123585000,7.1735849609375,0.021644823253154755,-0.03801890090107918,0.0020000170916318893
1733697498133537800,7.183537841796875,0.0070110191591084,-0.06448885798454285,-0.004263738170266151
1733697498143492000,7.1934921875,-0.007929442450404167,-0.08768440783023834,-0.012455916032195091
1733697498153444900,7.20344482421875,-0.01348879188299179,-0.10209450870752335,-0.018181711435317993
1733697498163399000,7.21339892578125,-0.011861437931656837,-0.1058313325047493,-0.019373703747987747
1733697498173351700,7.2233515625,-0.004607519134879112,-0.0923599973320961,-0.015064708888530731
1733697498183306000,7.233305908203125,0.0005310748238116503,-0.0679784044623375,-0.008739368990063667
1733697498193258800,7.2432587890625,-0.0036719259805977345,-0.03716057538986206,-0.0005109997000545263
1733697498203213000,7.253213134765625,-0.010939376428723335,-0.009692381136119366,0.0049522509798407555
1733697498213165800,7.263165771484375,-0.022204015403985977,0.006049297284334898,0.005656656809151173
1733697498223120000,7.273119873046875,-0.029209963977336884,0.017434388399124146,0.0022667853627353907
1733697498233072600,7.28307275390625,-0.02931782230734825,0.025784464552998543,-0.0026962815318256617
1733697498243025700,7.293025634765625,-0.02443104237318039,0.031470488756895065,-0.005055676214396954
1733697498252979700,7.302979736328125,-0.013503827154636383,0.03914199024438858,-0.005868739448487759
1733697498262932700,7.3129326171875,-0.0028551125433295965,0.041959892958402634,-0.006280936300754547
1733697498272886800,7.32288671875,0.008738692849874496,0.04108504578471184,-0.00394880585372448
1733697498282841000,7.332841064453125,0.015330670401453972,0.03391481563448906,0.0005343368975445628
1733697498292793900,7.3427939453125,0.017634039744734764,0.024443551898002625,0.0050859455950558186
1733697498302748000,7.352747802734375,0.01791747845709324,0.014307694509625435,0.007116059772670269
1733697498312701000,7.362700927734375,0.011316034011542797,-0.001380986999720335,0.008263349533081055
1733697498322655000,7.372655029296875,0.00923027005046606,-0.01701594702899456,0.004851450677961111
1733697498332608000,7.38260791015625,0.007495752535760403,-0.03607752174139023,-0.0023832926526665688
1733697498342562000,7.39256201171875,0.010415250435471535,-0.04957938566803932,-0.006938415579497814
1733697498352515000,7.40251513671875,0.01429813914000988,-0.06252741068601608,-0.00489923357963562
1733697498362468900,7.41246875,0.01392719428986311,-0.06838714331388474,-0.004742157645523548
1733697498372422000,7.422421875,0.00926852598786354,-0.07143805921077728,-0.0016867124941200018
1733697498382376000,7.4323759765625,-0.0010027182288467884,-0.06379617750644684,-0.00029441737569868565
1733697498392329000,7.442328857421875,-0.009819112718105316,-0.056558504700660706,0.0006459448486566544
1733697498402283000,7.452282958984375,-0.016866276040673256,-0.047807477414608,-0.0037007643841207027
1733697498412236000,7.462236083984375,-0.02038617618381977,-0.03412389010190964,-0.008161293342709541
1733697498422189800,7.47218994140625,-0.022916505113244057,-0.012550625018775463,-0.011810730211436749
1733697498432142800,7.482142822265625,-0.027127495035529137,0.01481734961271286,-0.016745835542678833
1733697498442097000,7.492096923828125,-0.041416119784116745,0.03938974440097809,-0.01865559071302414
1733697498452050000,7.5020498046875,-0.06293818354606628,0.06082179769873619,-0.014746337197721004
1733697498462004000,7.51200390625,-0.07442164421081543,0.06505843997001648,-0.011638177558779716
1733697498471957000,7.52195703125,-0.06735361367464066,0.05431818589568138,-0.009780090302228928
1733697498481911000,7.5319111328125,-0.047107160091400146,0.03518107160925865,-0.006962279789149761
1733697498491864000,7.541864013671875,-0.026446890085935593,0.022090304642915726,-0.0024295796174556017
1733697498501817900,7.55181787109375,-0.017013275995850563,0.019438568502664566,0.006568950600922108
1733697498511771000,7.56177099609375,-0.018517695367336273,0.02896363101899624,0.014622083865106106
1733697498521725200,7.57172509765625,-0.026189960539340973,0.04185555502772331,0.01881008967757225
1733697498531678200,7.58167822265625,-0.03350673243403435,0.05569467321038246,0.017101138830184937
1733697498541632300,7.59163232421875,-0.039611008018255234,0.06575222313404083,0.011475443840026855
1733697498551586000,7.6015859375,-0.039447490125894547,0.07388365268707275,0.004089966416358948
1733697498561539000,7.6115390625,-0.036743439733982086,0.07475927472114563,-0.004659297876060009
1733697498571493000,7.6214931640625,-0.03200274705886841,0.06792959570884705,-0.010870854370296001
1733697498581446100,7.631446044921875,-0.024936452507972717,0.05142670124769211,-0.01558607630431652
1733697498591400200,7.641400146484375,-0.01652059704065323,0.024213457480072975,-0.01588142104446888
1733697498601353200,7.651353271484375,-0.005215622019022703,-0.014677983708679676,-0.016312340274453163
1733697498611307300,7.661307373046875,0.00503355311229825,-0.05660971999168396,-0.01815524697303772
1733697498621260300,7.67126025390625,0.014201238751411438,-0.09432589262723923,-0.024195756763219833
1733697498631214000,7.681214111328125,0.019942747429013252,-0.12310534715652466,-0.03331122547388077
1733697498641167000,7.6911669921875,0.022532641887664795,-0.14146457612514496,-0.03901464492082596
1733697498651121200,7.70112109375,0.02214968018233776,-0.14567849040031433,-0.044118594378232956
1733697498661074200,7.71107421875,0.021110456436872482,-0.14137311279773712,-0.04451858997344971
1733697498671028200,7.7210283203125,0.014664274640381336,-0.13317084312438965,-0.04038616269826889
1733697498680982000,7.73098193359375,0.005554486531764269,-0.1250728815793991,-0.033957842737436295
1733697498690935000,7.74093505859375,-0.0010554789332672954,-0.12207416445016861,-0.028890909627079964
1733697498700889000,7.75088916015625,-0.004538237117230892,-0.1232469454407692,-0.024179991334676743
1733697498710842000,7.760842041015625,-0.004089494235813618,-0.11905619502067566,-0.02140764147043228
1733697498720796200,7.770796142578125,0.00045804865658283234,-0.11242843419313431,-0.013645772822201252
1733697498730749200,7.780749267578125,0.00799372885376215,-0.10271135717630386,-0.0070097073912620544
1733697498740703200,7.790703125,0.016666535288095474,-0.10441667586565018,-0.004349927417933941
1733697498750657000,7.800656982421875,0.022014694288372993,-0.11740277707576752,-0.003722486551851034
1733697498760610000,7.810610107421875,0.02801576443016529,-0.14347431063652039,-0.004634528886526823
1733697498770564000,7.820564208984375,0.039293453097343445,-0.17249317467212677,-0.005268095061182976
1733697498780517000,7.83051708984375,0.054769206792116165,-0.1959700882434845,-0.002430325374007225
1733697498790471200,7.84047119140625,0.06499308347702026,-0.21337491273880005,0.0005811770679429173
1733697498800424200,7.850424072265625,0.06147158145904541,-0.22661162912845612,0.0003034092951565981
1733697498810378000,7.8603779296875,0.0510714054107666,-0.23826588690280914,-0.0004513305611908436
1733697498820332000,7.87033203125,0.03927149623632431,-0.24512144923210144,-0.005289766006171703
1733697498830285000,7.88028515625,0.03154673054814339,-0.24761417508125305,-0.01038492564111948
1733697498840239000,7.890239013671875,0.022996485233306885,-0.24429988861083984,-0.013280937448143959
1733697498850192100,7.900192138671875,0.017506111413240433,-0.22770492732524872,-0.016641046851873398
1733697498860146000,7.91014599609375,0.00835125707089901,-0.19959896802902222,-0.01962498016655445
1733697498870099000,7.920098876953125,0.0025719308760017157,-0.17012256383895874,-0.020065199583768845
1733697498880053000,7.930052978515625,-0.006474099587649107,-0.14584128558635712,-0.023401062935590744
1733697498890007000,7.940007080078125,-0.015449484810233116,-0.1332882046699524,-0.02722376398742199
1733697498899960000,7.9499599609375,-0.025123346596956253,-0.1320553421974182,-0.03717787563800812
1733697498909914000,7.9599140625,-0.037417296320199966,-0.13307666778564453,-0.0455993227660656
1733697498919867100,7.9698671875,-0.046140167862176895,-0.1317521333694458,-0.05157413333654404
1733697498929821000,7.979821044921875,-0.053962402045726776,-0.13050922751426697,-0.05942166969180107
1733697498939774000,7.98977392578125,-0.06445832550525665,-0.12745332717895508,-0.06757090240716934
1733697498949728000,7.99972802734375,-0.07190452516078949,-0.11751680076122284,-0.07680168002843857
1733697498959682300,8.009682373046875,-0.0805102288722992,-0.08611530810594559,-0.07796582579612732
1733697498969635000,8.019635009765626,-0.08750022947788239,-0.034101106226444244,-0.07110285758972168
1733697498979589000,8.029589111328125,-0.09001640230417252,0.03506733477115631,-0.05583236366510391
1733697498989542000,8.0395419921875,-0.08798467367887497,0.11389264464378357,-0.03754603490233421
1733697498999496200,8.04949609375,-0.07922820746898651,0.18322834372520447,-0.016848405823111534
1733697499009450200,8.0594501953125,-0.07851634919643402,0.23730170726776123,0.003987634554505348
1733697499019403300,8.0694033203125,-0.07583402097225189,0.27158594131469727,0.027309807017445564
1733697499029357300,8.079357421875,-0.0784822627902031,0.28931593894958496,0.049043066799640656
1733697499039310300,8.089310302734376,-0.0783974677324295,0.2878985106945038,0.0630570575594902
1733697499049264000,8.09926416015625,-0.07503921538591385,0.2708710730075836,0.07411636412143707
1733697499059218200,8.10921826171875,-0.06193488836288452,0.24336227774620056,0.07483622431755066
1733697499069171200,8.119171142578125,-0.04049111530184746,0.20431527495384216,0.07705862820148468
1733697499079125200,8.129125244140624,-0.01962233893573284,0.16427230834960938,0.07279251515865326
1733697499089078300,8.139078369140625,-0.0023634585086256266,0.13413996994495392,0.06978527456521988
1733697499099032000,8.149031982421874,0.004713673610240221,0.10981956869363785,0.06558473408222198
1733697499108986000,8.158986083984376,0.0075139873661100864,0.09457163512706757,0.06204405799508095
1733697499118939100,8.168939208984375,0.006724757142364979,0.07938378304243088,0.05635058507323265
1733697499128893200,8.17889306640625,-0.0030298689380288124,0.061064425855875015,0.04805457219481468
1733697499138846200,8.18884619140625,-0.013629933819174767,0.05006042867898941,0.03809771686792374
1733697499148800300,8.19880029296875,-0.024385374039411545,0.043664850294589996,0.02060234732925892
1733697499158754000,8.208754150390625,-0.03248438984155655,0.05005932226777077,0.005616025999188423
1733697499168707000,8.21870703125,-0.032515816390514374,0.07407969981431961,-0.0069761984050273895
1733697499178661000,8.2286611328125,-0.032798610627651215,0.1123814582824707,-0.014336718246340752
1733697499188615200,8.238615234375,-0.03669614717364311,0.1598624289035797,-0.015457376837730408
1733697499198568200,8.248568115234375,-0.044247835874557495,0.2021941989660263,-0.01167281437665224
1733697499208522000,8.25852197265625,-0.053580086678266525,0.2272590845823288,-0.006647163070738316
1733697499218475000,8.26847509765625,-0.06344930827617645,0.22872567176818848,-0.0010201516561210155
1733697499228429000,8.278428955078125,-0.07219778746366501,0.21318133175373077,-0.001420424785465002
1733697499238383000,8.288383056640624,-0.07522495090961456,0.18979112803936005,-0.0045102378353476524
1733697499248336100,8.298336181640625,-0.07328163832426071,0.1677774339914322,-0.005427696742117405
1733697499258290200,8.308290283203124,-0.0708305761218071,0.15259911119937897,-0.003111184574663639
1733697499268244000,8.318243896484375,-0.06755861639976501,0.14329375326633453,0.003023673314601183
1733697499278197000,8.328197021484375,-0.06488556414842606,0.13583877682685852,0.010681980289518833
1733697499288151000,8.338151123046876,-0.05950597673654556,0.12269128113985062,0.016339067369699478
1733697499298104000,8.34810400390625,-0.0526680126786232,0.09910689294338226,0.022553879767656326
1733697499308058000,8.35805810546875,-0.04491022229194641,0.06675348430871964,0.02065318077802658
1733697499318012200,8.36801220703125,-0.03745589032769203,0.03160723298788071,0.014456501230597496
1733697499327965000,8.37796484375,-0.027247993275523186,-0.0027581965550780296,0.003851261455565691
1733697499337919200,8.387919189453125,-0.018925495445728302,-0.026786621659994125,-0.002500806236639619
1733697499347873300,8.397873291015625,-0.013436187990009785,-0.04081455245614052,-0.005002579651772976
1733697499357826300,8.407826416015626,-0.010548099875450134,-0.049045369029045105,-0.007331821136176586
1733697499367780000,8.417780029296875,-0.004530155099928379,-0.06201629340648651,-0.011046931147575378
1733697499377733000,8.427733154296876,0.009947243146598339,-0.081048883497715,-0.02046884223818779
1733697499387687200,8.437687255859375,0.03220434486865997,-0.10914230346679688,-0.03303230553865433
1733697499397641200,8.44764111328125,0.048667751252651215,-0.13758403062820435,-0.04029827192425728
1733697499407594200,8.45759423828125,0.053064096719026566,-0.1504542976617813,-0.03657890111207962
1733697499417548300,8.46754833984375,0.047301989048719406,-0.14719562232494354,-0.026456937193870544
1733697499427502000,8.477502197265625,0.03481655567884445,-0.12549245357513428,-0.01974923349916935
1733697499437455000,8.487455078125,0.018618056550621986,-0.08131282031536102,-0.01606539636850357
1733697499447409200,8.4974091796875,-0.005080614238977432,-0.007406374905258417,-0.0144957285374403
1733697499457363200,8.50736328125,-0.03107859380543232,0.08396056294441223,-0.009478352963924408
1733697499467316200,8.517316162109376,-0.05792751908302307,0.17470164597034454,-0.003513936884701252
1733697499477270000,8.52727001953125,-0.07651384174823761,0.24808308482170105,0.004761669784784317
1733697499487224000,8.53722412109375,-0.07995864003896713,0.28894129395484924,0.013825471512973309
1733697499497177000,8.547177001953125,-0.06730753183364868,0.3004521429538727,0.0229228213429451
1733697499507131100,8.557131103515625,-0.045007020235061646,0.28390806913375854,0.02810373529791832
1733697499517084400,8.56708447265625,-0.0226441603153944,0.24556373059749603,0.02861984632909298
1733697499527037200,8.577037109375,-0.010394150391221046,0.1921071708202362,0.027080006897449493
1733697499536991200,8.5869912109375,-0.010344459675252438,0.1267760843038559,0.017985468730330467
1733697499546945300,8.5969453125,-0.014714441262185574,0.055399101227521896,0.006688871420919895
1733697499556898300,8.606898193359376,-0.01814853958785534,-0.02014661580324173,-0.001849832246080041
1733697499566852400,8.616852294921875,-0.01634398102760315,-0.10198155790567398,-0.012622585520148277
1733697499576805400,8.626805419921874,-0.005072888918220997,-0.1835671216249466,-0.023100338876247406
1733697499586759400,8.636759521484375,0.006608800962567329,-0.25446099042892456,-0.03484781086444855
1733697499596713200,8.646713134765625,0.015601761639118195,-0.3112120032310486,-0.04401141777634621
1733697499606666200,8.656666259765625,0.010428836569190025,-0.3383328318595886,-0.05186641216278076
1733697499616620300,8.666620361328125,-0.004384354688227177,-0.33072879910469055,-0.0610450878739357
1733697499626574300,8.67657421875,-0.024504803121089935,-0.2882623076438904,-0.06219504028558731
1733697499636527400,8.68652734375,-0.039920609444379807,-0.21622814238071442,-0.05674659460783005
1733697499646481200,8.696481201171874,-0.04463280737400055,-0.1261906623840332,-0.04197883605957031
1733697499656435200,8.706435302734375,-0.039302144199609756,-0.022968359291553497,-0.027219152078032494
1733697499666389200,8.71638916015625,-0.03089960664510727,0.07899688184261322,-0.007702174596488476
1733697499676342300,8.72634228515625,-0.02742225117981434,0.17175303399562836,0.008183499798178673
1733697499686296300,8.73629638671875,-0.029376212507486343,0.2477537840604782,0.02045188471674919
1733697499696249300,8.746249267578126,-0.037876859307289124,0.3047243356704712,0.02786467969417572
1733697499706203100,8.756203125,-0.04664531350135803,0.33490538597106934,0.0340123176574707
1733697499716157200,8.7661572265625,-0.04969949647784233,0.33777615427970886,0.03902659937739372
1733697499726111200,8.776111328125,-0.049665674567222595,0.3190586566925049,0.04291241988539696
1733697499736064300,8.786064208984374,-0.046437818557024,0.2859543263912201,0.038891423493623734
1733697499746018000,8.79601806640625,-0.03872876614332199,0.2472090721130371,0.03329212963581085
1733697499755972000,8.80597216796875,-0.02899829111993313,0.20332856476306915,0.02808215841650963
1733697499765925000,8.815925048828126,-0.022382467985153198,0.15870755910873413,0.02099388837814331
1733697499775879200,8.825879150390625,-0.018887829035520554,0.11021856218576431,0.007986939512193203
1733697499785833500,8.83583349609375,-0.01633652113378048,0.059166569262742996,-0.005399972666054964
1733697499795786200,8.8457861328125,-0.005919363349676132,0.00763411121442914,-0.015927309170365334
1733697499805740300,8.855740234375,0.013894555158913136,-0.044051721692085266,-0.022862980142235756
1733697499815694300,8.8656943359375,0.03507864475250244,-0.09887062013149261,-0.023150060325860977
1733697499825647400,8.8756474609375,0.05731496959924698,-0.15859147906303406,-0.017421068623661995
1733697499835601400,8.885601318359376,0.07058180868625641,-0.22856056690216064,-0.008068003691732883
1733697499845555200,8.89555517578125,0.07072135806083679,-0.3080820143222809,-0.0009690816514194012
1733697499855508200,8.90550830078125,0.06383809447288513,-0.37708958983421326,-0.004360383376479149
1733697499865462300,8.915462158203125,0.045748304575681686,-0.4237220883369446,-0.011971697211265564
1733697499875416300,8.925416259765624,0.03403965011239052,-0.4385830760002136,-0.021985312923789024
1733697499885370400,8.935370361328125,0.02201707661151886,-0.4172104299068451,-0.02912604622542858
1733697499895323400,8.945323486328125,0.013134846463799477,-0.3643700182437897,-0.03332764282822609
1733697499905277200,8.955277099609376,0.009986724704504013,-0.2788543105125427,-0.029374444857239723
1733697499915231200,8.965231201171875,0.0014042477123439312,-0.17254626750946045,-0.019068900495767593
1733697499925184300,8.975184326171876,-0.0062094638124108315,-0.04692177101969719,-0.00848789419978857
1733697499935138300,8.98513818359375,-0.007421430200338364,0.08065515756607056,-0.0042630694806575775
1733697499945092000,8.995092041015624,-0.009480053558945656,0.1962169110774994,0.0016981498338282108
1733697499955045000,9.005045166015625,-0.01141142938286066,0.2803986370563507,0.011944148689508438
1733697499964999200,9.014999267578125,-0.019579609856009483,0.3163183033466339,0.023426633328199387
1733697499974953200,9.024953125,-0.028318258002400398,0.29782038927078247,0.028551150113344193
1733697499984907300,9.0349072265625,-0.02766738086938858,0.23115666210651398,0.024768661707639694
1733697499994860300,9.0448603515625,-0.012989169918000698,0.13790597021579742,0.01735316962003708
1733697500004814000,9.05481396484375,0.007084139622747898,0.04353206232190132,0.012902229093015194
1733697500014768400,9.064768310546874,0.017871210351586342,-0.030260594561696053,0.011085445061326027
1733697500024721200,9.07472119140625,0.01671300269663334,-0.07437878847122192,0.005624634213745594
1733697500034675500,9.084675537109375,0.00422590970993042,-0.09077730774879456,-0.00011914107017219067
1733697500044629200,9.094629150390626,-0.010833467356860638,-0.08344269543886185,-0.008315818384289742
1733697500054583300,9.104583251953125,-0.020224979147315025,-0.05889444425702095,-0.008645406924188137
1733697500064536300,9.114536376953126,-0.02969438210129738,-0.030518462881445885,-0.0052994112484157085
1733697500074490400,9.124490478515625,-0.03125227987766266,-0.00268923700787127,-0.0051596155390143394
1733697500084444200,9.134444091796874,-0.03084215521812439,0.023614538833498955,-0.0074640484526753426
1733697500094397200,9.144397216796875,-0.028546441346406937,0.04830827936530113,-0.00984259881079197
1733697500104351200,9.154351318359375,-0.027414066717028618,0.07892291992902756,-0.009672422893345356
1733697500114305300,9.16430517578125,-0.029604235664010048,0.10996411740779877,-0.006857732310891151
1733697500124259300,9.17425927734375,-0.03094407357275486,0.13529610633850098,-0.0008541683200746775
1733697500134212400,9.18421240234375,-0.03181586042046547,0.14846254885196686,0.005373261868953705
1733697500144166100,9.194166259765625,-0.02646983414888382,0.1413915902376175,0.012555008754134178
1733697500154120200,9.2041201171875,-0.02251729927957058,0.1135316863656044,0.012062429450452328
1733697500164073200,9.2140732421875,-0.01583010144531727,0.07274777442216873,0.008274348452687263
1733697500174027300,9.22402734375,-0.018894899636507034,0.04004490002989769,0.0029294495470821857
1733697500183981000,9.23398095703125,-0.030144890770316124,0.02591683156788349,0.002043948508799076
1733697500193935000,9.24393505859375,-0.048482757061719894,0.046124931424856186,0.007848734967410564
1733697500203888000,9.25388818359375,-0.07015743106603622,0.0939537063241005,0.01632850617170334
1733697500213842200,9.26384228515625,-0.091646708548069,0.15301282703876495,0.025549421086907387
1733697500223796200,9.273796142578124,-0.10589861124753952,0.19439221918582916,0.025724923238158226
1733697500233750300,9.283750244140625,-0.1088699921965599,0.20673280954360962,0.013068605214357376
1733697500243703000,9.293703125,-0.09258715808391571,0.19458931684494019,-0.007326414808630943
1733697500253657300,9.3036572265625,-0.06924932450056076,0.166023850440979,-0.029078589752316475
1733697500263611400,9.313611328125,-0.036957427859306335,0.13930247724056244,-0.04217681661248207
1733697500273564400,9.323564453125,-0.0030681947246193886,0.12580439448356628,-0.04238235577940941
1733697500283518200,9.333518310546875,0.021772440522909164,0.11868709325790405,-0.028811419382691383
1733697500293472300,9.34347216796875,0.03759041056036949,0.11772571504116058,-0.007790660951286554
1733697500303426300,9.35342626953125,0.04317452758550644,0.11772491782903671,0.015860605984926224
1733697500313379300,9.36337939453125,0.04370603710412979,0.1192731037735939,0.037366725504398346
1733697500323333400,9.37333349609375,0.03986469283699989,0.11701873689889908,0.043436866253614426
1733697500333287200,9.383287109375,0.030580487102270126,0.10604482144117355,0.03854721039533615
1733697500343241200,9.3932412109375,0.02182214893400669,0.06985113024711609,0.02198048122227192
1733697500353194200,9.4031943359375,0.008617164567112923,0.015974361449480057,0.0034164153039455414
1733697500363148300,9.413148193359374,0.001960061490535736,-0.0567064993083477,-0.010576099157333374
1733697500373102000,9.42310205078125,0.0026664133183658123,-0.13220812380313873,-0.012173064053058624
1733697500383056100,9.43305615234375,0.006605761591345072,-0.19025065004825592,-0.009103236719965935
1733697500393009200,9.443009033203126,0.0033546090126037598,-0.22041355073451996,0.00045190216042101383
1733697500402963200,9.452963134765625,-0.01673308201134205,-0.2208375334739685,0.0023073265329003334
1733697500412917200,9.462917236328124,-0.05090770497918129,-0.19806188344955444,-0.003145070280879736
1733697500422871300,9.472871337890625,-0.08496659994125366,-0.14809352159500122,-0.009851975366473198
1733697500432824000,9.482823974609374,-0.10378940403461456,-0.06619849801063538,-0.019314086064696312
1733697500442778400,9.4927783203125,-0.10509062558412552,0.044231075793504715,-0.023592986166477203
1733697500452732400,9.502732421875,-0.09345632046461105,0.15961770713329315,-0.026268407702445984
1733697500462686200,9.512686279296876,-0.07229511439800262,0.25307920575141907,-0.02486385777592659
1733697500472639200,9.52263916015625,-0.04989249259233475,0.29085713624954224,-0.01788806915283203
1733697500482593300,9.53259326171875,-0.03932533785700798,0.2768731415271759,-0.010580355301499367
1733697500492547300,9.54254736328125,-0.038977425545454025,0.2334137260913849,-0.001487087458372116
1733697500502501400,9.55250146484375,-0.03805650398135185,0.18792906403541565,0.001384066417813301
1733697500512455200,9.562455078125,-0.038022231310606,0.15178032219409943,0.0024094684049487114
1733697500522409000,9.572408935546875,-0.029487598687410355,0.12208794057369232,0.0009386045858263969
1733697500532363000,9.582363037109374,-0.01888135075569153,0.0937700942158699,0.0003104389179497957
1733697500542316800,9.59231689453125,-0.005874471738934517,0.05806615948677063,-0.0034089316613972187
1733697500552270800,9.602270751953125,0.0029336558654904366,0.017961934208869934,-0.009533352218568325
1733697500562223900,9.612223876953125,0.008526826277375221,-0.021133270114660263,-0.012416490353643894
1733697500572178000,9.622177978515625,0.005184454843401909,-0.04658658057451248,-0.012031879276037216
1733697500582132000,9.632132080078126,-0.004970178008079529,-0.05447326600551605,-0.009865663945674896
1733697500592085800,9.642085693359375,-0.019438251852989197,-0.047621458768844604,-0.004457888193428516
1733697500602038800,9.652038818359374,-0.03082832507789135,-0.024030910804867744,-0.003740965388715267
1733697500611992800,9.661992919921875,-0.03435828909277916,0.012103027664124966,-0.00044533214531838894
1733697500621947100,9.671947021484375,-0.03211803734302521,0.053102925419807434,0.00534677691757679
1733697500631901000,9.68190087890625,-0.031427085399627686,0.0841253399848938,0.007403383031487465
1733697500641855000,9.69185498046875,-0.031726159155368805,0.10042441636323929,0.0031359337735921144
1733697500651808000,9.70180810546875,-0.03037315607070923,0.10141334682703018,-0.008693397045135498
1733697500661762000,9.711761962890625,-0.02780027687549591,0.09056069701910019,-0.022557012736797333
1733697500671716000,9.721716064453124,-0.0271162036806345,0.07287946343421936,-0.0288784708827734
1733697500681670000,9.731669921875,-0.027018997818231583,0.051917724311351776,-0.029041988775134087
1733697500691624000,9.7416240234375,-0.026313433423638344,0.02905951999127865,-0.023486988618969917
1733697500701577000,9.751576904296876,-0.021673407405614853,0.0006081709871068597,-0.016730550676584244
1733697500711531000,9.761531005859375,-0.01079705823212862,-0.02399704046547413,-0.009928571060299873
1733697500721484800,9.77148486328125,0.0028969161212444305,-0.044377680867910385,-0.005742880515754223
1733697500731438800,9.78143896484375,0.011209904216229916,-0.05655936524271965,-0.0019009255338460207
1733697500741392000,9.791391845703124,0.015489337965846062,-0.05924702435731888,-0.003904953831806779
1733697500751346000,9.801345947265625,0.019709454849362373,-0.05925438925623894,-0.008736495859920979
1733697500761300000,9.811300048828125,0.01889719069004059,-0.05554327368736267,-0.01422314066439867
1733697500771254000,9.82125390625,0.017108380794525146,-0.05032263323664665,-0.016656221821904182
1733697500781208000,9.8312080078125,0.014068382792174816,-0.048046961426734924,-0.014343533664941788
1733697500791161000,9.8411611328125,0.012502387166023254,-0.0465930737555027,-0.010951125994324684
1733697500801115100,9.851115234375,0.012127680703997612,-0.0461730919778347,-0.007282088045030832
1733697500811069000,9.86106884765625,0.011406267993152142,-0.04888121411204338,-0.004392044153064489
1733697500821023000,9.87102294921875,0.01696055568754673,-0.061783697456121445,0.00009138742461800575
1733697500830977000,9.88097705078125,0.01792982965707779,-0.07745170593261719,0.0008297184249386191
1733697500840930000,9.890929931640626,0.019337575882673264,-0.08928146958351135,0.0005303791258484125
1733697500850883800,9.9008837890625,0.02186182513833046,-0.0983288586139679,0.0019614649936556816
1733697500860838000,9.910837890625,0.025037644430994987,-0.10364292562007904,0.0012448083143681288
1733697500870792000,9.9207919921875,0.02524494379758835,-0.10217855125665665,0.00045135593973100185
1733697500880746000,9.93074609375,0.021237952634692192,-0.08875808119773865,-0.0019470867700874805
1733697500890699000,9.940698974609376,0.015904780477285385,-0.06509687751531601,-0.0035215846728533506
1733697500900652800,9.95065283203125,0.013294884003698826,-0.03538345545530319,0.00035224948078393936
1733697500910606800,9.96060693359375,0.011853852309286594,-0.002901450265198946,0.004750412423163652
1733697500920561000,9.970560791015625,0.0114644980058074,0.02620903216302395,0.008080163039267063
1733697500930515000,9.980514892578125,0.010330346412956715,0.049192652106285095,0.011260200291872025
1733697500940469000,9.990468994140626,0.011190281249582767,0.0651889368891716,0.014282089658081532
1733697500950422000,10.000422119140625,0.009760908782482147,0.0758586898446083,0.015792440623044968
1733697500960376000,10.0103759765625,0.007902288809418678,0.07289671897888184,0.01399507187306881
1733697500970330000,10.020330078125,0.002921949839219451,0.05061888322234154,0.00844422634691
1733697500980284000,10.030283935546874,-0.00027650664560496807,0.007193647790700197,-0.0024494340177625418
1733697500990238000,10.040238037109376,-0.004679777193814516,-0.03974217176437378,-0.01789124123752117
1733697501000191000,10.05019091796875,-0.008904881775379181,-0.08234582096338272,-0.021806620061397552
1733697501010145000,10.06014501953125,-0.009070144034922123,-0.11052943021059036,-0.024472814053297043
1733697501020098800,10.070098876953125,-0.009845389984548092,-0.11532045900821686,-0.02452874183654785
1733697501030052900,10.080052978515624,-0.008965149521827698,-0.09533277899026871,-0.025652673095464706
1733697501040007000,10.0900068359375,-0.012905562296509743,-0.052222590893507004,-0.024196190759539604
1733697501049961000,10.0999609375,-0.01873156987130642,0.006884914357215166,-0.017928045243024826
1733697501059914000,10.1099140625,-0.023402489721775055,0.06708700209856033,-0.011967357248067856
1733697501069867800,10.11986767578125,-0.028409844264388084,0.11481506377458572,-0.0006411150097846985
1733697501079822000,10.129822021484374,-0.02928868681192398,0.14086076617240906,0.005677767097949982
1733697501089776000,10.139776123046875,-0.023150408640503883,0.1449870467185974,0.009091692976653576
1733697501099730000,10.14972998046875,-0.010218897834420204,0.13274529576301575,0.010057355277240276
1733697501109684000,10.15968408203125,0.00441236374899745,0.1134350597858429,0.004866217728704214
1733697501119637000,10.169636962890625,0.010233234614133835,0.08944690227508545,0.008277993649244308
1733697501129591000,10.179591064453126,0.004880374297499657,0.06840843707323074,0.010157294571399689
1733697501139545000,10.189545166015625,-0.010003499686717987,0.07121381163597107,0.007138069253414869
1733697501149499000,10.199498779296874,-0.03174208477139473,0.10272406786680222,0.004032290540635586
1733697501159453000,10.209452880859375,-0.06485849618911743,0.15063460171222687,0.0015265225665643811
1733697501169407000,10.219406982421875,-0.09314776211977005,0.1973024606704712,-0.0027370064053684473
1733697501179360000,10.229360107421876,-0.10073670744895935,0.2368384301662445,-0.006717100739479065
1733697501189313800,10.239313720703125,-0.0862487256526947,0.2609744369983673,-0.009575086645781994
1733697501199267800,10.249267822265624,-0.0534425787627697,0.2506565451622009,-0.005054104141891003
1733697501209222000,10.259221923828125,-0.021755069494247437,0.1989738643169403,0.0067584943026304245
1733697501219176000,10.269176025390625,-0.0023954876232892275,0.11159128695726395,0.018430598080158234
1733697501229130000,10.2791298828125,0.0016490549314767122,0.00231619318947196,0.015080606564879417
1733697501239083000,10.2890830078125,-0.003557158401235938,-0.09969805926084518,0.0005794281605631113
1733697501249037000,10.299037109375,-0.0029098389204591513,-0.16028031706809998,-0.012504808604717255
1733697501258991000,10.3089912109375,0.002270275726914406,-0.16430409252643585,-0.022321220487356186
1733697501268945000,10.31894482421875,0.0036675743758678436,-0.11171487718820572,-0.020373355597257614
1733697501278899000,10.32889892578125,0.0037003308534622192,-0.02361910417675972,-0.015376733615994453
1733697501288853000,10.33885302734375,-0.005711467936635017,0.07423879951238632,-0.007593995425850153
1733697501298806800,10.348806884765626,-0.015307636000216007,0.1543368250131607,0.007115442305803299
1733697501308759800,10.358759765625,-0.018980637192726135,0.19571590423583984,0.019831007346510887
1733697501318713900,10.3687138671875,-0.012613818049430847,0.19351160526275635,0.02272985689342022
1733697501328668000,10.37866796875,0.001889401813969016,0.15629057586193085,0.019256699830293655
1733697501338622000,10.3886220703125,0.01928916573524475,0.10162919759750366,0.007290319539606571
1733697501348576000,10.398575927734376,0.044088296592235565,0.03925498202443123,-0.0030787677969783545
1733697501358530000,10.408530029296875,0.06490489840507507,-0.02638634666800499,-0.006518772803246975
1733697501368484000,10.418484130859374,0.07722729444503784,-0.09539420902729034,-0.005323790945112705
1733697501378437000,10.42843701171875,0.08443301171064377,-0.16650860011577606,-0.004722715355455875
1733697501388391000,10.438390869140624,0.08589428663253784,-0.23208974301815033,-0.002827610122039914
1733697501398345000,10.448344970703126,0.07927446812391281,-0.2862565815448761,-0.008321179077029228
1733697501408299000,10.458299072265625,0.07345624268054962,-0.3257097899913788,-0.018339935690164566
1733697501418253000,10.468253173828124,0.06643562018871307,-0.3419686555862427,-0.0252913199365139
1733697501428206800,10.478206787109375,0.05630437284708023,-0.33593717217445374,-0.03424910828471184
1733697501438161000,10.488160888671874,0.0449390672147274,-0.3116656541824341,-0.037246495485305786
1733697501448115000,10.498114990234376,0.04084662348031998,-0.2723463773727417,-0.034848496317863464
1733697501458068000,10.50806787109375,0.03546757251024246,-0.21999742090702057,-0.029181556776165962
1733697501468021800,10.518021728515626,0.030825644731521606,-0.15481212735176086,-0.0208722110837698
1733697501477975800,10.527975830078125,0.023721661418676376,-0.0852130874991417,-0.007687966804951429
1733697501487930000,10.53793017578125,0.02054077759385109,-0.02088080532848835,0.0025492773856967688
1733697501497884200,10.54788427734375,0.013292985036969185,0.025981774553656578,0.012854378670454025
1733697501507838000,10.557837890625,0.009133735671639442,0.05358362942934036,0.013675081543624401
1733697501517791200,10.567791259765626,0.004837525077164173,0.06345756351947784,0.012256416492164135
1733697501527745300,10.577745361328125,0.001352151157334447,0.06546135246753693,0.010933714918792248
1733697501537698300,10.5876982421875,-0.0020641516894102097,0.062201377004384995,0.012489001266658306
1733697501547652400,10.59765234375,-0.005799179431051016,0.06370582431554794,0.008082245476543903
1733697501557606100,10.607606201171874,-0.008340634405612946,0.06642331182956696,-0.0008497303351759911
1733697501567560200,10.617560302734375,-0.008030431345105171,0.05941523239016533,-0.011252442374825478
1733697501577514200,10.62751416015625,-0.000804210314527154,0.034469135105609894,-0.013939838856458664
1733697501587468000,10.637468017578126,0.015518548898398876,-0.006840832997113466,-0.012232796289026737
1733697501597422300,10.64742236328125,0.0386614166200161,-0.061457738280296326,-0.003192695789039135
1733697501607376400,10.65737646484375,0.053552884608507156,-0.11437691003084183,0.001734363380819559
1733697501617330400,10.667330322265625,0.05706319957971573,-0.14548662304878235,0.0010115813929587603
1733697501627283500,10.677283447265625,0.049218155443668365,-0.14953173696994781,-0.0016942813526839018
1733697501637237200,10.6872373046875,0.034465573728084564,-0.12840594351291656,-0.0017797688487917185
1733697501647191300,10.69719140625,0.021016275510191917,-0.09598424285650253,-0.006012197118252516
1733697501657145300,10.707145263671874,0.011146601289510727,-0.0653858482837677,-0.005440682638436556
1733697501667099100,10.71709912109375,0.004861684516072273,-0.04296581447124481,-0.003722095862030983
1733697501677053200,10.72705322265625,0.000005144160240888596,-0.03392118960618973,0.002249510260298848
1733697501687007200,10.73700732421875,-0.004041106440126896,-0.030794905498623848,0.00434343796223402
1733697501696961300,10.746961181640625,-0.013046053238213062,-0.031509965658187866,0.004578595049679279
1733697501706915000,10.7569150390625,-0.017943672835826874,-0.028548160567879677,0.004742513410747051
1733697501716869400,10.766869384765625,-0.023371994495391846,-0.02507486566901207,0.006462116725742817
1733697501726823400,10.776823486328125,-0.02185402251780033,-0.0177290178835392,0.005508238449692726
1733697501736776400,10.7867763671875,-0.019337335601449013,-0.00894671306014061,0.0024541255552321672
1733697501746730200,10.796730224609375,-0.02354527823626995,0.0033718959894031286,-0.005610824562609196
1733697501756684300,10.806684326171874,-0.031155260279774666,0.03674130514264107,-0.02918965369462967
1733697501766638300,10.816638427734375,-0.049211472272872925,0.09439785778522491,-0.05420446768403053
1733697501776592100,10.826592041015624,-0.0640905499458313,0.17720380425453186,-0.06823426485061646
1733697501786546200,10.836546142578126,-0.05984370782971382,0.24820366501808167,-0.06219540163874626
1733697501796500200,10.846500244140625,-0.03596553951501846,0.26578426361083984,-0.04292663186788559
1733697501806454300,10.856454345703124,-0.006100507453083992,0.22483611106872559,-0.018461909145116806
1733697501816408000,10.866407958984375,0.01678589917719364,0.14599110186100006,-0.001194771146401763
1733697501826362000,10.876362060546874,0.034184735268354416,0.05569376423954964,0.010760316625237465
1733697501836316400,10.88631640625,0.04367304593324661,-0.02630150131881237,0.02306997962296009
1733697501846270200,10.896270263671875,0.0475332997739315,-0.09028634428977966,0.030498335137963295
1733697501856223200,10.90622314453125,0.040739040821790695,-0.13909809291362762,0.02957022376358509
1733697501866177300,10.91617724609375,0.028827952221035957,-0.17393973469734192,0.017068486660718918
1733697501876131300,10.92613134765625,0.013038070872426033,-0.19845865666866302,0.0030546661000698805
1733697501886085400,10.93608544921875,0.000838153762742877,-0.20741762220859528,-0.0052871620282530785
1733697501896039200,10.9460390625,-0.010171620175242424,-0.19805288314819336,-0.0022239938843995333
1733697501905993200,10.9559931640625,-0.016350947320461273,-0.16571056842803955,0.003140563378110528
1733697501915947300,10.965947265625,-0.015694744884967804,-0.11234376579523087,0.00942935235798359
1733697501925901000,10.975901123046874,-0.015765976160764694,-0.047998059540987015,0.015041169710457325
1733697501935855000,10.985855224609375,-0.02020227164030075,0.013777956366539001,0.017228689044713974
1733697501945809200,10.99580908203125,-0.029434770345687866,0.0701119527220726,0.013899249956011772
1733697501955763500,11.005763427734376,-0.039777688682079315,0.11180640012025833,0.008822998031973839
1733697501965717200,11.01571728515625,-0.04196835681796074,0.14161738753318787,0.006708164699375629
1733697501975671300,11.02567138671875,-0.043688226491212845,0.15955165028572083,0.005413069389760494
1733697501985625300,11.035625244140626,-0.041642967611551285,0.17204809188842773,0.0067138876765966415
1733697501995579100,11.0455791015625,-0.03674088791012764,0.18093372881412506,0.011423422023653984
1733697502005532200,11.0555322265625,-0.03588458523154259,0.18191400170326233,0.01699839159846306
1733697502015486200,11.065486328125,-0.034007053822278976,0.17623615264892578,0.020659172907471657
1733697502025440300,11.075440185546874,-0.030855393037199974,0.1674988716840744,0.017276931554079056
1733697502035394300,11.085394287109375,-0.02228187955915928,0.15043067932128906,0.009847244247794151
1733697502045348000,11.09534814453125,-0.011844955384731293,0.13336411118507385,0.0035059358924627304
1733697502055302100,11.10530224609375,-0.0028559875208884478,0.12004963308572769,0.0007564885308966041
1733697502065256400,11.11525634765625,0.001061256043612957,0.10925398021936417,-0.0013772360980510712
1733697502075210200,11.125210205078124,0.0008455188944935799,0.09754543006420135,-0.00010471325367689133
1733697502085164300,11.135164306640625,0.0030629639513790607,0.07753229141235352,0.0019703302532434464
1733697502095118300,11.145118408203125,0.00477644195780158,0.05075819417834282,0.0035461224615573883
1733697502105072400,11.155072265625,0.0069085946306586266,0.011266096495091915,0.005658267065882683
1733697502115026200,11.165026123046875,0.00821833685040474,-0.026144390925765038,0.004682218190282583
1733697502124980200,11.174980224609374,0.011646110564470291,-0.06209768354892731,0.0035081401001662016
1733697502134934300,11.184934326171875,0.017519444227218628,-0.08637639135122299,0.0007850578986108303
1733697502144888000,11.19488818359375,0.01802833192050457,-0.08739891648292542,-0.0010266173630952835
1733697502154842000,11.204842041015626,0.019085872918367386,-0.07335340976715088,0.000515885534696281
1733697502164796400,11.21479638671875,0.018311187624931335,-0.05237603560090065,0.0053159575909376144
1733697502174750200,11.224750244140624,0.012331593781709671,-0.03341619297862053,0.0076864371076226234
1733697502184704300,11.234704345703125,0.008337853476405144,-0.02045358344912529,0.0042876433581113815
1733697502194658300,11.244658203125,0.001963843824341893,-0.012498454190790653,-0.00010337634012103081
1733697502204612400,11.2546123046875,0.0015482727903872728,-0.022348880767822266,-0.00488382950425148
1733697502214566100,11.264566162109375,-0.0025740342680364847,-0.03832385316491127,-0.009535306133329868
1733697502224520200,11.274520263671874,-0.005688349716365337,-0.05818353593349457,-0.012636227533221245
1733697502234473200,11.28447314453125,-0.0014025247655808926,-0.08343935757875443,-0.014657567255198956
1733697502244427300,11.29442724609375,0.005001524463295937,-0.11412333697080612,-0.015837475657463074
1733697502254381000,11.304381103515626,0.009237016551196575,-0.15198415517807007,-0.02094035968184471
1733697502264335000,11.314335205078125,0.012988077476620674,-0.18596476316452026,-0.02928389608860016
1733697502274289200,11.3242890625,0.010926524177193642,-0.20141375064849854,-0.03573407232761383
1733697502284243500,11.334243408203125,0.0088950265198946,-0.1929570436477661,-0.040517449378967285
1733697502294197200,11.344197265625,0.0006083338521420956,-0.15758413076400757,-0.03663056716322899
1733697502304151300,11.3541513671875,-0.01609741896390915,-0.09309165179729462,-0.030373141169548035
1733697502314105300,11.364105224609375,-0.030147191137075424,-0.010831932537257671,-0.020696280524134636
1733697502324059100,11.37405908203125,-0.04213560000061989,0.07264033704996109,-0.009655224159359932
1733697502334013200,11.38401318359375,-0.05188170447945595,0.1494075506925583,0.0000948742963373661
1733697502343967200,11.39396728515625,-0.05996349826455116,0.20779827237129211,0.011923574842512608
1733697502353921300,11.40392138671875,-0.06169455498456955,0.24615870416164398,0.01967497169971466
1733697502363875000,11.413875,-0.05582970380783081,0.27119916677474976,0.027638426050543785
1733697502373829000,11.4238291015625,-0.04806099086999893,0.29553911089897156,0.03277193754911423
1733697502383783400,11.433783447265625,-0.04206644371151924,0.336458683013916,0.033135853707790375
1733697502393737200,11.4437373046875,-0.044140782207250595,0.39651909470558167,0.01958276331424713
1733697502403691300,11.453691162109376,-0.05742257088422775,0.46284884214401245,-0.011332131922245026
1733697502413645300,11.463645263671875,-0.08528562635183334,0.5197349786758423,-0.0324038602411747
1733697502423599400,11.473599365234374,-0.11244101822376251,0.539653480052948,-0.033098433166742325
1733697502433553200,11.48355322265625,-0.13244561851024628,0.5010807514190674,-0.017409751191735268
1733697502443507200,11.493507080078125,-0.13714599609375,0.41132497787475586,0.0020650539081543684
1733697502453461200,11.503461181640626,-0.12444378435611725,0.29439064860343933,0.008198313415050507
1733697502463415000,11.5134150390625,-0.09870347380638123,0.1720360666513443,-0.0005587127525359392
1733697502473369300,11.523369384765624,-0.06458597630262375,0.07115153223276138,-0.01939738169312477
1733697502483323400,11.533323486328126,-0.03649549186229706,0.005879389122128487,-0.04223332926630974
1733697502493277200,11.543277099609375,-0.023429222404956818,-0.028170987963676453,-0.05235520750284195
1733697502503231200,11.553231201171876,-0.02722732350230217,-0.024734776467084885,-0.04786553978919983
1733697502513185300,11.563185302734375,-0.047902777791023254,0.008120641112327576,-0.026069162413477898
1733697502523139800,11.573139892578125,-0.07253994047641754,0.06845033168792725,0.0021750524174422026
1733697502533094000,11.583093994140626,-0.08743154257535934,0.14135196805000305,0.028258850798010826
1733697502543048000,11.5930478515625,-0.0849711075425148,0.20255883038043976,0.04079555720090866
1733697502553002000,11.603001953125,-0.07192960381507874,0.23871365189552307,0.04090102016925812
1733697502562955800,11.612955810546875,-0.05305415764451027,0.24880504608154297,0.026606963947415352
1733697502572909800,11.622909912109375,-0.03285328298807144,0.23930954933166504,0.015495456755161285
1733697502582864000,11.63286376953125,-0.017436526715755463,0.22308576107025146,0.008428683504462242
1733697502592817700,11.642817626953125,-0.0057383254170417786,0.21292845904827118,0.0046501909382641315
1733697502602771700,11.652771728515624,0.004734288901090622,0.2022760808467865,0.004825693555176258
1733697502612725800,11.662725830078125,0.013593294657766819,0.18820206820964813,0.0016711789648979902
1733697502622679800,11.6726796875,0.0261982474476099,0.17623966932296753,-0.0015689479187130928
1733697502632633900,11.6826337890625,0.036203477531671524,0.16610048711299896,-0.009605835191905499
1733697502642588000,11.692587890625,0.04108449071645737,0.144926056265831,-0.018527192994952202
1733697502652542000,11.7025419921875,0.04097902774810791,0.10806895792484283,-0.028408320620656013
1733697502662495700,11.712495849609375,0.03688295930624008,0.0634085014462471,-0.036680348217487335
1733697502672449800,11.72244970703125,0.025103269144892693,0.012277673929929733,-0.03826013579964638
1733697502682403800,11.73240380859375,0.012623949907720089,-0.03451574593782425,-0.03495335951447487
1733697502692358000,11.74235791015625,0.000004827510565519333,-0.07765016704797745,-0.029563654214143753
1733697502702311700,11.752311767578124,-0.009725082665681839,-0.12199129164218903,-0.02432534471154213
1733697502712265700,11.762265625,-0.007476842030882835,-0.1673276126384735,-0.02576957643032074
1733697502722220000,11.772219970703125,0.005329498089849949,-0.20608454942703247,-0.02669021487236023
1733697502732173800,11.782173828125,0.02444833144545555,-0.23684751987457275,-0.02409602887928486
1733697502742127900,11.7921279296875,0.043365478515625,-0.2624133229255676,-0.01721002720296383
1733697502752082000,11.80208203125,0.05870049074292183,-0.2748947739601135,-0.013264552690088749
1733697502762036000,11.812035888671875,0.06363697350025177,-0.2704829275608063,-0.010840417817234993
1733697502771989800,11.82198974609375,0.05641394853591919,-0.24562445282936096,-0.0072081321850419044
1733697502781943800,11.83194384765625,0.04083797708153725,-0.2048477977514267,0.0008682177867740393
1733697502791897900,11.84189794921875,0.02262141928076744,-0.15630795061588287,0.008243309333920479
1733697502801851600,11.8518515625,0.010150199756026268,-0.1052451804280281,0.010997586883604527
1733697502811805700,11.8618056640625,0.009180542081594467,-0.06421305984258652,0.009808485396206379
1733697502821760800,11.8717607421875,0.012217553332448006,-0.03533048927783966,0.007752211764454842
1733697502831714800,11.88171484375,0.021587353199720383,-0.024598747491836548,0.008084308356046677
1733697502841668900,11.8916689453125,0.02896760404109955,-0.032826464623212814,0.011630341410636902
1733697502851623000,11.901622802734375,0.02597474306821823,-0.04044337198138237,0.019352445378899574
1733697502861576700,11.91157666015625,0.016086608171463013,-0.040745049715042114,0.02005966380238533
1733697502871530800,11.92153076171875,0.006093097850680351,-0.03651435300707817,0.018532341346144676
1733697502881484800,11.93148486328125,0.0009440607391297817,-0.01807125099003315,0.012987663969397545
