time,seconds_elapsed,z,y,x
1733861316866932500,0.016932373046875,0.02518615499138832,-0.068478524684906,-0.020555701106786728
1733861316876883500,0.026883544921875,0.014560967683792114,-0.04670872539281845,-0.012915140017867088
1733861316886834400,0.03683447265625,0.0070497882552444935,-0.024060672149062157,-0.008626384660601616
1733861316896784600,0.04678466796875,0.010386776179075241,-0.017241571098566055,-0.012928438372910023
1733861316906735400,0.0567353515625,0.029308268800377846,-0.013153350912034512,-0.016595080494880676
1733861316916686600,0.0666865234375,0.03388350456953049,0.0022422471083700657,0.0041360086761415005
1733861316926637300,0.07663720703125,0.03144910931587219,0.023774970322847366,0.030828872695565224
1733861316936588500,0.086588623046875,0.028116481378674507,0.028838803991675377,0.03592021018266678
1733861316946539500,0.09653955078125,0.029440606012940407,0.01646469160914421,0.027056410908699036
1733861316956489200,0.1064892578125,0.04248104244470596,-0.008725078776478767,0.013726280070841312
1733861316966440400,0.1164404296875,0.047729600220918655,-0.028037788346409798,-0.009310862049460411
1733861316976391700,0.1263916015625,0.04547600448131561,-0.03515248000621796,-0.015723764896392822
1733861316986342400,0.13634228515625,0.040617600083351135,-0.036332257091999054,-0.008305261842906475
1733861316996293600,0.146293701171875,0.037136323750019073,-0.02203027345240116,-0.0009433776140213013
1733861317006243600,0.15624365234375,0.036544568836688995,0.0017823809757828712,0.004189066588878632
1733861317016194300,0.1661943359375,0.03293655067682266,0.02271275408565998,0.015268680639564991
1733861317026145500,0.1761455078125,0.019574139267206192,0.03951011225581169,0.019672749564051628
1733861317036097000,0.186096923828125,0.006020234897732735,0.05111880600452423,0.019418997690081596
1733861317046048000,0.196048095703125,0.0024468055926263332,0.04413759708404541,0.015276452526450157
1733861317055999000,0.2059990234375,0.010223282501101494,0.006456070579588413,0.006237116642296314
1733861317065949000,0.215948974609375,0.02836500108242035,-0.05543552711606026,-0.01398160308599472
1733861317075900200,0.225900146484375,0.0651637390255928,-0.09717502444982529,-0.02524081990122795
1733861317085851000,0.235850830078125,0.06204304099082947,-0.0959441065788269,-0.01868331804871559
1733861317095802000,0.245802001953125,-0.0029732962138950825,-0.11589954048395157,-0.005330140236765146
1733861317105752800,0.2557529296875,-0.05852710083127022,-0.14727450907230377,0.00386895053088665
1733861317115704000,0.2657041015625,-0.09716154634952545,-0.2288324236869812,-0.005081338342279196
1733861317125654000,0.275654052734375,-0.12367544323205948,-0.3594492971897125,-0.02829398401081562
1733861317135605000,0.28560498046875,-0.14676208794116974,-0.5138760805130005,-0.06004337593913078
1733861317145556000,0.295555908203125,-0.16768334805965424,-0.6530821919441223,-0.09743682295084
1733861317155507200,0.305507080078125,-0.17664790153503418,-0.7485619783401489,-0.13342802226543427
1733861317165458000,0.3154580078125,-0.17612911760807037,-0.8099968433380127,-0.1534920185804367
1733861317175409200,0.3254091796875,-0.16944456100463867,-0.8548651933670044,-0.15463487803936005
1733861317185359000,0.335359130859375,-0.17086349427700043,-0.8942126035690308,-0.13596904277801514
1733861317195310000,0.34531005859375,-0.18637502193450928,-0.9244382977485657,-0.08558677136898041
1733861317205261000,0.355260986328125,-0.21169768273830414,-0.9123222827911377,-0.04152343422174454
1733861317215212000,0.3652119140625,-0.24500909447669983,-0.8570048213005066,0.006085978355258703
1733861317225163000,0.3751630859375,-0.27592307329177856,-0.8045820593833923,0.05157383531332016
1733861317235113200,0.38511328125,-0.2953073978424072,-0.7693438529968262,0.0610630102455616
1733861317245064000,0.39506396484375,-0.2977745532989502,-0.7413942813873291,0.06367716938257217
1733861317255015200,0.40501513671875,-0.2955896854400635,-0.7110573649406433,0.07836615294218063
1733861317264966000,0.4149658203125,-0.3122096657752991,-0.6754597425460815,0.08881986141204834
1733861317274917000,0.424917236328125,-0.3442976176738739,-0.6447477340698242,0.08055509626865387
1733861317284868000,0.4348681640625,-0.38791248202323914,-0.6361656785011292,0.07446710765361786
1733861317294818000,0.444818115234375,-0.4256875216960907,-0.6454198360443115,0.08171948790550232
1733861317304769000,0.45476904296875,-0.4527966380119324,-0.6553795337677002,0.08925783634185791
1733861317314720000,0.464719970703125,-0.4661957621574402,-0.6441116333007812,0.0778433233499527
1733861317324671000,0.4746708984375,-0.46654704213142395,-0.640026867389679,0.04596607759594917
1733861317334622200,0.484622314453125,-0.47188374400138855,-0.6544883847236633,0.01975460723042488
1733861317344573000,0.494572998046875,-0.4915120601654053,-0.693589448928833,0.0071850186213850975
1733861317354523000,0.50452294921875,-0.5082958340644836,-0.7613728642463684,0.01574920117855072
1733861317364474000,0.51447412109375,-0.5272604823112488,-0.833281934261322,0.017281850799918175
1733861317374424800,0.5244248046875,-0.5509673357009888,-0.8893291354179382,0.006113579962402582
1733861317384376000,0.5343759765625,-0.5687591433525085,-0.9385744333267212,-0.010035562328994274
1733861317394327000,0.5443271484375,-0.5908599495887756,-0.9892432689666748,-0.02214352786540985
1733861317404278000,0.554278076171875,-0.6236546635627747,-1.0479869842529297,-0.03477543592453003
1733861317414228000,0.56422802734375,-0.6512271761894226,-1.1055738925933838,-0.03963431343436241
1733861317424179200,0.57417919921875,-0.692378580570221,-1.146867275238037,-0.052414827048778534
1733861317434130000,0.5841298828125,-0.7399213314056396,-1.1837451457977295,-0.06534270942211151
1733861317444081200,0.5940810546875,-0.7941105365753174,-1.23856782913208,-0.08097333461046219
1733861317454032000,0.604031982421875,-0.8289215564727783,-1.2747615575790405,-0.07091579586267471
1733861317463982000,0.613982177734375,-0.8378420472145081,-1.2736108303070068,-0.06270606815814972
1733861317473933000,0.62393310546875,-0.82567298412323,-1.2730580568313599,-0.08811646699905396
1733861317483884000,0.633884033203125,-0.7926111221313477,-1.2620632648468018,-0.11687754094600677
1733861317493835000,0.6438349609375,-0.7605038285255432,-1.2075552940368652,-0.1531442403793335
1733861317503786000,0.653785888671875,-0.7462103366851807,-1.1255825757980347,-0.194237619638443
1733861317513737000,0.663737060546875,-0.7524038553237915,-1.0460522174835205,-0.2342223972082138
1733861317523687200,0.673687255859375,-0.7869392037391663,-0.985276997089386,-0.2853239178657532
1733861317533638000,0.683637939453125,-0.8266066908836365,-0.9754199385643005,-0.3058062791824341
1733861317543589000,0.693589111328125,-0.845543384552002,-1.0623433589935303,-0.2401159703731537
1733861317553540000,0.7035400390625,-0.8286842703819275,-1.1772592067718506,-0.14294083416461945
1733861317563491000,0.713490966796875,-0.7476445436477661,-1.1632204055786133,-0.13304053246974945
1733861317573442000,0.723442138671875,-0.6342513561248779,-1.0215518474578857,-0.16601786017417908
1733861317583392300,0.733392333984375,-0.5305662155151367,-0.8225540518760681,-0.1935805082321167
1733861317593343000,0.743343017578125,-0.48576873540878296,-0.5958449244499207,-0.21669751405715942
1733861317603294200,0.753294189453125,-0.5043134093284607,-0.39925891160964966,-0.23511940240859985
1733861317613245000,0.763244873046875,-0.561088502407074,-0.26912209391593933,-0.24174746870994568
1733861317623196200,0.773196044921875,-0.6086107492446899,-0.19839012622833252,-0.24009551107883453
1733861317633147000,0.78314697265625,-0.6289892196655273,-0.167825847864151,-0.21379579603672028
1733861317643096800,0.793096923828125,-0.6085532307624817,-0.15616680681705475,-0.17997071146965027
1733861317653048000,0.803048095703125,-0.5545693635940552,-0.15925763547420502,-0.16259214282035828
1733861317662999000,0.8129990234375,-0.5131619572639465,-0.2053859829902649,-0.14542512595653534
1733861317672950000,0.822949951171875,-0.4945557713508606,-0.3059535622596741,-0.13120955228805542
1733861317682901200,0.8329013671875,-0.47702232003211975,-0.4816567003726959,-0.12949153780937195
1733861317692852000,0.84285205078125,-0.4471789002418518,-0.6435818672180176,-0.1491076797246933
1733861317702802000,0.852802001953125,-0.41043660044670105,-0.7317460775375366,-0.18274633586406708
1733861317712753200,0.862753173828125,-0.38104820251464844,-0.7374436259269714,-0.2183895856142044
1733861317722704000,0.872703857421875,-0.3720453977584839,-0.6965736746788025,-0.2528844177722931
1733861317732655000,0.882655029296875,-0.378505676984787,-0.6382365822792053,-0.27593904733657837
1733861317742605800,0.892605712890625,-0.3936087191104889,-0.5911079049110413,-0.2930155098438263
1733861317752557000,0.90255712890625,-0.40470340847969055,-0.5584614872932434,-0.30562645196914673
1733861317762507000,0.912507080078125,-0.4078017473220825,-0.559312105178833,-0.31238555908203125
1733861317772458000,0.9224580078125,-0.3916778862476349,-0.6141921281814575,-0.27314385771751404
1733861317782409000,0.932408935546875,-0.36271414160728455,-0.6665655970573425,-0.2423768788576126
1733861317792360200,0.942360107421875,-0.3168603777885437,-0.6647442579269409,-0.21682757139205933
1733861317802311000,0.952310791015625,-0.2710585296154022,-0.6347339153289795,-0.19489218294620514
1733861317812262100,0.96226220703125,-0.2354014664888382,-0.5873818397521973,-0.17039355635643005
1733861317822212000,0.972212158203125,-0.21400883793830872,-0.5265762805938721,-0.14794284105300903
1733861317832163000,0.9821630859375,-0.2047194242477417,-0.46624764800071716,-0.11805034428834915
1733861317842114000,0.992114013671875,-0.2098684012889862,-0.43050721287727356,-0.08876143395900726
1733861317852065000,1.00206494140625,-0.21538564562797546,-0.4152368903160095,-0.06927821785211563
1733861317862016000,1.01201611328125,-0.21049447357654572,-0.4246881902217865,-0.041561368852853775
1733861317871966200,1.02196630859375,-0.19190862774848938,-0.44211018085479736,-0.014421749860048294
1733861317881917000,1.0319169921875,-0.16305726766586304,-0.44342416524887085,0.004671782720834017
1733861317891868200,1.0418681640625,-0.12115798145532608,-0.4152318835258484,0.022968079894781113
1733861317901819000,1.05181884765625,-0.08210751414299011,-0.3663410544395447,0.04424940049648285
1733861317911770000,1.06177001953125,-0.041734784841537476,-0.30311068892478943,0.07340851426124573
1733861317921721000,1.07172119140625,-0.00325982877984643,-0.23449698090553284,0.09894689917564392
1733861317931671000,1.081671142578125,0.02651962824165821,-0.16712461411952972,0.11688658595085144
1733861317941622000,1.0916220703125,0.051224976778030396,-0.10392353683710098,0.11990980803966522
1733861317951573200,1.1015732421875,0.06702498346567154,-0.04458590969443321,0.11481709778308868
1733861317961524000,1.11152392578125,0.07785632461309433,-0.006608435418456793,0.10219904035329819
1733861317971475200,1.12147509765625,0.0856391191482544,0.008900954388082027,0.09934274107217789
1733861317981426000,1.131426025390625,0.09082747995853424,0.005985059309750795,0.10046260058879852
1733861317991376000,1.1413759765625,0.09488138556480408,-0.007264094427227974,0.10487882047891617
1733861318001327000,1.1513271484375,0.1037457212805748,-0.021666202694177628,0.0981154590845108
1733861318011277800,1.16127783203125,0.11673527210950851,-0.03322035074234009,0.08616404235363007
1733861318021229000,1.17122900390625,0.1289471834897995,-0.03172311931848526,0.06464996188879013
1733861318031180000,1.181179931640625,0.13719022274017334,-0.01898893713951111,0.04613683745265007
1733861318041132800,1.1911328125,0.14011889696121216,-0.0037268945015966892,0.03528392314910889
1733861318051082500,1.20108251953125,0.13469727337360382,0.004082878120243549,0.029144281521439552
1733861318061033700,1.21103369140625,0.12031353265047073,0.0068749357014894485,0.024759920313954353
1733861318070984700,1.220984619140625,0.10126282274723053,0.002411646768450737,0.025472939014434814
1733861318080935700,1.230935791015625,0.07695189118385315,-0.010948101058602333,0.02797337993979454
1733861318090886700,1.24088671875,0.049493953585624695,-0.0272995512932539,0.03298051282763481
1733861318100837600,1.250837646484375,0.027041107416152954,-0.036726608872413635,0.03421568498015404
1733861318110787600,1.26078759765625,0.00574452243745327,-0.04194098338484764,0.027344176545739174
1733861318120738800,1.27073876953125,-0.014471800066530704,-0.054226942360401154,0.013200926594436169
1733861318130689500,1.280689453125,-0.03339613229036331,-0.07826951891183853,0.00859964732080698
1733861318140640800,1.290640869140625,-0.04384983703494072,-0.10049998760223389,0.0044853296130895615
1733861318150591500,1.300591552734375,-0.04976610094308853,-0.11173221468925476,-0.003151088021695614
1733861318160542700,1.310542724609375,-0.051956817507743835,-0.11219267547130585,-0.01175975613296032
1733861318170492700,1.32049267578125,-0.05832892656326294,-0.10239644348621368,-0.017293209210038185
1733861318180443600,1.330443603515625,-0.06534183025360107,-0.08925934135913849,-0.01755526475608349
1733861318190394600,1.34039453125,-0.07568182796239853,-0.07737686485052109,-0.012185162864625454
1733861318200345900,1.350345947265625,-0.08742929995059967,-0.06899455934762955,-0.0034497277811169624
1733861318210296600,1.360296630859375,-0.10349694639444351,-0.06466533243656158,0.012420527637004852
1733861318220246500,1.37024658203125,-0.11748120933771133,-0.06301497668027878,0.02286890707910061
1733861318230197800,1.38019775390625,-0.12996318936347961,-0.055749621242284775,0.0281231626868248
1733861318240148500,1.3901484375,-0.13524183630943298,-0.047864269465208054,0.027912504971027374
1733861318250099700,1.400099609375,-0.1437399834394455,-0.045129984617233276,0.020733052864670753
1733861318260050400,1.410050537109375,-0.1527869999408722,-0.0495617501437664,0.017443781718611717
1733861318270001700,1.420001708984375,-0.16040387749671936,-0.0557602122426033,0.007103749550879002
1733861318279951600,1.42995166015625,-0.16175571084022522,-0.06930558383464813,-0.006177700590342283
1733861318289902600,1.439902587890625,-0.15563926100730896,-0.08505585789680481,-0.017484966665506363
1733861318299853600,1.449853515625,-0.14475120604038239,-0.09395535290241241,-0.028096597641706467
1733861318309804800,1.4598046875,-0.13356246054172516,-0.10488415509462357,-0.03250061348080635
1733861318319755500,1.469755615234375,-0.12833760678768158,-0.1197240874171257,-0.040350280702114105
1733861318329706800,1.479706787109375,-0.13505640625953674,-0.1484227180480957,-0.04669245705008507
1733861318339656700,1.48965673828125,-0.14659029245376587,-0.1781177520751953,-0.043602656573057175
1733861318349607700,1.499607666015625,-0.1609988510608673,-0.19800446927547455,-0.03758207708597183
1733861318359558700,1.50955859375,-0.17921459674835205,-0.2127101719379425,-0.027427976951003075
1733861318369509600,1.519509521484375,-0.198392853140831,-0.21496085822582245,-0.017606087028980255
1733861318379460600,1.529460693359375,-0.21247299015522003,-0.19713285565376282,-0.01405156496912241
1733861318389411600,1.53941162109375,-0.2259080559015274,-0.17109160125255585,-0.013537134975194931
1733861318399361500,1.549361572265625,-0.2328258901834488,-0.1480235606431961,-0.01582692191004753
1733861318409312800,1.559312744140625,-0.2363429069519043,-0.12386023253202438,-0.021738458424806595
1733861318419263500,1.569263427734375,-0.23662972450256348,-0.09907232969999313,-0.03085498884320259
1733861318429214700,1.579214599609375,-0.23822414875030518,-0.08505848795175552,-0.03734276816248894
1733861318439165700,1.589165771484375,-0.23149779438972473,-0.08240411430597305,-0.03224840760231018
1733861318449116700,1.59911669921875,-0.2200009524822235,-0.08390749990940094,-0.01584206335246563
1733861318459066600,1.609066650390625,-0.1978815346956253,-0.08120732009410858,-0.0030170767568051815
1733861318469017900,1.619017822265625,-0.16819529235363007,-0.06867984682321548,-0.0027248780243098736
1733861318478968600,1.628968505859375,-0.13687863945960999,-0.044826705008745193,-0.006860501132905483
1733861318488919800,1.638919921875,-0.10937535762786865,-0.011680175550282001,-0.011898664757609367
1733861318498870500,1.64887060546875,-0.08695633709430695,0.030743181705474854,-0.011726891621947289
1733861318508820500,1.658820556640625,-0.06873898953199387,0.07249993830919266,-0.011842314153909683
1733861318518771700,1.668771728515625,-0.06051062047481537,0.10393908619880676,-0.01050087995827198
1733861318528722700,1.67872265625,-0.06352369487285614,0.12372668832540512,-0.010787269100546837
1733861318538673700,1.688673583984375,-0.06726118177175522,0.1429634839296341,-0.008611999452114105
1733861318548624600,1.698624755859375,-0.07483547180891037,0.16188710927963257,-0.006484454032033682
1733861318558575600,1.70857568359375,-0.08179564774036407,0.17597097158432007,0.004646493587642908
1733861318568525600,1.718525634765625,-0.08422185480594635,0.18958571553230286,0.01648886501789093
1733861318578476500,1.7284765625,-0.08529484272003174,0.2026328146457672,0.027343910187482834
1733861318588427500,1.738427490234375,-0.08133868128061295,0.21770666539669037,0.03972681611776352
1733861318598378800,1.748378662109375,-0.07149616628885269,0.2361498475074768,0.04353833198547363
1733861318608329500,1.75832958984375,-0.0613815113902092,0.25490427017211914,0.04443645104765892
1733861318618280700,1.76828076171875,-0.054203495383262634,0.26912954449653625,0.047419190406799316
1733861318628230700,1.778230712890625,-0.05330515280365944,0.2705981433391571,0.05577998608350754
1733861318638181600,1.788181640625,-0.05663250759243965,0.26695892214775085,0.05393547937273979
1733861318648132600,1.798132568359375,-0.0622006319463253,0.25637954473495483,0.04953903332352638
1733861318658083600,1.80808349609375,-0.06873469799757004,0.2355504333972931,0.050875939428806305
1733861318668034600,1.81803466796875,-0.07251432538032532,0.2116532325744629,0.05270487442612648
1733861318677985800,1.82798583984375,-0.0745907872915268,0.18344050645828247,0.05043346434831619
1733861318687935500,1.837935546875,-0.07679637521505356,0.1604958474636078,0.04492152854800224
1733861318697886700,1.84788671875,-0.0761130079627037,0.1415993869304657,0.043907929211854935
1733861318707837700,1.857837646484375,-0.07216542959213257,0.13613294064998627,0.04535039886832237
1733861318717788700,1.86778857421875,-0.07030520588159561,0.14543642103672028,0.04346594586968422
1733861318727739600,1.87773974609375,-0.06876243650913239,0.15721692144870758,0.044879283756017685
1733861318737690600,1.887690673828125,-0.06461483240127563,0.17492453753948212,0.043618544936180115
1733861318747640600,1.897640625,-0.06754621863365173,0.19334633648395538,0.04332602024078369
1733861318757591800,1.907591796875,-0.07451171427965164,0.2177286446094513,0.043470364063978195
1733861318767542500,1.91754248046875,-0.08132482320070267,0.2347184121608734,0.04959260672330856
1733861318777493800,1.92749365234375,-0.08459198474884033,0.24492071568965912,0.062112390995025635
1733861318787444500,1.937444580078125,-0.08700238168239594,0.25258854031562805,0.07689209282398224
1733861318797395700,1.947395751953125,-0.06237373873591423,0.2499232441186905,0.0862557664513588
1733861318807345700,1.957345703125,-0.05363618582487106,0.26428458094596863,0.07724186778068542
1733861318817296600,1.967296630859375,-0.05107928439974785,0.2842439115047455,0.07843576371669769
1733861318827247600,1.97724755859375,-0.04941882938146591,0.291535884141922,0.06874270737171173
1733861318837198800,1.98719873046875,-0.04548826813697815,0.2738383710384369,0.0592874139547348
1733861318847149600,1.997149658203125,-0.052299804985523224,0.23724977672100067,0.05588017404079437
1733861318857100800,2.007100830078125,-0.06739247590303421,0.18768036365509033,0.05303165689110756
1733861318867050800,2.01705078125,-0.07755886018276215,0.1299954354763031,0.0538797564804554
1733861318877001700,2.027001708984375,-0.08195094764232635,0.08327666670084,0.05269837751984596
1733861318886952700,2.03695263671875,-0.08303852379322052,0.055053114891052246,0.04863297566771507
1733861318896903700,2.046903564453125,-0.07999026775360107,0.0508091002702713,0.044317588210105896
1733861318906854700,2.056854736328125,-0.07908374816179276,0.05550554767251015,0.05086112767457962
1733861318916804600,2.0668046875,-0.07731940597295761,0.06300314515829086,0.06247357279062271
1733861318926755600,2.076755615234375,-0.07140004634857178,0.07100798189640045,0.07195276767015457
1733861318936706600,2.08670654296875,-0.06627585738897324,0.07271134108304977,0.08505764603614807
1733861318946657500,2.096657470703125,-0.055707626044750214,0.07013049721717834,0.0996173620223999
1733861318956608500,2.1066083984375,-0.040253568440675735,0.06918533891439438,0.11256831884384155
1733861318966559700,2.116559814453125,-0.017301399260759354,0.0665876492857933,0.12841640412807465
1733861318976509700,2.126509765625,0.009903324767947197,0.05747031792998314,0.1439831256866455
1733861318986460700,2.136460693359375,0.04327832907438278,0.040976036339998245,0.15469175577163696
1733861318996411600,2.14641162109375,0.08821411430835724,0.02468867599964142,0.1547519415616989
1733861319006362600,2.156362548828125,0.10197946429252625,0.02968212589621544,0.13290144503116608
1733861319016313600,2.166313720703125,0.10423596203327179,0.035074763000011444,0.11239296942949295
1733861319026264600,2.1762646484375,0.10732387006282806,0.016506865620613098,0.09630763530731201
1733861319036212700,2.186212646484375,0.10641519725322723,-0.01273251324892044,0.07880933582782745
1733861319046163500,2.19616357421875,0.10354406386613846,-0.045841675251722336,0.06217065453529358
1733861319056114700,2.20611474609375,0.08415891975164413,-0.08541305363178253,0.04940212890505791
1733861319066065700,2.216065673828125,0.05515848472714424,-0.12916894257068634,0.03963553532958031
1733861319076016600,2.2260166015625,0.018941089510917664,-0.17561952769756317,0.031182659789919853
1733861319085967600,2.235967529296875,-0.019934728741645813,-0.21159496903419495,0.020309224724769592
1733861319095917800,2.245917724609375,-0.054000820964574814,-0.23823270201683044,0.0047853924334049225
1733861319105868500,2.25586865234375,-0.08030537515878677,-0.25047069787979126,-0.014357886277139187
1733861319115819800,2.26581982421875,-0.09600737690925598,-0.2505545914173126,-0.032491084188222885
1733861319125770500,2.2757705078125,-0.10109374672174454,-0.2353556603193283,-0.04360184445977211
1733861319135721700,2.2857216796875,-0.10008973628282547,-0.20999890565872192,-0.04947997257113457
1733861319145672400,2.29567236328125,-0.09638717025518417,-0.1834174245595932,-0.051545366644859314
1733861319155622700,2.30562255859375,-0.09054926037788391,-0.16683444380760193,-0.04554393142461777
1733861319165573600,2.31557373046875,-0.08286172151565552,-0.15757478773593903,-0.0408998504281044
1733861319175524600,2.325524658203125,-0.07838281989097595,-0.15232063829898834,-0.039897967129945755
1733861319185475600,2.3354755859375,-0.06982666999101639,-0.1431400328874588,-0.03971954435110092
1733861319195426800,2.3454267578125,-0.062408700585365295,-0.13048815727233887,-0.03660977631807327
1733861319205377500,2.35537744140625,-0.0523858368396759,-0.11424781382083893,-0.03209032118320465
1733861319215327700,2.36532763671875,-0.03714429587125778,-0.09014221280813217,-0.029482556506991386
1733861319225278700,2.37527880859375,-0.024801382794976234,-0.06260333210229874,-0.02126500941812992
1733861319235229700,2.385229736328125,-0.006312120705842972,-0.034306447952985764,-0.012635301798582077
1733861319245180700,2.3951806640625,0.011543618515133858,-0.01728317141532898,-0.006292706821113825
1733861319255131600,2.405131591796875,0.02485942281782627,-0.008816184476017952,0.001546307816170156
1733861319265082600,2.41508251953125,0.03809768706560135,-0.007755804341286421,0.009912829846143723
1733861319275032800,2.42503271484375,0.04275715351104736,-0.018864914774894714,0.022914115339517593
1733861319284983600,2.434983642578125,0.04109323397278786,-0.024077195674180984,0.03249191492795944
1733861319294934800,2.444934814453125,0.039461784064769745,-0.026600807905197144,0.03932079300284386
1733861319304885500,2.454885498046875,0.0353698655962944,-0.02831663191318512,0.04337248206138611
1733861319314836700,2.464836669921875,0.03095008246600628,-0.029233824461698532,0.043282732367515564
1733861319324786700,2.47478662109375,0.023856982588768005,-0.02933642454445362,0.04212414100766182
1733861319334737700,2.484737548828125,0.020265711471438408,-0.02733558975160122,0.041009873151779175
1733861319344688600,2.494688720703125,0.014604952186346054,-0.019257858395576477,0.04075198993086815
1733861319354640000,2.504639892578125,0.005892686080187559,-0.010290997102856636,0.0435299314558506
1733861319364590600,2.514590576171875,-0.0026588113978505135,-0.001391411293298006,0.04633714631199837
1733861319374541800,2.524541748046875,-0.013093875721096992,0.008866285905241966,0.04450302943587303
1733861319384491800,2.53449169921875,-0.02030537836253643,0.01441885158419609,0.043549101799726486
1733861319394442500,2.5444423828125,-0.026338238269090652,0.015553091652691364,0.038727447390556335
1733861319404393700,2.554393798828125,-0.030335132032632828,0.01907907985150814,0.028922375291585922
1733861319414344400,2.564344482421875,-0.033204153180122375,0.018579203635454178,0.02493296191096306
1733861319424295700,2.574295654296875,-0.03432639688253403,0.021157702431082726,0.021450882777571678
1733861319434246700,2.58424658203125,-0.033952489495277405,0.03184603527188301,0.017818596214056015
1733861319444196600,2.594196533203125,-0.03320813924074173,0.044600434601306915,0.01577158272266388
1733861319454147600,2.604147705078125,-0.03238442540168762,0.05859215185046196,0.01486877165734768
1733861319464098800,2.614098876953125,-0.026420053094625473,0.07262985408306122,0.011132345534861088
1733861319474049500,2.624049560546875,-0.025354787707328796,0.08230245858430862,0.01205113623291254
1733861319484000800,2.634000732421875,-0.019398339092731476,0.08254484832286835,0.014546416699886322
1733861319493951500,2.643951416015625,-0.014722893945872784,0.07821295410394669,0.014643887989223003
1733861319503901700,2.653901611328125,-0.013260548934340477,0.06525907665491104,0.013662301003932953
1733861319513852700,2.663852783203125,-0.010324680246412754,0.045910678803920746,0.017715364694595337
1733861319523803600,2.6738037109375,-0.007516110315918922,0.02721342258155346,0.018803266808390617
1733861319533754600,2.683754638671875,-0.006215422414243221,0.007115877233445644,0.017533469945192337
1733861319543705600,2.69370556640625,-0.006420480087399483,-0.011801609769463539,0.016709331423044205
1733861319553656600,2.703656494140625,-0.005882788449525833,-0.021419882774353027,0.01210685633122921
1733861319563606800,2.713606689453125,-0.01428983360528946,-0.027618352323770523,0.007989190518856049
1733861319573557500,2.7235576171875,-0.029202204197645187,-0.03597961366176605,-0.0024021980352699757
1733861319583508700,2.7335087890625,-0.04370448738336563,-0.048267774283885956,-0.010071740485727787
1733861319593459700,2.743459716796875,-0.05682668089866638,-0.0533650666475296,-0.01271093264222145
1733861319603410700,2.75341064453125,-0.06589072197675705,-0.05303212255239487,-0.015694251284003258
1733861319613361700,2.763361572265625,-0.06736478209495544,-0.051511988043785095,-0.014712345786392689
1733861319623312000,2.773311767578125,-0.060800403356552124,-0.05644505098462105,-0.01677769050002098
1733861319633262600,2.7832626953125,-0.052794408053159714,-0.06269469112157822,-0.01622428558766842
1733861319643213800,2.7932138671875,-0.04373245686292648,-0.06352531164884567,-0.016821149736642838
1733861319653164500,2.80316455078125,-0.03077351674437523,-0.05741522088646889,-0.015767870470881462
1733861319663115800,2.81311572265625,-0.021719273179769516,-0.04746586084365845,-0.015320719219744205
1733861319673066500,2.82306640625,-0.016587628051638603,-0.041442323476076126,-0.00878771860152483
1733861319683016400,2.833016357421875,-0.015782583504915237,-0.040250081568956375,-0.007158403750509024
1733861319692967700,2.8429677734375,-0.005907847546041012,-0.04256117343902588,-0.00650513032451272
1733861319702918700,2.852918701171875,0.001987073104828596,-0.047811105847358704,-0.0051848976872861385
1733861319712869600,2.86286962890625,0.009315825998783112,-0.05017679184675217,-0.0028463760390877724
1733861319722820900,2.87282080078125,0.022657491266727448,-0.04842277243733406,-0.0035192989744246006
1733861319732771600,2.882771484375,0.03249946981668472,-0.04648425802588463,-0.0015312490286305547
1733861319742721500,2.892721435546875,0.04073980450630188,-0.04395269602537155,0.0029523386619985104
1733861319752672800,2.9026728515625,0.047934867441654205,-0.03467584028840065,0.010290679521858692
1733861319762623500,2.91262353515625,0.05507265776395798,-0.030236119404435158,0.017969049513339996
1733861319772574700,2.92257470703125,0.05977926403284073,-0.02453828789293766,0.021378962323069572
1733861319782525400,2.932525390625,0.06169462949037552,-0.019895285367965698,0.026360565796494484
1733861319792476700,2.9424765625,0.06681934744119644,-0.013165210373699665,0.02777310647070408
1733861319802426600,2.952426513671875,0.06642842292785645,-0.0116988280788064,0.027745308354496956
1733861319812377600,2.962377685546875,0.06761112809181213,-0.017954593524336815,0.03571534901857376
1733861319822328600,2.97232861328125,0.06826888769865036,-0.02338354103267193,0.03826180845499039
1733861319832279800,2.98227978515625,0.070295549929142,-0.027798529714345932,0.039269544184207916
1733861319842230500,2.99223046875,0.07410579919815063,-0.02823648229241371,0.04033530130982399
1733861319852181800,3.002181640625,0.07192893326282501,-0.027531277388334274,0.04124583676457405
1733861319862131700,3.012131591796875,0.07264719158411026,-0.024132821708917618,0.0416489876806736
1733861319872082700,3.022082763671875,0.06908414512872696,-0.02775019407272339,0.04122261330485344
1733861319882033700,3.03203369140625,0.06748994439840317,-0.029932167381048203,0.03866687789559364
1733861319891984600,3.041984619140625,0.06143578514456749,-0.03116627410054207,0.03652649745345116
1733861319901935600,3.051935546875,0.054940853267908096,-0.03458714485168457,0.036417197436094284
1733861319911885800,3.0618857421875,0.04543842747807503,-0.03530034050345421,0.035163912922143936
1733861319921836500,3.07183642578125,0.03941142186522484,-0.03629690036177635,0.033273547887802124
1733861319931787800,3.081787841796875,0.03314926475286484,-0.03368726745247841,0.03138962760567665
1733861319941738500,3.091738525390625,0.029731133952736855,-0.024956021457910538,0.023481804877519608
1733861319951689700,3.101689697265625,0.03078947402536869,-0.02382391132414341,0.02421124279499054
1733861319961640700,3.111640625,0.02830846980214119,-0.021884342655539513,0.022761842235922813
1733861319971590700,3.121590576171875,0.02927492931485176,-0.019539430737495422,0.021453963592648506
1733861319981541600,3.131541748046875,0.026427505537867546,-0.014479640871286392,0.01768980734050274
1733861319991492900,3.141492919921875,0.022378968074917793,-0.013960858806967735,0.013506514951586723
1733861320001443600,3.151443603515625,0.015565503388643265,-0.015244826674461365,0.007942309603095055
1733861320011394800,3.161394775390625,0.010505497455596924,-0.018721850588917732,0.005930557381361723
1733861320021345500,3.171345458984375,0.004292310681194067,-0.022826382890343666,0.005393018946051598
1733861320031295500,3.18129541015625,0.0030701858922839165,-0.026142284274101257,0.002933056792244315
1733861320041247000,3.1912470703125,0.0036478224210441113,-0.025650404393672943,0.002323938300833106
1733861320051198000,3.201197998046875,0.006298999767750502,-0.025721777230501175,0.006549309939146042
1733861320061149000,3.21114892578125,0.005496338475495577,-0.02560749277472496,0.008248462341725826
1733861320071100000,3.221099853515625,0.0034068222157657146,-0.02259945496916771,0.005670522339642048
1733861320081051000,3.23105078125,-0.0012800558470189571,-0.024870024994015694,0.004427735693752766
1733861320091000800,3.241000732421875,-0.006715567782521248,-0.025969376787543297,0.0028428887017071247
1733861320100951800,3.250951904296875,-0.012941500172019005,-0.026108914986252785,0.0015649455599486828
1733861320110902800,3.26090283203125,-0.017736254259943962,-0.026576301082968712,0.001095962943509221
1733861320120854000,3.27085400390625,-0.02071663923561573,-0.02485838159918785,-0.002193315653130412
1733861320130805000,3.280804931640625,-0.02221040613949299,-0.02761368826031685,-0.005622668191790581
1733861320140756000,3.290755859375,-0.020594397559762,-0.029279489070177078,-0.007049801759421825
1733861320150706000,3.300705810546875,-0.017982102930545807,-0.03361697867512703,-0.007113984785974026
1733861320160657000,3.310656982421875,-0.014706116169691086,-0.031438980251550674,-0.008339458145201206
1733861320170607900,3.32060791015625,-0.01464273314923048,-0.02767939306795597,-0.009258515201508999
1733861320180558800,3.330558837890625,-0.01151088997721672,-0.020316362380981445,-0.004578708671033382
1733861320190509800,3.340509765625,-0.010853089392185211,-0.005040202289819717,-0.00015519827138632536
1733861320200460800,3.350460693359375,-0.0077289375476539135,0.014159850776195526,0.0028168358840048313
1733861320210410800,3.36041064453125,-0.007929207757115364,0.0335007943212986,0.006113829556852579
1733861320220362000,3.370362060546875,-0.003891859669238329,0.0483284592628479,0.01005600020289421
1733861320230312700,3.380312744140625,-0.0024031526409089565,0.05727881193161011,0.011597704142332077
1733861320240264000,3.390263916015625,0.0033136368729174137,0.060294151306152344,0.01431775838136673
1733861320250215000,3.40021484375,0.005035103764384985,0.0533323809504509,0.014652784913778305
1733861320260166000,3.410165771484375,0.0074747828766703606,0.041776299476623535,0.013300369493663311
1733861320270115800,3.42011572265625,0.01041544508188963,0.027997102588415146,0.014600524678826332
1733861320280067000,3.430067138671875,0.010712211951613426,0.013301686383783817,0.013958514668047428
1733861320290017800,3.440017822265625,0.007787794340401888,0.0005747061222791672,0.009529145434498787
1733861320299969000,3.449968994140625,0.008881472051143646,-0.006242874078452587,0.008930016309022903
1733861320309919700,3.459919677734375,0.00836162269115448,-0.0065874867141246796,0.004250842612236738
1733861320319871000,3.46987109375,0.008605853654444218,-0.008688947185873985,0.0017350640846416354
1733861320329821000,3.479821044921875,0.009503338485956192,-0.004897403996437788,-0.0016612652689218521
1733861320339772000,3.48977197265625,0.009064733982086182,-0.004082176834344864,-0.0015661328798159957
1733861320349723000,3.499722900390625,0.007119826506823301,-0.0056534418836236,0.0016901141498237848
1733861320359673900,3.509673828125,0.006072372198104858,-0.00506947934627533,0.0053457217290997505
1733861320369624800,3.519624755859375,0.004655570723116398,-0.006178686395287514,0.005754250567406416
1733861320379576000,3.529576171875,0.004470762796700001,-0.000302386237308383,0.003684764262288809
1733861320389526000,3.539526123046875,0.007994923740625381,0.0021828757598996162,0.003353200852870941
1733861320399477000,3.54947705078125,0.006944542750716209,0.0024190274998545647,0.0035991657059639692
1733861320409428000,3.559427978515625,0.00884257722645998,0.003184420056641102,0.003824735525995493
1733861320419379000,3.56937890625,0.009884161874651909,0.003561310702934861,0.0012536694994196296
1733861320429330000,3.579329833984375,0.009046865627169609,0.0008611315861344337,0.002099489327520132
1733861320439281000,3.589281005859375,0.008040716871619225,-0.004488904029130936,0.0036032688803970814
1733861320449230800,3.59923095703125,0.006185559090226889,-0.005977345164865255,-0.001832775305956602
1733861320459181800,3.609181884765625,0.005245225038379431,-0.010582425631582737,-0.0022428962402045727
1733861320469132800,3.6191328125,0.0025666174478828907,-0.012123330496251583,-0.005044807679951191
1733861320479084000,3.629083984375,0.0010611233301460743,-0.01434575580060482,-0.0023269476369023323
1733861320489035000,3.639034912109375,0.00034473324194550514,-0.010411733761429787,0.0005370157305151224
1733861320498986000,3.648986083984375,0.0002379491925239563,-0.009060163050889969,0.005694655701518059
1733861320508936000,3.65893603515625,0.00034740520641207695,-0.007978653535246849,0.007964467629790306
1733861320518887000,3.668886962890625,-0.000758342444896698,-0.0074217915534973145,0.00824218150228262
1733861320528838000,3.678837890625,-0.0012254610192030668,-0.007104875519871712,0.0054972609505057335
1733861320538788900,3.688788818359375,0.0007441779598593712,-0.006343553774058819,-0.0008617348503321409
1733861320548739800,3.69873974609375,0.0005881167016923428,-0.010470920242369175,-0.0026156927924603224
1733861320558690800,3.70869091796875,0.00367366848513484,-0.0136752063408494,-0.0050775171257555485
1733861320568641000,3.71864111328125,0.004445719067007303,-0.012273584492504597,-0.006613628938794136
1733861320578591700,3.728591796875,0.007944329641759396,-0.01356518268585205,-0.00610197801142931
1733861320588543000,3.73854296875,0.010384583845734596,-0.013293806463479996,-0.0007114741019904613
1733861320598493700,3.74849365234375,0.011173896491527557,-0.009946592152118683,0.0021187139209359884
1733861320608445000,3.75844482421875,0.014427214860916138,-0.0003245919942855835,0.003391704987734556
1733861320618396000,3.76839599609375,0.013797669671475887,0.007692654617130756,0.0048288023099303246
1733861320628345900,3.778345947265625,0.014569721184670925,0.015250173397362232,0.007153209298849106
1733861320638296800,3.788296875,0.014785248786211014,0.015683883801102638,0.009332869201898575
1733861320648248000,3.798248046875,0.012726359069347382,0.01719922386109829,0.007347749546170235
1733861320658198800,3.80819873046875,0.011018134653568268,0.016962330788373947,0.007480884902179241
1733861320668150000,3.81814990234375,0.00928388349711895,0.014060817658901215,0.009513143450021744
1733861320678100700,3.828100830078125,0.0067850444465875626,0.010575816035270691,0.010129773057997227
1733861320688051000,3.838051025390625,0.008177611045539379,0.009404025971889496,0.009983299300074577
1733861320698002000,3.848001953125,0.00875926949083805,0.007966229692101479,0.0077520012855529785
1733861320707953000,3.857952880859375,0.010504437610507011,0.005952081643044949,0.0040147872641682625
1733861320717904000,3.86790380859375,0.007029043976217508,0.005172894336283207,0.0021460573188960552
1733861320727854800,3.877854736328125,0.00694994768127799,0.0014109128387644887,0.00781752448529005
1733861320737805800,3.887805908203125,0.007724890485405922,-0.0009039717260748148,0.010255265049636364
1733861320747756000,3.897756103515625,0.012360122054815292,0.0013650415930896997,0.011935719288885593
1733861320757707000,3.90770703125,0.013971827924251556,-0.0011730380356311798,0.011825457215309143
1733861320767658000,3.917657958984375,0.01802968792617321,-0.002284109126776457,0.016938460990786552
1733861320777609000,3.92760888671875,0.027653856202960014,0.0020630559884011745,0.025138605386018753
1733861320787560000,3.937559814453125,0.028678109869360924,0.004590928554534912,0.0324239507317543
1733861320797511000,3.947510986328125,0.03456103056669235,0.006013050675392151,0.04094574600458145
1733861320807460900,3.9574609375,0.037816744297742844,0.009274357929825783,0.04519002512097359
1733861320817411800,3.967411865234375,0.04388073831796646,0.015779342502355576,0.05357503518462181
1733861320827363000,3.977363037109375,0.04960067197680473,0.021511264145374298,0.05921081826090813
1733861320837313800,3.987313720703125,0.05619603395462036,0.02438516728579998,0.05785847455263138
1733861320847265000,3.99726513671875,0.05738566815853119,0.02576814778149128,0.05746512487530708
1733861320857216000,4.007216064453125,0.05950173735618591,0.02507661283016205,0.05527359992265701
1733861320867165700,4.017165771484375,0.05569501966238022,0.01697474531829357,0.05602594092488289
1733861320877117000,4.027116943359375,0.04933995008468628,0.004097120836377144,0.05556149035692215
1733861320887068000,4.03706787109375,0.04146551713347435,-0.011580642312765121,0.05032464861869812
1733861320897019000,4.047018798828125,0.035762108862400055,-0.025378437712788582,0.0427858829498291
1733861320906969900,4.056969970703125,0.03218335285782814,-0.03867613524198532,0.03068687580525875
1733861320916920800,4.0669208984375,0.027541756629943848,-0.047308988869190216,0.013489997945725918
1733861320926870800,4.076870849609375,0.024285241961479187,-0.05822848156094551,-0.0012324886629357934
1733861320936822000,4.086822021484375,0.023214122280478477,-0.06856606900691986,-0.012365512549877167
1733861320946772700,4.096772705078125,0.022373894229531288,-0.08171249181032181,-0.019146453589200974
1733861320956724000,4.106723876953125,0.0203687846660614,-0.08234289288520813,-0.022603029385209084
1733861320966674700,4.1166748046875,0.017797235399484634,-0.07162155210971832,-0.018021326512098312
1733861320976626000,4.1266259765625,0.018571637570858,-0.0516388826072216,-0.010098536498844624
1733861320986576000,4.136575927734375,0.019553545862436295,-0.02676708623766899,0.002156531438231468
1733861320996526800,4.14652685546875,0.020352521911263466,-0.005268654320389032,0.01193198747932911
1733861321006477800,4.156477783203125,0.025111325085163116,0.014410773292183876,0.014512057416141033
1733861321016429000,4.166428955078125,0.024270255118608475,0.025484628975391388,0.015510366298258305
1733861321026379800,4.1763798828125,0.023841753602027893,0.031299374997615814,0.014377190731465816
1733861321036333800,4.186333740234375,0.019419103860855103,0.029559940099716187,0.01073633972555399
1733861321046283800,4.19628369140625,0.014096243306994438,0.022916683927178383,0.005534653551876545
1733861321056234800,4.20623486328125,0.006779180373996496,0.017021186649799347,0.001894638524390757
1733861321066185700,4.216185791015625,0.00319110369309783,0.012332959100604057,-0.004414656665176153
1733861321076136700,4.22613671875,0.0008349870331585407,0.006136007606983185,-0.008776756934821606
1733861321086087700,4.236087646484375,-0.002453484106808901,-0.0026558861136436462,-0.012120355851948261
1733861321096039000,4.246038818359375,-0.006354442797601223,-0.009945669211447239,-0.014419454149901867
1733861321105988900,4.25598876953125,-0.009123597294092178,-0.01335984282195568,-0.014696956612169743
1733861321115939800,4.26593994140625,-0.013866182416677475,-0.015517592430114746,-0.01201675646007061
1733861321125890800,4.275890869140625,-0.016138389706611633,-0.01757648214697838,-0.008608976379036903
1733861321135841800,4.285841796875,-0.01953476294875145,-0.01828579232096672,-0.007209911942481995
1733861321145792800,4.295792724609375,-0.019319579005241394,-0.01666153222322464,-0.007545203901827335
1733861321155743700,4.30574365234375,-0.019329700618982315,-0.013654557056725025,-0.003511580405756831
1733861321165693700,4.315693603515625,-0.015731146559119225,-0.015224548988044262,-0.0017695941496640444
1733861321175645000,4.32564501953125,-0.011915949173271656,-0.016970347613096237,-0.0018123226473107934
1733861321185595600,4.335595703125,-0.0063944170251488686,-0.018634289503097534,-0.003020066302269697
1733861321195547000,4.345546875,-0.0015586763620376587,-0.01841730996966362,-0.004359159152954817
1733861321205497900,4.355497802734375,-0.002101428806781769,-0.0187736414372921,-0.0049799419939517975
1733861321215448800,4.36544873046875,-0.000140264630317688,-0.016153590753674507,-0.006324305199086666
1733861321225398800,4.375398681640625,-0.00047129555605351925,-0.012903202325105667,-0.00526463333517313
1733861321235350000,4.38535009765625,-0.001062248833477497,-0.0037115635350346565,-0.005874177441000938
1733861321245300700,4.39530078125,-0.0009956697467714548,0.003513592528179288,-0.004412102047353983
1733861321255252000,4.405251953125,-0.0009860058780759573,0.0103625962510705,-0.002326721791177988
1733861321265202700,4.41520263671875,0.0012835399247705936,0.01178259402513504,-0.0029983711428940296
1733861321275154000,4.42515380859375,0.0030603292398154736,0.01041199080646038,-0.003925435245037079
1733861321285103900,4.435103759765625,0.0025237021036446095,0.004419612232595682,-0.0050420984625816345
1733861321295054600,4.4450546875,0.0043676490895450115,-0.0027113358955830336,-0.00617532804608345
1733861321305005800,4.455005859375,0.005030775908380747,-0.011135180480778217,-0.005295419599860907
1733861321314956500,4.46495654296875,0.007668116129934788,-0.017160285264253616,-0.00848828349262476
1733861321324907800,4.47490771484375,0.008052144199609756,-0.02121521346271038,-0.006648838520050049
1733861321334859000,4.48485888671875,0.005594353191554546,-0.022283578291535378,-0.004647680092602968
1733861321344808700,4.49480859375,0.003582601435482502,-0.022563477978110313,-0.0029440559446811676
1733861321354759700,4.504759765625,0.0011306493543088436,-0.023181557655334473,0.0005724936490878463
1733861321364711000,4.5147109375,-0.0029130945913493633,-0.02395041286945343,0.002936847973614931
1733861321374661600,4.52466162109375,-0.002028420800343156,-0.02432011440396309,0.005173630081117153
1733861321384612900,4.53461279296875,-0.004570674151182175,-0.02082924358546734,0.006447952706366777
1733861321394563600,4.5445634765625,-0.0035786356311291456,-0.021823378279805183,0.008570707403123379
1733861321404513800,4.554513671875,-0.00137833203189075,-0.02216879092156887,0.007662569638341665
1733861321414464800,4.56446484375,-0.00028835562989115715,-0.021504465490579605,0.006687473505735397
1733861321424415700,4.574415771484375,0.0016472297720611095,-0.021024828776717186,0.0023795440793037415
1733861321434366700,4.58436669921875,0.004431596025824547,-0.027727393433451653,0.0021301673259586096
1733861321444317700,4.594317626953125,0.00394024234265089,-0.03259538859128952,-0.0007921193027868867
1733861321454268700,4.6042685546875,0.007997313514351845,-0.03413306921720505,-0.0004925652174279094
1733861321464219000,4.614218994140625,0.007134449202567339,-0.028954286128282547,-0.001526937005110085
1733861321474169900,4.624169921875,0.004435090813785791,-0.019759146496653557,-0.0012362211709842086
1733861321484120800,4.634120849609375,0.007059902418404818,-0.00852806307375431,0.0020541143603622913
1733861321494071800,4.64407177734375,0.0074321795254945755,0.006165059749037027,0.005326226819306612
1733861321504022800,4.654022705078125,0.006858800537884235,0.02078847773373127,0.005179753061383963
1733861321513973800,4.663973876953125,0.007998663932085037,0.02588716335594654,0.005749462638050318
1733861321523924000,4.673924072265625,0.008931835182011127,0.029050732031464577,0.008808368816971779
1733861321533874700,4.683874755859375,0.006721415091305971,0.026995841413736343,0.011261727660894394
1733861321543826000,4.693825927734375,0.009618667885661125,0.02397741563618183,0.012843112461268902
1733861321553776600,4.703776611328125,0.007583468221127987,0.015385236591100693,0.012035692110657692
1733861321563728000,4.713727783203125,0.006273992359638214,0.005928883794695139,0.008904880844056606
1733861321573678800,4.723678955078125,0.0012315833009779453,-0.004289093427360058,0.004975497722625732
1733861321583628800,4.73362890625,-0.001388967502862215,-0.01209987886250019,0.0031315251253545284
1733861321593579800,4.743579833984375,-0.004298757296055555,-0.019922154024243355,0.001180914230644703
1733861321603531000,4.753531005859375,-0.00548439659178257,-0.02597125805914402,-0.003721965476870537
1733861321613481700,4.763481689453125,-0.006053522229194641,-0.029959624633193016,-0.0048140231519937515
1733861321623433000,4.773432861328125,-0.0027946121990680695,-0.029757225885987282,-0.003093354869633913
1733861321633383700,4.7833837890625,-0.0016454581636935472,-0.024256998673081398,0.001382620306685567
1733861321643333600,4.793333740234375,0.0006238212808966637,-0.016953011974692345,0.002629245864227414
1733861321653284900,4.803284912109375,0.0007763784378767014,-0.007695435546338558,0.003741804277524352
1733861321663235600,4.813235595703125,0.0015553529374301434,0.0014988621696829796,0.004793220199644566
1733861321673186800,4.823186767578125,0.0019627916626632214,0.009416894987225533,0.006476501002907753
1733861321683137800,4.8331376953125,0.0021603982895612717,0.012668082490563393,0.006460788659751415
1733861321693088800,4.8430888671875,0.0031360010616481304,0.015888063237071037,0.008904829621315002
1733861321703038700,4.853038818359375,0.0021058903075754642,0.01909078098833561,0.007466190494596958
1733861321712989700,4.86298974609375,0.0024776323698461056,0.02186119370162487,0.013509268872439861
1733861321722940700,4.872940673828125,0.0022917436435818672,0.02155093476176262,0.019639331847429276
1733861321732892000,4.882891845703125,0.002502435352653265,0.014771932736039162,0.025905117392539978
1733861321742842600,4.892842529296875,-0.0006028106436133385,0.006096419412642717,0.027994634583592415
1733861321752793900,4.9027939453125,-0.001972477650269866,-0.004032387398183346,0.025109844282269478
1733861321762743800,4.912743896484375,-0.005337648093700409,-0.012239983305335045,0.026938902214169502
1733861321772694800,4.92269482421875,-0.010574493557214737,-0.01826193369925022,0.024633295834064484
1733861321782645800,4.932645751953125,-0.01840365305542946,-0.023445511236786842,0.018985264003276825
1733861321792596700,4.9425966796875,-0.024271929636597633,-0.02770017646253109,0.011278876103460789
1733861321802547700,4.952547607421875,-0.03274291008710861,-0.030176917091012,0.009533174335956573
1733861321812498700,4.962498779296875,-0.037915848195552826,-0.029820339754223824,0.0011613115202635527
1733861321822448600,4.97244873046875,-0.04000323265790939,-0.031288545578718185,0.0003035074332728982
1733861321832400000,4.98239990234375,-0.039338238537311554,-0.028299400582909584,-0.0037385306786745787
1733861321842350800,4.992350830078125,-0.039759017527103424,-0.02935534156858921,-0.0048173777759075165
1733861321852301800,5.0023017578125,-0.03716697543859482,-0.03230508789420128,-0.005649617873132229
1733861321862252800,5.012252685546875,-0.03439462557435036,-0.03452376648783684,-0.006815549451857805
1733861321872203800,5.022203857421875,-0.03043956868350506,-0.03197140991687775,-0.007544829975813627
1733861321882153700,5.03215380859375,-0.03190084546804428,-0.025405649095773697,-0.009425022639334202
1733861321892105000,5.04210498046875,-0.03400344029068947,-0.021026959642767906,-0.012594877742230892
1733861321902055700,5.0520556640625,-0.03943762183189392,-0.018242891877889633,-0.015043122693896294
1733861321912007000,5.0620068359375,-0.046640343964099884,-0.01923956349492073,-0.022607557475566864
1733861321921957600,5.07195751953125,-0.05167904496192932,-0.019519461318850517,-0.025969265028834343
1733861321931908900,5.081908935546875,-0.05737047642469406,-0.019303996115922928,-0.022212713956832886
1733861321941858800,5.09185888671875,-0.05917583405971527,-0.020504549145698547,-0.023463066667318344
1733861321951809800,5.101809814453125,-0.05785704404115677,-0.017510101199150085,-0.026083460077643394
1733861321961760800,5.1117607421875,-0.05866584554314613,-0.012319067493081093,-0.03279303014278412
1733861321971712000,5.1217119140625,-0.05842003971338272,-0.011209334246814251,-0.03449777141213417
1733861321981662700,5.131662841796875,-0.05601813271641731,-0.00912860594689846,-0.02824147418141365
1733861321991614000,5.141614013671875,-0.054950255900621414,-0.003034073393791914,-0.020040223374962807
1733861322001564000,5.15156396484375,-0.04554769769310951,0.008055595681071281,-0.012738103047013283
1733861322011514600,5.1615146484375,-0.03936917707324028,0.019374798983335495,-0.00883923564106226
1733861322021465900,5.1714658203125,-0.033009015023708344,0.03342563658952713,-0.0035938729997724295
1733861322031416800,5.181416748046875,-0.022660763934254646,0.045543570071458817,-0.0014200410805642605
1733861322041364500,5.191364501953125,-0.01636585034430027,0.05683350935578346,-0.0023739852476865053
1733861322051315200,5.201315185546875,-0.0110078239813447,0.06742972135543823,-0.0013902130303904414
1733861322061265400,5.211265380859375,-0.004675892181694508,0.07211928814649582,-0.0011689044767990708
1733861322071216400,5.22121630859375,0.0026265080086886883,0.07280641049146652,-0.00033213768620043993
1733861322081167400,5.23116748046875,0.010307596996426582,0.07523921132087708,0.0025014656130224466
1733861322091118300,5.241118408203125,0.020021766424179077,0.07595538347959518,0.005806134082376957
1733861322101069600,5.251069580078125,0.025484710931777954,0.07860363274812698,0.010741237550973892
1733861322111020300,5.261020263671875,0.03265766799449921,0.07833492010831833,0.013335156254470348
1733861322120971500,5.270971435546875,0.0369645319879055,0.07810881733894348,0.014688041992485523
1733861322130921500,5.28092138671875,0.03765718266367912,0.07482079416513443,0.01123237144201994
1733861322140872400,5.29087255859375,0.03913896530866623,0.06749524176120758,0.009329542517662048
1733861322150823400,5.300823486328125,0.03891898691654205,0.05735151842236519,0.009410183876752853
1733861322160774400,5.3107744140625,0.03846385329961777,0.04254886880517006,0.013033414259552956
1733861322170725400,5.320725341796875,0.03692402318120003,0.030562538653612137,0.009385096840560436
1733861322180675600,5.330675537109375,0.03349839895963669,0.021281156688928604,0.005637230351567268
1733861322190626300,5.340626220703125,0.03161049634218216,0.017686445266008377,0.0006440180586650968
1733861322200577500,5.35057763671875,0.02816942147910595,0.02065853215754032,-0.005694305524230003
1733861322210528300,5.3605283203125,0.025255663320422173,0.017759952694177628,-0.009978745132684708
1733861322220479500,5.3704794921875,0.026153413578867912,0.019134409725666046,-0.01763639785349369
1733861322230430500,5.380430419921875,0.032005712389945984,0.019095536321401596,-0.0070012775249779224
1733861322240380200,5.390380126953125,0.0413811057806015,0.01930592581629753,0.01240544393658638
1733861322250331400,5.400331298828125,0.05181695893406868,0.026279127225279808,0.03060639090836048
1733861322260282600,5.41028271484375,0.06815225630998611,0.039992012083530426,0.04724821820855141
1733861322270233300,5.4202333984375,0.07874257117509842,0.0638754814863205,0.06514391303062439
1733861322280184600,5.4301845703125,0.08818880468606949,0.08930414915084839,0.07431104779243469
1733861322290135300,5.44013525390625,0.0904436931014061,0.10159353911876678,0.08107899129390717
1733861322300085200,5.450085205078125,0.08913475275039673,0.10863680392503738,0.08663727343082428
1733861322310036500,5.460036376953125,0.09095241129398346,0.11869008094072342,0.08967403322458267
1733861322319987200,5.4699873046875,0.09018328785896301,0.12641245126724243,0.08617490530014038
1733861322329938400,5.4799384765625,0.0836113691329956,0.1363677978515625,0.08166233450174332
1733861322339889400,5.489889404296875,0.07924991101026535,0.1445719301700592,0.07597435265779495
1733861322349840400,5.49984033203125,0.07279150187969208,0.15267305076122284,0.07198930531740189
1733861322359791600,5.50979150390625,0.06314952671527863,0.15385575592517853,0.06795541197061539
1733861322369741300,5.5197412109375,0.05246701091527939,0.14397186040878296,0.06122070178389549
1733861322379692300,5.5296923828125,0.04037865623831749,0.13120919466018677,0.053107913583517075
1733861322389643500,5.5396435546875,0.03092128410935402,0.11207609623670578,0.04509010165929794
1733861322399594200,5.54959423828125,0.01853279210627079,0.09530164301395416,0.035948801785707474
1733861322409545500,5.55954541015625,0.006505676079541445,0.07602405548095703,0.021267324686050415
1733861322419496200,5.56949609375,-0.0012433233205229044,0.05725037306547165,0.01112733967602253
1733861322429446400,5.5794462890625,-0.010870386846363544,0.035243600606918335,-0.0018918438581749797
1733861322439397400,5.5893974609375,-0.020097974687814713,0.01093320082873106,-0.013667543418705463
1733861322449348400,5.599348388671875,-0.024454619735479355,-0.012045844458043575,-0.020662492141127586
1733861322459299300,5.60929931640625,-0.03213943913578987,-0.03153752163052559,-0.025695599615573883
1733861322469250600,5.61925048828125,-0.03976168856024742,-0.04615884646773338,-0.028921596705913544
1733861322479201300,5.629201171875,-0.04774344712495804,-0.05757608637213707,-0.03520692139863968
1733861322489151500,5.6391513671875,-0.05925092101097107,-0.062136661261320114,-0.03782261535525322
1733861322499102500,5.6491025390625,-0.06576155126094818,-0.06546320766210556,-0.042004846036434174
1733861322509053400,5.659053466796875,-0.07473111897706985,-0.07005935907363892,-0.04030293598771095
1733861322519004400,5.66900439453125,-0.07853224873542786,-0.06650058180093765,-0.04384174197912216
1733861322528955400,5.678955322265625,-0.08024201542139053,-0.06574589014053345,-0.04513859748840332
1733861322538906400,5.68890625,-0.078731469810009,-0.0659879744052887,-0.04224267601966858
1733861322548856600,5.698856689453125,-0.0707203820347786,-0.06260435283184052,-0.036888811737298965
1733861322558807300,5.708807373046875,-0.06498899310827255,-0.05401486158370972,-0.032757718116045
1733861322568758500,5.718758544921875,-0.05409694090485573,-0.0384974367916584,-0.02672102302312851
1733861322578709200,5.728709228515625,-0.046437155455350876,-0.023311559110879898,-0.018137656152248383
1733861322588660500,5.738660400390625,-0.03777093440294266,-0.012609857134521008,-0.010275730863213539
1733861322598611500,5.748611572265625,-0.026860229671001434,-0.00516392569988966,-0.0053129298612475395
1733861322608561400,5.7585615234375,-0.020727256312966347,-0.003814540570601821,-0.0021119224838912487
1733861322618512400,5.768512451171875,-0.012831250205636024,-0.004380994476377964,-0.002322046086192131
1733861322628463600,5.778463623046875,-0.005570158828049898,-0.007996536791324615,-0.0018914699321612716
1733861322638414300,5.788414306640625,-0.002566645620390773,-0.01795063354074955,0.0006350709591060877
1733861322648365600,5.798365478515625,-0.0009983328636735678,-0.024234948679804802,0.006102324463427067
1733861322658316300,5.80831640625,-0.0022324416786432266,-0.026844047009944916,0.006405392196029425
1733861322668266200,5.818266357421875,-0.0022505437955260277,-0.02399684302508831,0.007217017933726311
1733861322678217500,5.828217529296875,-0.004329673480242491,-0.01797170750796795,0.003212955081835389
1733861322688168200,5.838168212890625,-0.007207713555544615,-0.01621687039732933,-0.00010805216152220964
1733861322698119400,5.848119384765625,-0.011315640062093735,-0.010968578979372978,-0.004337152000516653
1733861322708070400,5.8580703125,-0.013706400990486145,-0.010998493060469627,-0.0023682850878685713
1733861322718021400,5.868021484375,-0.012944735586643219,-0.01398842316120863,0.0018885114695876837
1733861322727971300,5.877971435546875,-0.011022187769412994,-0.012737506069242954,0.005151151679456234
1733861322737922300,5.88792236328125,-0.01304379291832447,-0.011741484515368938,0.006714161019772291
1733861322747873300,5.897873291015625,-0.009524669498205185,-0.007823396474123001,0.008282927796244621
1733861322757824500,5.907824462890625,-0.00991801917552948,-0.003529582405462861,0.011704291217029095
1733861322767775200,5.917775146484375,-0.008349699899554253,0.003649467136710882,0.013506927527487278
1733861322777726500,5.9277265625,-0.008405359461903572,0.012606210075318813,0.015693116933107376
1733861322787676400,5.937676513671875,-0.009935382753610611,0.01900596171617508,0.01781884767115116
1733861322797627400,5.94762744140625,-0.013416401110589504,0.018674399703741074,0.019393840804696083
1733861322807578400,5.957578369140625,-0.012308205477893353,0.017136547714471817,0.021120162680745125
1733861322817529300,5.967529296875,-0.008650886826217175,0.01236789207905531,0.02367812767624855
1733861322827480300,5.977480224609375,-0.004994125105440617,0.009527312591671944,0.024985788390040398
1733861322837431600,5.987431640625,-0.0006331985350698233,0.01160457730293274,0.02121501974761486
1733861322847381200,5.99738134765625,-0.0017378497868776321,0.011143642477691174,0.01695183664560318
1733861322857332500,6.00733251953125,0.00026777666062116623,0.004897730425000191,0.01373846735805273
1733861322867283500,6.017283447265625,0.0009870538488030434,-0.004498261027038097,0.01444920338690281
1733861322877234400,6.027234375,-0.0002917961683124304,-0.013958875089883804,0.013046249747276306
1733861322887185400,6.037185302734375,0.0006691035814583302,-0.017519982531666756,0.01235793437808752
1733861322897136400,6.047136474609375,0.0007079858332872391,-0.021487560123205185,0.009678262285888195
1733861322907086300,6.05708642578125,-0.0003734789788722992,-0.017686082050204277,0.003735697828233242
1733861322917037600,6.06703759765625,-0.001199857797473669,-0.01169130764901638,0.003144209971651435
1733861322926988300,6.07698828125,-0.0009144335053861141,-0.002140008145943284,0.0014313539722934365
1733861322936939500,6.086939453125,0.00009224144741892815,0.01113079022616148,0.00018339662346988916
1733861322946890200,6.09689013671875,-0.00038686138577759266,0.01614552177488804,0.00035889900755137205
1733861322956841500,6.106841552734375,-0.0019775673281401396,0.019374605268239975,-0.002639820333570242
1733861322966791400,6.11679150390625,0.001663242932409048,0.013239752501249313,-0.0018847606843337417
1733861322976742400,6.126742431640625,0.0012808130122721195,0.003063015639781952,-0.0015659803757444024
1733861322986693400,6.136693359375,0.003367671277374029,-0.005757095292210579,-0.0008217856520786881
1733861322996644600,6.14664453125,0.0053179035894572735,-0.01725715771317482,0.001326053636148572
1733861323006595300,6.15659521484375,0.006023611407727003,-0.023848285898566246,0.0034253140911459923
1733861323016546600,6.166546630859375,0.006929352413862944,-0.03212565928697586,0.005838138051331043
1733861323026496500,6.17649658203125,0.006030348129570484,-0.040403127670288086,0.008093531243503094
1733861323036447200,6.186447265625,0.0046729352325201035,-0.047740403562784195,0.007049572188407183
1733861323046402800,6.19640283203125,0.004851571749895811,-0.050819940865039825,0.00308613502420485
1733861323056353800,6.206353759765625,0.004991121124476194,-0.052314773201942444,-0.00009607616811990738
1733861323066304800,6.2163046875,0.005814304109662771,-0.05071021988987923,0.0004591929027810693
1733861323076255700,6.226255859375,0.004355424549430609,-0.04538363218307495,0.0005683825584128499
1733861323086206700,6.236206787109375,0.004414826165884733,-0.04132121428847313,0.003297059331089258
1733861323096157000,6.246156982421875,0.006845493335276842,-0.03410325199365616,0.004053929354995489
1733861323106107600,6.256107666015625,0.008510475978255272,-0.028491761535406113,0.0037836162373423576
1733861323116059000,6.266058837890625,0.01313532143831253,-0.020311065018177032,0.0024467092007398605
1733861323126009600,6.276009521484375,0.016545284539461136,-0.012031984515488148,0.0028277626261115074
1733861323135960800,6.2859609375,0.019853197038173676,-0.0065682427957654,0.0009470381774008274
1733861323145911800,6.295911865234375,0.019980482757091522,-0.004256908316165209,0.0019327246118336916
1733861323155861800,6.30586181640625,0.020422566682100296,-0.0038957837969064713,0.003020093310624361
1733861323165812700,6.315812744140625,0.01794855110347271,-0.005351093597710133,0.002996410708874464
1733861323175764000,6.325763916015625,0.015181262046098709,-0.00705205462872982,0.001776416669599712
1733861323185714700,6.335714599609375,0.012522813864052296,-0.0069888196885585785,0.0004505652468651533
1733861323195666000,6.345666015625,0.00902874767780304,-0.004369067959487438,-0.006475783884525299
1733861323205616600,6.35561669921875,0.0053018974140286446,-0.003853800240904093,-0.010326663963496685
1733861323215566800,6.36556689453125,0.0013670767657458782,-0.002155768685042858,-0.015301981940865517
1733861323225517800,6.375517822265625,-0.0026204301975667477,0.00019457098096609116,-0.022467371076345444
1733861323235468800,6.38546875,-0.005802641622722149,0.0008507738821208477,-0.027583036571741104
1733861323245419800,6.395419677734375,-0.006995771545916796,0.006210043095052242,-0.03186769410967827
1733861323255370800,6.405370849609375,-0.011751111596822739,0.016137775033712387,-0.0318908654153347
1733861323265321700,6.41532177734375,-0.01999383419752121,0.03267154097557068,-0.0280127115547657
1733861323275272000,6.42527197265625,-0.027296220883727074,0.04753650724887848,-0.02450958825647831
1733861323285222700,6.43522265625,-0.029000628739595413,0.056436020880937576,-0.022553760558366776
1733861323295174000,6.445173828125,-0.03157883509993553,0.05514092743396759,-0.017685769125819206
1733861323305124900,6.455124755859375,-0.03057752549648285,0.040168020874261856,-0.014697389677166939
1733861323315075800,6.465075927734375,-0.02499234490096569,0.02376428246498108,-0.012481107376515865
1733861323325026800,6.47502685546875,-0.020600253716111183,0.004611105192452669,-0.012855973094701767
1733861323334976800,6.484976806640625,-0.012564431875944138,-0.01206321269273758,-0.011444764211773872
1733861323344927700,6.494927734375,-0.009373152628540993,-0.02318640798330307,-0.009321955032646656
1733861323354878700,6.504878662109375,-0.00023637968115508556,-0.0230732224881649,-0.003561804536730051
1733861323364829700,6.51482958984375,0.00837499275803566,-0.01564798504114151,0.00008242251351475716
1733861323374781000,6.524781005859375,0.014730094000697136,-0.0021090079098939896,0.007573628332465887
1733861323384731600,6.534731689453125,0.021853454411029816,0.00927028153091669,0.014323235489428043
1733861323394681600,6.544681640625,0.025323819369077682,0.020886722952127457,0.017755519598722458
1733861323404632800,6.5546328125,0.028828565031290054,0.02960357628762722,0.02115238457918167
1733861323414583800,6.564583740234375,0.029052801430225372,0.03267606347799301,0.022934837266802788
1733861323424534800,6.57453466796875,0.027620581910014153,0.035304661840200424,0.024696260690689087
1733861323434485800,6.58448583984375,0.02513931505382061,0.03345109894871712,0.028241194784641266
1733861323444436700,6.594436767578125,0.021055320277810097,0.0309298112988472,0.028215724974870682
1733861323454386700,6.60438671875,0.018259534612298012,0.03076735883951187,0.02670304849743843
1733861323464338000,6.614337890625,0.015346056781709194,0.027032848447561264,0.022834384813904762
1733861323474288600,6.62428857421875,0.010489515028893948,0.024677814915776253,0.0199965201318264
1733861323484240000,6.634239990234375,0.0074961427599191666,0.020505214110016823,0.015796562656760216
1733861323494190600,6.644190673828125,0.0016893865540623665,0.01753498986363411,0.011356806382536888
1733861323504141800,6.654141845703125,-0.0027267015539109707,0.01761109009385109,0.004390127956867218
1733861323514091800,6.664091796875,-0.005762705113738775,0.009149960242211819,-0.00099398463498801
1733861323524042800,6.674042724609375,-0.009200362488627434,0.001210156362503767,-0.002905605360865593
1733861323533993700,6.68399365234375,-0.009638451971113682,-0.008644072338938713,-0.004984735045582056
1733861323543945000,6.693945068359375,-0.009388383477926254,-0.017956353724002838,-0.0056580351665616035
1733861323553895700,6.703895751953125,-0.010784411802887917,-0.023895202204585075,-0.009082061238586903
1733861323563847000,6.713846923828125,-0.010361725464463234,-0.02460695616900921,-0.010601500049233437
1733861323573796900,6.723796875,-0.010451741516590118,-0.023311594501137733,-0.012166639789938927
1733861323583747800,6.733747802734375,-0.013431040570139885,-0.024293823167681694,-0.015064108185470104
1733861323593698800,6.74369873046875,-0.017483040690422058,-0.031053990125656128,-0.021101493388414383
1733861323603649800,6.75364990234375,-0.02527434006333351,-0.03423583507537842,-0.027712944895029068
1733861323613600800,6.763600830078125,-0.03063341975212097,-0.027431191876530647,-0.040387991815805435
1733861323623551700,6.7735517578125,-0.031628917902708054,-0.021983979269862175,-0.04786817729473114
1733861323633502700,6.783502685546875,-0.030907733365893364,-0.007898254320025444,-0.05405842885375023
1733861323643453000,6.793452880859375,-0.030725320801138878,0.0106439758092165,-0.061151228845119476
1733861323653403600,6.803403564453125,-0.023229321464896202,0.026622941717505455,-0.0672229677438736
1733861323663355000,6.81335498046875,-0.017654838040471077,0.036916207522153854,-0.059737566858530045
1733861323673305900,6.823305908203125,-0.01557144708931446,0.03715349733829498,-0.04961169883608818
1733861323683256800,6.8332568359375,-0.018457971513271332,0.033640701323747635,-0.03606019541621208
1733861323693207800,6.843207763671875,-0.018786072731018066,0.02314944379031658,-0.0245545394718647
1733861323703157800,6.85315771484375,-0.02124471217393875,0.01359613612294197,-0.018900811672210693
1733861323713108700,6.863108642578125,-0.024930525571107864,0.0009378648828715086,-0.018669648095965385
1733861323723060000,6.87306005859375,-0.028281835839152336,-0.016273856163024902,-0.0190659761428833
1733861323733010700,6.8830107421875,-0.031186547130346298,-0.03123789280653,-0.02484184131026268
1733861323742962000,6.8929619140625,-0.032660406082868576,-0.04403426870703697,-0.023718049749732018
1733861323752912600,6.90291259765625,-0.028883513063192368,-0.05183546617627144,-0.02047991193830967
1733861323762862600,6.912862548828125,-0.024950768798589706,-0.05220312625169754,-0.014477887190878391
1733861323772813800,6.922813720703125,-0.01733679324388504,-0.04576759412884712,-0.010224285535514355
1733861323782764800,6.932764892578125,-0.007158217020332813,-0.03814062476158142,-0.0060532474890351295
1733861323792715800,6.9427158203125,-0.0001644897274672985,-0.029604129493236542,-0.004899033345282078
1733861323802666800,6.952666748046875,0.010337414219975471,-0.02450392208993435,-0.004310848191380501
1733861323812617700,6.96261767578125,0.01773141510784626,-0.02325516566634178,-0.0013566036941483617
1733861323822567700,6.972567626953125,0.022912023589015007,-0.026321368291974068,0.0007754173129796982
1733861323832519000,6.982518798828125,0.02575121819972992,-0.02669048309326172,0.003901435760781169
1733861323842469600,6.9924697265625,0.02891266718506813,-0.02390238828957081,0.00794597715139389
1733861323852420900,7.0024208984375,0.03174121305346489,-0.015245248563587666,0.011789984069764614
1733861323862371600,7.01237158203125,0.03126192092895508,-0.00673999497666955,0.01426838617771864
1733861323872322800,7.02232275390625,0.028373459354043007,0.004586162511259317,0.013481688685715199
1733861323882272800,7.032272705078125,0.02538667991757393,0.011605370789766312,0.012331726029515266
1733861323892223700,7.0422236328125,0.02010456845164299,0.01784728839993477,0.013785279355943203
1733861323902174700,7.0521748046875,0.01571301370859146,0.02056797407567501,0.013354646041989326
1733861323912126000,7.0621259765625,0.009502789936959743,0.024821573868393898,0.009391329251229763
1733861323922076700,7.07207666015625,0.0032669836655259132,0.029634669423103333,0.007090836297720671
1733861323932028000,7.08202783203125,-0.005369115155190229,0.030246397480368614,0.0036676088348031044
1733861323941977900,7.091977783203125,-0.015258224681019783,0.026854611933231354,0.006186320446431637
1733861323951928800,7.1019287109375,-0.0222809799015522,0.02484472468495369,0.008203665725886822
1733861323961879800,7.1118798828125,-0.026825379580259323,0.024628253653645515,0.005250861868262291
1733861323971830800,7.121830810546875,-0.02902195416390896,0.02506660856306553,0.0007743542664684355
1733861323981781800,7.13178173828125,-0.02490633726119995,0.019450457766652107,-0.0014357003383338451
1733861323991732700,7.141732666015625,-0.018872682005167007,0.01200772076845169,0.001884462428279221
1733861324001682700,7.1516826171875,-0.010037070140242577,0.0026489344891160727,0.004282698035240173
1733861324011634000,7.161634033203125,-0.004499293398112059,-0.006467598024755716,0.003564443439245224
1733861324021584600,7.171584716796875,-0.00047874264419078827,-0.01676982268691063,0.0017029427690431476
1733861324031535900,7.181535888671875,0.0015284819528460503,-0.020528873428702354,0.0020829758141189814
1733861324041483300,7.191483154296875,0.0022510127164423466,-0.019909653812646866,0.0042543066665530205
1733861324051434000,7.20143408203125,0.003181521315127611,-0.013373724184930325,0.0056000021286308765
1733861324061384200,7.21138427734375,0.008189049549400806,-0.007200546562671661,0.00875984039157629
1733861324071335200,7.221335205078125,0.014054395258426666,0.0013191718608140945,0.013852070085704327
1733861324081286100,7.2312861328125,0.019009744748473167,0.012098593637347221,0.016132643446326256
1733861324091237000,7.241237060546875,0.02275787852704525,0.023497190326452255,0.0181403998285532
1733861324101188000,7.25118798828125,0.025618085637688637,0.031947068870067596,0.018695879727602005
1733861324111139000,7.26113916015625,0.023533895611763,0.03298010677099228,0.01692913845181465
1733861324121090000,7.271090087890625,0.020415887236595154,0.033918119966983795,0.017822790890932083
1733861324131040000,7.2810400390625,0.022238554432988167,0.030958551913499832,0.020464912056922913
1733861324140991200,7.2909912109375,0.02112264186143875,0.02857009693980217,0.02067924477159977
1733861324150942200,7.300942138671875,0.021578041836619377,0.03036346845328808,0.021201757714152336
1733861324160893200,7.31089306640625,0.022814050316810608,0.03242911770939827,0.021096613258123398
1733861324170844200,7.32084423828125,0.022806061431765556,0.029348373413085938,0.019524015486240387
1733861324180795100,7.330795166015625,0.023110177367925644,0.021770304068922997,0.02059663087129593
1733861324190745000,7.3407451171875,0.021354887634515762,0.012825279496610165,0.022509846836328506
1733861324200696300,7.3506962890625,0.017223821952939034,0.005815913435071707,0.025351813063025475
1733861324210647000,7.36064697265625,0.014755604788661003,-0.004542717710137367,0.022797841578722
1733861324220598300,7.370598388671875,0.014501001685857773,-0.007308683358132839,0.018312491476535797
1733861324230549000,7.380549072265625,0.015217658132314682,-0.011498634703457355,0.01430043950676918
1733861324240500200,7.390500244140625,0.014213389717042446,-0.013964170590043068,0.008721011690795422
1733861324250450200,7.4004501953125,0.013302854262292385,-0.013111427426338196,0.0037454282864928246
1733861324260401200,7.410401123046875,0.009943012148141861,-0.0036915536038577557,-0.0007456729654222727
1733861324270352100,7.42035205078125,0.00637198006734252,0.007779213599860668,-0.005422450136393309
1733861324280303400,7.430303466796875,-0.000016703736037015915,0.01589486375451088,-0.006828920915722847
1733861324290254000,7.440254150390625,-0.005528914742171764,0.024337617680430412,-0.008643865585327148
1733861324300205300,7.450205322265625,-0.014058737084269524,0.037216439843177795,-0.008324977941811085
1733861324310155300,7.4601552734375,-0.0202332753688097,0.052734412252902985,-0.006482603028416634
1733861324320106200,7.470106201171875,-0.02467356063425541,0.061954814940690994,-0.005345112644135952
1733861324330057200,7.48005712890625,-0.022431444376707077,0.06746462732553482,0.0001633693464100361
1733861324340008200,7.49000830078125,-0.020227942615747452,0.07082661986351013,0.002762189134955406
1733861324349959200,7.499959228515625,-0.01470214780420065,0.06715677678585052,0.003924126271158457
1733861324359910100,7.50991015625,-0.007261849008500576,0.06345461308956146,-0.002139999531209469
1733861324369860000,7.519860107421875,0.0008663847111165524,0.05654477700591087,-0.008844507858157158
1733861324379811000,7.52981103515625,0.006162379402667284,0.04724057763814926,-0.015520306304097176
1733861324389762000,7.539761962890625,0.011018920689821243,0.03954271227121353,-0.018940603360533714
1733861324399713000,7.549713134765625,0.012988574802875519,0.03990192338824272,-0.01745578646659851
1733861324409664300,7.559664306640625,0.011204789392650127,0.04645835980772972,-0.01697295531630516
1733861324419615200,7.569615234375,0.008524086326360703,0.057473812252283096,-0.00899444054812193
1733861324429566200,7.579566162109375,0.00734936585649848,0.06321984529495239,0.0016408930532634258
1733861324439516200,7.58951611328125,0.008107516914606094,0.0628143846988678,0.003930357284843922
1733861324449467100,7.599467041015625,0.00982578843832016,0.05766862630844116,0.0029266115743666887
1733861324459418000,7.609418212890625,0.011392805725336075,0.047074876725673676,-0.0002736566821113229
1733861324469369000,7.619369140625,0.013197097927331924,0.03462938964366913,-0.007949153892695904
1733861324479320000,7.629320068359375,0.02232305146753788,0.018500162288546562,-0.016693301498889923
1733861324489271000,7.63927099609375,0.03123239055275917,0.007117012515664101,-0.026319563388824463
1733861324499221000,7.649220947265625,0.04286899417638779,0.0005380548536777496,-0.038437336683273315
1733861324509172200,7.659172119140625,0.055136311799287796,-0.004084127489477396,-0.042706653475761414
1733861324519123200,7.669123291015625,0.06408372521400452,-0.004690008703619242,-0.0501103475689888
1733861324529074200,7.67907421875,0.06983136385679245,-0.006987517699599266,-0.05028558522462845
1733861324539025200,7.689025146484375,0.07020287960767746,-0.003486247733235359,-0.04676850512623787
1733861324548976000,7.69897607421875,0.064651258289814,0.0048340000212192535,-0.044992443174123764
1733861324558926000,7.708926025390625,0.055779196321964264,0.01039973460137844,-0.03873593360185623
1733861324568877300,7.718877197265625,0.043270863592624664,0.011193355545401573,-0.029111802577972412
1733861324578828000,7.728828125,0.03348323702812195,0.013422474265098572,-0.020746329799294472
1733861324588779300,7.738779296875,0.02327081374824047,0.010321224108338356,-0.013916387222707272
1733861324598730000,7.74872998046875,0.017822492867708206,0.0072380234487354755,-0.010203679092228413
1733861324608681200,7.75868115234375,0.011564064770936966,0.0025141083169728518,-0.010052677243947983
1733861324618631200,7.768631103515625,0.009040717035531998,-0.0024673405569046736,-0.006645215675234795
1733861324628582100,7.77858203125,0.0041815126314759254,-0.005797889083623886,-0.004296041559427977
1733861324638533000,7.788533203125,0.00043284008279442787,-0.01255008578300476,-0.0035872682929039
1733861324648484400,7.798484375,-0.0016896992456167936,-0.018725425004959106,-0.004059979226440191
1733861324658435000,7.80843505859375,-0.0015842521097511053,-0.01818191073834896,-0.007260619662702084
1733861324668386300,7.81838623046875,0.0015907683409750462,-0.017287088558077812,-0.013493482023477554
1733861324678336300,7.828336181640625,0.004407612606883049,-0.014605502597987652,-0.0166315920650959
1733861324688287200,7.838287353515625,0.005359159782528877,-0.021449826657772064,-0.01819513365626335
1733861324698238200,7.84823828125,0.006047306582331657,-0.028144782409071922,-0.019501466304063797
1733861324708189200,7.858189208984375,-0.0006667885463684797,-0.03888398036360741,-0.02421419508755207
1733861324718140200,7.86814013671875,-0.0008294736035168171,-0.04988008737564087,-0.03191957250237465
1733861324728091100,7.878091064453125,-0.0005487764719873667,-0.06017107516527176,-0.03765122592449188
1733861324738041000,7.888041015625,0.0008274819701910019,-0.06362617015838623,-0.04686911776661873
1733861324747992000,7.897991943359375,0.005126090254634619,-0.06813730299472809,-0.04936130344867706
1733861324757943000,7.907943115234375,0.005841475911438465,-0.07120402157306671,-0.05011860281229019
1733861324767894300,7.917894287109375,0.009522764012217522,-0.06951425224542618,-0.047120679169893265
1733861324777845200,7.92784521484375,0.008422372862696648,-0.058095891028642654,-0.043757371604442596
1733861324787796200,7.937796142578125,0.004750140011310577,-0.04553215950727463,-0.03975943475961685
1733861324797746200,7.94774609375,0.0034347553737461567,-0.036038368940353394,-0.03168228268623352
1733861324807697200,7.957697265625,-0.000408985186368227,-0.02554844319820404,-0.023880289867520332
1733861324817648000,7.967648193359375,-0.0010116440244019032,-0.017059847712516785,-0.011750868521630764
1733861324827599000,7.97759912109375,-0.0011613136157393456,-0.008616294711828232,-0.0036974686663597822
1733861324837550000,7.987550048828125,0.0002690511755645275,-0.003576843999326229,0.004349111579358578
1733861324847501000,7.9975009765625,0.0014408417046070099,-0.0009331242181360722,0.0057006655260920525
1733861324857452000,8.0074521484375,0.0021218243055045605,-0.0018183279316872358,0.004239656031131744
1733861324867402000,8.017402099609376,0.006911253556609154,-0.0075395964086055756,0.004140586592257023
1733861324877353200,8.027353271484374,0.009199181571602821,-0.014379641972482204,0.0055567496456205845
1733861324887304200,8.03730419921875,0.01093849167227745,-0.02587171271443367,0.009319529868662357
1733861324897255200,8.047255126953125,0.014064251445233822,-0.032359689474105835,0.012345573864877224
1733861324907206100,8.0572060546875,0.01577959582209587,-0.03758614510297775,0.01377089787274599
1733861324917157000,8.0671572265625,0.013545745983719826,-0.041696976870298386,0.01601109839975834
1733861324927107000,8.077107177734375,0.008894800208508968,-0.04618919640779495,0.018588505685329437
1733861324937058300,8.087058349609375,0.006394105963408947,-0.05566815659403801,0.016365567222237587
1733861324947009000,8.097009033203125,0.0038941968232393265,-0.06878315657377243,0.010881852358579636
1733861324956960300,8.106960205078124,-0.0019368261564522982,-0.07872054725885391,0.004978577606379986
1733861324966911000,8.116910888671875,-0.002487567951902747,-0.07886062562465668,0.0007497437763959169
1733861324976862200,8.1268623046875,-0.0015725058037787676,-0.07705313712358475,0.0006432173540815711
1733861324986812200,8.136812255859375,-0.0008752902504056692,-0.07269913703203201,0.000904739776160568
1733861324996763100,8.14676318359375,0.0018059802241623402,-0.06145500764250755,0.0060771312564611435
1733861325006714000,8.156714111328125,0.0020808186382055283,-0.04705849289894104,0.007631618529558182
1733861325016665300,8.166665283203125,0.0030155531130731106,-0.03355902433395386,0.009877195581793785
1733861325026616000,8.176615966796875,0.0021774563938379288,-0.0200972743332386,0.012124903500080109
1733861325036567300,8.1865673828125,0.003866763785481453,-0.007025791332125664,0.013069053180515766
1733861325046520000,8.19652001953125,-0.00044782343320548534,0.0009993782732635736,0.012897545471787453
1733861325056470800,8.206470703125,0.0006216424517333508,0.004791309125721455,0.010943897999823093
1733861325066422000,8.216422119140624,0.0008991439826786518,0.0042581441812217236,0.0065502142533659935
1733861325076372700,8.226372802734375,-0.0005336187314242125,0.0023228751961141825,0.0040680416859686375
1733861325086324000,8.236323974609375,-0.0018255182076245546,-0.0005602631717920303,0.009552022442221642
1733861325096275000,8.24627490234375,-0.0034543555229902267,0.006475126836448908,0.009081555530428886
1733861325106225000,8.256224853515626,-0.004330269061028957,0.015471018850803375,0.011323138140141964
1733861325116176000,8.26617578125,0.0021558827720582485,0.02796238847076893,0.018342534080147743
1733861325126127000,8.276127197265625,0.007033196277916431,0.04384388402104378,0.018217364326119423
1733861325136077800,8.286077880859375,0.011846097186207771,0.05806845799088478,0.02175622619688511
1733861325146029000,8.296029052734376,0.01069747656583786,0.06816477328538895,0.022208429872989655
1733861325155979800,8.305979736328124,0.008337385952472687,0.0740990936756134,0.02447749674320221
1733861325165929700,8.3159296875,0.00569339981302619,0.073457270860672,0.02435632422566414
1733861325175881000,8.325880859375,0.005824944470077753,0.07064814120531082,0.025412479415535927
1733861325185831700,8.335831787109376,0.0062971231527626514,0.06781000643968582,0.02537093311548233
1733861325195783000,8.345782958984374,0.006943768821656704,0.05926612392067909,0.026475457474589348
1733861325205734000,8.35573388671875,0.012265296652913094,0.049710433930158615,0.02924967184662819
1733861325215684900,8.365684814453125,0.013729470781981945,0.03617271035909653,0.02354901097714901
1733861325225636000,8.375635986328126,0.01565493643283844,0.02350405417382717,0.01958143338561058
1733861325235586000,8.3855859375,0.01817510649561882,0.010399757884442806,0.008834728971123695
1733861325245536800,8.395536865234375,0.019105348736047745,-0.0035237809643149376,-0.0022645271383225918
1733861325255488000,8.405488037109375,0.019191334024071693,-0.01703435368835926,-0.012117692269384861
1733861325265438700,8.415438720703126,0.015329217538237572,-0.026402022689580917,-0.021078696474432945
1733861325275390000,8.425389892578124,0.008158693090081215,-0.034531764686107635,-0.02970813773572445
1733861325285340700,8.435340576171875,-0.002357065211981535,-0.03731423616409302,-0.036420632153749466
1733861325295291000,8.445290771484375,-0.01629503443837166,-0.03476066142320633,-0.048772428184747696
1733861325305241900,8.455241943359376,-0.029276879504323006,-0.03426770865917206,-0.057431165128946304
1733861325315192800,8.46519287109375,-0.04000223055481911,-0.033313509076833725,-0.06458878517150879
1733861325325143800,8.475143798828125,-0.04873020946979523,-0.03232148289680481,-0.06860296428203583
1733861325335095000,8.485094970703125,-0.05193213373422623,-0.031354520469903946,-0.07340198010206223
1733861325345045800,8.495045654296876,-0.05215584486722946,-0.03523048758506775,-0.07391596585512161
1733861325354996000,8.504995849609376,-0.04610751196742058,-0.040962062776088715,-0.07643201947212219
1733861325364947000,8.514947021484375,-0.03721841424703598,-0.05398012697696686,-0.08016550540924072
1733861325374898000,8.52489794921875,-0.03058687224984169,-0.0713612362742424,-0.08414490520954132
1733861325384849000,8.534848876953125,-0.02625231072306633,-0.09200739115476608,-0.08675693720579147
1733861325394799900,8.5447998046875,-0.02562009170651436,-0.11030282080173492,-0.08948411792516708
1733861325404750800,8.554750732421875,-0.02585684508085251,-0.12574543058872223,-0.08979836851358414
1733861325414701000,8.564701171875,-0.029371952638030052,-0.13373197615146637,-0.08871526271104813
1733861325424651800,8.57465185546875,-0.027641963213682175,-0.13389869034290314,-0.08111593127250671
1733861325434603000,8.58460302734375,-0.024610735476017,-0.13318811357021332,-0.0751066729426384
1733861325444553700,8.5945537109375,-0.016427641734480858,-0.12869615852832794,-0.06369875371456146
1733861325454505000,8.6045048828125,-0.008528953418135643,-0.11668045818805695,-0.05329255759716034
1733861325464456000,8.6144560546875,-0.004038597457110882,-0.10113905370235443,-0.04029819741845131
1733861325474406000,8.624406005859376,0.0004485389217734337,-0.0876198410987854,-0.02555360645055771
1733861325484356900,8.63435693359375,0.006521611474454403,-0.07781460881233215,-0.01451799925416708
1733861325494308000,8.64430810546875,0.015256546437740326,-0.06751608848571777,-0.004120271652936935
1733861325504258800,8.6542587890625,0.028071412816643715,-0.05781925097107887,0.0017408132553100586
1733861325514210000,8.6642099609375,0.039863068610429764,-0.05333533138036728,0.0077330307103693485
1733861325524160800,8.674160888671874,0.054366908967494965,-0.0492098331451416,0.008897896856069565
1733861325534112000,8.684112060546875,0.06685741245746613,-0.04923803731799126,0.012179924175143242
1733861325544062000,8.69406201171875,0.07487352192401886,-0.04818155989050865,0.016103293746709824
1733861325554013000,8.704012939453126,0.08509524911642075,-0.038915958255529404,0.016631344333291054
1733861325563964000,8.7139638671875,0.08378203958272934,-0.023088525980710983,0.026089826598763466
1733861325573915000,8.723914794921875,0.07780089229345322,-0.00507053267210722,0.03349863737821579
1733861325583865900,8.733865966796875,0.06879115104675293,0.013695964589715004,0.03670801594853401
1733861325593817000,8.743817138671876,0.05524576082825661,0.03954162821173668,0.03892546147108078
1733861325603767000,8.75376708984375,0.041644200682640076,0.057996269315481186,0.03815128654241562
1733861325613717800,8.7637177734375,0.028777435421943665,0.071126788854599,0.03213829547166824
1733861325623669000,8.7736689453125,0.016689881682395935,0.07137180119752884,0.027161382138729095
1733861325633619700,8.78361962890625,0.007056920789182186,0.06552846729755402,0.020198488608002663
1733861325643571000,8.793571044921874,-0.0009762383997440338,0.05160732567310333,0.015075366012752056
1733861325653522000,8.80352197265625,-0.00991780124604702,0.03836981952190399,0.006519694346934557
1733861325663471900,8.813471923828125,-0.020849544554948807,0.025992512702941895,-0.0006146479863673449
1733861325673422800,8.8234228515625,-0.032194606959819794,0.013568878173828125,-0.006165101658552885
1733861325683373800,8.833373779296876,-0.039548128843307495,0.0037769670598208904,-0.011792627163231373
1733861325693324800,8.84332470703125,-0.04528246074914932,-0.006101812236011028,-0.01929863914847374
1733861325703276000,8.853276123046875,-0.04326804727315903,-0.015938464552164078,-0.018860548734664917
1733861325713226800,8.863226806640625,-0.04369653761386871,-0.024158811196684837,-0.0225551538169384
1733861325723177000,8.873177001953126,-0.036795489490032196,-0.026921574026346207,-0.02315463125705719
1733861325733128000,8.8831279296875,-0.03117644041776657,-0.02662612311542034,-0.020521130412817
1733861325743079000,8.893078857421875,-0.019366653636097908,-0.021721113473176956,-0.015462190844118595
1733861325753030000,8.90302978515625,-0.012093853205442429,-0.01129649393260479,-0.008973403833806515
1733861325762980900,8.91298095703125,-0.004660171922296286,0.0006887956988066435,-0.0027250952553004026
1733861325772931800,8.922931884765624,0.0036576618440449238,0.008581031113862991,0.00022930779960006475
1733861325782882000,8.932882080078125,0.008809280581772327,0.014368346892297268,0.0037353592924773693
1733861325792832800,8.942832763671875,0.015227526426315308,0.01108127273619175,0.004367916379123926
1733861325802784000,8.952783935546876,0.022057468071579933,0.0038268219213932753,0.006683002226054668
1733861325812734700,8.962734619140624,0.026857761666178703,-0.005842992104589939,0.009457854554057121
1733861325822686000,8.97268603515625,0.027533937245607376,-0.013743791729211807,0.007541710510849953
1733861325832637000,8.982636962890625,0.029874080792069435,-0.021871168166399002,0.005787431728094816
1733861325842587000,8.9925869140625,0.029274070635437965,-0.023154545575380325,0.006750164553523064
1733861325852537900,9.002537841796874,0.026951521635055542,-0.020568622276186943,0.008099268190562725
1733861325862489000,9.012489013671875,0.022392190992832184,-0.01592673361301422,0.008993024937808514
1733861325872439800,9.022439697265625,0.019512515515089035,-0.009177484549582005,0.011995206587016582
1733861325882391000,9.03239111328125,0.01535958144813776,-0.0029012125451117754,0.015136937610805035
1733861325892341800,9.042341796875,0.013979863375425339,0.003233793191611767,0.020597225055098534
1733861325902293000,9.05229296875,0.01122242584824562,0.006554488558322191,0.02358529157936573
1733861325912243000,9.062242919921875,0.006530984304845333,0.010426424443721771,0.022629959508776665
1733861325922194000,9.07219384765625,0.0014187805354595184,0.010279151611030102,0.02261531352996826
1733861325932145000,9.082144775390624,-0.005643147509545088,0.01371617428958416,0.01736520603299141
1733861325942096000,9.092095947265625,-0.011643249541521072,0.010963797569274902,0.014557168819010258
1733861325952046800,9.102046875,-0.014901667833328247,0.010718408040702343,0.011654164642095566
1733861325961998000,9.111998046875,-0.019342223182320595,0.009611598215997219,0.008420021273195744
1733861325971948000,9.121947998046876,-0.01731793023645878,0.013136361725628376,0.01048428937792778
1733861325981898800,9.131898681640624,-0.016408992931246758,0.02155248448252678,0.015254809521138668
1733861325991850000,9.14185009765625,-0.016505956649780273,0.026578864082694054,0.016810841858386993
1733861326001801000,9.151801025390625,-0.018193600699305534,0.034463416785001755,0.017291277647018433
1733861326011752000,9.161751953125,-0.0220719575881958,0.040775928646326065,0.016746286302804947
1733861326021703000,9.171702880859375,-0.02669253945350647,0.044977862387895584,0.015573164448142052
1733861326031652900,9.18165283203125,-0.03146917372941971,0.0485454723238945,0.01437426172196865
1733861326041605000,9.191605224609376,-0.03731055185198784,0.04717234522104263,0.01629253663122654
1733861326051556000,9.20155615234375,-0.03734302893280983,0.04369562491774559,0.016949325799942017
1733861326061507300,9.21150732421875,-0.036466579884290695,0.04039570316672325,0.016325613483786583
1733861326071458000,9.2214580078125,-0.03527829423546791,0.03532819822430611,0.01297631487250328
1733861326081409300,9.2314091796875,-0.032051075249910355,0.02651340141892433,0.013338771648705006
1733861326091359200,9.241359130859376,-0.02402268722653389,0.016637129709124565,0.013527590781450272
1733861326101310200,9.251310302734375,-0.017301933839917183,0.007648162078112364,0.014954245649278164
1733861326111261200,9.26126123046875,-0.009171023964881897,0.0005820265505462885,0.013019727542996407
1733861326121212200,9.271212158203125,0.0014488636516034603,-0.0014747327659279108,0.015284479595720768
1733861326131163100,9.2811630859375,0.004867030773311853,-0.005989323370158672,0.01418565958738327
1733861326141114000,9.291114013671875,0.010097479447722435,-0.007075360044836998,0.015430953353643417
1733861326151064000,9.30106396484375,0.013036027550697327,-0.013608591631054878,0.02117651328444481
1733861326161015300,9.311015380859375,0.014673339203000069,-0.018648890778422356,0.02575502172112465
1733861326170966300,9.32096630859375,0.019683247432112694,-0.019110482186079025,0.02747216820716858
1733861326180917200,9.330917236328125,0.01791064813733101,-0.01363262441009283,0.03218330070376396
1733861326190868200,9.3408681640625,0.018381251022219658,-0.005333102773874998,0.03680538013577461
1733861326200819200,9.350819091796875,0.013025101274251938,0.00311018293723464,0.046391427516937256
1733861326210770200,9.360770263671874,0.006218876224011183,0.021420247852802277,0.05343075469136238
1733861326220720400,9.370720458984374,-0.000057927798479795456,0.04387868568301201,0.06255101412534714
1733861326230671000,9.380671142578125,-0.008744100108742714,0.07072733342647552,0.07495111972093582
1733861326240622300,9.390622314453125,-0.014460043050348759,0.09565585106611252,0.08437737822532654
1733861326250573000,9.400572998046876,-0.02165432833135128,0.11462976783514023,0.09450015425682068
1733861326260524300,9.410524169921874,-0.029645409435033798,0.12652742862701416,0.10492243617773056
1733861326270475300,9.420475341796875,-0.031664106994867325,0.12756867706775665,0.11051804572343826
1733861326280425200,9.43042529296875,-0.034984003752470016,0.12504400312900543,0.11077930778265
1733861326290376200,9.440376220703126,-0.0364721454679966,0.11554538458585739,0.10333247482776642
1733861326300327400,9.450327392578124,-0.03521087020635605,0.09930595755577087,0.09376107156276703
1733861326310278100,9.460278076171875,-0.03149735927581787,0.0836377814412117,0.0815211832523346
1733861326320229400,9.4702294921875,-0.031819604337215424,0.0701265037059784,0.06961898505687714
1733861326330180000,9.48018017578125,-0.03205082193017006,0.06214885786175728,0.0567125603556633
1733861326340130000,9.490130126953124,-0.03519308939576149,0.05051963031291962,0.04802932217717171
1733861326350081300,9.500081298828125,-0.0426350012421608,0.03884279727935791,0.047836244106292725
1733861326360032000,9.510031982421875,-0.048154935240745544,0.029789114370942116,0.04724635183811188
1733861326369983200,9.519983154296876,-0.05254408344626427,0.02438238263130188,0.048413775861263275
1733861326379934200,9.529934326171874,-0.05785336345434189,0.01728798821568489,0.04938556253910065
1733861326389885200,9.53988525390625,-0.05929572135210037,0.009907593950629234,0.04830533266067505
1733861326399835100,9.549835205078125,-0.0598086453974247,0.0011527184396982193,0.04342509061098099
1733861326409786000,9.5597861328125,-0.05665761977434158,-0.011984982527792454,0.035158369690179825
1733861326419737000,9.569737060546874,-0.05189349129796028,-0.0235444325953722,0.02767142467200756
1733861326429688300,9.579688232421875,-0.043947409838438034,-0.033570148050785065,0.017742522060871124
1733861326439639000,9.58963916015625,-0.034496646374464035,-0.04268215596675873,0.0069290222600102425
1733861326449590300,9.59959033203125,-0.02484825626015663,-0.04843665286898613,-0.0016330382786691189
1733861326459541000,9.609541015625,-0.012647250667214394,-0.050333354622125626,-0.009945295751094818
1733861326469491200,9.6194912109375,-0.0026460306253284216,-0.04794880002737045,-0.015736129134893417
1733861326479442200,9.629442138671875,0.004060607869178057,-0.043753787875175476,-0.018238700926303864
1733861326489393200,9.63939306640625,0.012392564676702023,-0.03564448654651642,-0.01670520007610321
1733861326499344100,9.64934423828125,0.013866356573998928,-0.0291594248265028,-0.012854003347456455
1733861326509295000,9.659295166015625,0.015256278216838837,-0.019879862666130066,-0.00834702793508768
1733861326519246000,9.66924609375,0.014946553856134415,-0.016259826719760895,0.000377221149392426
1733861326529196300,9.6791962890625,0.01167430728673935,-0.013358629308640957,0.006317773833870888
1733861326539147300,9.689147216796876,0.008764803409576416,-0.010665640234947205,0.011639301665127277
1733861326549098200,9.69909814453125,0.005322406534105539,-0.005858888383954763,0.016481835395097733
1733861326559049200,9.70904931640625,0.0032691089436411858,-0.0008657276630401611,0.016785968095064163
1733861326569000200,9.719000244140625,0.0008807936683297157,0.0016680220142006874,0.01608571596443653
1733861326578951200,9.728951171875,0.00343449879437685,0.0031711100600659847,0.015853488817811012
1733861326588901400,9.7389013671875,0.0040392884984612465,0.00562464352697134,0.011924473568797112
1733861326598852000,9.74885205078125,0.00514529924839735,0.010096889920532703,0.008048508316278458
1733861326608803300,9.75880322265625,0.006331178359687328,0.009524233639240265,0.007574894465506077
1733861326618754000,9.768754150390626,0.004881619475781918,0.007670673541724682,0.00837650615721941
1733861326628705300,9.778705322265624,-0.0009088409133255482,0.00944261159747839,0.00511770136654377
1733861326638656300,9.78865625,0.0008808034472167492,0.011017339304089546,0.006163524929434061
1733861326648606200,9.798606201171875,-0.00513769406825304,0.01534199807792902,0.0031294901855289936
1733861326658557200,9.80855712890625,-0.00619044154882431,0.017984919250011444,0.0017276023281738162
1733861326668508400,9.81850830078125,-0.008512715809047222,0.020092017948627472,0.0006501406896859407
1733861326678459100,9.828459228515625,-0.008456256240606308,0.022764233872294426,0.001856020069681108
1733861326688410400,9.838410400390625,-0.0068458206951618195,0.02750471420586109,0.002615236211568117
1733861326698361000,9.848361083984376,-0.0071813790127635,0.026378730311989784,0.006163365673273802
1733861326708311000,9.85831103515625,-0.004724899306893349,0.0279182568192482,0.007312357891350985
1733861326718262300,9.86826220703125,-0.005056729074567556,0.03031829744577408,0.009819724597036839
1733861326728213200,9.878213134765625,-0.0039121415466070175,0.03285191208124161,0.011445427313446999
1733861326738164200,9.888164306640626,-0.00017199828289449215,0.03255816549062729,0.00832500122487545
1733861326748115200,9.898115234375,0.0014522937126457691,0.032336682081222534,0.006559268571436405
1733861326758066200,9.908066162109375,0.0012464309111237526,0.02616507187485695,0.00663543539121747
1733861326768017400,9.918017333984375,0.0028877914883196354,0.0205917339771986,0.004628005437552929
1733861326777967000,9.927967041015625,0.0025567603297531605,0.017706196755170822,0.00529725756496191
1733861326787918000,9.93791796875,0.004750100430101156,0.012014935724437237,0.005197115708142519
1733861326797869300,9.947869384765625,0.003195080440491438,0.003755141282454133,0.005216823425143957
1733861326807820000,9.957820068359375,0.004765544086694717,-0.005213059484958649,0.006658072583377361
1733861326817771300,9.967771240234375,0.006578091531991959,-0.012793214991688728,0.00666766008362174
1733861326827722200,9.97772216796875,0.007296353112906218,-0.016924291849136353,0.0089498832821846
1733861326837672200,9.987672119140624,0.007650287356227636,-0.013320769183337688,0.011928361840546131
1733861326847623200,9.997623046875,0.00876188650727272,-0.012431285344064236,0.012277129106223583
1733861326857574100,10.00757421875,0.005983409937471151,-0.007390720769762993,0.009393724612891674
1733861326867525000,10.017525146484376,0.003808144945651293,-0.006771523505449295,0.0057642096653580666
1733861326877476000,10.02747607421875,-0.0044348714873194695,-0.0006539761088788509,0.0041511328890919685
1733861326887427000,10.037427001953125,-0.007395770866423845,-0.0002718064934015274,0.002442236291244626
1733861326897377300,10.047377197265625,-0.011950574815273285,0.001164170098491013,-0.0018763458356261253
1733861326907328300,10.057328369140626,-0.01230398379266262,0.003278968157246709,-0.00017314846627414227
1733861326917279200,10.067279296875,-0.010274389758706093,0.001285858335904777,0.000012473901733756065
1733861326927230200,10.077230224609375,-0.005770710296928883,-0.002203396987169981,0.0016731153009459376
1733861326937181200,10.08718115234375,-0.0031176689080893993,-0.006238085683435202,0.0029378505423665047
1733861326947132200,10.097132080078126,-0.0013887346722185612,-0.01130259595811367,0.006167680490761995
1733861326957082400,10.107082275390624,-0.003161334665492177,-0.018684878945350647,0.007047056220471859
1733861326967033000,10.117033203125,-0.004317164421081543,-0.024173695594072342,0.006185681093484163
1733861326976984300,10.126984375,-0.004067093599587679,-0.02820012718439102,0.0015722872922196984
1733861326986935000,10.13693505859375,-0.002686828840523958,-0.03002161532640457,-0.0029419788625091314
1733861326996886300,10.14688623046875,-0.0033278516493737698,-0.031433358788490295,-0.004877830855548382
1733861327006837200,10.156837158203125,-0.0038617660757154226,-0.02893836237490177,-0.004040111787617207
1733861327016788200,10.166788330078125,-0.00448494590818882,-0.021391762420535088,-0.002883234526962042
1733861327026738200,10.17673828125,-0.006783010438084602,-0.013815664686262608,-0.0017854796024039388
1733861327036689400,10.186689453125,-0.004501480609178543,-0.003800315083935857,-0.001190795679576695
1733861327046639600,10.1966396484375,-0.002483030315488577,0.005930713377892971,-0.00010651431512087584
1733861327056590800,10.2065908203125,0.00153061980381608,0.011143585667014122,0.0016242740675807
1733861327066541600,10.21654150390625,0.005211906973272562,0.0136038139462471,0.002710843924432993
1733861327076492800,10.226492919921874,0.009922506287693977,0.012869313359260559,0.00216462928801775
1733861327086442800,10.23644287109375,0.01591884158551693,0.01320104580372572,0.0004068877315148711
1733861327096393700,10.246393798828125,0.01832873560488224,0.011424717493355274,0.004485785029828548
1733861327106344700,10.2563447265625,0.018579378724098206,0.008326759561896324,0.004852025303989649
1733861327116296000,10.2662958984375,0.015311414375901222,0.0094455536454916,0.003282091813161969
1733861327126246700,10.27624658203125,0.013100981712341309,0.009029550477862358,0.0030920475255697966
1733861327136198000,10.286197998046875,0.011339034885168076,0.007921675220131874,-0.0003586101811379194
1733861327146147800,10.29614794921875,0.01089081447571516,0.009823680855333805,-0.002297605387866497
1733861327156098800,10.306098876953126,0.008032710291445255,0.005738125182688236,-0.0009995808359235525
1733861327166049800,10.3160498046875,0.009777367115020752,0.00273386063054204,0.00024294608738273382
1733861327176000800,10.326000732421875,0.005288875196129084,0.0005197084974497557,0.004836632404476404
1733861327185951700,10.33595166015625,0.0024161236360669136,-0.0031626441050320864,0.0060755349695682526
1733861327195902700,10.34590283203125,0.0007471204735338688,-0.011511120945215225,0.009725131094455719
1733861327205852700,10.355852783203124,0.000616908073425293,-0.011788588017225266,0.006584255490452051
1733861327215804000,10.365803955078125,-0.0016387891955673695,-0.011921480298042297,0.00365957198664546
1733861327225754600,10.375754638671875,-0.0028564324602484703,-0.013893124647438526,-0.00034865131601691246
1733861327235705900,10.385705810546876,-0.002542978385463357,-0.018186140805482864,-0.004087729379534721
1733861327245656800,10.39565673828125,-0.0016593486070632935,-0.02278463914990425,-0.005222662352025509
1733861327255607800,10.40560791015625,-0.0017522929701954126,-0.02614661306142807,-0.005006680265069008
1733861327265557800,10.415557861328125,-0.002033224795013666,-0.02813032455742359,-0.006490165367722511
1733861327275509000,10.425509033203125,-0.0005117608234286308,-0.024523604661226273,-0.004083732608705759
1733861327285459700,10.435459716796874,0.00042570754885673523,-0.020206280052661896,-0.0016995030455291271
1733861327295411000,10.445410888671875,0.004908340517431498,-0.012967541813850403,-0.00027551082894206047
1733861327305361700,10.455361572265625,0.006696602329611778,-0.0015682571101933718,0.000023073051124811172
1733861327315313000,10.46531298828125,0.005956243723630905,0.0040763127617537975,-0.00015003245789557695
1733861327325263600,10.475263671875,0.0065283081494271755,0.0092074666172266,-0.0011888230219483376
1733861327335213600,10.485213623046874,0.0057578557170927525,0.0076963892206549644,-0.0013110621366649866
1733861327345164800,10.495164794921875,0.0041154841892421246,0.005108329467475414,0.0005395684856921434
1733861327355115800,10.50511572265625,0.004429736640304327,0.001173508819192648,-0.0000700290547683835
1733861327365066800,10.515066650390626,0.0016928552649915218,0.001230329624377191,0.0008752456051297486
1733861327375018000,10.52501806640625,0.0005879094824194908,0.004739843308925629,0.0037376112304627895
1733861327384968700,10.53496875,-0.0026761703193187714,0.006245862692594528,0.00280661229044199
1733861327394918700,10.544918701171875,-0.003708678064867854,0.004079114645719528,0.0021959496662020683
1733861327404870000,10.554869873046876,-0.006477263756096363,0.003868035040795803,0.004801156464964151
1733861327414820600,10.564820556640624,-0.008494341745972633,-0.0031536552123725414,0.006389465648680925
1733861327424771800,10.574771728515625,-0.010620609857141972,-0.004555010702461004,0.006738340016454458
1733861327434722600,10.58472265625,-0.01202729158103466,-0.0037121204659342766,0.004039226099848747
1733861327444673800,10.594673828125,-0.012096516788005829,-0.005066295620054007,0.0011231725802645087
1733861327454623700,10.604623779296874,-0.013479495421051979,-0.003007139079272747,-0.0005948327016085386
1733861327464574700,10.61457470703125,-0.01191600039601326,-0.00029483484104275703,-0.002710979664698243
1733861327474525700,10.624525634765625,-0.0073875607922673225,-0.00027619278989732265,-0.005372010171413422
1733861327484477000,10.634476806640626,-0.0025970079004764557,-0.002336525823920965,-0.0024920664727687836
1733861327494427600,10.644427734375,-0.0015306782443076372,-0.002426274586468935,-0.0005799169884994626
1733861327504379000,10.65437890625,-0.00037645362317562103,-0.004888610448688269,-0.0004446794046089053
1733861327514328800,10.664328857421875,0.0024595465511083603,-0.00661274092271924,0.0010357719147577882
1733861327524279800,10.67427978515625,0.0022972924634814262,-0.004788113757967949,0.0025560068897902966
1733861327534230800,10.684230712890624,0.002473061438649893,-0.0005536875687539577,0.0019197775982320309
1733861327544181800,10.694181640625,0.002259243279695511,-0.0004081842489540577,0.0004888599505648017
1733861327554132700,10.7041328125,-0.002381048398092389,0.002768434351310134,-0.0007132908795028925
1733861327564083700,10.714083740234376,-0.0032199823763221502,0.00486263632774353,0.0010205886792391539
1733861327574034700,10.72403466796875,-0.004407485947012901,0.011407621204853058,0.000518582877703011
1733861327583985000,10.73398486328125,-0.0017450759187340736,0.012868497520685196,0.0012289000442251563
1733861327593935600,10.743935546875,0.000762023963034153,0.017087476328015327,-0.0007053539156913757
1733861327603886800,10.753886962890626,0.0022349851205945015,0.015002667903900146,0.001096326974220574
1733861327613837800,10.763837890625,0.004830501973628998,0.009782339446246624,0.0027789121959358454
1733861327623788800,10.773788818359375,0.0050630345940589905,0.0003194271121174097,0.004703899845480919
1733861327633739800,10.78373974609375,0.003509079571813345,-0.01018834114074707,0.00500989705324173
1733861327643690000,10.79368994140625,0.0005734958685934544,-0.016833685338497162,0.004352739080786705
1733861327653640700,10.803640625,0.001272842288017273,-0.02050299011170864,0.002184393350034952
1733861327663592000,10.813592041015625,0.002117565367370844,-0.020817046985030174,0.002192803891375661
1733861327673542700,10.823542724609375,0.002443270292133093,-0.014868875965476036,-0.003066140227019787
1733861327683494000,10.833493896484375,0.004164206795394421,-0.01277828961610794,-0.005271716509014368
1733861327693444600,10.843444580078126,0.003301342949271202,-0.014504017308354378,-0.002097494900226593
1733861327703394800,10.853394775390624,0.0030827177688479424,-0.015054979361593723,-0.0007138202199712396
1733861327713345800,10.863345703125,0.0015687108971178532,-0.012828576378524303,0.002189025515690446
1733861327723296800,10.873296875,0.001417933963239193,-0.010767125524580479,0.0033620374742895365
1733861327733247700,10.883247802734376,0.0026459177024662495,-0.004838928580284119,0.002331127878278494
1733861327743199000,10.893198974609374,0.0016682581044733524,0.0001283611636608839,0.0011249299859628081
1733861327753149700,10.903149658203125,0.001771322451531887,0.007475223392248154,0.0003773806383833289
1733861327763099600,10.913099609375,0.0026856176555156708,0.01095579657703638,0.0004273942904546857
1733861327773051000,10.92305078125,0.004517073277384043,0.01329405140131712,0.0006172776920720935
1733861327783001600,10.933001708984374,0.004841448739171028,0.011759011074900627,0.0011494308710098267
1733861327792952800,10.942952880859375,0.003027303609997034,0.009034331887960434,0.0011707361554726958
1733861327802903800,10.95290380859375,0.005963441450148821,0.011096423491835594,0.0021079559810459614
1733861327812854800,10.962854736328126,0.004304558504372835,0.013202983886003494,0.003014496061950922
1733861327822805800,10.9728056640625,0.0033340458758175373,0.01113993301987648,0.0014021696988493204
1733861327832755700,10.982755615234375,0.002646684180945158,0.008632301352918148,-0.0019773817621171474
1733861327842706700,10.992706787109375,0.0028898948803544044,0.0082913339138031,-0.0029502911493182182
1733861327852658000,11.002657958984376,-0.001270761713385582,0.0068809231743216515,-0.003628864884376526
1733861327862608600,11.012608642578124,-0.0005128260236233473,0.0034686150029301643,-0.0026869047433137894
1733861327872559900,11.022559814453125,-0.00288357213139534,-0.0006006951443850994,0.002520906738936901
1733861327882510600,11.032510498046875,-0.0016619903035461903,-0.0028937007300555706,0.00285491906106472
1733861327892460800,11.042460693359375,-0.004897730890661478,-0.004068687092512846,0.002676487434655428
1733861327902411800,11.052411865234374,-0.005359251983463764,-0.00460530212149024,0.003379136323928833
1733861327912362800,11.06236279296875,-0.0037107549142092466,-0.003282776102423668,0.0039048444014042616
1733861327922313700,11.072313720703125,-0.0006510468665510416,-0.004701170139014721,0.0021488096099346876
1733861327932264700,11.0822646484375,0.003256076481193304,-0.005121416412293911,0.0038055619224905968
1733861327942215700,11.092215576171874,0.003166401293128729,-0.004305551759898663,0.006842118222266436
1733861327952166000,11.102165771484374,0.006613330449908972,-0.0033364275004714727,0.006141973193734884
1733861327962116600,11.11211669921875,0.0066555822268128395,-0.0029025194235146046,0.007308522704988718
1733861327972067800,11.12206787109375,0.008051611483097076,-0.0011341804638504982,0.005228327587246895
1733861327982018800,11.132018798828126,0.006760801654309034,0.002107745734974742,0.004979324527084827
1733861327991969800,11.1419697265625,0.007210609968751669,0.0037365350872278214,0.002600056119263172
1733861328001920800,11.151920654296875,0.007718718145042658,0.004537826403975487,0.0029947878792881966
1733861328011871000,11.16187109375,0.002694931346923113,0.005764477886259556,0.0043300967663526535
1733861328021821700,11.17182177734375,0.0017428421415388584,0.0007654337678104639,0.002197223948314786
1733861328031773000,11.18177294921875,0.003142066765576601,0.0021454838570207357,0.0007407412631437182
1733861328041723600,11.1917236328125,0.002714636269956827,0.0016046145465224981,0.000816268555354327
1733861328051670300,11.201670166015624,0.003296270966529846,0.0037679001688957214,0.0020466488786041737
1733861328061621200,11.211621337890625,0.0026850663125514984,0.006448080763220787,0.003921833820641041
1733861328071571500,11.221571533203125,0.0010275146923959255,0.005919709801673889,0.004873381461948156
1733861328081522200,11.231522216796876,0.0009244270622730255,0.003616536734625697,0.005239781923592091
1733861328091473400,11.241473388671874,0.000298850703984499,0.005056774243712425,0.008657416328787804
1733861328101424000,11.251424072265625,0.0012602750211954117,0.005146860145032406,0.006347707472741604
1733861328111375400,11.261375244140625,-0.00041511980816721916,0.00574207678437233,0.003720765234902501
1733861328121326300,11.271326416015626,0.0015979954041540623,0.005210055969655514,0.003066854551434517
1733861328131277300,11.28127734375,-0.0006374618969857693,0.0020792437717318535,0.0029376912862062454
1733861328141227300,11.291227294921875,0.0027468563057482243,0.0032371196430176497,0.0025464175269007683
1733861328151178200,11.30117822265625,0.0016355188563466072,0.003139647888019681,0.004019678570330143
1733861328161129200,11.311129150390625,-0.00024360744282603264,0.00042535411193966866,0.002344816457480192
1733861328171080400,11.32108056640625,-0.0003810266498476267,0.002429649233818054,0.001240137149579823
1733861328181031200,11.33103125,-0.001017248723655939,0.003404118586331606,0.0026602947618812323
1733861328190982400,11.340982421875,0.0020312718115746975,0.0037564546801149845,0.005766605958342552
1733861328200932400,11.350932373046875,0.004382578656077385,0.002860040869563818,0.006040165666490793
1733861328210883300,11.36088330078125,0.0026235608384013176,0.001494371797889471,0.003766358830034733
1733861328220834300,11.370834228515625,0.006138382479548454,0.0023529252503067255,0.0019182316027581692
1733861328230785300,11.380785400390625,0.005534377880394459,0.0025848867371678352,0.0023746974766254425
1733861328240736300,11.390736328125,0.004046260379254818,0.0006076274439692497,0.001035559456795454
1733861328250687500,11.4006875,0.004406586289405823,0.002087279688566923,0.0019487574463710189
1733861328260637200,11.41063720703125,0.005556505639106035,0.00532187893986702,0.0029475437477231026
1733861328270588200,11.420588134765625,0.00486008869484067,0.0031735068187117577,0.004070598632097244
1733861328280539400,11.430539306640625,0.003747168928384781,0.00047096703201532364,0.0035265700425952673
1733861328290490400,11.440490478515626,0.005029746796935797,-0.006889744196087122,0.002371557056903839
1733861328300441300,11.45044140625,0.004650532267987728,-0.008878818713128567,0.0021234608720988035
1733861328310392300,11.460392333984375,0.004986889660358429,-0.005985826253890991,0.0019096089527010918
1733861328320342300,11.47034228515625,0.0022621825337409973,-0.008118277415633202,0.0033298679627478123
1733861328330293200,11.480293212890626,-0.003417274681851268,-0.01123976893723011,0.0019311755895614624
1733861328340244200,11.490244140625,-0.00520026870071888,-0.003774413838982582,0.00006706861313432455
1733861328350195200,11.5001953125,-0.0068357158452272415,0.009438592940568924,0.00015708350110799074
1733861328360146200,11.510146240234375,-0.0046481904573738575,0.015842441469430923,0.002065345412120223
1733861328370097200,11.52009716796875,-0.002664668019860983,0.01762516237795353,0.0038826866075396538
1733861328380048400,11.53004833984375,-0.00005903374403715134,0.017409706488251686,0.00047325424384325743
1733861328389998000,11.539998046875,0.0021356772631406784,0.009359503164887428,0.0013720710994675756
1733861328399949300,11.54994921875,0.0035596368834376335,-0.0008612629026174545,0.0009297733777202666
1733861328409900300,11.559900390625,0.0012349635362625122,-0.009344763122498989,0.0006852952064946294
1733861328419851300,11.569851318359374,-0.0011424401309341192,-0.013349358923733234,0.0020717368461191654
1733861328429802200,11.57980224609375,-0.0012183403596282005,-0.016558200120925903,-0.00435393862426281
1733861328439753200,11.589753173828125,-0.0027805203571915627,-0.020233815535902977,-0.006495226640254259
1733861328449703200,11.599703125,-0.004089730326086283,-0.022450363263487816,-0.010091559961438179
1733861328459654400,11.609654296875,-0.0027373593766242266,-0.023710263893008232,-0.008628842420876026
1733861328469605000,11.619605224609375,-0.0021927428897470236,-0.025830939412117004,-0.006769157014787197
1733861328479556400,11.629556396484375,-0.0006523653864860535,-0.024296678602695465,-0.00439963536337018
1733861328489507000,11.639507080078126,0.002467261627316475,-0.018287789076566696,-0.0013734850799664855
1733861328499458300,11.649458251953124,0.00246961647644639,-0.009265901520848274,0.0007193827768787742
1733861328509408300,11.659408203125,0.0034730955958366394,-0.000496910884976387,0.00284937908872962
1733861328519359200,11.669359130859375,0.006759963929653168,0.007678448222577572,0.0021033212542533875
1733861328529310200,11.679310302734375,0.005233174189925194,0.018310585990548134,0.003566728439182043
1733861328539261400,11.689261474609374,0.007488609291613102,0.020258435979485512,0.003538871416822076
1733861328549212200,11.699212158203125,0.0053575485944747925,0.019447769969701767,0.0038392760325223207
1733861328559163400,11.709163330078125,0.008730176836252213,0.016742803156375885,0.003960502799600363
1733861328569113300,11.71911328125,0.008605541661381721,0.012030871585011482,0.001837697345763445
1733861328579064300,11.729064208984376,0.00822952575981617,0.006137351039797068,-0.00008435826748609543
1733861328589015300,11.739015380859374,0.008017804473638535,0.001166560803540051,-0.0002761057112365961
1733861328598966300,11.74896630859375,0.00421508913859725,0.0013325053732842207,-0.0008878320222720504
1733861328608917200,11.758917236328125,0.001808124128729105,0.0029120261315256357,-0.0014881085371598601
1733861328618868200,11.7688681640625,0.0010387091897428036,-0.00014534872025251389,-0.0001829494722187519
1733861328628818200,11.778818115234374,-0.0006300273817032576,-0.0020183497108519077,-0.0037198937498033047
1733861328638769400,11.788769287109375,-0.003482541535049677,-0.00235631107352674,-0.0008069814648479223
1733861328648720400,11.798720458984375,-0.003727818839251995,-0.004192560911178589,-0.0013172430917620659
1733861328658671400,11.80867138671875,-0.003234591567888856,-0.007427210919559002,-0.0004909171257168055
1733861328668622300,11.818622314453124,-0.007291651330888271,-0.009122313000261784,-0.0006991762202233076
1733861328678573300,11.8285732421875,-0.005158183164894581,-0.0076642087660729885,-0.0013391862157732248
1733861328688524300,11.838524169921875,-0.004556042142212391,-0.0038987654261291027,-0.004346161149442196
1733861328698474200,11.84847412109375,-0.004275596234947443,-0.005997833795845509,-0.0019039869075641036
1733861328708425200,11.85842529296875,-0.00027499557472765446,-0.006447375752031803,-0.0011649596272036433
