time,seconds_elapsed,z,y,x
1733699635867305200,0.02530517578125,0.010066808201372623,-0.26326873898506165,-0.009009924717247486
1733699635877260500,0.035260498046875,0.006164941005408764,-0.2520204782485962,-0.004285959992557764
1733699635887214300,0.04521435546875,0.0027736714109778404,-0.2491287887096405,-0.003952265717089176
1733699635897169400,0.05516943359375,-0.0025968863628804684,-0.23949368298053741,-0.007758084684610367
1733699635907124200,0.065124267578125,-0.007499499246478081,-0.22804075479507446,-0.0109030120074749
1733699635917079600,0.07507958984375,-0.011845076456665993,-0.22004546225070953,-0.010660510510206223
1733699635927034400,0.085034423828125,-0.012243751436471939,-0.21293188631534576,-0.008502018637955189
1733699635936988400,0.094988525390625,-0.006760568358004093,-0.19969332218170166,-0.00838404055684805
1733699635946943200,0.104943115234375,0.00026642344892024994,-0.18832020461559296,-0.005694408901035786
1733699635956898600,0.114898681640625,0.012235202826559544,-0.18007045984268188,-0.0004034186713397503
1733699635966853400,0.124853271484375,0.02163855917751789,-0.17245329916477203,0.001804608153179288
1733699635976808200,0.13480810546875,0.02427535504102707,-0.17055898904800415,0.005566855892539024
1733699635986762200,0.14476220703125,0.031466953456401825,-0.17542777955532074,0.004629955627024174
1733699635996717600,0.154717529296875,0.03528798371553421,-0.18640176951885223,0.0035627868492156267
1733699636006672400,0.16467236328125,0.033439751714468,-0.19846323132514954,0.0013398462906479836
1733699636016627200,0.174627197265625,0.027235576882958412,-0.2154722362756729,-0.002199002308771014
1733699636026582300,0.184582275390625,0.012680869549512863,-0.2354792356491089,-0.00792799424380064
1733699636036537300,0.194537353515625,0.005344369914382696,-0.2482960820198059,-0.006868662312626839
1733699636046491400,0.204491455078125,0.0005533434450626373,-0.2667163908481598,-0.010960076004266739
1733699636056446200,0.2144462890625,-0.002804999239742756,-0.28788402676582336,-0.013798585161566734
1733699636066401300,0.2244013671875,-0.005708644166588783,-0.30556342005729675,-0.014203652739524841
1733699636076356400,0.2343564453125,-0.010990051552653313,-0.3183281421661377,-0.014505410566926003
1733699636086311400,0.2443115234375,-0.015482804737985134,-0.32795146107673645,-0.01840720884501934
1733699636096265200,0.25426513671875,-0.018600886687636375,-0.31454581022262573,-0.017151053994894028
1733699636106220300,0.26422021484375,-0.02055324986577034,-0.298015296459198,-0.024400444701313972
1733699636116175400,0.27417529296875,-0.02422608807682991,-0.2799946963787079,-0.028662340715527534
1733699636126130400,0.28413037109375,-0.019001498818397522,-0.2644985616207123,-0.0317649245262146
1733699636136085200,0.294085205078125,-0.013294028118252754,-0.25261467695236206,-0.036690209060907364
1733699636146039300,0.304039306640625,-0.011441268026828766,-0.2378636747598648,-0.042234644293785095
1733699636155994400,0.313994384765625,-0.012838301248848438,-0.20085999369621277,-0.0374334342777729
1733699636165949400,0.323949462890625,-0.014464427717030048,-0.15947207808494568,-0.028106780722737312
1733699636175904300,0.333904296875,-0.017266932874917984,-0.10834624618291855,-0.02653326466679573
1733699636185859300,0.343859375,-0.02145848423242569,-0.049595315009355545,-0.02466106228530407
1733699636195814400,0.353814453125,-0.02759612165391445,0.020868375897407532,-0.028912097215652466
1733699636205768400,0.3637685546875,-0.03958167880773544,0.09140246361494064,-0.032096173614263535
1733699636215723300,0.37372314453125,-0.053427912294864655,0.1625892072916031,-0.03912048786878586
1733699636225678300,0.38367822265625,-0.06886518746614456,0.22885771095752716,-0.04817816615104675
1733699636235633400,0.39363330078125,-0.07974687218666077,0.3047372102737427,-0.055690228939056396
1733699636245588200,0.403588134765625,-0.087556853890419,0.3570254445075989,-0.05497943237423897
1733699636255542300,0.413542236328125,-0.09771427512168884,0.35413435101509094,-0.06894665956497192
1733699636265497300,0.423497314453125,-0.1283707320690155,0.35881778597831726,-0.0753379762172699
1733699636275452400,0.433452392578125,-0.1564474254846573,0.3432055115699768,-0.09027950465679169
1733699636285407200,0.4434072265625,-0.20065537095069885,0.3097287714481354,-0.09378901869058609
1733699636295362300,0.4533623046875,-0.2314004749059677,0.19522622227668762,-0.09603328257799149
1733699636305316400,0.46331640625,-0.31430068612098694,0.16704225540161133,-0.09113039821386337
1733699636315271400,0.473271484375,-0.3511244058609009,0.06513816863298416,-0.06347636133432388
1733699636325226200,0.483226318359375,-0.11692336201667786,-0.5020381212234497,0.13052693009376526
1733699636335181300,0.493181396484375,0.1341237723827362,-0.7248826622962952,0.18456940352916718
1733699636345136400,0.503136474609375,0.17308075726032257,-0.7306164503097534,0.11465023458003998
1733699636355090400,0.51309033203125,0.14240582287311554,-0.6881710290908813,0.07205402851104736
1733699636365045200,0.523045166015625,0.06911242753267288,-0.6549563407897949,0.02468384988605976
1733699636375000300,0.533000244140625,0.005101924762129784,-0.6048228740692139,0.000918486388400197
1733699636384955400,0.542955322265625,-0.031185243278741837,-0.5555176138877869,-0.019905835390090942
1733699636394910200,0.55291015625,-0.03843870013952255,-0.5039669871330261,-0.02849980816245079
1733699636404865300,0.562865234375,-0.022398214787244797,-0.44897639751434326,-0.02254045382142067
1733699636414819300,0.5728193359375,-0.002206271281465888,-0.3770238161087036,-0.013886945322155952
1733699636424774400,0.5827744140625,0.010363848879933357,-0.28989478945732117,-0.00823891256004572
1733699636434729200,0.592729248046875,0.001232135808095336,-0.207268625497818,-0.010545209981501102
1733699636444684300,0.602684326171875,-0.012443196028470993,-0.1290673017501831,-0.01753627508878708
1733699636454639400,0.612639404296875,-0.02602393925189972,-0.05796688422560692,-0.02251020446419716
1733699636464593400,0.622593505859375,-0.035147130489349365,0.0025161670055240393,-0.022416461259126663
1733699636474548200,0.63254833984375,-0.035687241703271866,0.048006560653448105,-0.016835879534482956
1733699636484503300,0.64250341796875,-0.029560640454292297,0.08618377149105072,-0.014709879644215107
1733699636494458400,0.652458251953125,-0.019434034824371338,0.10450861603021622,-0.00987858884036541
1733699636504413400,0.662413330078125,-0.01114547997713089,0.10337277501821518,-0.008633827790617943
1733699636514368500,0.672368408203125,-0.00455216271802783,0.08290822058916092,-0.0037194869946688414
1733699636524322600,0.682322509765625,-0.00025701639242470264,0.052789997309446335,0.002032408257946372
1733699636534277400,0.69227734375,0.0011899122036993504,0.024870125576853752,0.006883942522108555
1733699636544232400,0.702232421875,0.005529000423848629,0.01290907058864832,0.008979583159089088
1733699636554187500,0.7121875,0.008999437093734741,-0.0022982715163379908,0.014216108247637749
1733699636564142600,0.722142578125,0.010746469721198082,-0.017106512561440468,0.016498439013957977
1733699636574096400,0.732096435546875,0.014612274244427681,-0.03248963877558708,0.013911920599639416
1733699636584051500,0.742051513671875,0.014589637517929077,-0.053080666810274124,0.012521217577159405
1733699636594006500,0.752006591796875,0.012123645283281803,-0.07448231428861618,0.011537292040884495
1733699636603961300,0.76196142578125,0.007093733176589012,-0.09016620367765427,0.009298639371991158
1733699636613916400,0.77191650390625,0.005149404052644968,-0.0872252956032753,0.011169920675456524
1733699636623870500,0.781870361328125,0.006255947053432465,-0.06767956167459488,0.009674022905528545
1733699636633825500,0.791825439453125,0.005783330649137497,-0.03729265555739403,0.00858721137046814
1733699636643780400,0.8017802734375,0.0061905281618237495,-0.0011540947016328573,0.010144095867872238
1733699636653735400,0.8117353515625,0.0082776490598917,0.0358109213411808,0.008678646758198738
1733699636663690500,0.8216904296875,0.010994605720043182,0.06477493047714233,0.010321550071239471
1733699636673644500,0.83164453125,0.015965154394507408,0.07730548828840256,0.010961847379803658
1733699636683599400,0.841599365234375,0.016357969492673874,0.07593929022550583,0.011774910613894463
1733699636693554400,0.851554443359375,0.013544762507081032,0.06238903850317001,0.00896358210593462
1733699636703509500,0.861509521484375,0.010376663878560066,0.048553649336099625,0.007356631103903055
1733699636713464600,0.871464599609375,0.007823225110769272,0.03611375764012337,0.007727343123406172
1733699636723419400,0.88141943359375,0.012044869363307953,0.023886121809482574,0.009946554899215698
1733699636733373400,0.89137353515625,0.01894652657210827,0.013588658533990383,0.010317041538655758
1733699636743328500,0.90132861328125,0.027451330795884132,0.0002885658177547157,0.012849707156419754
1733699636753283600,0.91128369140625,0.024356994777917862,-0.013910152018070221,0.012523646466434002
1733699636763238400,0.92123828125,0.019377149641513824,-0.018916094675660133,0.009103614836931229
1733699636773193500,0.931193359375,0.01653619296848774,-0.012650093995034695,0.0050049470737576485
1733699636783147500,0.9411474609375,0.01811172068119049,0.002584252506494522,0.004082427825778723
1733699636793102600,0.9511025390625,0.020569108426570892,0.016412416473031044,0.0057466598227620125
1733699636803057400,0.961057373046875,0.029056865721940994,0.0249334666877985,0.00789742823690176
1733699636813012500,0.971012451171875,0.02462764084339142,0.01837732084095478,0.005964231677353382
1733699636822967600,0.980967529296875,0.02168191783130169,-0.003600149182602763,0.003859535325318575
1733699636832922400,0.99092236328125,0.013879053294658661,-0.03772934898734093,0.001935007981956005
1733699636842876400,1.00087646484375,0.004103653132915497,-0.08233889937400818,-0.0015753046609461308
1733699636852831500,1.01083154296875,0.0006607889663428068,-0.11877521127462387,-0.004304384812712669
1733699636862786600,1.02078662109375,0.0026307294610887766,-0.14048422873020172,-0.005577109754085541
1733699636872741400,1.030741455078125,0.0043510510586202145,-0.15897445380687714,-0.006613544188439846
1733699636882696400,1.040696533203125,0.005225100554525852,-0.16283735632896423,-0.0041802143678069115
1733699636892650200,1.050650146484375,0.008604566566646099,-0.15943250060081482,-0.004514039494097233
1733699636902605600,1.06060546875,0.006903073750436306,-0.15484946966171265,-0.00470951572060585
1733699636912560400,1.070560302734375,0.006837361492216587,-0.14903701841831207,-0.0019081851933151484
1733699636922515500,1.080515380859375,0.008518882095813751,-0.1364368051290512,-0.00018884846940636635
1733699636932470500,1.090470458984375,0.009277695789933205,-0.1230056881904602,-0.0003604923840612173
1733699636942424600,1.100424560546875,0.00960925966501236,-0.10255234688520432,0.0007543069077655673
1733699636952379400,1.11037939453125,0.008042756468057632,-0.08690442144870758,0.00011622905731201172
1733699636962334500,1.12033447265625,0.006111699156463146,-0.07549890130758286,0.000019822735339403152
1733699636972289500,1.13028955078125,0.004877695348113775,-0.07030288130044937,-0.003549321088939905
1733699636982244600,1.14024462890625,0.003929876256734133,-0.06973935663700104,-0.005449220072478056
1733699636992199400,1.150199462890625,0.0015346624422818422,-0.07746152579784393,-0.007897567003965378
1733699637002153500,1.160153564453125,-0.002443034900352359,-0.09380241483449936,-0.01032290793955326
1733699637012108500,1.170108642578125,-0.005870332010090351,-0.11028490215539932,-0.012937906198203564
1733699637022063600,1.180063720703125,-0.0055179959163069725,-0.1260223090648651,-0.01415310613811016
1733699637032018400,1.190018310546875,-0.004286720417439938,-0.14269180595874786,-0.012010214850306511
1733699637041973500,1.199973388671875,-0.0008115618256852031,-0.15937864780426025,-0.013517298735678196
1733699637051927600,1.209927490234375,0.0028723743744194508,-0.17295877635478973,-0.013025857508182526
1733699637061882400,1.21988232421875,0.0013394590932875872,-0.18009205162525177,-0.011048993095755577
1733699637071837400,1.22983740234375,-0.004984991624951363,-0.1746090203523636,-0.009543169289827347
1733699637081792300,1.239792236328125,-0.012949174270033836,-0.14982537925243378,-0.009421729482710361
1733699637091747600,1.24974755859375,-0.013612592592835426,-0.10455228388309479,-0.003293602028861642
1733699637101701400,1.259701416015625,-0.009746748022735119,-0.040521107614040375,0.003567233681678772
1733699637111656400,1.269656494140625,0.003924203105270863,0.035176150500774384,0.005968686658889055
1733699637121611300,1.279611328125,0.010804745368659496,0.09692446887493134,0.009501902386546135
1733699637131566600,1.289566650390625,0.015624305233359337,0.1263294517993927,0.0072371577844023705
1733699637141521400,1.299521484375,0.013343840837478638,0.11617641896009445,0.0034826332703232765
1733699637151476500,1.3094765625,0.007794825825840235,0.07083556056022644,-0.0017778987530618906
1733699637161430300,1.31943017578125,0.006172428373247385,0.009504559449851513,-0.0010074460878968239
1733699637171385600,1.329385498046875,0.0028793681412935257,-0.05157275125384331,-0.00206866511143744
1733699637181340400,1.33934033203125,0.00431880634278059,-0.09895598143339157,0.0001604005228728056
1733699637191295500,1.34929541015625,0.003770045004785061,-0.12088587880134583,-0.00033822539262473583
1733699637201250600,1.35925048828125,0.0022472492419183254,-0.1261642575263977,-0.0024005770683288574
1733699637211204600,1.36920458984375,0.0010173169430345297,-0.1175081804394722,-0.0033591799437999725
1733699637221159400,1.379159423828125,-0.00019628554582595825,-0.11917319148778915,0.001294960267841816
1733699637231114500,1.389114501953125,0.0009084988851100206,-0.12303093075752258,0.005817210767418146
1733699637241069600,1.399069580078125,-0.0020561320707201958,-0.1386122852563858,0.018575618043541908
1733699637251024400,1.4090244140625,-0.001804472180083394,-0.1399007886648178,0.02287519909441471
1733699637260979500,1.4189794921875,0.0021271524019539356,-0.13163220882415771,0.024579090997576714
1733699637270933500,1.42893359375,0.003779578022658825,-0.12153308838605881,0.02413838729262352
1733699637280888600,1.438888671875,0.005660568829625845,-0.10699781775474548,0.02131144143640995
1733699637290843400,1.448843505859375,0.0050856550224125385,-0.08394093811511993,0.017624955624341965
1733699637300798500,1.458798583984375,0.004758086055517197,-0.06211633235216141,0.012730864807963371
1733699637310753500,1.46875341796875,0.004607768263667822,-0.042945392429828644,0.010019137524068356
1733699637320707600,1.47870751953125,0.0050514512695372105,-0.023565832525491714,0.008489950560033321
1733699637330662400,1.488662353515625,0.006601506844162941,-0.004707948304712772,0.002935241675004363
1733699637340617500,1.498617431640625,0.0061956411227583885,0.011233466677367687,-0.0020688381046056747
1733699637350572500,1.508572509765625,0.007554119452834129,0.02236255072057247,-0.010677238926291466
1733699637360527600,1.518527587890625,0.007031074725091457,0.02463475987315178,-0.016920221969485283
1733699637370481400,1.5284814453125,0.008186982944607735,0.015358478762209415,-0.02281075529754162
1733699637380436500,1.5384365234375,0.006419177167117596,-0.0040463777258992195,-0.025129036977887154
1733699637390391600,1.5483916015625,0.011355164460837841,-0.03143060952425003,-0.025508938357234
1733699637400346600,1.5583466796875,0.013740291818976402,-0.06632440537214279,-0.02440532296895981
1733699637410301400,1.568301513671875,0.015116431750357151,-0.09779634326696396,-0.022008458152413368
1733699637420256300,1.57825634765625,0.015075418166816235,-0.12514755129814148,-0.021625760942697525
1733699637430210600,1.58821044921875,0.0122087886556983,-0.14794321358203888,-0.023396853357553482
1733699637440165600,1.59816552734375,0.010593314655125141,-0.16780373454093933,-0.023342257365584373
1733699637450120400,1.608120361328125,0.011407539248466492,-0.17526774108409882,-0.02718295529484749
1733699637460075300,1.6180751953125,0.009014954790472984,-0.18544793128967285,-0.023748809471726418
1733699637470030600,1.628030517578125,0.005443439818918705,-0.18953609466552734,-0.02608044072985649
1733699637479984600,1.637984619140625,0.005306553095579147,-0.19228100776672363,-0.028697527945041656
1733699637489939500,1.647939453125,0.005212433636188507,-0.18953219056129456,-0.030128005892038345
1733699637499894300,1.657894287109375,0.005024148151278496,-0.18662242591381073,-0.02967899665236473
1733699637509849600,1.667849609375,0.0016148039139807224,-0.17876456677913666,-0.029839955270290375
1733699637519804700,1.6778046875,0.00625269953161478,-0.16379998624324799,-0.029287349432706833
1733699637529758700,1.6877587890625,0.004240912385284901,-0.15288470685482025,-0.026084262877702713
1733699637539713500,1.697713623046875,0.005945336073637009,-0.13841600716114044,-0.022902050986886024
1733699637549668600,1.707668701171875,0.007565315347164869,-0.11976601928472519,-0.021459756419062614
1733699637559623400,1.71762353515625,0.009301163256168365,-0.0990506261587143,-0.019593678414821625
1733699637569578800,1.727578857421875,0.009366593323647976,-0.08157335221767426,-0.016269385814666748
1733699637579533600,1.737533447265625,0.012227094732224941,-0.062383413314819336,-0.012836305424571037
1733699637589487600,1.747487548828125,0.012624341994524002,-0.04191066697239876,-0.00969868153333664
1733699637599442400,1.7574423828125,0.009065560065209866,-0.022591566666960716,-0.004200318828225136
1733699637609397800,1.767397705078125,0.002471188548952341,0.005544564221054316,0.0008456532377749681
1733699637619352600,1.7773525390625,-0.0006103552877902985,0.0344260148704052,0.0010930609423667192
1733699637629307400,1.787307373046875,-0.009138529188930988,0.06837183237075806,-0.0001016824971884489
1733699637639261400,1.797261474609375,-0.015480580739676952,0.10053350031375885,0.0020381673239171505
1733699637649216800,1.807216796875,-0.015007189474999905,0.12921717762947083,0.0014880395028740168
1733699637659171600,1.817171630859375,-0.009675807319581509,0.14110979437828064,0.003414303995668888
1733699637669126400,1.82712646484375,-0.005523376166820526,0.1368638575077057,0.004180391319096088
1733699637679081700,1.837081787109375,-0.0006018545245751739,0.1189090758562088,0.002454396802932024
1733699637689036500,1.84703662109375,0.001714362297207117,0.08920323103666306,0.004092723596841097
1733699637698990600,1.856990478515625,0.003845157567411661,0.05507534742355347,0.0012825560988858342
1733699637708945400,1.8669453125,0.00548181775957346,0.017364289611577988,-0.001446570036932826
1733699637718900700,1.876900634765625,0.003812814597040415,-0.021960213780403137,-0.0026471230667084455
1733699637728855600,1.88685546875,0.00502803735435009,-0.05705415830016136,-0.0025437199510633945
1733699637738810600,1.896810546875,0.006059479899704456,-0.08266045153141022,-0.0022627566941082478
1733699637748764400,1.906764404296875,0.0064336759969592094,-0.10093813389539719,-0.003070687409490347
1733699637758719700,1.9167197265625,0.005571877583861351,-0.10749191045761108,-0.002269342076033354
1733699637768674600,1.926674560546875,0.007071284577250481,-0.099974624812603,-0.0022590772714465857
1733699637778629600,1.936629638671875,0.006089377216994762,-0.09034383296966553,-0.003190118120983243
1733699637788584700,1.946584716796875,0.0031441268511116505,-0.07889094203710556,-0.003426201408728957
1733699637798538800,1.956538818359375,0.0036346809938549995,-0.06852751970291138,-0.004781750030815601
1733699637808493600,1.96649365234375,0.0023713416885584593,-0.05841431766748428,-0.006993288639932871
1733699637818448600,1.97644873046875,0.0004072606097906828,-0.047782979905605316,-0.004900843370705843
1733699637828403700,1.98640380859375,0.00015624705702066422,-0.041169099509716034,-0.008023370057344437
1733699637838358500,1.996358642578125,-0.0029071872122585773,-0.037748534232378006,-0.009223124012351036
1733699637848313600,2.006313720703125,-0.005558700300753117,-0.038114048540592194,-0.007923563942313194
1733699637858267600,2.016267578125,-0.007304668892174959,-0.040414754301309586,-0.009145421907305717
1733699637868222700,2.02622265625,-0.00559829268604517,-0.04432936757802963,-0.007290773093700409
1733699637878177500,2.036177490234375,-0.005946900229901075,-0.04894968494772911,-0.007554958574473858
1733699637888132600,2.046132568359375,-0.003661544993519783,-0.05586693808436394,-0.00705896457657218
1733699637898087400,2.05608740234375,-0.0033598090521991253,-0.06232164427638054,-0.00531805632635951
1733699637908041700,2.066041748046875,-0.001300934236496687,-0.06836121529340744,-0.00426289439201355
1733699637917996500,2.07599658203125,-0.0021475532557815313,-0.07581672817468643,-0.0036248008254915476
1733699637927951600,2.08595166015625,-0.0026873969472944736,-0.07914314419031143,-0.0037830646615475416
1733699637937906400,2.095906494140625,-0.004370248410850763,-0.07391881942749023,-0.007952510379254818
1733699637947861800,2.10586181640625,-0.0000978552270680666,-0.0638280063867569,-0.014487026259303093
1733699637957815600,2.115815673828125,0.0019144290126860142,-0.062004536390304565,-0.011274188756942749
1733699637967770600,2.1257705078125,0.00180991948582232,-0.062415655702352524,-0.008087210357189178
1733699637977725400,2.135725341796875,0.004184660501778126,-0.0639491006731987,-0.008910128846764565
1733699637987680800,2.1456806640625,0.010302746668457985,-0.06656931340694427,-0.010144413448870182
1733699637997635600,2.155635498046875,0.01255924254655838,-0.06753017753362656,-0.014325310476124287
1733699638007590700,2.165590576171875,0.01535381656140089,-0.07665587216615677,-0.014913950115442276
1733699638017544400,2.17554443359375,0.015010002069175243,-0.0919293612241745,-0.009849149733781815
1733699638027499800,2.185499755859375,0.015240375883877277,-0.10174889117479324,-0.011808080598711967
1733699638037454600,2.19545458984375,0.013535951264202595,-0.11421168595552444,0.0012240979121997952
1733699638047409400,2.205409423828125,0.01347376499325037,-0.10665179789066315,0.001405203016474843
1733699638057364700,2.21536474609375,0.01383861806243658,-0.08879050612449646,0.007887070998549461
1733699638067318800,2.22531884765625,0.013452157378196716,-0.0566365011036396,0.0064583877101540565
1733699638077273600,2.235273681640625,0.009930393658578396,-0.02028089202940464,0.004612283781170845
1733699638087228400,2.245228515625,0.0049802931025624275,0.01530720479786396,-0.0004646310117095709
1733699638097183700,2.255183837890625,0.003580535762012005,0.043128449469804764,-0.0023522793781012297
1733699638107138600,2.265138671875,0.00021362677216529846,0.05821869522333145,-0.004733136389404535
1733699638117093600,2.27509375,-0.0012761455727741122,0.06570670753717422,-0.004093179013580084
1733699638127047400,2.28504736328125,-0.00006225472316145897,0.06302475929260254,-0.004713356960564852
1733699638137002800,2.295002685546875,0.002457628259435296,0.05579241365194321,-0.005368228070437908
1733699638146957600,2.30495751953125,0.0032574497163295746,0.039075665175914764,-0.0062736626714468
1733699638156912600,2.31491259765625,0.004806078039109707,0.021382423117756844,-0.004732225090265274
1733699638166867500,2.324867431640625,0.006176075432449579,0.002976893913000822,-0.005673169158399105
1733699638176821800,2.33482177734375,0.00844588689506054,-0.015242590568959713,-0.005438810680061579
1733699638186776600,2.344776611328125,0.008358490653336048,-0.028612975031137466,-0.004997669719159603
1733699638196731600,2.354731689453125,0.008184320293366909,-0.0406683050096035,-0.0058528101071715355
1733699638206686500,2.3646865234375,0.008869551122188568,-0.04692859575152397,-0.007554303854703903
1733699638216641800,2.374641845703125,0.008242909796535969,-0.04915180429816246,-0.008450457826256752
1733699638226596600,2.3845966796875,0.007656215690076351,-0.05018031597137451,-0.006321793422102928
1733699638236550700,2.394550537109375,0.0048292698338627815,-0.045321911573410034,-0.008344197645783424
1733699638246505500,2.40450537109375,0.0033494774252176285,-0.041711222380399704,-0.009288279339671135
1733699638256460500,2.41446044921875,0.0011537012178450823,-0.03694522753357887,-0.008316491730511189
1733699638266415600,2.42441552734375,-0.0013479224871844053,-0.02814151905477047,-0.005633542314171791
1733699638276370400,2.434370361328125,-0.0020832212176173925,-0.016984472051262856,-0.0033895622473210096
1733699638286324500,2.444324462890625,-0.0035760807804763317,-0.008193018846213818,-0.0036824154667556286
1733699638296279600,2.454279541015625,-0.001955547370016575,0.0013541467487812042,-0.0025910520926117897
1733699638306234600,2.464234619140625,-0.001213539275340736,0.009145015850663185,-0.0034856395795941353
1733699638316189400,2.474189453125,0.00043628900311887264,0.011720293201506138,-0.000920482911169529
1733699638326144800,2.484144775390625,0.001713568577542901,0.015294402837753296,0.000993714202195406
1733699638336098600,2.4940986328125,0.0019141046795994043,0.016661934554576874,-0.0013517318293452263
1733699638346053600,2.5040537109375,0.0009534107521176338,0.015307462774217129,-0.0007686328608542681
1733699638356008400,2.514008544921875,0.002231195569038391,0.011170774698257446,-0.0028427026700228453
1733699638365963800,2.5239638671875,0.002127407118678093,0.005913078784942627,-0.0032088467851281166
1733699638375918600,2.533918701171875,0.0012562870979309082,0.000450402672868222,-0.0031478600576519966
1733699638385873700,2.543873779296875,0.003368769772350788,-0.006605800241231918,-0.0019153994508087635
1733699638395827500,2.553827392578125,0.005366673227399588,-0.008039645850658417,-0.003672020509839058
1733699638405782800,2.56378271484375,0.006242490839213133,-0.010187793523073196,-0.0027674571610987186
1733699638415737600,2.573737548828125,0.008213495835661888,-0.009710821323096752,-0.0017943382263183594
1733699638425692700,2.583692626953125,0.011607140302658081,-0.01085557322949171,-0.0006729532033205032
1733699638435647500,2.5936474609375,0.013145916163921356,-0.00841238908469677,-0.0026423607487231493
1733699638445601800,2.603601806640625,0.012101382948458195,-0.01083691418170929,-0.0020552778150886297
1733699638455556600,2.613556640625,0.011666487902402878,-0.013330431655049324,-0.004222025163471699
1733699638465511700,2.62351171875,0.011949636973440647,-0.014320272020995617,-0.009799514897167683
1733699638475466500,2.633466552734375,0.012352573685348034,-0.01580578275024891,-0.014872036874294281
1733699638485421600,2.643421630859375,0.010092615149915218,-0.0217044185847044,-0.01433008536696434
1733699638495376600,2.653376708984375,0.006191312335431576,-0.029802808538079262,-0.01121619250625372
1733699638505330400,2.663330322265625,0.0025378859136253595,-0.03404954820871353,-0.010319730266928673
1733699638515285200,2.67328515625,0.0003253314644098282,-0.037444815039634705,-0.007109023630619049
1733699638525240300,2.683240234375,0.0004028019029647112,-0.0378362312912941,-0.004768000915646553
1733699638535195400,2.6931953125,-0.0007383626652881503,-0.03362178057432175,-0.0009610119741410017
1733699638545150200,2.703150146484375,0.0005265604704618454,-0.03257398679852486,0.00008567841723561287
1733699638555104300,2.713104248046875,0.0010155169293284416,-0.027507852762937546,0.0015368348686024547
1733699638565059300,2.723059326171875,0.00006332201883196831,-0.01995822601020336,0.0027491876389831305
1733699638575014400,2.733014404296875,-0.00036704493686556816,-0.011081908829510212,0.0018935140687972307
1733699638584969200,2.74296923828125,-0.000808494514785707,0.0024542321916669607,0.00296952435746789
1733699638594924500,2.752924560546875,-0.003430110402405262,0.01583714969456196,0.0015082478057593107
1733699638604878300,2.76287841796875,-0.004134100861847401,0.0314851850271225,0.004563507623970509
1733699638614833400,2.77283349609375,-0.0052643464878201485,0.04389870911836624,0.003673745319247246
1733699638624788200,2.782788330078125,-0.005284838378429413,0.05284913629293442,0.003334284294396639
1733699638634743600,2.79274365234375,-0.00633252551779151,0.05946549400687218,0.0038895532488822937
1733699638644698400,2.802698486328125,-0.005894524976611137,0.06040080636739731,0.004100342746824026
1733699638654653200,2.812653076171875,-0.008092697709798813,0.05547129362821579,0.005700903013348579
1733699638664607200,2.822607177734375,-0.006208422593772411,0.046813081949949265,0.005030717700719833
1733699638674562600,2.8325625,-0.004659527912735939,0.040378883481025696,0.005890918895602226
1733699638684517400,2.842517333984375,-0.006013855338096619,0.03188488259911537,0.00510082021355629
1733699638694472200,2.85247216796875,-0.005637550726532936,0.023280475288629532,0.005457684397697449
1733699638704427300,2.86242724609375,-0.004694320261478424,0.015330564230680466,0.004473164677619934
1733699638714382300,2.87238232421875,-0.0037760622799396515,0.003858199343085289,0.0026017611380666494
1733699638724336400,2.88233642578125,-0.005951110273599625,-0.0009155237930826843,0.0030728867277503014
1733699638734291200,2.892291259765625,-0.007102394942194223,-0.005990710109472275,0.001089630532078445
1733699638744246300,2.902246337890625,-0.008023123256862164,-0.006872132886201143,0.0007002357160672545
1733699638754201300,2.912201416015625,-0.007529106922447681,-0.00625028507784009,-0.0004121665842831135
1733699638764156400,2.922156494140625,-0.006456281524151564,-0.005652288906276226,0.002190477680414915
1733699638774110200,2.932110107421875,-0.006450688932090998,-0.005911414511501789,0.0028259078972041607
1733699638784065300,2.942065185546875,-0.0038188989274203777,-0.0031635069753974676,0.003294060006737709
1733699638794020400,2.952020263671875,-0.001877188216894865,0.0007926188409328461,0.004316713660955429
1733699638803975400,2.961975341796875,-0.00010799500159919262,0.003156764665618539,0.0034109423868358135
1733699638813930200,2.97193017578125,0.0011271790135651827,0.008315839804708958,0.0023334273137152195
1733699638823884300,2.98188427734375,-0.0006593996658921242,0.010442400351166725,0.0005866498686373234
1733699638833839400,2.99183935546875,-0.0015659397467970848,0.01191060058772564,-0.0001401267945766449
1733699638843794400,3.00179443359375,-0.0015340021345764399,0.011133898049592972,0.00042279367335140705
1733699638853749200,3.011749267578125,-0.0013904578518122435,0.007040885742753744,-0.00009732157923281193
1733699638863704300,3.021704345703125,-0.0006920923478901386,0.0038772837724536657,0.0004947208799421787
1733699638873659400,3.031659423828125,-0.001436978462152183,0.0035406602546572685,0.0014542578719556332
1733699638883613400,3.041613525390625,0.0003854334354400635,0.007572760805487633,0.0013510177377611399
1733699638893568300,3.051568359375,0.0006083399057388306,0.005614272318780422,0.002940392354503274
1733699638903523300,3.0615234375,-0.0011595821706578135,0.0026795677840709686,0.006574091501533985
1733699638913478400,3.071478515625,-0.0013265623711049557,0.0018438678234815598,0.004929855465888977
1733699638923433200,3.08143310546875,-0.002623350592330098,-0.005367747973650694,0.00569220632314682
1733699638933387300,3.09138720703125,-0.004560533910989761,-0.017061954364180565,0.00514998659491539
1733699638943342300,3.10134228515625,-0.005390580277889967,-0.02705455757677555,0.005384826101362705
1733699638953297400,3.11129736328125,-0.0041817715391516685,-0.033830974251031876,0.0038668245542794466
1733699638963252200,3.121252197265625,-0.0030912875663489103,-0.034290868788957596,0.0030779754742980003
1733699638973207300,3.131207275390625,-0.001159696839749813,-0.0323113389313221,0.0011320036137476563
1733699638983162400,3.141162353515625,0.00014310632832348347,-0.02704048529267311,0.002345514018088579
1733699638993116400,3.151116455078125,0.003780984552577138,-0.022053983062505722,0.0006418899865821004
1733699639003071200,3.1610712890625,0.0025097299367189407,-0.009621787816286087,-0.00026758876629173756
1733699639013026300,3.1710263671875,0.004645585082471371,-0.004242469556629658,-0.0012513604015111923
1733699639022981400,3.1809814453125,0.0029022747185081244,0.0003926867211703211,-0.0022061930503696203
1733699639032936400,3.1909365234375,0.004132122732698917,0.003579691518098116,-0.001996069448068738
1733699639042890200,3.20089013671875,0.0034437323920428753,0.005115545354783535,-0.0005787494592368603
1733699639052845300,3.21084521484375,0.003595000132918358,0.00615524360910058,-0.0003499840386211872
1733699639062800400,3.22080029296875,0.005240622442215681,0.0071797664277255535,-0.0013281721621751785
1733699639072755500,3.23075537109375,0.005195881240069866,0.01168237254023552,-0.00013108132407069206
1733699639082710300,3.240710205078125,0.007626780774444342,0.01589987426996231,-0.00169880292378366
1733699639092665300,3.250665283203125,0.00713329715654254,0.018208302557468414,-0.0003424547612667084
1733699639102619400,3.260619384765625,0.005758663639426231,0.020852545276284218,0.0014174943789839745
1733699639112574500,3.270574462890625,0.007126196287572384,0.026018012315034866,0.00007392978295683861
1733699639122529300,3.280529296875,0.005793801508843899,0.027799593284726143,0.0011870390735566616
1733699639132484400,3.290484375,0.0042084213346242905,0.03275999799370766,-0.0013365724589675665
1733699639142439400,3.300439453125,0.00039878347888588905,0.03285752236843109,-0.003556867828592658
1733699639152393200,3.310393310546875,0.0008022524416446686,0.02567736990749836,-0.005633866414427757
1733699639162348300,3.320348388671875,-0.00017801020294427872,0.011423582211136818,-0.006124275736510754
1733699639172303400,3.330303466796875,0.0001519555225968361,-0.002715405775234103,-0.0022805354092270136
1733699639182258400,3.340258544921875,0.0038643209263682365,-0.022077810019254684,-0.0019230726175010204
1733699639192213200,3.350213134765625,0.00636769225820899,-0.043980974704027176,-0.0012495589908212423
1733699639202168600,3.36016845703125,0.006259548012167215,-0.06606728583574295,0.0005283174104988575
1733699639212122400,3.370122314453125,0.007808176334947348,-0.07994794100522995,0.0024615060538053513
1733699639222077400,3.380077392578125,0.008671315386891365,-0.08485977351665497,0.0020225762855261564
1733699639232032300,3.3900322265625,0.009678789414465427,-0.0836150124669075,0.0016721044667065144
1733699639241987600,3.399987548828125,0.007644220255315304,-0.0760606974363327,0.001500994898378849
1733699639251942400,3.4099423828125,0.005207161419093609,-0.06233317404985428,-0.0003661473747342825
1733699639261896400,3.419896484375,0.002406325424090028,-0.049060724675655365,-0.0010513975284993649
1733699639271851300,3.429851318359375,0.000049960799515247345,-0.034678321331739426,-0.0021659305784851313
1733699639281806300,3.439806396484375,-0.0031334413215517998,-0.016002057120203972,-0.0026513237971812487
1733699639291761400,3.449761474609375,-0.004279133398085833,-0.0018470906652510166,-0.002303515328094363
1733699639301716200,3.45971630859375,-0.005508226342499256,0.0197420846670866,-0.0006789746694266796
1733699639311671300,3.46967138671875,-0.0046994248405098915,0.04146122932434082,-0.00022463942877948284
1733699639321625300,3.479625244140625,-0.005371074192225933,0.05744259059429169,0.001422791974619031
1733699639331580400,3.489580322265625,-0.002382740844041109,0.07554329931735992,0.00015512737445533276
1733699639341535200,3.49953515625,-0.003610182087868452,0.0821530669927597,-0.00016169855371117592
1733699639351490300,3.509490234375,0.00046685105189681053,0.07866299897432327,-0.0010085836984217167
1733699639361445400,3.5194453125,-0.0022501058410853148,0.06708889454603195,-0.0017904879059642553
1733699639371399400,3.5293994140625,-0.0020383845549076796,0.049920566380023956,-0.002065325854346156
1733699639381354200,3.539354248046875,-0.002610697876662016,0.030422499403357506,-0.0035636203829199076
1733699639391309300,3.549309326171875,-0.0007555397460237145,0.012859751470386982,-0.004293059930205345
1733699639401264400,3.559264404296875,-0.0000014158431440591812,0.0007636823575012386,-0.0057400865480303764
1733699639411219500,3.569219482421875,0.0005653048865497112,-0.013241615146398544,-0.006235168315470219
1733699639421174300,3.57917431640625,0.0012802761048078537,-0.028933992609381676,-0.006638393737375736
1733699639431128300,3.58912841796875,-0.00020124041475355625,-0.04392572492361069,-0.00786344800144434
1733699639441083400,3.59908349609375,-0.00018790923058986664,-0.05723240226507187,-0.008938207291066647
1733699639451038500,3.60903857421875,0.0008142380975186825,-0.06746293604373932,-0.009091605432331562
1733699639460993300,3.6189931640625,-0.0023184739984571934,-0.07123896479606628,-0.008649950847029686
1733699639470948400,3.6289482421875,-0.003067088546231389,-0.06943174451589584,-0.010345852002501488
1733699639480902400,3.63890234375,-0.004447787068784237,-0.06045093014836311,-0.011113293468952179
1733699639490857500,3.648857421875,-0.005593478679656982,-0.048424895852804184,-0.00874254759401083
1733699639500812300,3.658812255859375,-0.001938377390615642,-0.035411883145570755,-0.007719758898019791
1733699639510767600,3.668767578125,-0.0005143851740285754,-0.025298528373241425,-0.005722654052078724
1733699639520723000,3.678722900390625,-0.0028994048479944468,-0.018772335723042488,-0.0033991087693721056
1733699639530677800,3.688677734375,-0.0019052468705922365,-0.01805887371301651,-0.0005780223291367292
1733699639540631800,3.6986318359375,0.0008925849106162786,-0.022208604961633682,0.0022911359556019306
1733699639550586600,3.708586669921875,0.00287104700691998,-0.025485357269644737,0.003762798849493265
1733699639560542000,3.7185419921875,0.00420193187892437,-0.02100931853055954,-0.0020874091424047947
1733699639570496800,3.728496826171875,0.00840892642736435,-0.016400450840592384,-0.008695777505636215
1733699639580451800,3.738451904296875,0.011427132412791252,-0.008834108710289001,-0.011373728513717651
1733699639590405600,3.748405517578125,0.01129690371453762,-0.008055401034653187,-0.007889781147241592
1733699639600361000,3.75836083984375,0.007470240350812674,-0.0048665981739759445,-0.005414210259914398
1733699639610315800,3.768315673828125,0.007120567839592695,0.005228113848716021,-0.002297779079526663
1733699639620270800,3.778270751953125,0.0035790419206023216,0.015033548697829247,-0.0023752457927912474
1733699639630225700,3.7882255859375,0.0030746394768357277,0.021337782964110374,-0.0030634065624326468
1733699639640180700,3.7981806640625,0.004402450285851955,0.028583994135260582,-0.0017620634753257036
1733699639650134800,3.808134765625,0.006632048636674881,0.03785152733325958,-0.0011226388160139322
1733699639660089900,3.81808984375,0.007577450014650822,0.04173029959201813,-0.0015623983927071095
1733699639670044700,3.828044677734375,0.009825157932937145,0.04474606364965439,-0.0022452326957136393
1733699639679999700,3.837999755859375,0.009566489607095718,0.04224810004234314,-0.0024245043750852346
1733699639689954800,3.847954833984375,0.011446149088442326,0.03508126735687256,-0.0032277137506753206
1733699639699908600,3.85790869140625,0.01078878529369831,0.025093520060181618,-0.0047751013189554214
1733699639709863700,3.86786376953125,0.010083047673106194,0.010912719182670116,-0.002421399811282754
1733699639719818800,3.87781884765625,0.01222755666822195,-0.0009492398821748793,-0.003499724669381976
1733699639729773800,3.88777392578125,0.010918879881501198,-0.013565964996814728,-0.003244061255827546
1733699639739728600,3.897728759765625,0.009963113814592361,-0.02132219634950161,-0.0013941950164735317
1733699639749684000,3.90768408203125,0.007800893858075142,-0.02505088783800602,-0.0024618564639240503
1733699639759637800,3.9176376953125,0.006093632895499468,-0.025471599772572517,-0.001041105017066002
1733699639769592800,3.9275927734375,0.006708023604005575,-0.024566125124692917,-0.0036818955559283495
1733699639779547600,3.937547607421875,0.004501294810324907,-0.025825999677181244,-0.005184347741305828
1733699639789503000,3.9475029296875,0.0059633697383105755,-0.023715179413557053,-0.006022178567945957
1733699639799457800,3.957457763671875,0.0022271801717579365,-0.021234428510069847,-0.00723699014633894
1733699639809411800,3.967411865234375,0.0018319669179618359,-0.021413924172520638,-0.006315004080533981
1733699639819366700,3.97736669921875,0.003576583694666624,-0.02535446174442768,-0.007243187166750431
1733699639829322000,3.987322021484375,0.001992535311728716,-0.02499413676559925,-0.006522003561258316
1733699639839276800,3.99727685546875,0.0032035885378718376,-0.025398291647434235,-0.0035845970269292593
1733699639849231600,4.007231689453125,0.004449149128049612,-0.02259318344295025,-0.0019267795141786337
1733699639859186700,4.017186767578125,0.004313691519200802,-0.016260890290141106,-0.003861474571749568
1733699639869140700,4.027140625,0.0026928919833153486,-0.010531366802752018,-0.0031344315502792597
1733699639879095800,4.037095703125,0.001250539906322956,-0.00822393037378788,-0.002544981660321355
1733699639889050600,4.047050537109375,0.001944559859111905,-0.00395355187356472,-0.0041367532685399055
1733699639899005700,4.057005615234375,0.00047716242261230946,-0.0011161682195961475,-0.00274101085960865
1733699639908960800,4.066960693359375,0.0035038450732827187,-0.00019737769616767764,-0.0018288781866431236
1733699639918914800,4.076914794921875,0.0019019695464521646,0.02213812619447708,-0.00028737098909914494
1733699639928869600,4.08686962890625,0.0021278054919093847,0.06426001340150833,0.002735316753387451
1733699639938824700,4.09682470703125,0.003325488418340683,0.12219502776861191,0.005075141787528992
1733699639948779800,4.10677978515625,0.003349190577864647,0.1839769035577774,0.003898556809872389
1733699639958734800,4.11673486328125,-0.0027533264365047216,0.23917214572429657,0.0007287809858098626
1733699639968689700,4.126689697265625,-0.005689461715519428,0.2726414203643799,-0.0037194970063865185
1733699639978643700,4.136643798828125,-0.006886729504913092,0.2824200391769409,-0.00515800341963768
1733699639988598800,4.146598876953125,-0.008363451808691025,0.26000580191612244,-0.002693248214200139
1733699639998553900,4.156553955078125,-0.007261738181114197,0.22299961745738983,-0.0010995101183652878
1733699640008508700,4.1665087890625,-0.0073381708934903145,0.18429216742515564,-0.000008413102477788925
1733699640018463700,4.176463623046875,-0.006245700176805258,0.13654062151908875,0.000015432946383953094
1733699640028418800,4.186418701171875,-0.007714433129876852,0.0887661725282669,-0.002488737227395177
1733699640038372900,4.196372802734375,-0.005115858279168606,0.04227960854768753,-0.0016266624443233013
1733699640048327700,4.20632763671875,-0.0004212380154058337,-0.007385948207229376,-0.0001123892143368721
1733699640058282800,4.21628271484375,0.003336119232699275,-0.05260412395000458,0.00046888773795217276
1733699640068237800,4.22623779296875,0.006925261579453945,-0.09187855571508408,0.0013037887401878834
1733699640078192600,4.236192626953125,0.008969813585281372,-0.12950950860977173,0.001945733092725277
1733699640088146700,4.246146728515625,0.008815083652734756,-0.15746285021305084,0.002478365320712328
1733699640098101800,4.256101806640625,0.008155410178005695,-0.17119473218917847,0.001495302189141512
1733699640108056800,4.266056884765625,0.009705902077257633,-0.17515431344509125,0.0006135295843705535
1733699640118011600,4.27601171875,0.006022300571203232,-0.16958405077457428,0.0005468151066452265
1733699640127967000,4.285967041015625,0.00772858876734972,-0.15831568837165833,-0.0018875806126743555
1733699640137920800,4.295920654296875,0.005762793123722076,-0.14017386734485626,-0.0023650035727769136
1733699640147875800,4.305875732421875,0.004155841656029224,-0.12039989233016968,-0.0016241117846220732
1733699640157830700,4.31583056640625,0.0043741874396800995,-0.0975661501288414,-0.0012943095061928034
1733699640167786000,4.325785888671875,0.005449838005006313,-0.08047930896282196,-0.0003851063083857298
1733699640177740800,4.33574072265625,0.0035330872051417828,-0.06828993558883667,0.0011083536082878709
1733699640187695600,4.345695556640625,0.0054534925147891045,-0.05603380501270294,0.0017863945104181767
1733699640197649700,4.355649658203125,0.001929513644427061,-0.04642721638083458,0.0019030194962397218
1733699640207604700,4.365604736328125,0.0015622638165950775,-0.03897169604897499,0.000842016190290451
1733699640217559800,4.375559814453125,0.001961054978892207,-0.031834788620471954,0.002177509479224682
1733699640227514600,4.3855146484375,0.0004616954829543829,-0.024820290505886078,0.0019892239943146706
1733699640237469700,4.3954697265625,-0.0008740504272282124,-0.016937026754021645,0.0005701382178813219
1733699640247424800,4.4054248046875,-0.0022583615500479937,-0.009249811992049217,0.000011407071724534035
1733699640257378800,4.41537890625,-0.001546145649626851,-0.00391686474904418,0.000057768309488892555
1733699640267333600,4.425333740234375,-0.003585594240576029,-0.0033000765834003687,0.003090842626988888
1733699640277288700,4.435288818359375,-0.0020946934819221497,-0.002976636402308941,0.0026333709247410297
1733699640287243800,4.445243896484375,0.000026780646294355392,-0.0019792825914919376,0.002679177327081561
1733699640297198800,4.45519873046875,0.0023606251925230026,-0.004233747720718384,0.006049325689673424
1733699640307152600,4.465152587890625,0.004684233106672764,-0.005640962161123753,0.0038088085129857063
1733699640317107700,4.475107666015625,0.003200340550392866,-0.010653172619640827,0.00593701284378767
1733699640327062800,4.485062744140625,0.004376925062388182,-0.014798115938901901,0.007576720789074898
1733699640337017900,4.495017822265625,0.0008461275137960911,-0.014290393330156803,0.008032193407416344
1733699640346972700,4.50497265625,-0.0011903918348252773,-0.012285832315683365,0.0069871689192950726
1733699640356927700,4.514927734375,-0.003508236724883318,-0.0018614621367305517,0.005090885329991579
1733699640366881800,4.5248818359375,-0.003270949237048626,0.013314295560121536,0.0018932279199361801
1733699640376836900,4.5348369140625,-0.0013286551693454385,0.029029881581664085,-0.002568376250565052
1733699640386791700,4.544791748046875,0.0018311853054910898,0.03608326241374016,-0.004441643599420786
1733699640396746800,4.554746826171875,-0.00027328217402100563,0.031972210854291916,-0.005787503905594349
1733699640406701800,4.564701904296875,0.0026330254040658474,0.01766464300453663,-0.005130235105752945
1733699640416656000,4.57465576171875,0.004633499309420586,-0.001911255531013012,-0.0054689450189471245
1733699640426610700,4.584610595703125,0.004865727387368679,-0.019825540482997894,-0.003582361387088895
1733699640436565800,4.594565673828125,0.006964718457311392,-0.038772691041231155,-0.004270617850124836
1733699640446520800,4.604520751953125,0.006482153665274382,-0.04884742945432663,-0.004089522175490856
1733699640456475600,4.6144755859375,0.004061183892190456,-0.05269664525985718,-0.005330883897840977
1733699640466430700,4.6244306640625,0.0020880477968603373,-0.05229504033923149,-0.006921590305864811
1733699640476384800,4.634384765625,-0.0016489210538566113,-0.04604501649737358,-0.005231729708611965
1733699640486339800,4.64433984375,-0.0032500135712325573,-0.039029985666275024,-0.006914847530424595
1733699640496294700,4.654294677734375,-0.003314782865345478,-0.029479658231139183,-0.007762391120195389
1733699640506250000,4.66425,-0.003908934071660042,-0.020236624404788017,-0.007809529080986977
1733699640516204800,4.674204833984375,-0.0036184596829116344,-0.015187506563961506,-0.005790339317172766
1733699640526158800,4.684158935546875,-0.0000061478931456804276,-0.01042843796312809,-0.003433708567172289
1733699640536113700,4.69411376953125,-0.0007432518759742379,-0.008709311485290527,-0.0024462384171783924
1733699640546069000,4.704069091796875,-0.000273736659437418,-0.004822960123419762,-0.0018494236283004284
1733699640556023800,4.71402392578125,-0.001808585599064827,0.0011941075790673494,-0.0006428281776607037
1733699640565979000,4.723978759765625,-0.0020772984717041254,0.005577137693762779,0.000021896790713071823
1733699640575934000,4.733933837890625,-0.002603944158181548,0.011498385109007359,-0.0002534647937864065
1733699640585888000,4.743887939453125,-0.004043382592499256,0.014021997340023518,-0.0009173909202218056
1733699640595842800,4.7538427734375,-0.0025544629897922277,0.014235257171094418,-0.0017477329820394516
1733699640605798000,4.7637978515625,-0.0030615287832915783,0.013784384354948997,-0.0022329608909785748
1733699640615753000,4.7737529296875,-0.003199734492227435,0.007242669817060232,-0.00036918953992426395
1733699640625707800,4.783707763671875,-0.0037720478139817715,0.00069688621442765,0.0018159341998398304
1733699640635661800,4.793661865234375,-0.0037030307576060295,-0.005951178725808859,0.004277104511857033
1733699640645617000,4.803616943359375,-0.004105168394744396,-0.007977045141160488,0.005096559412777424
1733699640655572000,4.813572021484375,-0.0053824614733457565,-0.009037233889102936,0.003623954253271222
1733699640665526800,4.82352685546875,-0.006160104181617498,-0.012764593586325645,0.002989322878420353
1733699640675481900,4.83348193359375,-0.007390688639134169,-0.013314960524439812,0.003782361513003707
1733699640685437000,4.84343701171875,-0.0055453842505812645,-0.013758376240730286,0.003517110599204898
1733699640695391000,4.853390869140625,-0.00602633785456419,-0.015474976971745491,0.004559030756354332
1733699640705345800,4.863345703125,-0.0066979872062802315,-0.02119438163936138,0.0031507513485848904
1733699640715300900,4.87330078125,-0.0052756499499082565,-0.02687661163508892,0.004218997433781624
1733699640725256000,4.883255859375,-0.003610908053815365,-0.035130277276039124,0.004356416407972574
1733699640735211000,4.8932109375,-0.00270224642008543,-0.042229488492012024,0.006287628784775734
1733699640745164800,4.903164794921875,0.0010493486188352108,-0.051147881895303726,0.00521197821944952
1733699640755119900,4.913119873046875,0.0012762278784066439,-0.05546153336763382,0.004688061773777008
1733699640765074700,4.92307470703125,0.0025830413214862347,-0.05624236911535263,0.0005801360821351409
1733699640775030000,4.933030029296875,0.0031935821752995253,-0.05860508233308792,0.0031232903711497784
1733699640784984800,4.94298486328125,0.0016982171218842268,-0.05954677611589432,0.0028649638406932354
1733699640794939600,4.952939697265625,0.0035784137435257435,-0.05799916014075279,0.0045661707408726215
1733699640804893700,4.962893798828125,0.003418890293687582,-0.05965511128306389,0.00803067721426487
1733699640814849000,4.97284912109375,0.004852674901485443,-0.060378801077604294,0.009031543508172035
1733699640824803800,4.982803955078125,0.006496644578874111,-0.054536089301109314,0.007364138960838318
1733699640834758700,4.992758544921875,0.003987680189311504,-0.04695380479097366,0.008668554946780205
1733699640844714000,5.0027138671875,-0.0008550117490813136,-0.03229762986302376,0.006090082228183746
1733699640854668800,5.012668701171875,-0.0012037368724122643,-0.00848330371081829,0.00487112533301115
1733699640864622800,5.022622802734375,-0.004554259590804577,0.019398927688598633,0.0016433739801868796
1733699640874577700,5.03257763671875,-0.005840866360813379,0.0424627922475338,-0.0029088209848850965
1733699640884533000,5.042532958984375,-0.007095747627317905,0.06147083640098572,-0.004209242761135101
1733699640894487800,5.05248779296875,-0.007421718444675207,0.06908481568098068,-0.005843358114361763
1733699640904443000,5.06244287109375,-0.0037175279576331377,0.06506238132715225,-0.008474827744066715
1733699640914396700,5.072396728515625,-0.0005731004057452083,0.05558862164616585,-0.007495263125747442
1733699640924352000,5.08235205078125,0.0007931012660264969,0.029942648485302925,-0.00035239895805716515
1733699640934306800,5.092306884765625,0.002187051111832261,0.006628862116485834,0.0007431937847286463
1733699640944262000,5.102261962890625,0.005201216787099838,-0.013234591111540794,-0.00036308332346379757
1733699640954217000,5.112217041015625,0.005790962837636471,-0.02784370444715023,0.00010539637878537178
1733699640964171800,5.122171875,0.0062050847336649895,-0.036844924092292786,0.0010558785870671272
1733699640974125800,5.132125732421875,0.005964926443994045,-0.03810741752386093,-0.00031090714037418365
1733699640984081000,5.142080810546875,0.00498834578320384,-0.029643891379237175,-0.001005193218588829
1733699640994036000,5.152035888671875,0.0030541541054844856,-0.015546873211860657,-0.0012651681900024414
1733699641003990800,5.16199072265625,0.003004619386047125,0.0019684715662151575,-0.0013344103936105967
1733699641013945900,5.17194580078125,0.0011829547584056854,0.02272930182516575,-0.0015303685795515776
1733699641023900000,5.18189990234375,-0.0008690108079463243,0.04294136166572571,-0.0009516638237982988
1733699641033855000,5.19185498046875,0.00003220280632376671,0.06362320482730865,0.0004883074434474111
1733699641043809800,5.201809814453125,-0.0028681298717856407,0.07785583287477493,0.0015409730840474367
1733699641053764900,5.211764892578125,-0.0023074387572705746,0.08604829758405685,0.0014870238956063986
1733699641063719700,5.2217197265625,-0.004163928329944611,0.08529914915561676,0.0018705190159380436
1733699641073675000,5.231675048828125,-0.008025947958230972,0.07330004870891571,0.001172617427073419
1733699641083628800,5.24162890625,-0.008903194218873978,0.049274079501628876,-0.00015656626783311367
1733699641093584000,5.251583984375,-0.009588886983692646,0.022573087364435196,-0.0006665003020316362
1733699641103538700,5.26153857421875,-0.007826939225196838,-0.002510692924261093,0.0016017139423638582
1733699641113494000,5.271493896484375,-0.004703867249190807,-0.02326158434152603,0.0026024370454251766
1733699641123448800,5.28144873046875,-0.0030985139310359955,-0.03414858505129814,0.003912446089088917
1733699641133403000,5.29140283203125,-0.0018032273510470986,-0.03411281853914261,0.003967266529798508
1733699641143357700,5.301357666015625,-0.0018447727197781205,-0.02784906141459942,0.0034727174788713455
1733699641153313000,5.31131298828125,-0.0016211273614317179,-0.013725096359848976,0.0019904531072825193
1733699641163267800,5.321267822265625,-0.0006658515194430947,0.004718092270195484,0.0031505259685218334
1733699641173222700,5.33122265625,-0.00037366291508078575,0.02467181161046028,0.0012989736860617995
1733699641183178000,5.341177978515625,0.0009193017613142729,0.04734037071466446,0.0016230803448706865
1733699641193132000,5.351132080078125,0.0019283737055957317,0.06750476360321045,0.00219273054972291
1733699641203086800,5.3610869140625,0.0024085412733256817,0.08655302226543427,0.001023602788336575
1733699641213041700,5.371041748046875,0.0018892609514296055,0.10038940608501434,-0.0009680113289505243
1733699641222997000,5.3809970703125,0.0011662128381431103,0.10345897078514099,-0.0014835994224995375
1733699641232951800,5.390951904296875,0.0009818861726671457,0.09267482906579971,-0.003982873633503914
1733699641242905900,5.40090576171875,0.0007840131875127554,0.07159750908613205,-0.004753059707581997
1733699641252860700,5.410860595703125,-0.00012931390665471554,0.04026464372873306,-0.005253211595118046
1733699641262816000,5.42081591796875,-0.0022023185156285763,0.008885416202247143,-0.004373303148895502
1733699641272770800,5.430770751953125,-0.00021196785382926464,-0.024029431864619255,-0.0042538391426205635
1733699641282726000,5.440725830078125,0.0031691817566752434,-0.05485977977514267,-0.004924689419567585
1733699641292680700,5.4506806640625,0.0024207518436014652,-0.07416050136089325,-0.003209478687494993
1733699641302635000,5.460635009765625,0.002003168221563101,-0.0854850634932518,-0.003184977453202009
1733699641312589800,5.47058984375,0.0007577638607472181,-0.08947190642356873,-0.004227433353662491
1733699641322545000,5.480544921875,0.00004803156480193138,-0.08652511984109879,-0.004952878691256046
1733699641332499700,5.490499755859375,-0.0016920567722991109,-0.07764654606580734,-0.006260951515287161
1733699641342454800,5.500454833984375,-0.0026902095414698124,-0.06359570473432541,-0.004888890776783228
1733699641352408800,5.510408935546875,-0.001836495939642191,-0.05255800858139992,-0.006110062822699547
1733699641362364000,5.520364013671875,-0.002271123928949237,-0.04925409331917763,-0.004842664115130901
1733699641372318700,5.530318603515625,-0.003780241357162595,-0.046782370656728745,-0.00362309068441391
1733699641382273800,5.540273681640625,-0.00401699636131525,-0.046677976846694946,-0.0034278808161616325
1733699641392228900,5.550228759765625,-0.0045431856997311115,-0.04693976044654846,-0.0016875150613486767
1733699641402183700,5.56018359375,-0.0020768323447555304,-0.04639940336346626,-0.001103217713534832
1733699641412137700,5.5701376953125,-0.003047626931220293,-0.04261891171336174,-0.002802909119054675
1733699641422092800,5.5800927734375,-0.0019325613975524902,-0.03553756698966026,-0.00170275685377419
1733699641432047900,5.5900478515625,-0.0002586035989224911,-0.025317003950476646,-0.001120526809245348
1733699641442002700,5.600002685546875,0.0022857803851366043,-0.013873400166630745,-0.0012001553550362587
1733699641451958000,5.6099580078125,0.002294132485985756,-0.0011887226719409227,0.0007477933540940285
1733699641461911800,5.619911865234375,0.002363108564168215,0.013713261112570763,0.002174715045839548
1733699641471867000,5.629866943359375,0.0014428040012717247,0.027839725837111473,0.002437167800962925
1733699641481821700,5.63982177734375,0.0038433775771409273,0.04135500267148018,0.0030811200849711895
1733699641491777000,5.649777099609375,0.003890817053616047,0.05296657979488373,0.0019992415327578783
1733699641501731800,5.65973193359375,0.001700899563729763,0.05713522806763649,0.002342789201065898
1733699641511686400,5.669686279296875,0.0023254617117345333,0.056959494948387146,0.0013580771628767252
1733699641521640200,5.67964013671875,0.0014215847477316856,0.05119561403989792,0.0005559331038966775
1733699641531595300,5.68959521484375,0.000521844020113349,0.037137046456336975,0.0014881620882079005
1733699641541550300,5.69955029296875,0.00028136069886386395,0.024322716519236565,-0.0004708592314273119
1733699641551505400,5.70950537109375,0.002795435953885317,0.012532990425825119,0.0010038360487669706
1733699641561460200,5.719460205078125,0.0015541366301476955,-0.001933567225933075,-0.0000880600418895483
1733699641571414300,5.729414306640625,0.00212035421282053,-0.00611825892701745,0.0014660569140687585
1733699641581369300,5.739369384765625,0.0013626848813146353,-0.01184272300451994,-0.001269542146474123
1733699641591324400,5.749324462890625,0.0015940116718411446,-0.009809226728975773,-0.00030929921194911003
1733699641601279200,5.759279296875,-0.00045742117799818516,-0.009347700513899326,-0.0008453936316072941
1733699641611234300,5.769234375,-0.0008683470077812672,-0.006040321197360754,-0.0016733703669160604
1733699641621189400,5.779189453125,-0.001701117493212223,-0.006453377660363913,-0.0026704578194767237
1733699641631143400,5.789143310546875,-0.00010822108015418053,-0.006699344143271446,-0.0011708829551935196
1733699641641098200,5.79909814453125,0.00014637713320553303,-0.005716371349990368,-0.0002667396329343319
1733699641651053300,5.80905322265625,0.0012130369432270527,-0.006644907407462597,-0.0007219240069389343
1733699641661008400,5.81900830078125,0.0017240974120795727,-0.006811621133238077,0.0011406908743083477
1733699641670963200,5.828963134765625,0.001600367482751608,-0.009621672332286835,0.0011278449092060328
1733699641680917200,5.838917236328125,0.001321268267929554,-0.008012590929865837,0.0017643403261899948
1733699641690872300,5.848872314453125,0.0035513590555638075,-0.00372701627202332,0.00018520886078476906
1733699641700827400,5.858827392578125,0.0006698188371956348,0.00006159697659313679,-0.0003045464400202036
1733699641710782200,5.8687822265625,0.003472569864243269,0.0054648686200380325,-0.0011321136262267828
1733699641720737500,5.878737548828125,0.0033503305166959763,0.010395444929599762,-0.00039495062083005905
1733699641730692400,5.8886923828125,0.0033897662069648504,0.011487732641398907,0.00048263289500027895
1733699641740646400,5.898646484375,0.004191909916698933,0.007597919553518295,0.0028499169275164604
1733699641750601200,5.908601318359375,0.0037751616910099983,0.0018459034617990255,0.002116135321557522
1733699641760556500,5.918556640625,0.0023964433930814266,-0.002657235600054264,0.002691378351300955
1733699641770511400,5.928511474609375,0.0011955341324210167,-0.004846291150897741,0.0038608843460679054
1733699641780466400,5.938466552734375,-0.000805565039627254,-0.001770340371876955,0.005020691081881523
1733699641790420200,5.948420166015625,-0.002910685958340764,0.005504466127604246,0.0034427056089043617
1733699641800375600,5.95837548828125,-0.005776513367891312,0.015439389273524284,0.0009364046854898334
1733699641810330400,5.968330322265625,-0.007392996456474066,0.023511728271842003,-0.0013380753807723522
1733699641820285400,5.978285400390625,-0.009287569671869278,0.02771472930908203,-0.0031804502941668034
1733699641830240300,5.988240234375,-0.010279898531734943,0.028194725513458252,-0.002245201962068677
1733699641840195300,5.9981953125,-0.00884924829006195,0.024702254682779312,0.00038360420148819685
1733699641850149400,6.0081494140625,-0.0054854415357112885,0.019845247268676758,-0.0005641113966703415
1733699641860104400,6.0181044921875,-0.004068906418979168,0.016643861308693886,0.0007895732996985316
1733699641870059300,6.028059326171875,-0.0030261087231338024,0.015072821639478207,0.0013860086910426617
1733699641880014300,6.038014404296875,-0.0012859993148595095,0.018571948632597923,0.0020336895249783993
1733699641889969400,6.047969482421875,-0.0022630803287029266,0.02098044566810131,0.0007957486668601632
1733699641899923200,6.057923095703125,-0.0032591023482382298,0.022797519341111183,-0.0007456890307366848
1733699641909878300,6.067878173828125,-0.00386118795722723,0.026128659024834633,-0.0005316014867275953
1733699641919833300,6.077833251953125,-0.004078235477209091,0.02701762318611145,-0.0005592983216047287
1733699641929788400,6.087788330078125,-0.004397849552333355,0.02959243394434452,-0.0019248647149652243
1733699641939743200,6.0977431640625,-0.003325927071273327,0.029853956773877144,-0.001705686328932643
1733699641949698600,6.107698486328125,-0.003762706182897091,0.029494304209947586,-0.0023622275330126286
1733699641959652400,6.11765234375,-0.0008912859484553337,0.027425827458500862,-0.0042999438010156155
1733699641969607400,6.127607421875,-0.00016945763491094112,0.01992728002369404,-0.0013625379651784897
1733699641979562200,6.137562255859375,0.0023645402397960424,0.010701823979616165,-0.0026685523334890604
1733699641989517600,6.147517578125,0.003404775634407997,-0.0011984601151198149,-0.0018611024133861065
1733699641999472400,6.157472412109375,0.004848475102335215,-0.012842332944273949,0.0008140431018546224
1733699642009427200,6.16742724609375,0.0034809005446732044,-0.022543946281075478,-0.00012593017891049385
1733699642019381200,6.17738134765625,0.006579754874110222,-0.029448192566633224,-0.0011730850674211979
1733699642029336600,6.187336669921875,0.007173660211265087,-0.03584897145628929,-0.003035894362255931
1733699642039291400,6.19729150390625,0.00700987596064806,-0.03961761295795441,-0.002524301176890731
1733699642049246200,6.20724609375,0.004582097753882408,-0.0394602008163929,-0.001958256820216775
1733699642059201300,6.217201171875,0.003727755742147565,-0.03433787822723389,-0.002490889048203826
1733699642069155300,6.2271552734375,0.002100946381688118,-0.029262259602546692,-0.00301960832439363
1733699642079110400,6.2371103515625,0.0037920535542070866,-0.02276068553328514,-0.004407647997140884
1733699642089065200,6.247065185546875,0.0033914181403815746,-0.019558010622859,-0.0006364581640809774
1733699642099020300,6.257020263671875,0.0042763869278132915,-0.017092721536755562,0.00020297011360526085
1733699642108975400,6.266975341796875,0.008241267874836922,-0.019034897908568382,0.0003269100561738014
1733699642118930400,6.276930419921875,0.004420696757733822,-0.021532410755753517,0.0007351725362241268
1733699642128884200,6.28688427734375,0.0022747155744582415,-0.026804987341165543,-0.0007492534350603819
1733699642138839300,6.29683935546875,-0.0012622284702956676,-0.022144988179206848,-0.001273363595828414
1733699642148794400,6.30679443359375,-0.002428788226097822,-0.011835667304694653,-0.0016202195547521114
1733699642158749400,6.31674951171875,-0.004697535187005997,0.002935821423307061,-0.000800764886662364
1733699642168704300,6.326704345703125,-0.007685351185500622,0.015915196388959885,-0.0014759683981537819
1733699642178658300,6.336658203125,-0.0074547212570905685,0.02534225396811962,-0.0005957935936748981
1733699642188613400,6.34661328125,-0.0042536621913313866,0.028624489903450012,-0.000991488341242075
1733699642198568400,6.356568359375,-0.0004069922724738717,0.02325049787759781,0.0010357098653912544
1733699642208523300,6.366523193359375,0.001675990642979741,0.013020981103181839,0.0031592135783284903
1733699642218478300,6.376478271484375,0.003736478043720126,-0.00202481378801167,0.003581324592232704
1733699642228433400,6.386433349609375,0.0033081932924687862,-0.013192282058298588,0.0042706928215920925
1733699642238387500,6.396387451171875,0.0035436167381703854,-0.024228421971201897,0.002679720288142562
1733699642248342300,6.40634228515625,0.002193644642829895,-0.03425556421279907,0.00018344726413488388
1733699642258297300,6.41629736328125,0.00013795075938105583,-0.035051848739385605,-0.0012043260503560305
1733699642268252400,6.42625244140625,-0.0018029401544481516,-0.0350692979991436,-0.001910257851704955
1733699642278207200,6.436207275390625,-0.001500937738455832,-0.030721956863999367,-0.0023014761973172426
1733699642288161300,6.446161376953125,-0.0021849332842975855,-0.02350802533328533,-0.0031010699458420277
1733699642298116400,6.456116455078125,-0.0010701341088861227,-0.015002955682575703,-0.0034795054234564304
1733699642308071400,6.466071533203125,-0.0007914575980976224,-0.00617126515135169,-0.004863345995545387
1733699642318026200,6.476026123046875,-0.0009858682751655579,-0.0038079761434346437,-0.0035685168113559484
1733699642327981300,6.485981201171875,0.0011971648782491684,-0.0010990244336426258,-0.004506338853389025
1733699642337936400,6.495936279296875,0.00020806677639484406,-0.006845592986792326,-0.00474655581638217
1733699642347890400,6.505890380859375,0.00012410222552716732,-0.013940969482064247,-0.005125830881297588
1733699642357845200,6.51584521484375,-0.0006870966171845794,-0.020170103758573532,-0.004929022863507271
1733699642367800300,6.52580029296875,0.0008100369013845921,-0.027491440996527672,-0.007497222162783146
1733699642377755400,6.53575537109375,0.001645736861974001,-0.03213119879364967,-0.007253277115523815
1733699642387710200,6.545710205078125,0.0020318201277405024,-0.035850487649440765,-0.005793373100459576
1733699642397664300,6.555664306640625,0.002134618116542697,-0.036645710468292236,-0.007718571461737156
1733699642407619300,6.565619384765625,0.0017355401068925858,-0.03611869364976883,-0.0065843211486935616
1733699642417574400,6.575574462890625,0.0007839926984161139,-0.03467819094657898,-0.008486883714795113
1733699642427529200,6.585529296875,0.0006096174474805593,-0.03218855708837509,-0.008882679976522923
1733699642437484300,6.595484375,-0.000745132565498352,-0.03116617165505886,-0.009315176866948605
1733699642447439400,6.605439453125,-0.00017369934357702732,-0.02776288613677025,-0.011666503734886646
1733699642457393400,6.615393310546875,-0.001139627886004746,-0.023163340985774994,-0.010658230632543564
1733699642467348200,6.62534814453125,0.00027525355108082294,-0.016524137929081917,-0.01616002433001995
1733699642477303300,6.63530322265625,-0.000028879381716251373,-0.010243603959679604,-0.017267366871237755
1733699642487258400,6.64525830078125,0.005550135858356953,-0.0011278779711574316,-0.021742794662714005
1733699642497213400,6.65521337890625,0.006060664542019367,0.0034181380178779364,-0.01598956808447838
1733699642507167500,6.66516748046875,0.0035262303426861763,-0.0019094503950327635,-0.010534393601119518
1733699642517122600,6.67512255859375,-0.001475452445447445,-0.004238118417561054,-0.007531412877142429
1733699642527077400,6.685077392578125,-0.002835905645042658,-0.006024149712175131,-0.005017060786485672
1733699642537032400,6.695032470703125,-0.0037642833776772022,-0.0010293908417224884,-0.00440480001270771
1733699642546987500,6.704987548828125,-0.0063900877721607685,0.010876134969294071,-0.004618323873728514
1733699642556942300,6.7149423828125,-0.007272659335285425,0.028580831363797188,-0.005987188778817654
1733699642566896400,6.724896484375,-0.009443046525120735,0.047259729355573654,-0.004934706259518862
1733699642576851500,6.7348515625,-0.005929538980126381,0.06039657071232796,-0.0041871569119393826
1733699642586806500,6.744806640625,-0.005568158812820911,0.0665537491440773,-0.00219296314753592
1733699642596761300,6.75476123046875,-0.0036339047364890575,0.06913115829229355,-0.0015892244409769773
1733699642606716400,6.76471630859375,-0.005160057917237282,0.06688159704208374,-0.0025844424962997437
1733699642616670500,6.77467041015625,-0.00506205391138792,0.06486958265304565,-0.0036963121965527534
1733699642626625500,6.78462548828125,-0.004481838084757328,0.065921850502491,-0.005039523355662823
1733699642636580400,6.794580322265625,-0.005824071355164051,0.0665796548128128,-0.0035747848451137543
1733699642646535400,6.804535400390625,-0.0047680288553237915,0.06384894251823425,-0.003846069099381566
1733699642656490500,6.814490478515625,-0.003690247656777501,0.05971677973866463,-0.0041179778054356575
1733699642666445600,6.824445556640625,-0.0019469272810965776,0.05101098120212555,-0.0010752242524176836
1733699642676399400,6.8343994140625,-0.0005591539666056633,0.03561418130993843,-0.0012081160675734282
1733699642686354400,6.8443544921875,0.0015139651950448751,0.019446298480033875,0.002973231254145503
1733699642696309500,6.8543095703125,0.003805082757025957,0.0029647923074662685,0.001539385411888361
1733699642706264600,6.8642646484375,0.006064177490770817,-0.013932564295828342,0.0030943453311920166
1733699642716219400,6.874219482421875,0.0056415339931845665,-0.026517599821090698,0.002048522001132369
1733699642726173400,6.88417333984375,0.006602181121706963,-0.03621256351470947,0.0031060511246323586
1733699642736128500,6.89412841796875,0.007500199601054192,-0.03980756551027298,0.00041492702439427376
1733699642746083600,6.90408349609375,0.00871000625193119,-0.04450817406177521,-0.0009492046665400267
1733699642756038400,6.914038330078125,0.0057243360206484795,-0.04857216030359268,-0.0006397452671080828
1733699642765993500,6.923993408203125,0.005818241275846958,-0.05299150198698044,-0.001823880011215806
1733699642775948500,6.933948486328125,0.006390022113919258,-0.05690395087003708,-0.0011588884517550468
1733699642785902600,6.943902587890625,0.0053863730281591415,-0.05413768067955971,-0.0015278898645192385
1733699642795857400,6.953857421875,0.005147220566868782,-0.048045702278614044,-0.0043921200558543205
1733699642805812500,6.9638125,0.007145272567868233,-0.04002844914793968,-0.006871550809592009
1733699642815767600,6.973767578125,0.00802944228053093,-0.03219928592443466,-0.008210055530071259
1733699642825722400,6.983722412109375,0.007136963307857513,-0.020625486969947815,-0.007497252896428108
1733699642835676400,6.993676513671875,0.007556677795946598,-0.013874641619622707,-0.0036330062430351973
1733699642845631500,7.003631591796875,0.004840177949517965,-0.007620124612003565,-0.0027347628492861986
1733699642855586600,7.013586669921875,0.0030017979443073273,-0.008031316101551056,-0.004073534160852432
1733699642865541400,7.023541259765625,0.005385593511164188,-0.0068411496467888355,-0.0032780475448817015
1733699642875496400,7.033496337890625,0.0045221964828670025,-0.012159748002886772,-0.0024591258261352777
1733699642885451500,7.043451416015625,0.004523814655840397,-0.016307761892676353,-0.0019309490453451872
1733699642895405600,7.053405517578125,0.003117399523034692,-0.017715509980916977,0.0005007833242416382
1733699642905360400,7.0633603515625,0.0015916540287435055,-0.014297201298177242,0.0010349417570978403
1733699642915315500,7.0733154296875,0.00027259043417871,-0.006219834089279175,-0.00009317323565483093
1733699642925270500,7.0832705078125,-0.0013773147948086262,0.006025678012520075,-0.001570714870467782
1733699642935225600,7.0932255859375,-0.0038657723926007748,0.021245377138257027,-0.004353984259068966
1733699642945180400,7.103180419921875,-0.004139297176152468,0.03475120663642883,-0.00578790158033371
1733699642955134500,7.113134521484375,-0.0044972263276577,0.043077580630779266,-0.0069602252915501595
1733699642965089500,7.123089599609375,-0.001836421201005578,0.04745771735906601,-0.00401198398321867
1733699642975044600,7.133044677734375,-0.0006100356113165617,0.04434554651379585,-0.002223671181127429
1733699642984999400,7.14299951171875,0.0011769230477511883,0.036342840641736984,-0.0018737826030701399
1733699642994954500,7.15295458984375,0.003415842540562153,0.022246992215514183,-0.0025627424474805593
1733699643004908500,7.162908447265625,0.003862349782139063,0.007947351783514023,-0.0016537641640752554
1733699643014863600,7.172863525390625,0.0036700693890452385,-0.0067471726797521114,-0.003076424589380622
1733699643024818400,7.182818359375,0.0010876469314098358,-0.02195543609559536,-0.00435486389324069
1733699643034773500,7.1927734375,0.003038145834580064,-0.03226080536842346,-0.004434226080775261
1733699643044728600,7.202728515625,0.0007102435920387506,-0.04183291643857956,-0.003323208773508668
1733699643054683400,7.212683349609375,0.002606946974992752,-0.04386277496814728,-0.0018270446453243494
1733699643064637400,7.222637451171875,0.002636525547131896,-0.040104448795318604,-0.0011654228437691927
1733699643074592500,7.232592529296875,0.003414967330172658,-0.03514590859413147,-0.0016525150276720524
1733699643084547600,7.242547607421875,0.0046226936392486095,-0.03130863606929779,0.000049152178689837456
1733699643094502400,7.25250244140625,0.0035358574241399765,-0.02527710609138012,-0.0005452653858810663
1733699643104457500,7.26245751953125,0.001973551232367754,-0.022461388260126114,-0.0002170102670788765
1733699643114411500,7.27241162109375,-0.00014099851250648499,-0.020055223256349564,-0.0007429847028106451
1733699643124366600,7.28236669921875,0.0009550952818244696,-0.016104288399219513,-0.00044237333349883556
1733699643134321400,7.2923212890625,0.0017338036559522152,-0.011504210531711578,0.0009866789914667606
1733699643144276500,7.3022763671875,0.0008473373018205166,-0.0024430069606751204,0.0013181999092921615
1733699643154231600,7.3122314453125,0.0001123049296438694,0.007502834778279066,0.0005043379496783018
1733699643164186400,7.322186279296875,0.0013895758893340826,0.017457032576203346,0.000599640654399991
1733699643174140400,7.332140380859375,-0.0010051385033875704,0.02549045719206333,0.0011312076821923256
1733699643184095500,7.342095458984375,0.0007601198740303516,0.026771629229187965,0.001549618085846305
1733699643194050600,7.352050537109375,-0.0008026231080293655,0.0236783679574728,0.0007586592109873891
1733699643204005400,7.36200537109375,0.000454331049695611,0.014524973928928375,0.0021597999148070812
1733699643213960400,7.37196044921875,0.0009672560263425112,0.0035495543852448463,0.0008620416047051549
1733699643223914500,7.38191455078125,0.0010196631774306297,-0.0041547613218426704,0.0015417104586958885
1733699643233869600,7.39186962890625,0.0004201855044811964,-0.00920065212994814,0.0014082860434427857
1733699643243824400,7.401824462890625,0.0006744281854480505,-0.008526862598955631,-0.0005037300288677216
1733699643253779500,7.411779541015625,0.00040331832133233547,-0.004456753842532635,-0.0013783120084553957
1733699643263734500,7.421734619140625,0.00006098533049225807,0.005164015106856823,-0.0010019256733357906
1733699643273689600,7.431689697265625,-0.001159008708782494,0.01164934504777193,-0.0014080577529966831
1733699643283643400,7.441643310546875,0.00027816323563456535,0.014419805258512497,-0.0010626357980072498
1733699643293598500,7.451598388671875,-0.0012361099943518639,0.012633888982236385,0.00011581298895180225
1733699643303553500,7.461553466796875,-0.000492419465444982,0.00806073471903801,-0.0009364120196551085
1733699643313508600,7.471508544921875,-0.0008652620017528534,0.00041266914922744036,-0.0016765042673796415
1733699643323463400,7.48146337890625,-0.0008319821208715439,-0.0058149415999650955,-0.0010190603788942099
1733699643333417500,7.49141748046875,-0.001457025995478034,-0.011970038525760174,0.0008094660006463528
1733699643343372500,7.50137255859375,0.0011827056296169758,-0.017253462225198746,0.00034618726931512356
1733699643353327600,7.51132763671875,0.001022916054353118,-0.021031955257058144,0.00009957863949239254
1733699643363282400,7.521282470703125,0.0017820368520915508,-0.019712407141923904,0.001676067360676825
1733699643373237200,7.5312373046875,0.0010222368873655796,-0.017530212178826332,0.002548519056290388
1733699643383192600,7.541192626953125,0.0017840373329818249,-0.011412981897592545,0.0023761147167533636
1733699643393146600,7.551146728515625,0.0005142423324286938,-0.005714882165193558,0.0016559959622099996
1733699643403101400,7.561101318359375,0.00036884681321680546,0.00005980028072372079,0.0015547089278697968
1733699643413056300,7.57105615234375,0.001719069667160511,0.004008735530078411,0.0016761489678174257
1733699643423011600,7.581011474609375,0.0003557575400918722,0.00568622350692749,0.0009391308994963765
1733699643432966400,7.59096630859375,0.0023960054386407137,0.006869732402265072,0.0011524501023814082
1733699643442920400,7.60092041015625,0.0022406550124287605,0.00788046419620514,-0.0008741035126149654
1733699643452875300,7.610875244140625,0.0015743321273475885,0.0054609826765954494,0.0015922500751912594
1733699643462830600,7.62083056640625,0.0007050544954836369,0.0024171308614313602,-0.0006664490792900324
1733699643472785400,7.630785400390625,0.0017852326855063438,-0.00043058727169409394,0.0016390495002269745
1733699643482740500,7.640740478515625,0.002451992128044367,-0.003659977810457349,0.0006911179516464472
1733699643492695600,7.650695556640625,-0.0013214406790211797,-0.010298172943294048,-0.0009275514166802168
1733699643502649600,7.660649658203125,0.0012138562742620707,-0.010096739046275616,0.00023127137683331966
1733699643512604700,7.670604736328125,0.000712116714566946,-0.011964413337409496,-0.00048218946903944016
1733699643522559700,7.680559814453125,-0.0011607910273596644,-0.010656686499714851,-0.000035372329875826836
1733699643532514600,7.6905146484375,-0.00003507290966808796,-0.01296884287148714,-0.0004710655193775892
1733699643542469400,7.700469482421875,-0.0008051848271861672,-0.014389853924512863,-0.0008420639205724001
1733699643552423700,7.710423583984375,-0.00136657920666039,-0.016919057816267014,0.001273551257327199
1733699643562378800,7.720378662109375,0.0007923340890556574,-0.021200072020292282,0.00002118898555636406
1733699643572333600,7.73033349609375,0.0010823521297425032,-0.02407841756939888,0.00021613226272165775
1733699643582288400,7.740288330078125,0.003291710512712598,-0.024419302120804787,0.0019509154371917248
1733699643592243700,7.75024365234375,0.0031174432951956987,-0.01839831843972206,0.0013711503706872463
1733699643602198500,7.760198486328125,0.0041445521637797356,-0.009342056699097157,0.001109856995753944
1733699643612152600,7.770152587890625,0.004487034864723682,0.007214549463242292,0.0022843109909445047
1733699643622107400,7.780107421875,0.0016356073319911957,0.027175331488251686,0.0015572316478937864
1733699643632062700,7.790062744140625,0.0017812822479754686,0.04090339317917824,0.0000043425243347883224
1733699643642017500,7.800017578125,-0.0017568195471540093,0.0489874929189682,-0.0009324753191322088
1733699643651972600,7.80997265625,-0.0007038057083263993,0.05084478110074997,-0.0021314306650310755
1733699643661926400,7.819926513671875,0.0013592052273452282,0.04091925173997879,-0.0011886782012879848
1733699643671881700,7.8298818359375,0.0020279251039028168,0.02628624439239502,-0.00225740484893322
1733699643681836500,7.83983642578125,0.0013971994630992413,0.008967284113168716,-0.0005203979089856148
1733699643691791600,7.84979150390625,0.0014845512341707945,-0.005546677857637405,0.001338222180493176
1733699643701746700,7.85974658203125,0.002286232076585293,-0.01687679812312126,0.0004410108085721731
1733699643711701500,7.869701416015625,0.002161862328648567,-0.021111223846673965,-0.0010104121174663305
1733699643721655600,7.879655517578125,0.00021954835392534733,-0.023109717294573784,-0.0005920517724007368
1733699643731610600,7.889610595703125,-0.000757299130782485,-0.021059349179267883,-0.0026615941897034645
1733699643741565700,7.899565673828125,0.0005032932385802269,-0.0204120185226202,-0.0013150135055184364
1733699643751520500,7.9095205078125,0.0009171485435217619,-0.0193888321518898,-0.00016532698646187782
1733699643761475600,7.9194755859375,0.0038494737818837166,-0.01640041545033455,0.00012596696615219116
1733699643771429600,7.9294296875,0.003232419490814209,-0.013842715881764889,-0.00012836488895118237
1733699643781384700,7.939384765625,0.004343532957136631,-0.011175037361681461,0.00197584112174809
1733699643791339500,7.949339599609375,0.002026316709816456,-0.005871351808309555,0.000016287202015519142
1733699643801294600,7.959294677734375,0.0014565994497388601,-0.0006685325060971081,0.00017356709577143192
1733699643811249400,7.96924951171875,-0.000626258784905076,0.003574149450287223,-0.0012610778212547302
1733699643821204700,7.979204833984375,-0.00038611842319369316,0.004739673808217049,-0.0020629670470952988
1733699643831158500,7.989158447265625,-0.0003293930785730481,0.002915141871199012,-0.003600143827497959
1733699643841113600,7.999113525390625,-0.0018020241986960173,0.0014631450176239014,-0.0013033230789005756
1733699643851068400,8.009068359375,-0.0004946783883497119,0.0006652619922533631,-0.0005597684066742659
1733699643861023700,8.019023681640626,-0.00022268807515501976,0.0002532291691750288,-0.00009972252883017063
1733699643870978600,8.028978515625,-0.0004621061962097883,0.0017579151317477226,0.00019002938643097878
1733699643880932600,8.0389326171875,-0.0008285068906843662,0.004269035067409277,0.0009591343114152551
1733699643890887400,8.048887451171876,-0.0012037463020533323,0.0051995436660945415,0.00036098831333220005
1733699643900842800,8.0588427734375,-0.0008228379301726818,0.004191303625702858,0.0018348611192777753
1733699643910797600,8.068797607421875,0.000029640039429068565,0.00420142337679863,0.0004193909699097276
1733699643920752600,8.078752685546876,-0.0013075084425508976,0.0060000065714120865,0.0015764785930514336
1733699643930707700,8.088707763671875,-0.00013278820551931858,0.00878647156059742,0.0023882100358605385
1733699643940661800,8.098661865234375,-0.0014864190015941858,0.015696926042437553,0.001011260668747127
1733699643950616600,8.108616455078124,-0.0016648508608341217,0.022554565221071243,-0.0003924914635717869
1733699643960571600,8.118571533203125,-0.0009267515270039439,0.023055877536535263,0.00045658345334231853
1733699643970526700,8.128526611328125,-0.0014050551690161228,0.0184685830026865,-0.0013447788078337908
1733699643980481500,8.1384814453125,-0.0004889158299192786,0.009761638939380646,0.00006773765198886395
1733699643990435600,8.148435546875,0.0015462718438357115,-0.0024084753822535276,0.0014776150928810239
1733699644000390700,8.158390625,0.0006862918380647898,-0.013852911069989204,0.0011838014470413327
1733699644010345700,8.168345703125,0.0010008111130446196,-0.02110176905989647,0.0006602240027859807
1733699644020300500,8.178300537109376,0.0027161005418747663,-0.024653436616063118,0.00280770193785429
1733699644030255600,8.188255615234375,0.000003138091415166855,-0.025554649531841278,0.001231377013027668
1733699644040210400,8.19821044921875,0.0027452718932181597,-0.021730957552790642,0.001284044119529426
1733699644050164700,8.208164794921874,0.0009540298487991095,-0.015728991478681564,0.0007186549482867122
1733699644060119600,8.21811962890625,0.0027968143112957478,-0.010642603039741516,-0.00007460429333150387
1733699644070074600,8.22807470703125,0.0009677552152425051,-0.00786892045289278,-0.0004703500308096409
1733699644080029400,8.238029541015624,-0.0020290804095566273,-0.008223596028983593,0.0002827099524438381
1733699644089984800,8.24798486328125,-0.0007387788500636816,-0.01200182270258665,-0.0005913395434617996
1733699644099938600,8.2579384765625,-0.0011899390956386924,-0.01548957359045744,-0.0006466347258538008
1733699644109893600,8.2678935546875,-0.000041584018617868423,-0.015680255368351936,0.0012849560007452965
1733699644119848400,8.277848388671876,0.0019682212732732296,-0.011152598075568676,0.0018714115722104907
1733699644129803800,8.2878037109375,0.0012584887444972992,-0.00737197557464242,0.0012729993322864175
1733699644139758600,8.297758544921875,0.0018248746637254953,-0.002312768017873168,0.000041730934754014015
1733699644149713400,8.30771337890625,-0.00006250781007111073,0.0008460072567686439,-0.000012331176549196243
1733699644159667500,8.31766748046875,-0.002004279987886548,0.0030659434851258993,-0.0005440607201308012
1733699644169622800,8.327622802734375,-0.0009624514495953918,0.004160236567258835,0.00011533801443874836
1733699644179577600,8.33757763671875,0.0005558428820222616,0.005877359304577112,0.000059090787544846535
1733699644189532400,8.347532470703126,-0.0005869194865226746,0.0055694980546832085,0.0015046545304358006
1733699644199487700,8.35748779296875,-0.0007613284979015589,0.00432219821959734,-0.00007065455429255962
1733699644209441500,8.367441650390624,-0.0012244521640241146,0.0032369601540267467,0.0009240360232070088
1733699644219396600,8.377396728515626,-0.0017102430574595928,0.0002471776679158211,0.001251179724931717
1733699644229351400,8.387351318359375,-0.00047267216723412275,-0.0009933228138834238,-0.0005168928764760494
1733699644239306800,8.397306640625,0.0003319790121167898,-0.0034607991110533476,0.0015977579168975353
1733699644249261600,8.407261474609374,-0.000018226681277155876,-0.006119432859122753,0.0017756570596247911
1733699644259215600,8.417215576171875,-0.0005379973445087671,-0.008891250938177109,-0.0010265388991683722
1733699644269170400,8.42717041015625,-0.0003465160261839628,-0.010458786971867085,0.00017481297254562378
1733699644279125800,8.437125732421874,-0.0005032119806855917,-0.011818896047770977,0.0013567616697400808
1733699644289080600,8.44708056640625,-0.000991902081295848,-0.011413563042879105,0.00011333171278238297
1733699644299035600,8.45703564453125,-0.000043101841583848,-0.010889838449656963,-0.0008440781384706497
1733699644308990700,8.46699072265625,0.0006743536796420813,-0.011501566506922245,0.0007532857125625014
1733699644318944800,8.47694482421875,-0.0005242072511464357,-0.011829615570604801,-0.00008675339631736279
1733699644328899600,8.486899658203125,-0.001046186895109713,-0.010235447436571121,0.0005992768565192819
1733699644338854700,8.496854736328125,-0.0006457224953919649,-0.008958028629422188,0.0005754572339355946
1733699644348809500,8.5068095703125,-0.0002811357844620943,-0.008415542542934418,0.0012644169619306922
1733699644358764500,8.5167646484375,0.00010755867697298527,-0.006207907572388649,0.0005109921330586076
1733699644368718600,8.526718505859375,-0.00009404262527823448,-0.004966608248651028,-0.00046239327639341354
1733699644378673700,8.536673583984374,-0.0001966764684766531,-0.0018810282927006483,0.001989319222047925
1733699644388628500,8.54662841796875,0.0003660493530333042,-0.0012029872741550207,0.00048729637637734413
1733699644398583600,8.55658349609375,-0.0013196519576013088,-0.00008371879812330008,0.002853824757039547
1733699644408538600,8.56653857421875,0.0006838440895080566,0.0036915785167366266,0.002693502465263009
1733699644418493400,8.576493408203126,0.0008746690582484007,0.0035081030800938606,0.001535401912406087
1733699644428447500,8.586447509765625,-0.0007743602618575096,0.002027918118983507,0.002310115611180663
1733699644438402600,8.596402587890625,-0.0010411572875455022,-0.0002452566404826939,0.0004357177531346679
1733699644448357600,8.606357666015626,-0.00044940283987671137,-0.005520712584257126,0.0020522563718259335
1733699644458312400,8.6163125,-0.0011774672893807292,-0.009131718426942825,0.0009393638465553522
1733699644468267800,8.626267822265625,-0.00041340640746057034,-0.010339462198317051,-0.0011980892159044743
1733699644478221600,8.6362216796875,0.000386042520403862,-0.011755814775824547,0.0004335896810516715
1733699644488176600,8.6461767578125,-0.0017668569926172495,-0.00951583031564951,0.001449585659429431
1733699644498131500,8.65613134765625,-0.0022207729052752256,-0.0076738689094781876,-0.00035760877653956413
1733699644508086000,8.6660859375,-0.002521177288144827,-0.005829896777868271,-0.0019624298438429832
1733699644518040800,8.676040771484375,-0.0033665713854134083,-0.004446692299097776,-0.0010945084504783154
1733699644527996000,8.685995849609375,-0.002877881284803152,-0.00424269400537014,-0.000023651402443647385
1733699644537949700,8.69594970703125,0.0018807665910571814,-0.0039998809807002544,-0.00007524923421442509
1733699644547905000,8.705905029296876,0.0039186179637908936,-0.0025471262633800507,0.001061387825757265
1733699644557859800,8.71585986328125,0.0029443372040987015,-0.00514617282897234,0.002890520729124546
1733699644567815000,8.72581494140625,0.0032066586427390575,-0.005177597980946302,0.0016905004158616066
1733699644577770000,8.73577001953125,0.004513551481068134,-0.00540163554251194,0.001108778640627861
1733699644587724000,8.74572412109375,0.0005483711138367653,-0.004209071863442659,0.002031031297519803
1733699644597678800,8.755678955078125,0.001146581955254078,0.00011670857202261686,0.0016155284829437733
1733699644607634000,8.765634033203124,-0.0014257652219384909,0.00506086740642786,0.0007478706538677216
1733699644617589000,8.775589111328125,-0.0021377229131758213,0.0150133166462183,0.00043248909059911966
1733699644627543800,8.785543701171875,-0.002711634151637554,0.02338442951440811,-0.0013712700456380844
1733699644637497900,8.795497802734374,-0.0022044831421226263,0.03175283968448639,0.00012883194722235203
1733699644647453000,8.805452880859375,-0.0014175190590322018,0.0347164086997509,-0.0008384282700717449
1733699644657408000,8.815407958984375,-0.0005079277325421572,0.03127369284629822,0.0009202319197356701
1733699644667362800,8.82536279296875,-0.0011335042072460055,0.02136433683335781,0.00031862384639680386
1733699644677318000,8.83531787109375,0.0019687004387378693,0.00897498894482851,0.00016181240789592266
1733699644687272700,8.845272705078125,-0.001837489427998662,-0.004739490803331137,-0.0005370010621845722
1733699644697227000,8.85522705078125,0.0022306295577436686,-0.014670567587018013,0.00023994757793843746
1733699644707181800,8.865181884765626,0.0016873448621481657,-0.020582519471645355,0.0004165151622146368
1733699644717137000,8.875136962890625,0.0023793752770870924,-0.01888790912926197,0.0013978856150060892
1733699644727091700,8.885091796875,0.0020659209694713354,-0.015228725038468838,0.0006833595689386129
1733699644737047000,8.895047119140624,0.0004532383754849434,-0.008495338261127472,-0.0005894701462239027
1733699644747000800,8.905000732421875,0.0007192883640527725,-0.0005785594112239778,-0.00019585504196584225
1733699644756956000,8.914955810546875,-0.000107969855889678,0.007127505261451006,-0.00037569692358374596
1733699644766910700,8.92491064453125,0.00044223922304809093,0.007644957862794399,-0.000019099563360214233
1733699644776866000,8.934865966796876,-0.001073692343197763,0.006937654223293066,-0.00043809576891362667
1733699644786820900,8.94482080078125,-0.000032396288588643074,0.0001774862757883966,-0.0012122767511755228
1733699644796776000,8.95477587890625,-0.0008639936568215489,-0.007025539875030518,-0.0002276401501148939
1733699644806729700,8.964729736328126,0.00010459800250828266,-0.012219236232340336,-0.0005546764004975557
1733699644816685000,8.97468505859375,-0.0002482244744896889,-0.01739046350121498,-0.0006005181930959225
1733699644826640000,8.984639892578125,-0.0002833781763911247,-0.018488485366106033,-0.0006362046115100384
1733699644836595000,8.994594970703124,-0.000695003429427743,-0.01574048399925232,0.000955489813350141
1733699644846550000,9.004550048828126,-0.0013280368875712156,-0.01098967157304287,-0.0000945946667343378
1733699644856504000,9.014504150390625,-0.00040598935447633266,-0.005864834878593683,0.00018878141418099403
1733699644866459000,9.024458984375,0.0014427769929170609,-0.005127405282109976,-0.0015414743684232235
1733699644876413700,9.03441357421875,-0.00043912616092711687,-0.002096952637657523,0.0002817192580550909
1733699644886369000,9.044369140625,-0.001754195080138743,-0.0013973403256386518,-0.00003306637518107891
1733699644896323800,9.05432373046875,-0.001368643483147025,-0.0001714366371743381,0.0007157605141401291
1733699644906279000,9.06427880859375,-0.0005992562510073185,-0.001191427232697606,0.002369317226111889
1733699644916232700,9.074232666015625,-0.0016562595264986157,0.00042443719576112926,4.55416738986969e-7
1733699644926188000,9.08418798828125,-0.0008330764248967171,-0.00010446656960994005,0.0010148535948246717
1733699644936142800,9.094142822265624,-0.0026704412885010242,0.0002734599984250963,0.0009720871457830071
1733699644946098000,9.104097900390625,0.0005916645750403404,0.002650064881891012,-0.00037307548336684704
1733699644956052700,9.114052734375,-0.0015352058690041304,0.005134770181030035,-0.0005293977446854115
1733699644966007000,9.124007080078124,-0.0016595753841102123,0.007704454008489847,0.00025037582963705063
1733699644975961900,9.1339619140625,-0.0002782044466584921,0.011777592822909355,0.0009295237250626087
1733699644985917000,9.1439169921875,-0.002518455730751157,0.011762146838009357,-0.00008114590309560299
1733699644995871700,9.153871826171875,0.0000260199885815382,0.012722980231046677,-0.0008086268790066242
1733699645005827000,9.1638271484375,-0.0028275572694838047,0.0127490796148777,0.001735224504955113
1733699645015780900,9.17378076171875,0.00005199480801820755,0.010980740189552307,-0.0016579341609030962
1733699645025736000,9.18373583984375,-0.0008713230490684509,0.007911447435617447,0.0013897872995585203
1733699645035690800,9.193690673828126,0.00008621439337730408,0.00391746312379837,0.0008345297537744045
1733699645045646000,9.20364599609375,-0.00004507950507104397,-0.002762277377769351,-0.0003319347742944956
1733699645055601000,9.213600830078125,0.0007071138825267553,-0.009254205971956253,-0.0006618222687393427
1733699645065555700,9.2235556640625,-0.0006969047244638205,-0.016850873827934265,-0.0013481189962476492
1733699645075509800,9.233509765625,0.0010411704424768686,-0.018226461485028267,-0.0007874344009906054
1733699645085464800,9.24346484375,-0.0003545922227203846,-0.017915669828653336,-0.00022550742141902447
1733699645095420000,9.253419921875,-0.00006165355443954468,-0.01686500571668148,-0.0003000912256538868
1733699645105374700,9.263374755859376,-0.0007809732342138886,-0.015915321186184883,0.00007328391075134277
1733699645115330000,9.273330078125,-0.0009429497877135873,-0.009221207350492477,0.0003723050467669964
1733699645125283800,9.283283935546875,-0.0012894270475953817,-0.0054515027441084385,0.0005334262968972325
1733699645135239000,9.293239013671876,-0.0012856513494625688,0.0001565400161780417,-0.00019052298739552498
1733699645145193700,9.30319384765625,-0.0005154651589691639,0.0033038638066500425,-0.000054168980568647385
1733699645155149000,9.313149169921875,-0.0009625378297641873,0.005064945202320814,0.0017095140647143126
1733699645165103900,9.323103759765624,0.00043429015204310417,0.0037307015154510736,0.002205394674092531
1733699645175059000,9.333058837890626,0.0013377792201936245,0.004199151415377855,0.003077843226492405
1733699645185012700,9.3430126953125,0.0004565392155200243,0.007337420713156462,0.003077843226492405
1733699645194968000,9.352968017578124,-0.0008679002057760954,0.00958191603422165,0.0033627741504460573
1733699645204923000,9.3629228515625,0.0004354508128017187,0.012838163413107395,0.003430152079090476
1733699645214878000,9.3728779296875,0.000959477387368679,0.011209333315491676,0.003126234980300069
1733699645224832800,9.382832763671875,0.0011560185812413692,0.011961676180362701,0.001124603091739118
1733699645234787000,9.392787109375,0.0019064268562942743,0.007174626924097538,0.0016120236832648516
1733699645244742000,9.402741943359375,0.001735718222334981,0.0029593755025416613,0.00038963276892900467
1733699645254697000,9.412697021484375,0.0005242407787591219,-0.004374146461486816,0.0012964673805981874
1733699645264651800,9.42265185546875,0.0009519443847239017,-0.008094049990177155,0.0007965920958667994
1733699645274606800,9.43260693359375,-0.0028060125187039375,-0.011827271431684494,0.0006527125369757414
1733699645284561000,9.442560791015625,-0.00295461667701602,-0.013862725347280502,0.0001528372522443533
1733699645294516000,9.452515869140624,-0.003807388013228774,-0.016219791024923325,-0.0006922467146068811
1733699645304470800,9.462470703125,-0.004591955337673426,-0.016289565712213516,0.001000458374619484
1733699645314425900,9.47242578125,-0.004365055821835995,-0.016449235379695892,0.0028266161680221558
1733699645324381000,9.482380859375,-0.0008800436044111848,-0.015313397161662579,0.0025882632471621037
1733699645334335700,9.492335693359376,0.0014023676048964262,-0.011989988386631012,0.004336496815085411
1733699645344289800,9.502289794921875,-0.00015904358588159084,-0.004848721902817488,0.0033940039575099945
1733699645354244900,9.512244873046875,0.0009281716775149107,0.00510836998000741,0.003735259408131242
1733699645364200000,9.522199951171874,-0.002697722055017948,0.018852410838007927,0.0005996535765007138
1733699645374154800,9.53215478515625,-0.0043809241615235806,0.034308698028326035,-0.00010673445649445057
1733699645384110000,9.542110107421875,-0.005363630596548319,0.04842158779501915,0.0017936972435563803
1733699645394064000,9.55206396484375,-0.002890160772949457,0.05678553134202957,0.0018961867317557335
1733699645404019000,9.56201904296875,-0.0033160001039505005,0.056809499859809875,0.0025055180303752422
1733699645413973800,9.571973876953125,-0.004003133624792099,0.050648294389247894,0.002945082960650325
1733699645423929000,9.58192919921875,-0.0028089722618460655,0.03948245942592621,0.003586904611438513
1733699645433884000,9.5918837890625,-0.0021710998844355345,0.029178669676184654,0.005678615998476744
1733699645443838000,9.601837890625,-0.001976955449208617,0.017990997061133385,0.00482773594558239
1733699645453792800,9.611792724609375,-0.0013350935187190771,0.00844623614102602,0.0053286440670490265
1733699645463748000,9.621748046875,-0.001487160101532936,0.001063687028363347,0.004870580043643713
1733699645473703000,9.631702880859375,-0.0021794051863253117,-0.0034083600621670485,0.004919099155813456
1733699645483657700,9.64165771484375,-0.001704563619568944,-0.00610028300434351,0.003548902692273259
1733699645493613000,9.651613037109374,-0.0025308860931545496,-0.0031632152386009693,0.003027627244591713
1733699645503567000,9.661567138671876,-0.0018113000551238656,-0.0033823931589722633,0.000484308460727334
1733699645513522400,9.6715224609375,-0.0034187398850917816,-0.00209610303863883,0.00047603342682123184
1733699645523477200,9.681477294921875,-0.002796093001961708,0.0003132586716674268,0.0012278438080102205
1733699645533432600,9.6914326171875,-0.0008023023838177323,-0.00040995603194460273,0.00167609634809196
1733699645543387400,9.701387451171875,-0.0008952467469498515,-0.00023099157260730863,0.0019216397777199745
1733699645553341400,9.711341552734375,-0.002727337647229433,-0.007434159982949495,0.0012074119877070189
1733699645563296300,9.721296142578124,-0.0019638093654066324,-0.01304357685148716,0.0018966380739584565
1733699645573251600,9.73125146484375,-0.00048247852828353643,-0.021386737003922462,0.0006425362080335617
1733699645583206400,9.741206298828125,-0.0027142076287418604,-0.02689761482179165,-0.0005873115733265877
1733699645593161500,9.751161376953124,-0.002257774816825986,-0.031212477013468742,-0.0006776668597012758
1733699645603116300,9.7611162109375,-0.002184537937864661,-0.0322021059691906,-0.0023988678585737944
1733699645613070600,9.771070556640625,-0.003229869995266199,-0.031539954245090485,-0.0018772692419588566
1733699645623025400,9.781025390625,-0.0024154754355549812,-0.030454449355602264,-0.0034533278085291386
1733699645632980200,9.790980224609376,-0.004328135401010513,-0.028301425278186798,-0.004472979810088873
1733699645642935300,9.800935302734375,-0.00239201751537621,-0.029502511024475098,-0.005033575464040041
1733699645652890400,9.810890380859375,-0.002720715943723917,-0.034510161727666855,-0.003044410375878215
1733699645662844400,9.820844482421874,-0.0017577167600393295,-0.0390457920730114,-0.0036457523237913847
1733699645672799200,9.83079931640625,0.000496608205139637,-0.04442961886525154,-0.0017249577213078737
1733699645682754300,9.84075439453125,0.0007016716990619898,-0.04937058314681053,-0.0010471830610185862
1733699645692709400,9.85070947265625,0.0037707022856920958,-0.053007688373327255,0.0005290333647280931
1733699645702664400,9.86066455078125,0.0035752260591834784,-0.05573130398988724,0.00008481810800731182
1733699645712618200,9.8706181640625,0.0063669802621006966,-0.052773769944906235,-0.000601799925789237
1733699645722573300,9.8805732421875,0.00590785127133131,-0.04630681872367859,0.0007311123190447688
1733699645732528400,9.8905283203125,0.0036446969024837017,-0.035570815205574036,0.0004541435046121478
1733699645742483500,9.9004833984375,0.00527588278055191,-0.021376963704824448,0.0010304516181349754
1733699645752438300,9.910438232421875,0.003495048265904188,-0.006978193763643503,-0.0014467488508671522
1733699645762393600,9.9203935546875,0.0013930152636021376,0.00990970991551876,-0.0026587534230202436
1733699645772347400,9.930347412109375,0.002439329167827964,0.023281725123524666,-0.0019206691067665815
1733699645782302500,9.940302490234375,0.002716564340516925,0.032301317900419235,-0.0025696817319840193
1733699645792257300,9.95025732421875,0.0031915379222482443,0.03667231649160385,-0.002577237319201231
1733699645802212400,9.96021240234375,0.0047577423974871635,0.03581397980451584,-0.0016864100471138954
1733699645812167400,9.97016748046875,0.0030553308315575123,0.030482694506645203,-0.0016551704611629248
1733699645822121500,9.98012158203125,0.0005391763988882303,0.019791435450315475,0.0002010529860854149
1733699645832076300,9.990076171875,0.000863256398588419,0.010946876369416714,0.0011103609576821327
1733699645842031400,10.00003125,0.0011205177288502455,0.006483951583504677,0.000053884927183389664
1733699645851986400,10.009986328125,0.0018049643840640783,0.0007327394559979439,0.00025753024965524673
1733699645861941200,10.019941162109374,-0.00017003575339913368,-0.003915009554475546,-0.0016130739822983742
1733699645871896600,10.029896484375,-0.0005312950816005468,-0.00671137822791934,0.0010238889371976256
1733699645881850400,10.039850341796875,-0.0021699380595237017,-0.009681868366897106,-0.0021684421226382256
1733699645891805400,10.049805419921874,-0.0012640944914892316,-0.01419820636510849,-0.0006374549120664597
1733699645901760300,10.05976025390625,-0.00014982791617512703,-0.016398776322603226,-0.0028233774937689304
1733699645911715600,10.069715576171875,-0.00023495848290622234,-0.0206670593470335,-0.0018925790209323168
1733699645921670400,10.07967041015625,0.0010140640661120415,-0.02371797524392605,-0.0002126570325344801
1733699645931624400,10.08962451171875,0.0009052946697920561,-0.022591549903154373,-0.0005512407515197992
1733699645941579300,10.099579345703125,0.0008704073261469603,-0.01901146210730076,0.00213056243956089
1733699645951534300,10.109534423828125,0.0012029323261231184,-0.016081035137176514,0.0028323689475655556
1733699645961489400,10.119489501953124,0.0012585923541337252,-0.013209349475800991,0.0016323486343026161
1733699645971444500,10.129444580078125,0.002126975916326046,-0.01315120980143547,-0.0004172606859356165
1733699645981398300,10.139398193359375,0.0013578548096120358,-0.016380559653043747,-0.00005001085810363293
1733699645991353300,10.149353271484374,0.001531883841380477,-0.018516438081860542,-0.0015096806455403566
1733699646001308400,10.159308349609375,-7.653143256902695e-7,-0.020402489230036736,-0.0025104964151978493
1733699646011263500,10.169263427734375,0.0010253286454826593,-0.01826729252934456,-0.002258367370814085
1733699646021218300,10.17921826171875,0.0015531671233475208,-0.013277859427034855,-0.0006921624299138784
1733699646031173400,10.18917333984375,0.0003314230125397444,-0.006286438088864088,-0.0016449454706162214
1733699646041127400,10.19912744140625,-0.0033637129236012697,0.001620753202587366,-0.0029118109960108995
1733699646051082500,10.20908251953125,-0.002386306179687381,0.01139155961573124,-0.0025225619319826365
1733699646061037300,10.219037353515626,-0.0014653849648311734,0.018656661733984947,-0.0012884531170129776
1733699646070992400,10.228992431640625,0.00006142794154584408,0.027269981801509857,-0.0004939597565680742
1733699646080947500,10.238947509765625,0.0006822107825428247,0.027904879301786423,-0.00024202466011047363
1733699646090901200,10.2489013671875,0.002222679788246751,0.023945068940520287,0.001712356461212039
1733699646100856300,10.258856201171875,0.002719891956076026,0.014840519055724144,0.003445541486144066
1733699646110811400,10.268811279296875,0.0032106891740113497,0.004337686114013195,0.0034625737462192774
1733699646120766500,10.278766357421874,0.002352618845179677,-0.006805512588471174,0.0018926402553915977
1733699646130721300,10.28872119140625,0.0022269177716225386,-0.015389146283268929,0.0005954145453870296
1733699646140675300,10.29867529296875,0.0026674335822463036,-0.01784651167690754,0.0006579933688044548
1733699646150630400,10.30863037109375,0.0007132000755518675,-0.017339253798127174,0.000370189780369401
1733699646160585500,10.31858544921875,0.0018519677687436342,-0.01326035801321268,-0.0006322241388261318
1733699646170540300,10.328540283203125,0.0013269393239170313,-0.009563256986439228,-0.003518449841067195
1733699646180495600,10.33849560546875,-0.0006659040227532387,-0.004839874804019928,-0.0028531921561807394
1733699646190450400,10.348450439453124,0.000891875009983778,-0.0032376758754253387,-0.001732121454551816
1733699646200404500,10.358404541015625,0.0012745712883770466,-0.002461097901687026,-0.0016881793271750212
1733699646210359300,10.368359375,0.0010600409004837275,-0.0036280059721320868,-0.0016184092964977026
1733699646220314600,10.378314697265624,0.00007307343184947968,-0.0032186780590564013,-0.0033958028070628643
1733699646230269400,10.38826953125,-0.0007265767781063914,-0.003013573121279478,-0.000791462603956461
1733699646240224300,10.398224365234375,0.0018867829348891973,-0.0023059712257236242,-0.0005744148511439562
1733699646250178300,10.40817822265625,0.0007683043368160725,-0.002833674196153879,-0.0005889884196221828
1733699646260133600,10.418133544921876,0.0016215811483561993,-0.0014245954807847738,-0.0011684924829751253
1733699646270088400,10.42808837890625,0.004493701737374067,0.003296272363513708,0.001013540429994464
1733699646280043300,10.438043212890625,0.0028484007343649864,0.009484393522143364,-0.0007976754568517208
1733699646289998300,10.447998291015624,0.004600760526955128,0.017594249919056892,-0.0013856957666575909
1733699646299952400,10.457952392578125,0.004604489076882601,0.022434012964367867,-0.0012472113594412804
1733699646309907500,10.467907470703125,0.0032169718760997057,0.025328271090984344,0.0009376676753163338
1733699646319862300,10.4778623046875,0.001838253578171134,0.02048717625439167,-0.001130010699853301
1733699646329817300,10.4878173828125,-0.0017244804184883833,0.01326074916869402,-0.0016500966157764196
1733699646339772400,10.4977724609375,-0.0020057102665305138,0.0034691046457737684,-0.0025230811443179846
1733699646349727500,10.5077275390625,-0.004196409601718187,-0.0041322726756334305,-0.0010135560296475887
1733699646359681300,10.517681396484376,-0.002586795249953866,-0.014031242579221725,-0.0020993268117308617
1733699646369636400,10.52763623046875,-0.00013751257210969925,-0.019623547792434692,-0.00019024009816348553
1733699646379591400,10.53759130859375,0.0013871470000594854,-0.02634243667125702,0.000204174080863595
1733699646389546500,10.54754638671875,0.002561625326052308,-0.029670201241970062,-0.0005172716919332743
1733699646399501300,10.557501220703125,0.0027120939921587706,-0.0315924696624279,-0.0011729418765753508
1733699646409455400,10.567455322265625,0.0014333657454699278,-0.03343886137008667,-0.0026911799795925617
1733699646419410400,10.577410400390624,0.000993677880614996,-0.03086145594716072,-0.006906963884830475
1733699646429365500,10.587365478515625,0.0009752139449119568,-0.025619473308324814,-0.005386768840253353
1733699646439320300,10.5973203125,0.0007065010722726583,-0.02042257972061634,-0.0036309468559920788
1733699646449275400,10.607275390625,0.0003743884153664112,-0.0147126205265522,-0.0028360700234770775
1733699646459229400,10.6172294921875,-0.00000937306322157383,-0.009945562109351158,-0.002357766032218933
1733699646469184500,10.6271845703125,0.0017943941056728363,-0.007960242219269276,-0.0007540332153439522
1733699646479139300,10.637139404296875,0.0021033207885921,-0.008565312251448631,0.001525632687844336
1733699646489094400,10.647094482421876,0.0023626217152923346,-0.012696516700088978,-0.000012031756341457367
1733699646499049500,10.657049560546875,0.0009849683847278357,-0.012429401278495789,0.0030197107698768377
1733699646509004300,10.66700439453125,0.0006788803730159998,-0.01263341587036848,0.002740845549851656
1733699646518958600,10.67695849609375,-0.0004979706136509776,-0.007841323502361774,0.0013019397156313062
1733699646528913400,10.686913330078125,-0.0020019891671836376,0.0018430782947689295,0.002243531635031104
1733699646538868500,10.696868408203125,-0.004332787357270718,0.015567146241664886,0.0016903930809348822
1733699646548823300,10.7068232421875,-0.005038695875555277,0.029266223311424255,0.001930456724949181
1733699646558778600,10.716778564453126,-0.005311403423547745,0.04193780571222305,0.0014859752263873816
1733699646568732400,10.726732421875,-0.0044249845668673515,0.0442032590508461,0.0025303857401013374
1733699646578687500,10.7366875,-0.00486760213971138,0.042971014976501465,0.0024110761005431414
1733699646588642300,10.746642333984376,-0.0027884948067367077,0.0321589894592762,0.0030344498809427023
1733699646598597600,10.75659765625,-0.0016244272701442242,0.019966771826148033,0.0027614759746938944
1733699646608552400,10.766552490234375,-0.001461685635149479,0.007606367114931345,0.0015508751384913921
1733699646618506500,10.776506591796876,0.00013195001520216465,-0.0018483875319361687,0.0012640526983886957
1733699646628461300,10.78646142578125,-0.0014135269448161125,-0.00745512405410409,-0.0004178779199719429
1733699646638416600,10.796416748046875,0.00032525090500712395,-0.010237328708171844,-0.00003092060796916485
1733699646648371500,10.806371337890624,0.0009881998412311077,-0.0071320924907922745,-0.0012987193185836077
1733699646658326300,10.816326171875,-0.0007809379603713751,-0.0026393390726298094,-0.00013598334044218063
1733699646668281600,10.826281494140625,0.0008819925133138895,-0.0020187883637845516,-0.0016709042247384787
1733699646678235600,10.836235595703124,0.0006401774007827044,0.001538395881652832,-0.0018727718852460384
1733699646688190500,10.8461904296875,0.0012679807841777802,0.00010059680789709091,-0.001415660372003913
1733699646698145300,10.856145263671875,-0.0000851715449243784,-0.0023401903454214334,-0.0037768192123621702
1733699646708100600,10.8661005859375,0.0016680702101439238,-0.005052095744758844,-0.001434970647096634
1733699646718055400,10.876055419921874,-0.0001471403520554304,-0.00642655324190855,-0.001908214297145605
1733699646728009500,10.886009521484375,0.0015897643752396107,-0.013026207685470581,-0.00001666136085987091
1733699646737964300,10.89596435546875,0.0003402091097086668,-0.01807209849357605,0.00199642195366323
1733699646747919600,10.905919677734374,0.0011252572294324636,-0.020961662754416466,0.00071212078910321
1733699646757874400,10.91587451171875,0.0008458916563540697,-0.019321421161293983,0.000771775608882308
1733699646767829500,10.92582958984375,0.0017109608743339777,-0.014702542684972286,0.003233799012377858
1733699646777783300,10.935783203125,0.0015724762342870235,-0.007594565860927105,0.0008558625122532248
1733699646787738600,10.945738525390626,0.0007522301748394966,0.0018349639140069485,0.0007949660066515207
1733699646797693400,10.955693359375,0.000244631664827466,0.011538191698491573,-0.0008111863862723112
1733699646807648500,10.9656484375,-0.0032333675771951675,0.021971888840198517,-0.0008508444298058748
1733699646817603600,10.975603515625,-0.006593477912247181,0.026584483683109283,-0.000050031812861561775
1733699646827558400,10.985558349609375,-0.0039370241574943066,0.03160208836197853,-0.0019877152517437935
1733699646837512400,10.995512451171875,-0.0019966450054198503,0.0331062413752079,0.00047224643640220165
1733699646847467500,11.005467529296874,-0.0031489706598222256,0.03294418007135391,-0.0003394121304154396
1733699646857422600,11.015422607421876,0.0005490947514772415,0.0295004453510046,0.0005343710072338581
1733699646867377400,11.02537744140625,0.00316812377423048,0.023563986644148827,0.0012799189426004887
1733699646877332500,11.03533251953125,0.0027912864461541176,0.016223780810832977,0.0011012208415195346
1733699646887286500,11.04528662109375,0.0018873652443289757,0.0059322789311409,0.000102657126262784
1733699646897241600,11.05524169921875,0.002924666740000248,-0.005756068974733353,-0.0008044156711548567
1733699646907196400,11.065196533203125,0.0028938872274011374,-0.020047299563884735,-0.0007111092563718557
1733699646917151500,11.0751513671875,0.0005971773061901331,-0.03372769057750702,-0.0020091338083148003
1733699646927106300,11.085106201171875,-0.001923980307765305,-0.039864543825387955,0.0005669994279742241
1733699646937060400,11.095060302734375,-0.000020885374397039413,-0.04310694336891174,-0.0006404777523130178
1733699646947015400,11.105015380859374,-0.0007912840228527784,-0.038569126278162,-0.002414440270513296
1733699646956970500,11.114970458984375,0.000542693305760622,-0.03125688433647156,-0.0009302606340497732
1733699646966925300,11.12492529296875,0.0021766803693026304,-0.017798272892832756,0.00003539444878697395
1733699646976880600,11.134880615234374,0.0011891801841557026,-0.008723018690943718,-0.0008599602151662111
1733699646986835500,11.14483544921875,0.0027054084930568933,0.00012553023407235742,-0.00048390100710093975
1733699646996789500,11.15478955078125,-0.00038359174504876137,0.0020864156540483236,-0.0018064267933368683
1733699647006744300,11.164744384765624,0.0007013068534433842,0.002628984395414591,-0.0002373328898102045
1733699647016699600,11.17469970703125,0.0005979761481285095,0.0016947475960478187,-0.0020434889011085033
1733699647026654500,11.184654541015625,0.00004815682768821716,0.0013170872116461396,-0.0016043635550886393
1733699647036609500,11.194609619140625,-0.0013723733136430383,0.002377824392169714,-0.0010754598770290613
1733699647046563300,11.204563232421876,0.0005425338167697191,0.00510966032743454,-0.000609290087595582
1733699647056518700,11.2145185546875,0.00016915868036448956,0.00808893796056509,-0.00029663508757948875
1733699647066473500,11.224473388671875,-0.0013154811458662152,0.010755744762718678,-0.0005625952035188675
1733699647076428300,11.23442822265625,-0.00143079599365592,0.014402943663299084,-0.00011465162970125675
1733699647086383600,11.244383544921876,-0.0018319720402359962,0.014812522567808628,0.0007849634857848287
1733699647096337700,11.254337646484375,-0.00031237234361469746,0.011762138456106186,0.0022457074373960495
1733699647106292500,11.26429248046875,-0.0011829539434984326,0.005823038052767515,0.0014583730371668935
1733699647116247300,11.274247314453126,-0.0017278366722166538,0.00301659875549376,0.00018884427845478058
1733699647126202600,11.28420263671875,-0.002822456182911992,-0.0003877023118548095,0.0010419402970001101
1733699647136157400,11.294157470703125,-0.0019393519032746553,-0.0014745383523404598,0.0006057145074009895
1733699647146111500,11.304111572265626,0.00010376796126365662,0.000111557194031775,0.0003917800495401025
1733699647156066300,11.31406640625,-0.002162315882742405,-0.0018661061767488718,0.0002327894326299429
1733699647166021600,11.324021728515625,0.00010376842692494392,-0.001308623468503356,0.00046732055488973856
1733699647175976400,11.3339765625,0.0002190831582993269,-0.0019821368623524904,0.0006297733634710312
1733699647185931500,11.343931640625,0.00141459284350276,-0.0023076997604221106,0.00032849982380867004
1733699647195886300,11.35388623046875,-0.0008658720180392265,-0.0072156391106545925,-0.0011370377615094185
1733699647205840600,11.363840576171874,-0.0008581661386415362,-0.010240658186376095,-0.0007045881357043982
1733699647215795500,11.37379541015625,-0.001512771239504218,-0.01256213616579771,0.000167064368724823
1733699647225750500,11.38375048828125,-0.002141488716006279,-0.01544727012515068,0.0009047428611665964
1733699647235705300,11.393705322265625,0.00048358901403844357,-0.015407590195536613,-0.0005860948003828526
1733699647245660400,11.403660400390624,-0.0006471173837780952,-0.015094293281435966,-0.0003577093593776226
1733699647255614500,11.413614501953125,-0.0007515132892876863,-0.01529110036790371,-0.0005766211543232203
1733699647265569500,11.423569580078125,0.0004963071551173925,-0.013218930922448635,0.0007167879957705736
1733699647275524400,11.4335244140625,0.0014664966147392988,-0.007593268994241953,0.0013407666701823473
1733699647285479400,11.4434794921875,0.00022047548554837704,0.00001551728928461671,0.0020961626432836056
1733699647295434500,11.4534345703125,0.0015696329064667225,0.0103501807898283,0.0010988089488819242
1733699647305388500,11.463388427734374,-0.000040022656321525574,0.019920598715543747,0.0008506953017786145
1733699647315343400,11.47334326171875,-0.001641381299123168,0.02853778749704361,0.0016318003181368113
1733699647325298400,11.48329833984375,-0.0007847703527659178,0.03638557344675064,-0.0005304326768964529
1733699647335253500,11.49325341796875,0.0001492002047598362,0.039239417761564255,-0.00039248098619282246
1733699647345208300,11.503208251953126,-0.001708111260086298,0.03950471058487892,-0.0015517589636147022
1733699647355163600,11.51316357421875,-0.0012258128263056278,0.03505723178386688,-0.0003685164265334606
1733699647365117400,11.523117431640625,0.00025533605366945267,0.027236543595790863,-0.0004814534913748503
1733699647375072500,11.533072509765624,0.0005355007015168667,0.020943228155374527,0.00002880813553929329
1733699647385027300,11.54302734375,0.0005764293018728495,0.013536443933844566,0.001364993629977107
1733699647394982700,11.552982666015625,0.0015487493947148323,0.006191978696733713,0.00043102295603603125
1733699647404937500,11.5629375,-0.0013318033888936043,-0.0027420788537710905,-0.00150748947635293
1733699647414891500,11.5728916015625,-0.0013736151158809662,-0.009313695132732391,-0.0018542329780757427
1733699647424846300,11.582846435546875,-0.001694061909802258,-0.016755608841776848,-0.0030375076457858086
1733699647434801700,11.5928017578125,-0.00127754348795861,-0.01953168772161007,-0.0001791368704289198
1733699647444756500,11.602756591796876,0.0002970937639474869,-0.023308422416448593,-0.000633681658655405
1733699647454711600,11.612711669921875,0.0017597018741071224,-0.025595545768737793,0.001660365262068808
1733699647464665300,11.622665283203125,0.0009707722347229719,-0.02889784798026085,-0.00029344484210014343
1733699647474620700,11.63262060546875,0.0014986107125878334,-0.031182043254375458,0.00031801697332412004
1733699647484575500,11.642575439453125,-0.000019119353964924812,-0.023991523310542107,-0.0000263359397649765
1733699647494530600,11.652530517578125,0.0013212496414780617,-0.019581329077482224,0.0006365249864757061
1733699647504485400,11.6624853515625,0.000693455571308732,-0.01295542623847723,0.0009344686986878514
