time,seconds_elapsed,z,y,x
1733699947399329000,0.0243291015625,0.034671034663915634,-0.23431769013404846,-0.02291402593255043
1733699947409283800,0.034283935546875,0.04903541877865791,-0.28403356671333313,-0.022262264043092728
1733699947419238000,0.04423779296875,0.06323911994695663,-0.30408501625061035,-0.022594094276428223
1733699947429192700,0.054192626953125,0.07277911901473999,-0.30219143629074097,-0.030735081061720848
1733699947439146800,0.064146728515625,0.07722979784011841,-0.29976797103881836,-0.03603557124733925
1733699947449101800,0.074101806640625,0.07777076959609985,-0.2940426766872406,-0.03878572955727577
1733699947459057000,0.084056884765625,0.07502398639917374,-0.30243241786956787,-0.04392509534955025
1733699947469011000,0.094010986328125,0.08275981992483139,-0.31898894906044006,-0.04171106219291687
1733699947478965800,0.1039658203125,0.09855210036039352,-0.321053683757782,-0.0346563495695591
1733699947488920000,0.113920166015625,0.11365855485200882,-0.30033400654792786,-0.03211762011051178
1733699947498875000,0.123875,0.1262688785791397,-0.260158896446228,-0.03447424992918968
1733699947508830000,0.133829833984375,0.13797859847545624,-0.19336876273155212,-0.054495301097631454
1733699947518783700,0.14378369140625,0.16571836173534393,-0.13230833411216736,-0.07435102760791779
1733699947528739000,0.153739013671875,0.21117796003818512,-0.07224427163600922,-0.1023550033569336
1733699947538692900,0.16369287109375,0.2586229741573334,-0.06083236634731293,-0.12734103202819824
1733699947548648000,0.17364794921875,0.28387513756752014,-0.08447644859552383,-0.16267764568328857
1733699947558602800,0.183602783203125,0.25719374418258667,-0.12645478546619415,-0.22953657805919647
1733699947568556800,0.193556884765625,0.18523091077804565,-0.2844693958759308,-0.31251978874206543
1733699947578512000,0.203511962890625,-0.019981352612376213,-0.5575640201568604,-0.3454391360282898
1733699947588466000,0.2134658203125,-0.40540486574172974,-0.6523522138595581,-0.02351190522313118
1733699947598420700,0.223420654296875,-0.48878470063209534,-1.1075588464736938,-0.12145498394966125
1733699947608374800,0.233374755859375,-0.3198836147785187,-1.2074555158615112,-0.15100838243961334
1733699947618329900,0.243329833984375,-0.04960259795188904,-1.1373014450073242,-0.051303356885910034
1733699947628285000,0.253284912109375,0.14116868376731873,-0.9820699095726013,-0.020968351513147354
1733699947638239000,0.263239013671875,0.201148122549057,-0.8405423164367676,-0.005569687578827143
1733699947648193800,0.27319384765625,0.17163123190402985,-0.6978496313095093,0.0019481179770082235
1733699947658147800,0.28314794921875,0.08387420326471329,-0.5853987336158752,-0.01941043511033058
1733699947668103000,0.29310302734375,-0.000128492945805192,-0.48352473974227905,-0.03578854724764824
1733699947678058000,0.30305810546875,-0.02450733445584774,-0.39710062742233276,-0.03533048555254936
1733699947688011800,0.31301171875,0.0006966716609895229,-0.31485715508461,-0.019965525716543198
1733699947697966800,0.322966796875,0.037371858954429626,-0.2405232936143875,-0.0014925077557563782
1733699947707921000,0.3329208984375,0.0551559180021286,-0.16656890511512756,0.009824861772358418
1733699947717876000,0.3428759765625,0.04570728912949562,-0.09552402794361115,0.007479148916900158
1733699947727830800,0.352830810546875,0.023915737867355347,-0.040827564895153046,0.0021746947895735502
1733699947737784800,0.362784912109375,0.0026607827749103308,-0.007572672329843044,0.0007349899969995022
1733699947747740000,0.372739990234375,-0.004548246040940285,0.012174423784017563,0.001411579898558557
1733699947757693700,0.382693603515625,-0.008051102049648762,0.02395225316286087,-0.0007817994337528944
1733699947767649000,0.39264892578125,-0.0016836592694744468,0.029735829681158066,0.0005892870249226689
1733699947777602800,0.402602783203125,-0.0006141337798908353,0.028224218636751175,0.0008963494328781962
1733699947787558000,0.412557861328125,0.002727747429162264,0.021105140447616577,0.002979086944833398
1733699947797512000,0.422511962890625,0.0030744909308850765,0.004608189221471548,0.002262696623802185
1733699947807465700,0.4324658203125,0.0042954604141414165,-0.015777617692947388,0.0019661984406411648
1733699947817421000,0.442421142578125,0.004608647897839546,-0.03786241263151169,0.0020362394861876965
1733699947827374800,0.452374755859375,0.0039710914716124535,-0.05524507537484169,0.0008886830182746053
1733699947837330000,0.462329833984375,0.0023939674720168114,-0.0674668550491333,-0.0010138791985809803
1733699947847284700,0.47228466796875,0.000055678654462099075,-0.07075110822916031,-0.0014623843599110842
1733699947857238800,0.48223876953125,-0.0013288988266140223,-0.0678434744477272,-0.004088793881237507
1733699947867193900,0.49219384765625,-0.003805432002991438,-0.06395723670721054,-0.003620403353124857
1733699947877148000,0.50214794921875,-0.002833910984918475,-0.06046636775135994,-0.0021910849027335644
1733699947887102700,0.512102783203125,-0.0031755645759403706,-0.05837106704711914,-0.0029212937224656343
1733699947897057800,0.522057861328125,-0.003916722256690264,-0.05263248831033707,-0.002148976782336831
1733699947907011800,0.53201171875,-0.0015362398698925972,-0.05090327188372612,-0.0027746723499149084
1733699947916967000,0.541966796875,-0.0019327846821397543,-0.04674394801259041,-0.0035081070382148027
1733699947926921000,0.5519208984375,0.0010928616393357515,-0.045063626021146774,-0.0025253703352063894
1733699947936875800,0.561875732421875,0.001764244632795453,-0.040681127458810806,-0.0022590539883822203
1733699947946829800,0.571829833984375,0.0025719525292515755,-0.03358766436576843,-0.0013610667083412409
1733699947956785000,0.581784912109375,-0.000050995033234357834,-0.031062453985214233,-0.0025208734441548586
1733699947966740000,0.591739990234375,-0.0014880347298458219,-0.03157097101211548,-0.0033019757829606533
1733699947976693800,0.60169384765625,-0.002515215892344713,-0.03420696780085564,-0.0035366001538932323
1733699947986648800,0.61164892578125,-0.0006951804971322417,-0.04310421645641327,-0.003616734640672803
1733699947996603000,0.621602783203125,0.0010595761705189943,-0.052826352417469025,-0.004297172650694847
1733699948006558000,0.631557861328125,0.0029574313666671515,-0.0622771792113781,-0.005223860964179039
1733699948016512800,0.6415126953125,0.002392042661085725,-0.06964614987373352,-0.00390719436109066
1733699948026466800,0.651466796875,0.003841924713924527,-0.07619175314903259,-0.005852309055626392
1733699948036422000,0.661421875,0.0037401916924864054,-0.08755146712064743,-0.00803290493786335
1733699948046375700,0.671375732421875,0.0028949365951120853,-0.09555741399526596,-0.009756474755704403
1733699948056331000,0.6813310546875,0.0017862622626125813,-0.10290241241455078,-0.008323694579303265
1733699948066284800,0.691284912109375,0.00555093539878726,-0.10939246416091919,-0.006070361938327551
1733699948076240000,0.701239990234375,0.009018637239933014,-0.11638086289167404,-0.004811752121895552
1733699948086194700,0.711194580078125,0.009921121411025524,-0.11215129494667053,-0.0031308254692703485
1733699948096149000,0.72114892578125,0.005141280125826597,-0.09282153844833374,-0.0014996395912021399
1733699948106103800,0.731103759765625,0.005656430497765541,-0.06952910125255585,-0.001253208378329873
1733699948116057900,0.741057861328125,0.0005921635311096907,-0.04093952849507332,-0.0011975483503192663
1733699948126013000,0.751012939453125,-0.0011615833500400186,-0.01393786258995533,-0.0016181203536689281
1733699948135968000,0.760968017578125,-0.006901227869093418,0.007190858945250511,-0.0012942799367010593
1733699948145922000,0.770922119140625,-0.00453729834407568,0.020057840272784233,-0.0012004184536635876
1733699948155876900,0.780876953125,-0.005162341985851526,0.026227053254842758,-0.0017090823967009783
1733699948165831000,0.790830810546875,-0.0035929661244153976,0.022175539284944534,-0.0009975123684853315
1733699948175785700,0.80078564453125,-0.0030808402225375175,0.013248623348772526,-0.0014417276252061129
1733699948185739800,0.81073974609375,-0.002160456031560898,0.003326278179883957,0.0006504494231194258
1733699948195694800,0.82069482421875,0.00041721761226654053,-0.00829735491424799,0.000009692972525954247
1733699948205650000,0.83064990234375,0.0017704362981021404,-0.020313210785388947,0.00026435358449816704
1733699948215603700,0.840603759765625,0.0017462014220654964,-0.02899671532213688,-0.0005497748497873545
1733699948225558800,0.850558837890625,0.001095080515369773,-0.03820161521434784,0.00010379101149737835
1733699948235513000,0.86051318359375,0.0021496920380741358,-0.04368479922413826,-0.0002762421499937773
1733699948245468000,0.870468017578125,0.0011033955961465836,-0.04592273756861687,-0.001317479182034731
1733699948255422700,0.880422607421875,0.0009105827193707228,-0.04606335237622261,-0.00040508038364350796
1733699948265376800,0.890376708984375,-0.00004389416426420212,-0.04186487942934036,-0.0015041669830679893
1733699948275332000,0.90033203125,0.00017075659707188606,-0.03865550085902214,-0.001314816065132618
1733699948285286000,0.910285888671875,0.00006429129280149937,-0.030453050509095192,-0.00009449664503335953
1733699948295241000,0.920240966796875,-0.0010347954230383039,-0.019923977553844452,-0.0005965025629848242
1733699948305195800,0.93019580078125,0.00104962894693017,-0.022145574912428856,0.0008756635943427682
1733699948315149800,0.94014990234375,-0.0016920953057706356,-0.031115898862481117,0.0045622773468494415
1733699948325105000,0.95010498046875,-0.00041280128061771393,-0.03250644728541374,0.005412270314991474
1733699948335059000,0.960058837890625,0.0007110526785254478,-0.0393395833671093,0.0065989745780825615
1733699948345013800,0.970013671875,0.006096318829804659,-0.04324100911617279,0.005705572664737701
1733699948354967800,0.9799677734375,0.014354782178997993,-0.0399264357984066,0.005105029791593552
1733699948364923000,0.9899228515625,0.022161275148391724,-0.02884015627205372,-0.002592068398371339
1733699948374878000,0.9998779296875,0.028198130428791046,-0.03473746031522751,-0.0046706655994057655
1733699948384832000,1.00983203125,0.030629746615886688,-0.03359467536211014,-0.008774715475738049
1733699948394786800,1.019786865234375,0.03430917114019394,-0.03389774635434151,-0.013761218637228012
1733699948404740900,1.029740966796875,0.056197453290224075,-0.024016009643673897,-0.036812976002693176
1733699948414696000,1.039696044921875,0.07431839406490326,-0.04275081306695938,-0.007716609630733728
1733699948424651000,1.049651123046875,0.09563001990318298,-0.05161932483315468,0.020828424021601677
1733699948434604800,1.059604736328125,0.12388962507247925,-0.00393648911267519,0.04616973176598549
1733699948444560000,1.069559814453125,0.12572285532951355,0.15008430182933807,0.020581722259521484
1733699948454513700,1.079513671875,0.13045422732830048,0.30151110887527466,0.07564843446016312
1733699948464469000,1.089468994140625,0.10551535338163376,0.5035051107406616,0.1185179054737091
1733699948474423000,1.099423095703125,0.061256811022758484,0.7233453392982483,0.11562757939100266
1733699948484377900,1.1093779296875,0.03144035115838051,0.9247292876243591,0.08391015976667404
1733699948494332700,1.119332763671875,0.007208781782537699,0.9794958233833313,0.04124205559492111
1733699948504286700,1.12928662109375,-0.008645282126963139,0.877673864364624,0.005800972692668438
1733699948514242000,1.139241943359375,-0.02516833133995533,0.6365355849266052,-0.022514289245009422
1733699948524195800,1.14919580078125,-0.03917641192674637,0.3292151987552643,-0.03832319751381874
1733699948534151000,1.15915087890625,-0.052387021481990814,0.005613969638943672,-0.04959449544548988
1733699948544105700,1.169105712890625,-0.05662372708320618,-0.30702534317970276,-0.052684441208839417
1733699948554059800,1.179059814453125,-0.04829468950629234,-0.5532100796699524,-0.05137309804558754
1733699948564014800,1.189014892578125,-0.025266721844673157,-0.7085232138633728,-0.04872656986117363
1733699948573969000,1.198968994140625,0.0012919183354824781,-0.7782011032104492,-0.048506591469049454
1733699948583923700,1.208923828125,0.026546113193035126,-0.7857632040977478,-0.05227819085121155
1733699948593877800,1.218877685546875,0.030430065467953682,-0.7606855630874634,-0.058511584997177124
1733699948603833000,1.2288330078125,0.023097824305295944,-0.7223381400108337,-0.06131858378648758
1733699948613788000,1.238787841796875,0.016891058534383774,-0.6681039333343506,-0.06669098138809204
1733699948623742000,1.248741943359375,0.0168992318212986,-0.6150059700012207,-0.0703451931476593
1733699948633696800,1.25869677734375,0.015836896374821663,-0.5559692978858948,-0.07223204523324966
1733699948643650800,1.26865087890625,0.01624486595392227,-0.49122458696365356,-0.0692266896367073
1733699948653606000,1.27860595703125,0.018269933760166168,-0.4301556348800659,-0.06279169768095016
1733699948663561000,1.28856103515625,0.0205782949924469,-0.37154528498649597,-0.051879990845918655
1733699948673514800,1.2985146484375,0.016987819224596024,-0.3065788149833679,-0.041042521595954895
1733699948683469800,1.3084697265625,0.008784046396613121,-0.2385021448135376,-0.029576459899544716
1733699948693423900,1.318423828125,0.0019727463368326426,-0.16110588610172272,-0.02051878347992897
1733699948703379000,1.32837890625,-0.004745377227663994,-0.0832359567284584,-0.010738084092736244
1733699948713333800,1.338333740234375,-0.008116407319903374,-0.013015592470765114,-0.004971008747816086
1733699948723287800,1.348287841796875,-0.006490933708846569,0.052747197449207306,-0.0013486971147358418
1733699948733242600,1.35824267578125,-0.0005020173266530037,0.11071276664733887,0.00004706578329205513
1733699948743197000,1.368197021484375,0.0005215273704379797,0.15830868482589722,-0.0007677737157791853
1733699948753152000,1.378152099609375,0.003693085629492998,0.19410155713558197,0.0002812454476952553
1733699948763105800,1.388105712890625,0.005333739332854748,0.2177199274301529,0.000983138452284038
1733699948773060900,1.398060791015625,0.0075164660811424255,0.22637546062469482,0.0019003311172127724
1733699948783016000,1.408015869140625,0.008928205817937851,0.2225983589887619,0.0013727572513744235
1733699948792970200,1.41797021484375,0.006177427247166634,0.21510235965251923,0.001993540208786726
1733699948802925300,1.42792529296875,0.003397708758711815,0.20289160311222076,0.0024708672426640987
1733699948812879400,1.43787939453125,0.0010575891938060522,0.18669505417346954,0.0008687096415087581
1733699948822834200,1.447834228515625,-0.0008560973219573498,0.16413693130016327,-0.00007185991853475571
1733699948832789200,1.457789306640625,-0.002688618376851082,0.13593459129333496,-0.0010969105642288923
1733699948842743300,1.467743408203125,-0.0028898348100483418,0.10575462132692337,-0.0015199685003608465
1733699948852698400,1.477698486328125,-0.004359366837888956,0.07805321365594864,-0.0021767038851976395
1733699948862652400,1.48765234375,-0.00678618811070919,0.04737458750605583,-0.0019179910887032747
1733699948872607200,1.497607177734375,-0.004163773730397224,0.021457236260175705,-0.003388322191312909
1733699948882561300,1.507561279296875,-0.0045356107875704765,-0.008217896334826946,-0.006460605189204216
1733699948892516400,1.517516357421875,-0.0031606205739080906,-0.03481275588274002,-0.006607345305383205
1733699948902471400,1.527471435546875,-0.0030147023499011993,-0.06414681673049927,-0.007199130021035671
1733699948912425200,1.53742529296875,-0.0035201702266931534,-0.08755866438150406,-0.006992734968662262
1733699948922380300,1.54738037109375,-0.0025563447270542383,-0.0999797135591507,-0.010572260245680809
1733699948932334000,1.557333984375,0.00018644495867192745,-0.10241304337978363,-0.011631133034825325
1733699948942289400,1.567289306640625,-0.0008714559953659773,-0.09947926551103592,-0.013397162780165672
1733699948952244200,1.577244140625,0.0004864898510277271,-0.0900799036026001,-0.012529504485428333
1733699948962198300,1.5871982421875,-0.0008935019141063094,-0.07631944119930267,-0.012764336541295052
1733699948972153000,1.597153076171875,-0.002367561450228095,-0.05632922053337097,-0.012031701393425465
1733699948982107100,1.607107177734375,-0.0013583694817498326,-0.03529947251081467,-0.011155935935676098
1733699948992062200,1.617062255859375,-0.001990337623283267,-0.017605429515242577,-0.009963106364011765
1733699949002016300,1.627016357421875,-0.0017931759357452393,-0.002296260092407465,-0.010710299015045166
1733699949011971300,1.636971435546875,-0.0024999789893627167,0.006896439474076033,-0.008872718550264835
1733699949021926100,1.646926025390625,-0.003808006178587675,0.011834568344056606,-0.008384442888200283
1733699949031880400,1.65688037109375,-0.004088437184691429,0.015274840407073498,-0.007296008989214897
1733699949041835300,1.666835205078125,-0.0046428777277469635,0.01659489795565605,-0.0060677295550704
1733699949051789300,1.676789306640625,-0.0038399347104132175,0.0175981093198061,-0.003969425335526466
1733699949061744000,1.686744140625,-0.0036638700403273106,0.016388429328799248,-0.0038029479328542948
1733699949071699500,1.696699462890625,-0.0036249880213290453,0.016019847244024277,0.0003033799584954977
1733699949081653200,1.7066533203125,-0.00034956401214003563,0.011188133619725704,-0.0012540370225906372
1733699949091608300,1.7166083984375,0.0007077108602970839,0.0070863328874111176,-0.000013270415365695953
1733699949101562400,1.726562255859375,0.0038510377053171396,0.0001287656486965716,0.0013622529804706573
1733699949111517200,1.73651708984375,0.004617761820554733,0.0006645936518907547,0.0018986135255545378
1733699949121471200,1.74647119140625,0.005317878909409046,-0.0028555600438266993,0.001505236141383648
1733699949131426300,1.75642626953125,0.004059269092977047,-0.0035383945796638727,0.0008261300390586257
1733699949141381400,1.76638134765625,0.004230273887515068,-0.003696806263178587,0.0006224262760952115
1733699949151335200,1.776335205078125,0.0021657918114215136,-0.002447250997647643,0.00034172902815043926
1733699949161290200,1.786290283203125,0.001502670580521226,0.0005893430789001286,0.0019135269103571773
1733699949171244300,1.796244384765625,0.0006856129039078951,0.005733238533139229,-0.00024895998649299145
1733699949181199400,1.806199462890625,-0.00036356085911393166,0.005001261364668608,0.00062627496663481
1733699949191153400,1.8161533203125,0.00118852942250669,0.006749892607331276,-0.0005556358955800533
1733699949201108200,1.826108154296875,-0.001354046631604433,0.008279875852167606,0.0004038397455587983
1733699949211063300,1.836063232421875,-0.00020249583758413792,0.005630296654999256,-0.0010510452557355165
1733699949221017300,1.846017333984375,-0.0009090963285416365,0.006527808960527182,0.0008240280440077186
1733699949230972400,1.855972412109375,-0.0011351986322551966,0.004738164599984884,-0.0020356744062155485
1733699949240926200,1.86592626953125,-0.0008284491486847401,0.001728787086904049,-0.000937978271394968
1733699949250881300,1.87588134765625,-0.002574683865532279,-0.0009098729933612049,-0.0021872669458389282
1733699949260836400,1.88583642578125,-0.0017452649772167206,-0.0037853093817830086,-0.002012179931625724
1733699949270790400,1.895790283203125,-0.0018936030101031065,-0.009093521162867546,-0.002489152131602168
1733699949280745200,1.9057451171875,0.0006336446385830641,-0.017883777618408203,-0.003971820697188377
1733699949290699300,1.91569921875,-0.00008567515760660172,-0.025678317993879318,-0.0035385244991630316
1733699949300654000,1.925654052734375,0.0016071789432317019,-0.03324960172176361,-0.003120794892311096
1733699949310609400,1.935609375,0.0013848051894456148,-0.03710879012942314,-0.0027061407454311848
1733699949320563200,1.945563232421875,0.0019287415780127048,-0.03861663490533829,-0.003070342820137739
1733699949330518300,1.955518310546875,0.00162966875359416,-0.03607650846242905,-0.002544368151575327
1733699949340472300,1.965472412109375,0.001038665883243084,-0.03223150596022606,-0.0023305746726691723
1733699949350427400,1.975427490234375,0.0015763579867780209,-0.024383435025811195,-0.003155621699988842
1733699949360381400,1.98538134765625,0.0017427022103220224,-0.01750924251973629,-0.002236920641735196
1733699949370336300,1.995336181640625,-0.0007454893784597516,-0.010249464772641659,-0.0010776468552649021
1733699949380291300,2.005291259765625,-0.0016732753720134497,-0.004154964815825224,-0.0010147367138415575
1733699949390245000,2.0152451171875,-0.001737191341817379,0.0014344772789627314,0.0005274999421089888
1733699949400200400,2.025200439453125,-0.002776740351691842,0.0022057518362998962,0.0005343051161617041
1733699949410154200,2.035154296875,-0.00316343130543828,0.0034822048619389534,0.0010927700204774737
1733699949420109300,2.045109375,-0.002003092085942626,0.0050406865775585175,0.0001646582968533039
1733699949430063400,2.0550634765625,-0.003143186215311289,0.007183524314314127,0.0026648342609405518
1733699949440018200,2.06501806640625,-0.0027476968243718147,0.009662717580795288,0.0007217929232865572
1733699949449973200,2.07497314453125,-0.0008691028924658895,0.011875538155436516,-0.0007504024542868137
1733699949459927300,2.08492724609375,-0.0003378747496753931,0.0175747312605381,0.0012431793147698045
1733699949469882400,2.09488232421875,-0.00039646425284445286,0.02310398779809475,-0.0013044006191194057
1733699949479836200,2.104836181640625,-0.00035143038257956505,0.022202109917998314,0.0003494527190923691
1733699949489791500,2.11479150390625,0.0005372664891183376,0.021014606580138206,0.0005848761647939682
1733699949499746300,2.124746337890625,-0.0002574401441961527,0.01585625298321247,0.001759300590492785
1733699949509700400,2.134700439453125,-0.00010750419460237026,0.010369607247412205,0.00008683535270392895
1733699949519655200,2.1446552734375,0.00041230511851608753,0.005576672498136759,0.0003214299213141203
1733699949529609200,2.154609130859375,0.0009579870384186506,-0.0034820695873349905,-0.0008213324472308159
1733699949539564300,2.164564208984375,0.0011681411415338516,-0.008524897508323193,-0.00001995614729821682
1733699949549518300,2.174518310546875,-0.0002457310911267996,-0.014648569747805595,-0.0018183889333158731
1733699949559473200,2.18447314453125,0.0008371982257813215,-0.017014354467391968,-0.00007046922110021114
1733699949569428200,2.19442822265625,-0.0011471231700852513,-0.01949189230799675,0.0004017092287540436
1733699949579382300,2.20438232421875,0.0004735291004180908,-0.022689780220389366,-0.0011955362278968096
1733699949589337300,2.21433740234375,-0.0006495260167866945,-0.023875420913100243,-0.0010565193369984627
1733699949599291400,2.22429150390625,-0.0005930900806561112,-0.02304385043680668,-0.001085843425244093
1733699949609246200,2.23424609375,-0.0013646078296005726,-0.0217338427901268,-0.002400379627943039
1733699949619201300,2.244201171875,0.0007351478561758995,-0.018818175420165062,-0.001851650420576334
1733699949629155000,2.254155029296875,-0.0018273458117619157,-0.013324608094990253,-0.0002676020376384258
1733699949639110400,2.2641103515625,-0.0032137937378138304,-0.010639667510986328,-0.0017448277212679386
1733699949649064200,2.274064208984375,-0.0020744935609400272,-0.006453976966440678,-0.0018974272534251213
1733699949659019300,2.284019287109375,-0.004588013514876366,-0.004442418925464153,-0.0022654938511550426
1733699949668973300,2.293973388671875,-0.0031389875803142786,-0.0009576728916727006,-0.0020287386141717434
1733699949678928400,2.303928466796875,-0.00009685149416327477,0.0012173884315416217,-0.001840625423938036
1733699949688883200,2.31388330078125,0.002583353780210018,0.004897877108305693,-0.0007087818812578917
1733699949698837200,2.323837158203125,0.0038064175751060247,0.00797133706510067,0.0013174591585993767
1733699949708792300,2.333792236328125,0.003691102610900998,0.010673381388187408,0.0002620483282953501
1733699949718746000,2.34374609375,0.004199638031423092,0.011731072328984737,0.002095269737765193
1733699949728701400,2.353701416015625,0.0030307769775390625,0.01628800667822361,0.0014217563439160585
1733699949738655200,2.3636552734375,0.0012913122773170471,0.013954796828329563,-0.0010916460305452347
1733699949748610300,2.3736103515625,0.0025121052749454975,0.014031762257218361,-0.00019549229182302952
1733699949758565000,2.383565185546875,0.0033173048868775368,0.015059858560562134,-0.001941688358783722
1733699949768519200,2.393519287109375,0.0013313854578882456,0.02508133463561535,-0.0023249173536896706
1733699949778474200,2.40347412109375,0.0006478817667812109,0.03528616949915886,-0.0010549693834036589
1733699949788428300,2.41342822265625,0.0002659845631569624,0.0448455885052681,-0.0041921730153262615
1733699949798383400,2.42338330078125,-0.0028432165272533894,0.05223934352397919,-0.0010470699053257704
1733699949808337400,2.43333740234375,-0.002972912508994341,0.048864588141441345,-0.0022628027945756912
1733699949818292500,2.44329248046875,-0.004048701375722885,0.041030991822481155,-0.0016129720024764538
1733699949828247600,2.45324755859375,-0.0030723861418664455,0.025129254907369614,-0.00012692809104919434
1733699949838201600,2.46320166015625,-0.002541095018386841,0.003946149721741676,-0.0009277753997594118
1733699949848156400,2.473156494140625,0.0003305915743112564,-0.012202193960547447,0.0025931899435818195
1733699949858110500,2.4831103515625,0.0038032629527151585,-0.027093099430203438,0.0028012716211378574
1733699949868065500,2.4930654296875,0.00364773441106081,-0.035679664462804794,0.002731496701017022
1733699949878020600,2.5030205078125,0.005098219029605389,-0.03916005417704582,0.001930642407387495
1733699949887974400,2.512974365234375,0.003380213864147663,-0.042062900960445404,0.0025815190747380257
1733699949897929500,2.522929443359375,0.0018114564009010792,-0.03654645010828972,0.0020640587899833918
1733699949907883500,2.532883544921875,0.0003203523810952902,-0.030682703480124474,0.0009266227716580033
1733699949917838600,2.542838623046875,-0.0006303391419351101,-0.021349266171455383,0.0013247427996248007
1733699949927792600,2.552792724609375,-0.0004239440895617008,-0.008964235894382,0.0024097145069390535
1733699949937747500,2.56274755859375,-0.00012206053361296654,0.006424271035939455,-0.00011754268780350685
1733699949947702500,2.57270263671875,-0.00016493722796440125,0.019391469657421112,-0.0003678796347230673
1733699949957656300,2.58265625,-0.0030654887668788433,0.02812751568853855,0.00018123071640729904
1733699949967611600,2.592611572265625,-0.0014920933172106743,0.03285276144742966,-0.0003348898608237505
1733699949977565400,2.6025654296875,-0.0031301009003072977,0.03176531568169594,-0.002453872701153159
1733699949987520500,2.6125205078125,-0.0026922770775854588,0.024513794109225273,-0.0009952594991773367
1733699949997475300,2.622475341796875,-0.002205655910074711,0.012588604353368282,-0.0020838279742747545
1733699950007429600,2.6324296875,-0.0022783600725233555,-0.002272367477416992,-0.0016270957421511412
1733699950017384400,2.642384521484375,-0.0015431803185492754,-0.014839593321084976,-0.001455535413697362
1733699950027338500,2.65233837890625,-0.0025495889130979776,-0.02419368177652359,-0.0021466254256665707
1733699950037293300,2.662293212890625,-0.0017563237342983484,-0.026584774255752563,0.001105466508306563
1733699950047247400,2.672247314453125,-0.0006471171509474516,-0.025799142196774483,0.0003784236032515764
1733699950057202700,2.68220263671875,0.001304721925407648,-0.020160190761089325,-0.000347682973369956
1733699950067157500,2.692157470703125,0.001875703688710928,-0.013344629667699337,0.0017687310464680195
1733699950077111600,2.702111572265625,0.0007927971892058849,-0.008359287865459919,0.00045225885696709156
1733699950087066400,2.71206640625,-0.00016034813597798347,-0.003726986236870289,-0.00033150939270853996
1733699950097020400,2.7220205078125,-0.00030277040787041187,-0.003352956147864461,-0.0014744470827281475
1733699950106975500,2.7319755859375,-0.0021992074325680733,-0.00096063845558092,-0.0006826894823461771
1733699950116929500,2.741929443359375,-0.0023352045100182295,-0.0013086055405437946,0.00008495338261127472
1733699950126884400,2.75188427734375,-0.00047551910392940044,-0.0020630790386348963,0.0006167866522446275
1733699950136839400,2.76183935546875,-0.0015791659243404865,-0.0033794657792896032,0.0007102125091478229
1733699950146793700,2.771793701171875,0.00014549726620316505,-0.003648444777354598,0.0004263195442035794
1733699950156748500,2.78174853515625,-0.00043288315646350384,-0.005527982488274574,-0.00041825929656624794
1733699950166702600,2.79170263671875,0.0011485018767416477,-0.003212097566574812,0.0021769911982119083
1733699950176657400,2.801657470703125,0.001534074079245329,-0.004087275825440884,0.0007330134976655245
1733699950186612500,2.811612548828125,0.0016872058622539043,-0.004775969311594963,0.0015583271160721779
1733699950196566500,2.82156640625,0.0007719914428889751,-0.004835113417357206,-0.00039878394454717636
1733699950206521600,2.831521484375,-0.001111662364564836,-0.005002626217901707,0.0009397207759320736
1733699950216475400,2.841475341796875,-0.00033774273470044136,-0.00514664500951767,0.0009498748695477843
1733699950226430500,2.851430419921875,-0.0001920678187161684,-0.0032145220320671797,-0.0006637345068156719
1733699950236384500,2.861384521484375,0.0002927191089838743,-0.00103008933365345,0.0019086324609816074
1733699950246339600,2.871339599609375,-0.000853238976560533,0.004033112432807684,0.001692650024779141
1733699950256294400,2.88129443359375,-0.0015560091705992818,0.006656843703240156,0.0009974093409255147
1733699950266248400,2.89124853515625,0.0003449551295489073,0.007796676829457283,0.001860806136392057
1733699950276203500,2.90120361328125,-0.001737516839057207,0.010116059333086014,0.004744127858430147
1733699950286157300,2.9111572265625,-0.0002051340416073799,0.008537070825695992,0.0021174519788473845
1733699950296112600,2.921112548828125,-0.0007624527206644416,0.00012313126353546977,0.0034887506626546383
1733699950306066400,2.93106640625,0.0025254860520362854,-0.008030668832361698,0.0019630256574600935
1733699950316021500,2.941021484375,0.0006633121520280838,-0.016841044649481773,0.0020062406547367573
1733699950325976300,2.950976318359375,-0.0002179278526455164,-0.022256582975387573,0.0011226038914173841
1733699950335930600,2.9609306640625,-0.0004882665816694498,-0.02333456091582775,0.0010223236167803407
1733699950345885400,2.970885498046875,-0.0026393018197268248,-0.02061280980706215,-0.00031857797876000404
1733699950355839500,2.980839599609375,-0.002870049560442567,-0.015323091298341751,0.0011722450144588947
1733699950365794300,2.990794189453125,-0.003792302217334509,-0.010882270522415638,0.00005105417221784592
1733699950375748400,3.000748291015625,-0.002837918233126402,-0.004569005221128464,-0.002022035885602236
1733699950385703700,3.01070361328125,-0.006324262358248234,-0.00047093332977965474,-0.001989545300602913
1733699950395658500,3.020658447265625,-0.0019868272356688976,0.0019718618132174015,-0.00100427377037704
1733699950405612500,3.030612548828125,-0.0013474022271111608,0.0034922605846077204,-0.001262866659089923
1733699950415567400,3.0405673828125,0.0012509245425462723,0.005162026267498732,0.0016152248717844486
1733699950425521400,3.050521484375,0.0030022193677723408,0.004655759781599045,0.002910320181399584
1733699950435476500,3.0604765625,0.0033541808370500803,0.002938041463494301,0.0007406695513054729
1733699950445431600,3.070431640625,0.0032577745150774717,0.0003931247047148645,0.0017870254814624786
1733699950455385300,3.08038525390625,0.002114853821694851,-0.00251213856972754,-0.0013874026481062174
1733699950465340400,3.09034033203125,0.0004972498863935471,-0.008054442703723907,-0.0020036580972373486
1733699950475294500,3.10029443359375,0.00004508323036134243,-0.013303549028933048,-0.0030716964974999428
1733699950485249500,3.11024951171875,-0.0006425449391826987,-0.017285507172346115,-0.00323494803160429
1733699950495203600,3.12020361328125,-0.001271149842068553,-0.016419164836406708,-0.005787328816950321
1733699950505158400,3.130158447265625,-0.0018653010483831167,-0.016286006197333336,-0.005135919898748398
1733699950515113500,3.140113525390625,-0.001635923283174634,-0.01165957935154438,-0.00485779345035553
1733699950525067500,3.150067626953125,-0.002177876653149724,-0.007577485870569944,-0.003579742508009076
1733699950535022600,3.160022705078125,-0.0028066232334822416,-0.007996832020580769,-0.0017513060010969639
1733699950544976400,3.169976318359375,-0.0023605437017977238,-0.009879420511424541,-0.0019148243591189384
1733699950554931500,3.179931396484375,0.001122449291869998,-0.013821626082062721,-0.00068047852255404
1733699950564885500,3.189885498046875,-0.00019048922695219517,-0.015342291444540024,-0.00000882917083799839
1733699950574840600,3.199840576171875,0.00104010128416121,-0.014234539121389389,0.00017646793276071548
1733699950584795400,3.20979541015625,0.0010235896334052086,-0.010893336497247219,0.0014270883984863758
1733699950594749400,3.21974951171875,0.0014620935544371605,-0.013338514603674412,0.000568780698813498
1733699950604704300,3.229704345703125,0.0010831255931407213,-0.013368342071771622,0.0007663873257115483
1733699950614658600,3.239658447265625,0.0008108702022582293,-0.014637239277362823,0.0013235533842816949
1733699950624613600,3.249613525390625,-0.001588105340488255,-0.01792864128947258,0.0008921213448047638
1733699950634567400,3.2595673828125,-0.004469310864806175,-0.01705864816904068,0.0006826160242781043
1733699950644522500,3.2695224609375,-0.004026161041110754,-0.014800820499658585,0.0005694316932931542
1733699950654477600,3.2794775390625,-0.004410560242831707,-0.009346874430775642,0.0013848920352756977
1733699950664431600,3.289431640625,-0.003309875726699829,-0.00462375907227397,0.003531133523210883
1733699950674386400,3.299386474609375,-0.003007708117365837,-0.0005030092434026301,0.0035189157351851463
1733699950684340500,3.309340576171875,-0.002424209611490369,0.004974846728146076,0.0009042239980772138
1733699950694295300,3.31929541015625,-0.002291762037202716,0.006377133075147867,0.0010369644733145833
1733699950704250600,3.329250732421875,-0.0024134686682373285,0.006682331208139658,0.00022070552222430706
1733699950714204700,3.33920458984375,-0.0024711003061383963,0.0045025767758488655,0.0008116918615996838
1733699950724159500,3.349159423828125,-0.0010670818155631423,0.0010087760165333748,0.0002148773055523634
1733699950734113500,3.359113525390625,-0.00047461572103202343,-0.002433467423543334,-0.00011357944458723068
1733699950744068400,3.369068359375,-0.00011668680235743523,-0.004367721267044544,0.0005583360325545073
1733699950754022700,3.379022705078125,-0.0008417591452598572,-0.004993549548089504,-0.0003727355506271124
1733699950763977500,3.3889775390625,0.0012309791054576635,-0.005889170803129673,0.0012810875196009874
1733699950773932500,3.3989326171875,0.0009211215656250715,-0.005974652245640755,-0.001735827885568142
1733699950783886300,3.40888623046875,0.0018076880369335413,-0.0063283201307058334,-0.00019731977954506874
1733699950793841200,3.418841064453125,0.002222348703071475,-0.0030102431774139404,-0.0005659922026097775
1733699950803795200,3.428795166015625,0.00039888243190944195,-0.004681909456849098,-0.0013154058251529932
1733699950813750000,3.43875,-0.0005142581649124622,-0.004171273671090603,-0.0007312856614589691
1733699950823704000,3.4487041015625,-0.0017856513150036335,0.00010096968617290258,0.0012724766274914145
1733699950833659000,3.458658935546875,-0.0017349147237837315,0.002172664273530245,-0.00017773243598639965
1733699950843614200,3.4686142578125,-0.0018422401044517756,0.004020631778985262,0.0005913884378969669
1733699950853568000,3.478568115234375,-0.0009496213169768453,0.00628298707306385,-0.0003854590468108654
1733699950863523000,3.488523193359375,-0.0028135678730905056,0.0073740845546126366,0.00040949461981654167
1733699950873476900,3.498476806640625,-0.002765670185908675,0.007139704190194607,0.0014799368800595403
1733699950883432000,3.508431884765625,-0.002399751916527748,0.007220131810754538,0.0007976350607350469
1733699950893386200,3.51838623046875,-0.002877525519579649,0.008392500691115856,0.00009317579679191113
1733699950903341000,3.528341064453125,-0.00044605950824916363,0.008933121338486671,0.0005341952200978994
1733699950913296000,3.5382958984375,-0.0023907844442874193,0.00702492194250226,0.0015960506862029433
1733699950923250000,3.54825,0.0008920943364500999,0.006712266709655523,0.00015874276868999004
1733699950933205200,3.558205322265625,0.00014147069305181503,0.005014939699321985,0.0019168436992913485
1733699950943159000,3.568158935546875,0.0007534651085734367,0.003173097502440214,0.0012779512908309698
1733699950953114000,3.578114013671875,0.000438544200733304,-0.001215128693729639,-0.00045047025196254253
1733699950963069000,3.58806884765625,0.00030112499371171,-0.005885247606784105,0.0000360892154276371
1733699950973023000,3.59802294921875,0.001301575219258666,-0.0072752018459141254,-0.00016773096285760403
1733699950982978000,3.60797802734375,0.0004581522662192583,-0.009469113312661648,0.0012735718628391623
1733699950992932000,3.61793212890625,0.002436332404613495,-0.013824225403368473,0.00024050194770097733
1733699951002887000,3.627886962890625,0.0019431151449680328,-0.017117490991950035,0.0004247927572578192
1733699951012841000,3.637841064453125,0.00038479152135550976,-0.019693486392498016,-0.0020459399092942476
1733699951022796000,3.647796142578125,0.0004878558684140444,-0.018439404666423798,-0.00139825907535851
1733699951032751000,3.657751220703125,0.00132706668227911,-0.016406606882810593,-0.0016514663584530354
1733699951042705200,3.667705078125,-0.0013126585399731994,-0.012615065090358257,-0.0015737018547952175
1733699951052660000,3.677659912109375,-0.001710755517706275,-0.011554794386029243,-0.0012566084042191505
1733699951062614000,3.687614013671875,-0.003715316765010357,-0.008961941115558147,-0.0026483761612325907
1733699951072569000,3.697569091796875,-0.0027325376868247986,-0.007490416988730431,-0.0030577315483242273
1733699951082523100,3.707523193359375,-0.004053199198096991,-0.00754501111805439,-0.0027922142762690783
1733699951092478000,3.71747802734375,-0.0019045895896852016,-0.008523158729076385,-0.0011437793727964163
1733699951102433000,3.72743310546875,0.001534616807475686,-0.01059722900390625,-0.0006857158150523901
1733699951112386800,3.73738671875,0.004098380450159311,-0.009214588440954685,0.001962294802069664
1733699951122342100,3.747342041015625,0.002042952924966812,-0.007848120294511318,0.0012347191805019975
1733699951132296200,3.757296142578125,0.0014148326590657234,-0.00492659630253911,0.001712269731797278
1733699951142251000,3.7672509765625,0.0012478523422032595,-0.0027167052030563354,0.002900039544329047
1733699951152205000,3.777205078125,0.0005882519762963057,0.0018489314243197441,0.0005392264574766159
1733699951162159900,3.787159912109375,0.00020262622274458408,0.00547802122309804,0.0008971553761512041
1733699951172115200,3.797115234375,-0.00011033215560019016,0.007792589254677296,-0.0005280009936541319
1733699951182069000,3.807069091796875,-0.0016144856344908476,0.00952817127108574,-0.0014292148407548666
1733699951192024000,3.817024169921875,-0.0021173337008804083,0.011966495774686337,-0.001547294668853283
1733699951201977900,3.826977783203125,-0.0024901763536036015,0.01264613401144743,-0.0015283862594515085
1733699951211933200,3.83693310546875,-0.0019602191168814898,0.012135815806686878,-0.00019036070443689823
1733699951221888000,3.846887939453125,-0.0020305265206843615,0.011941937729716301,0.0007609204621985555
1733699951231842000,3.856842041015625,0.0001110441517084837,0.00982947088778019,0.0010317182168364525
1733699951241796900,3.866796875,0.0009390208870172501,0.0020224140025675297,0.0016495715826749802
1733699951251751000,3.8767509765625,0.000781588489189744,-0.007064459379762411,0.0018743174150586128
1733699951261706200,3.886706298828125,-0.00007914518937468529,-0.01083070132881403,0.0008766973624005914
1733699951271660000,3.896659912109375,0.00041072932071983814,-0.011387532576918602,0.0011256375582888722
1733699951281615000,3.906614990234375,0.000050403643399477005,-0.009225578978657722,0.0038721556775271893
1733699951291570000,3.91656982421875,-0.000012383097782731056,-0.0065278830006718636,0.0017497249646112323
1733699951301524000,3.92652392578125,-0.0010619349777698517,-0.0006193938315846026,0.003072250634431839
1733699951311479000,3.93647900390625,-0.0011295239673927426,0.003634329419583082,0.0018197308527305722
1733699951321433000,3.94643310546875,-0.0029527239967137575,0.007519615348428488,0.0029603627044707537
1733699951331388000,3.956387939453125,-0.0022767765913158655,0.006962466984987259,0.0022236278746277094
1733699951341342000,3.966342041015625,-0.0018490729853510857,0.003160538151860237,0.0009442453738301992
1733699951351297000,3.976297119140625,-0.000820136396214366,-0.0036869612522423267,0.0024736267514526844
1733699951361252000,3.986252197265625,0.0007407423108816147,-0.00920130219310522,0.002419830998405814
1733699951371206100,3.9962060546875,-0.0004497778136283159,-0.015774507075548172,0.0029757926240563393
1733699951381161000,4.006160888671875,-0.000851915217936039,-0.01678144745528698,0.0018167848465964198
1733699951391115000,4.016114990234375,-0.0011558389523997903,-0.017222857102751732,0.0014677586732432246
1733699951401070000,4.026070068359375,-0.0009963156189769506,-0.014773547649383545,0.0010834645945578814
1733699951411024100,4.036024169921875,-0.0022208287846297026,-0.010238926857709885,0.0005227059591561556
1733699951420979000,4.04597900390625,-0.0017478512600064278,-0.007505723740905523,0.0007291010115295649
1733699951430934000,4.05593408203125,-0.0034231909085065126,-0.008966345340013504,0.0014426629059016705
1733699951440887800,4.0658876953125,-0.0022804285399615765,-0.012634582817554474,0.0011662268079817295
1733699951450843100,4.075843017578125,-0.005248199682682753,-0.018586892634630203,0.0025896362494677305
1733699951460797200,4.085797119140625,-0.0028936988674104214,-0.023068459704518318,0.0023787140380591154
1733699951470752000,4.095751953125,-0.0021797672379761934,-0.02576003037393093,0.0027937619015574455
1733699951480706000,4.1057060546875,-0.002279635751619935,-0.027995754033327103,0.0032670055516064167
1733699951490661000,4.1156611328125,-0.002482149051502347,-0.025300081819295883,0.002816546941176057
1733699951500616200,4.1256162109375,-0.0013399193994700909,-0.024573037400841713,0.002322796732187271
1733699951510570000,4.135570068359375,-0.00199342193081975,-0.024760272353887558,0.002383014652878046
1733699951520525000,4.145525146484375,-0.0009838176192715764,-0.024786638095974922,0.006075487472116947
1733699951530478800,4.155478759765625,-0.005418420769274235,-0.026086419820785522,0.009405327029526234
1733699951540434200,4.16543408203125,-0.0036186561919748783,-0.013718965463340282,0.014081304892897606
1733699951550389000,4.175388916015625,-0.0019375758711248636,0.018710454925894737,0.017112605273723602
1733699951560343000,4.185343017578125,-0.0012885634787380695,0.05761284753680229,0.01811821386218071
1733699951570297900,4.1952978515625,-0.00416662497445941,0.10091297328472137,0.015186875127255917
1733699951580252000,4.205251953125,-0.00929241068661213,0.13532981276512146,0.008983307518064976
1733699951590207000,4.21520703125,-0.00968572311103344,0.15654726326465607,0.005185962654650211
1733699951600161000,4.2251611328125,-0.009610888548195362,0.15639041364192963,0.004924706183373928
1733699951610116000,4.2351162109375,-0.004169324412941933,0.13442470133304596,0.0037808180786669254
1733699951620071000,4.24507080078125,-0.00222867913544178,0.09992183744907379,0.005882318131625652
1733699951630025000,4.25502490234375,-0.0012080369051545858,0.06257263571023941,0.005682433024048805
1733699951639980000,4.26497998046875,-0.0018290861044079065,0.030523626133799553,0.005031556822359562
1733699951649934000,4.27493408203125,-0.00296768662519753,0.0011189434444531798,0.0035339451860636473
1733699951659889000,4.284888916015625,-0.0019492937717586756,-0.021723520010709763,0.0033062449656426907
1733699951669843000,4.294843017578125,0.0005899539683014154,-0.03197159990668297,0.003310977481305599
1733699951679798000,4.304798095703125,-0.00039727985858917236,-0.03462117910385132,0.004259595647454262
1733699951689753000,4.314753173828125,-0.00042736344039440155,-0.03587280958890915,0.004136824980378151
1733699951699707100,4.32470703125,-0.0004095202311873436,-0.03346770629286766,0.003874237183481455
1733699951709662000,4.334661865234375,0.00006726710125803947,-0.029263591393828392,0.0018692309968173504
1733699951719616000,4.344615966796875,-0.0001239478588104248,-0.026097092777490616,0.0012130280956625938
1733699951729571000,4.354571044921875,-0.0024160780012607574,-0.028095223009586334,-0.0004705896135419607
1733699951739525000,4.364525146484375,-0.0026637520641088486,-0.03090778924524784,-0.00033263792283833027
1733699951749480000,4.37447998046875,-0.005400202237069607,-0.03424157202243805,-0.0012634454760700464
1733699951759435000,4.38443505859375,-0.00515013188123703,-0.034269534051418304,-0.0005883341655135155
1733699951769388800,4.394388916015625,-0.004812947474420071,-0.02961040660738945,-0.00013530091382563114
1733699951779344100,4.40434423828125,-0.005117613356560469,-0.026696642860770226,-0.002373953815549612
1733699951789298200,4.414298095703125,-0.0024038420524448156,-0.020950015634298325,-0.0025744889862835407
1733699951799253200,4.424253173828125,-0.0005904955323785543,-0.017714541405439377,-0.0010825861245393753
1733699951809207300,4.434207275390625,0.001624243101105094,-0.015834227204322815,0.0014408176066353917
1733699951819162000,4.444162109375,0.002225585049018264,-0.01522915717214346,-0.001104365335777402
1733699951829117200,4.4541171875,0.001885885139927268,-0.01902199536561966,-0.000485594617202878
1733699951839071000,4.464071044921875,0.0017985336016863585,-0.023346170783042908,-0.0010081068612635136
1733699951849026300,4.4740263671875,0.002094318624585867,-0.02682223543524742,-0.0015674596652388573
1733699951858980000,4.48397998046875,0.0003094680141657591,-0.029955711215734482,-0.0021051522344350815
1733699951868935200,4.49393505859375,-0.00031178235076367855,-0.027777332812547684,-0.0016611430328339338
1733699951878889000,4.503888916015625,-0.00029660225845873356,-0.020321547985076904,-0.0005338271148502827
1733699951888844000,4.513843994140625,-0.0002856017090380192,-0.012467833235859871,-0.0012807559687644243
1733699951898799000,4.523799072265625,-0.0007705632597208023,-0.0010766948107630014,-0.0020522738341242075
1733699951908753200,4.533753173828125,-0.001017280388623476,0.008116558194160461,-0.0009226780384778976
1733699951918708000,4.5437080078125,0.00008500181138515472,0.010236967355012894,-0.0029261738527566195
1733699951928662000,4.553662109375,0.002003876492381096,0.010456058196723461,0.0004715472459793091
1733699951938617300,4.563617431640625,0.0011210385710000992,0.004353956785053015,-0.0004941150546073914
1733699951948572200,4.573572265625,-0.00046317907981574535,-0.003228139830753207,-0.0022375709377229214
1733699951958526200,4.583526123046875,0.0013826580252498388,-0.007099044509232044,0.0012442459119483829
1733699951968481000,4.59348095703125,0.0019318016711622477,-0.013644029386341572,0.0009286613203585148
1733699951978435000,4.60343505859375,0.0022583419922739267,-0.014216091483831406,0.0005185649497434497
1733699951988390100,4.61339013671875,0.000042674364522099495,-0.013706843368709087,0.00036019482649862766
1733699951998344200,4.62334423828125,0.00023948214948177338,-0.011181102134287357,0.0020268012303858995
1733699952008299000,4.633299072265625,0.0024487972259521484,-0.008424529805779457,-0.00031524011865258217
1733699952018254000,4.643254150390625,-0.0004817453445866704,-0.0072388905100524426,-0.001308066537603736
1733699952028208000,4.6532080078125,0.00033162557519972324,-0.008920427411794662,-0.0004057560581713915
1733699952038163200,4.6631630859375,0.00002988940104842186,-0.008590461686253548,-0.0006339889951050282
1733699952048117200,4.6731171875,0.0015136413276195526,-0.007100974675267935,-0.002104204148054123
1733699952058072000,4.683072021484375,0.0028042090125381947,-0.004708124324679375,-0.003129254560917616
1733699952068026000,4.693026123046875,0.001816809643059969,-0.0015334482304751873,-0.0018998230807483196
1733699952077981000,4.70298095703125,-0.00017203879542648792,0.002750512445345521,-0.0029419180937111378
1733699952087936300,4.712936279296875,-0.0008164612809196115,0.00536565063521266,-0.0039312224835157394
1733699952097890000,4.72289013671875,-0.0017336539458483458,0.0075904554687440395,-0.00316023756749928
1733699952107845000,4.73284521484375,-0.0013317300472408533,0.006924196146428585,-0.003382019465789199
1733699952117799200,4.742799072265625,-0.0012795320944860578,0.008180675096809864,-0.0037266325671225786
1733699952127754200,4.752754150390625,0.0006885840557515621,0.0017341887578368187,-0.00264112395234406
1733699952137708300,4.762708251953125,-0.0004078394267708063,-0.006410823203623295,-0.0027404597494751215
1733699952147663000,4.7726630859375,-0.00046888168435543776,-0.014230702072381973,-0.001256313407793641
1733699952157618000,4.782617919921875,0.001982558285817504,-0.02558668702840805,-0.000009155133739113808
1733699952167572000,4.792572021484375,0.0032159071415662766,-0.03291492164134979,-0.00018862122669816017
1733699952177527300,4.80252734375,0.0021620942279696465,-0.03920211270451546,-0.00093270861543715
1733699952187481000,4.812481201171875,0.0013827751390635967,-0.040834151208400726,0.0005865376442670822
1733699952197436200,4.822436279296875,0.0031836049165576696,-0.03856087848544121,0.001677634776569903
1733699952207390000,4.832389892578125,0.0020852365996688604,-0.03368858993053436,-0.00024043605662882328
1733699952217345000,4.842344970703125,0.0015595282893627882,-0.02411399409174919,0.0021873016376048326
1733699952227300000,4.852300048828125,0.0003688335418701172,-0.01068881805986166,0.003408869029954076
1733699952237254100,4.862254150390625,-0.0025308162439614534,0.000693265930749476,0.0012237454066053033
1733699952247209000,4.872208984375,-0.0019404621561989188,0.017361363396048546,0.00196273741312325
1733699952257163000,4.8821630859375,-0.0021926634944975376,0.02953227423131466,0.0043926057405769825
1733699952267118300,4.892118408203125,-0.004569138400256634,0.037191085517406464,0.00473520765081048
1733699952277072100,4.902072021484375,-0.005284995771944523,0.04332780838012695,0.004723756108433008
1733699952287027200,4.912027099609375,-0.004257327876985073,0.04442525655031204,0.0048837810754776
1733699952296982000,4.92198193359375,-0.0024767385330051184,0.04285372421145439,0.0058467797935009
1733699952306936000,4.93193603515625,-0.0026948321610689163,0.038641247898340225,0.004327714908868074
1733699952316891100,4.94189111328125,0.001482602208852768,0.033414263278245926,0.005006554536521435
1733699952326845200,4.95184521484375,0.004666358698159456,0.0370032824575901,0.004517540335655212
1733699952336800000,4.961800048828125,0.0030349059961736202,0.0471469983458519,0.004283448681235313
1733699952346754000,4.971754150390625,0.004389218054711819,0.06688246130943298,0.004417494870722294
1733699952356709000,4.981709228515625,0.0023465731646865606,0.09630293399095535,0.0055067278444767
1733699952366664200,4.991664306640625,0.00222411984577775,0.12560981512069702,0.0033546853810548782
1733699952376618200,5.0016181640625,-0.002328021451830864,0.13227544724941254,-0.0006365941371768713
1733699952386573000,5.011572998046875,-0.00242818845435977,0.10560572147369385,-0.005457776598632336
1733699952396527000,5.021527099609375,-0.003994659520685673,0.04640178009867668,-0.009503117762506008
1733699952406482200,5.031482177734375,-0.0012792105553671718,-0.035261016339063644,-0.008774388581514359
1733699952416437200,5.041437255859375,0.0027789142914116383,-0.11381281912326813,-0.0047112032771110535
1733699952426391000,5.05139111328125,0.006597188301384449,-0.16682127118110657,-0.0021968232467770576
1733699952436346000,5.06134619140625,0.00735272653400898,-0.1778438240289688,-0.0009754977654665709
1733699952446300000,5.0712998046875,0.0033342454116791487,-0.1515052318572998,0.0005333932349458337
1733699952456255200,5.081255126953125,0.0014418032951653004,-0.09971767663955688,0.00004417053423821926
1733699952466209300,5.091209228515625,-0.003593195928260684,-0.039512500166893005,-0.0022751803044229746
1733699952476164000,5.1011640625,-0.0062576886266469955,0.008853967301547527,-0.0045468565076589584
1733699952486119000,5.111118896484375,-0.006563234608620405,0.03861474245786667,-0.003914443776011467
1733699952496073000,5.121072998046875,-0.0048952968791127205,0.04843594878911972,-0.00112664676271379
1733699952506028300,5.1310283203125,-0.004032831639051437,0.04408363252878189,-0.0011006935965269804
1733699952515982000,5.140982177734375,-0.0034629148431122303,0.03252817690372467,-0.0032485327683389187
1733699952525937200,5.150937255859375,-0.0031539094634354115,0.01856713928282261,-0.0016047426033765078
1733699952535891000,5.160890869140625,-0.0029480471275746822,0.003213750198483467,-0.002426860621199012
1733699952545846300,5.17084619140625,0.000005998648703098297,-0.00902622565627098,-0.0032678262796252966
1733699952555801000,5.180801025390625,0.0005705887451767921,-0.02056730166077614,-0.0042497338727116585
1733699952565755100,5.190755126953125,0.0019688273314386606,-0.03019004873931408,-0.00363658694550395
1733699952575710000,5.2007099609375,0.0035701857414096594,-0.033230312168598175,-0.003326594829559326
1733699952585664000,5.2106640625,0.003055197885259986,-0.030808521434664726,-0.002851426601409912
1733699952595619300,5.220619384765625,0.0015965846832841635,-0.02390480972826481,-0.004141195211559534
1733699952605573000,5.230572998046875,0.00238842167891562,-0.013508309610188007,-0.0021373454947024584
1733699952615528200,5.240528076171875,0.0014991920907050371,0.0013172415783628821,-0.002211381448432803
1733699952625483000,5.25048291015625,0.0023001402150839567,0.012989968061447144,-0.0007529135327786207
1733699952635437000,5.26043701171875,0.002770454389974475,0.01778472401201725,-0.0023337658494710922
1733699952645392100,5.27039208984375,-0.0001225366722792387,0.014445201493799686,-0.0022903308272361755
1733699952655346200,5.28034619140625,0.0009049107320606709,0.00904990267008543,-0.0010972346644848585
1733699952665301000,5.290301025390625,0.005259776022285223,0.0007117257919162512,-0.001744056586176157
1733699952675255000,5.300255126953125,0.0021782326512038708,-0.0045464192517101765,-0.002267900388687849
1733699952685210000,5.310210205078125,0.0022519209887832403,-0.010302361100912094,-0.0024671927094459534
1733699952695165200,5.320165283203125,0.001886269310489297,-0.007751318160444498,-0.0016093887388706207
1733699952705119200,5.330119140625,0.0016382629983127117,-0.0012677661143243313,-0.0035338487941771746
1733699952715074000,5.340073974609375,-0.00025151600129902363,0.0030873012728989124,-0.002857938641682267
1733699952725028000,5.350028076171875,0.0000023758038878440857,0.0023949870374053717,-0.004611541051417589
1733699952734983200,5.359983154296875,0.0007147714495658875,-0.001841037068516016,-0.004622992593795061
1733699952744937200,5.369937255859375,0.0009027526248246431,-0.011437189765274525,-0.00416522566229105
1733699952754892000,5.37989208984375,0.0017467085272073746,-0.020743073895573616,-0.0036285987589508295
1733699952764847000,5.38984716796875,0.0025687844026833773,-0.027153901755809784,-0.003048352897167206
1733699952774801000,5.39980078125,0.00021668081171810627,-0.02802342362701893,-0.0025609941221773624
1733699952784756200,5.409756103515625,0.0018035529647022486,-0.023524975404143333,-0.0025989022105932236
1733699952794710000,5.4197099609375,-0.00004281662404537201,-0.016178913414478302,-0.0022534900344908237
1733699952804665000,5.4296650390625,-0.000031309667974710464,-0.00930144265294075,-0.0021682099904865026
1733699952814619100,5.439619140625,0.0017657913267612457,-0.002452591434121132,-0.0025176170747727156
1733699952824574000,5.449573974609375,-0.0026250150986015797,-0.003173182252794504,-0.0029382139910012484
1733699952834529000,5.459529052734375,-0.0030287504196166992,-0.00432180380448699,-0.002680952427908778
1733699952844483000,5.469483154296875,-0.0037191524170339108,-0.008493009023368359,-0.0014836874324828386
1733699952854438100,5.479438232421875,-0.003157225204631686,-0.008836557157337666,-0.00023040384985506535
1733699952864392000,5.489391845703125,-0.003342831041663885,-0.006829993333667517,0.0010146520799025893
1733699952874347000,5.499346923828125,-0.0007092311279848218,-0.005298941861838102,0.0011579302372410893
1733699952884301000,5.509301025390625,-0.0011526483576744795,-0.002524276962503791,-0.00031535630114376545
1733699952894256000,5.519256103515625,0.0008074382785707712,-0.002634798176586628,0.0010135611519217491
1733699952904211000,5.5292109375,-0.0016645346768200397,-0.0028130756691098213,-0.0014527961611747742
1733699952914165000,5.5391650390625,-0.0007018019678071141,-0.004989943467080593,-0.0007696952670812607
1733699952924120000,5.5491201171875,0.0003600527998059988,-0.008146281354129314,0.00047110405284911394
1733699952934073900,5.559073974609375,0.001663670176640153,-0.010904783383011818,-0.00009029032662510872
1733699952944029200,5.569029296875,0.002197113586589694,-0.008089417591691017,0.0010964415268972516
1733699952953983000,5.57898291015625,0.002670357236638665,-0.005083506926894188,0.00048790930304676294
1733699952963938000,5.58893798828125,0.0004908139817416668,-0.004144083242863417,-0.0005060096736997366
1733699952973892900,5.598892822265625,0.00123197166249156,-0.0011552174109965563,-0.0004727202467620373
1733699952983847200,5.60884716796875,0.0004056717734783888,-0.00038844143273308873,-0.0007107197307050228
1733699952993802000,5.618802001953125,-0.0010931553551927209,0.0015047998167574406,0.002404912607744336
1733699953003756000,5.628756103515625,-0.0006910656811669469,0.0032461988739669323,-0.00006457488052546978
1733699953013710800,5.6387109375,-0.000866834307089448,0.006697655655443668,0.00020866538397967815
1733699953023665000,5.648664794921875,0.0006130654364824295,0.010648051276803017,-0.0006782393902540207
1733699953033620200,5.6586201171875,-0.0005299632903188467,0.013729594647884369,-0.0007919564377516508
1733699953043575000,5.668574951171875,-0.0027125237975269556,0.014243153855204582,-0.0005383354146033525
1733699953053529000,5.678529052734375,-0.0029857640620321035,0.012186127714812756,-0.0013077226467430592
1733699953063484000,5.68848388671875,-0.0005105221644043922,0.007448796182870865,0.0008156755939126015
1733699953073438000,5.69843798828125,0.0016663458663970232,0.002070276066660881,0.000730987056158483
1733699953083393000,5.70839306640625,0.001004712888970971,-0.0032591994386166334,0.0006624222733080387
1733699953093347000,5.71834716796875,-0.0006373921642079949,-0.0053367312066257,0.0011857333593070507
1733699953103302000,5.728302001953125,0.001547503750771284,-0.00533269252628088,0.0006458064308390021
1733699953113257000,5.738257080078125,0.0015293941833078861,-0.0011629811488091946,0.002576598199084401
1733699953123211300,5.748211181640625,-0.00043311971239745617,0.0012273285537958145,0.0013920830097049475
1733699953133166000,5.758166015625,0.0008939334657043219,0.0027463955339044333,-0.0009283293038606644
1733699953143120100,5.7681201171875,-0.0013531158911064267,0.0005779480561614037,-0.00045685935765504837
1733699953153075000,5.778074951171875,0.0010266848839819431,-0.0012854656670242548,-0.002403097692877054
1733699953163029000,5.788029052734375,0.00027331989258527756,-0.006555594969540834,-0.0009237115737050772
1733699953172984000,5.797984130859375,-0.000635084230452776,-0.010807065293192863,-0.004297404084354639
1733699953182939100,5.807939208984375,-0.001255440409295261,-0.014032435603439808,-0.003120741806924343
1733699953192893000,5.817892822265625,-0.0027332284953445196,-0.01726231724023819,-0.0016975486651062965
1733699953202848000,5.827847900390625,-0.0027294838801026344,-0.0200120210647583,-0.0030103898607194424
1733699953212802000,5.837802001953125,-0.0038184504956007004,-0.0215073861181736,-0.003880710806697607
1733699953222757000,5.847757080078125,-0.0009968603262677789,-0.020844683051109314,-0.003835642011836171
1733699953232711200,5.857711181640625,0.002066041110083461,-0.019533876329660416,-0.00105290487408638
1733699953242666000,5.867666015625,0.0023040873929858208,-0.015980930998921394,0.0014825263060629368
1733699953252621000,5.87762109375,0.0053201173432171345,-0.00967057142406702,0.0014140831772238016
1733699953262574800,5.887574951171875,0.003687177551910281,-0.005357351619750261,-0.0009305223356932402
1733699953272530200,5.8975302734375,0.0005489084869623184,-0.0006568726967088878,0.0008364849491044879
1733699953282484000,5.90748388671875,0.0021078954450786114,-0.0003140521585009992,-0.0013269237242639065
1733699953292439000,5.91743896484375,0.0014695359859615564,0.0038553928025066853,-0.0003000088036060333
1733699953302392800,5.927392822265625,0.00003654882311820984,0.0034204269759356976,0.00004995986819267273
1733699953312348200,5.93734814453125,-0.0016966364346444607,0.005088098347187042,0.00013731163926422596
1733699953322303000,5.947302978515625,-0.002027315553277731,0.007834406569600105,-0.0013829066883772612
1733699953332257000,5.957257080078125,-0.0006762939738109708,0.012868047691881657,0.001893047709017992
1733699953342211800,5.9672119140625,-0.002202352276071906,0.01759018562734127,0.0012217812472954392
1733699953352166000,5.977165771484375,-0.0023845124524086714,0.020499156787991524,0.0001637074165046215
1733699953362121200,5.987121337890625,0.0004246043972671032,0.01905045099556446,0.0016911771381273866
1733699953372075000,5.997074951171875,-0.000590858981013298,0.01317711640149355,0.0002900881227105856
1733699953382030000,6.007030029296875,0.0007371252868324518,0.0020426150877028704,-0.0011744943913072348
1733699953391985000,6.01698486328125,-0.0001478430349379778,-0.008483262732625008,-0.0014290926046669483
1733699953401939000,6.02693896484375,0.0032331610564142466,-0.015398780815303326,-0.00036088121123611927
1733699953411894000,6.03689404296875,0.002379618352279067,-0.020884625613689423,-0.0017201586160808802
1733699953421848000,6.04684814453125,0.002822288777679205,-0.0215178020298481,-0.0018410913180559874
1733699953431803000,6.056802978515625,0.003669972997158766,-0.019767839461565018,-0.00018380628898739815
1733699953441757000,6.0667568359375,0.00120503269135952,-0.01761249266564846,-0.0005864826962351799
1733699953451712300,6.076712158203125,-0.0000037762802094221115,-0.013963162899017334,-0.001229636138305068
1733699953461667000,6.0866669921875,0.0002937908284366131,-0.013147292658686638,-0.0006797127425670624
1733699953471621000,6.09662109375,0.00038833310827612877,-0.012129698880016804,-0.0016341896262019873
1733699953481576000,6.106575927734375,0.0004701798316091299,-0.012839237228035927,-0.0009636103641241789
1733699953491530000,6.116530029296875,0.0005151873920112848,-0.012779315933585167,-0.0004032813012599945
1733699953501485000,6.126485107421875,-0.0005480109248310328,-0.011999147944152355,-0.0011471440084278584
1733699953511440100,6.136440185546875,-0.0019512304570525885,-0.007343410514295101,-0.0002089124172925949
1733699953521394000,6.146393798828125,-0.0014109191251918674,-0.0011957234237343073,-0.0008943919092416763
1733699953531349000,6.156348876953125,-0.0017486079595983028,0.0033436347730457783,-0.0014600472059100866
1733699953541303000,6.166302978515625,-0.0005667154910042882,0.005317612085491419,0.001269118394702673
1733699953551258000,6.176258056640625,-0.0013912301510572433,0.003373237792402506,0.00013807392679154873
1733699953561212200,6.186212158203125,-0.000989894033409655,-0.0014836408663541079,0.0007819210877642035
1733699953571167000,6.1961669921875,-0.00026072049513459206,-0.007809979375451803,0.00216463441029191
1733699953581122000,6.2061220703125,-0.0006314045749604702,-0.01054673083126545,0.0005196427227929235
1733699953591076000,6.216076171875,-0.0010780167067423463,-0.011505735106766224,0.0010384265333414078
1733699953601031200,6.22603125,-0.002236256143078208,-0.010570771060883999,0.0005240573082119226
1733699953610985000,6.23598486328125,0.0002111888024955988,-0.005293185357004404,0.0017006418202072382
1733699953620940000,6.24593994140625,-0.0006412335205823183,-0.0016973493620753288,0.00043637771159410477
1733699953630893800,6.255893798828125,0.0008274998981505632,0.0014856606721878052,-0.001080558868125081
1733699953640849200,6.26584912109375,0.0007587589789181948,0.0035858808550983667,-0.0008164276368916035
1733699953650803200,6.27580322265625,0.0006170787382870913,0.002480402821674943,-0.001061971066519618
1733699953660758000,6.285758056640625,0.0010069692507386208,0.0009273340692743659,-0.0005774786695837975
1733699953670712800,6.295712890625,-0.00019704573787748814,0.0007643486023880541,0.0013048434630036354
1733699953680667000,6.3056669921875,-0.00013765995390713215,0.0033129628282040358,0.003099772147834301
1733699953690622200,6.315622314453125,0.0008916517253965139,0.013080106116831303,0.005240687169134617
1733699953700576000,6.325575927734375,0.0022507866378873587,0.02798418514430523,0.00535797793418169
1733699953710531000,6.335531005859375,0.0022566455882042646,0.03605009987950325,0.003907354082912207
1733699953720486000,6.34548583984375,-0.001929344143718481,0.04490860179066658,0.0008029908640310168
1733699953730440200,6.355440185546875,-0.004679590463638306,0.042899779975414276,-0.000773334177210927
1733699953740395000,6.36539501953125,-0.003825900610536337,0.03641734644770622,-0.0011187221389263868
1733699953750349000,6.37534912109375,0.00024580652825534344,0.02461155131459236,0.00000433274544775486
1733699953760303900,6.385303955078125,0.0012988976668566465,0.009293552488088608,-0.00031322031281888485
1733699953770258000,6.3952578125,0.00013296562246978283,-0.008813812397420406,0.0009009146597236395
1733699953780213000,6.405212890625,0.0005208556540310383,-0.020493198186159134,-0.0005820200312882662
1733699953790168000,6.41516796875,-0.00130048010032624,-0.028373224660754204,0.00045368331484496593
1733699953800121900,6.425121826171875,-0.0007037465693429112,-0.027736779302358627,-0.00042691780254244804
1733699953810077000,6.435076904296875,-0.00005073961801826954,-0.022444013506174088,0.00027296110056340694
1733699953820031000,6.445031005859375,0.003278571180999279,-0.013006462715566158,0.0008973645744845271
1733699953829985800,6.45498583984375,0.0020535169169306755,-0.0020888340659439564,0.0026212288066744804
1733699953839939800,6.46493994140625,-0.0006269377190619707,0.004311063326895237,0.0007497509941458702
1733699953849894700,6.474894775390625,0.000049238791689276695,0.009071730077266693,0.00034708110615611076
1733699953859849000,6.484848876953125,-0.002099708653986454,0.010046463459730148,0.0018431511707603931
1733699953869804000,6.494803955078125,-0.000054667238146066666,0.006240540184080601,0.001488684443756938
1733699953879758800,6.5047587890625,-0.0007158337393775582,-0.0004712461377494037,0.00143038434907794
1733699953889713000,6.514712890625,-0.0025169295258820057,-0.006927547510713339,0.000954211107455194
1733699953899668000,6.52466796875,0.0013696709647774696,-0.011669274419546127,0.0005685427458956838
1733699953909622000,6.5346220703125,0.0008871061727404594,-0.013920710422098637,0.00006227591075003147
1733699953919576800,6.544576904296875,-0.00046437419950962067,-0.015567835420370102,0.0002634185366332531
1733699953929532000,6.554531982421875,-0.0016798407305032015,-0.01393931359052658,0.00043252925388514996
1733699953939485700,6.564485595703125,-0.0011158278211951256,-0.012873837724328041,-0.0004499601200222969
1733699953949441000,6.57444091796875,-0.0024335598573088646,-0.012443204410374165,-0.00029523042030632496
1733699953959394800,6.584394775390625,-0.0034643688704818487,-0.011688480153679848,-0.0014678281731903553
1733699953969350000,6.594349853515625,-0.003787144087255001,-0.013421399518847466,-0.0024390830658376217
1733699953979304000,6.604303955078125,-0.0016161507228389382,-0.011730081401765347,0.00043342914432287216
1733699953989258800,6.6142587890625,-0.0010864479700103402,-0.011057366617023945,-0.00009813765063881874
1733699953999212800,6.624212890625,0.0025534816086292267,-0.008090367540717125,0.0017787436954677105
1733699954009168000,6.63416796875,0.002936976496130228,-0.005327604245394468,0.000968077452853322
1733699954019123000,6.644123046875,0.00044188741594552994,-0.004478949587792158,0.0016621690010651946
1733699954029076700,6.65407666015625,0.0004834327846765518,-0.0062044113874435425,-0.000006834045052528381
1733699954039031800,6.66403173828125,0.000814890256151557,-0.0071205743588507175,-0.00008205580525100231
1733699954048985900,6.67398583984375,-0.00016169087029993534,-0.01052116509526968,0.0011379382340237498
1733699954058941000,6.68394091796875,-0.0026026612613350153,-0.013574356213212013,-0.0007117399945855141
1733699954068895000,6.69389501953125,-0.002340340055525303,-0.013200980611145496,0.0001247590407729149
1733699954078849800,6.703849853515625,-0.003864054335281253,-0.012966658920049667,0.0003482792526483536
1733699954088804900,6.713804931640625,-0.0043474179692566395,-0.011723228730261326,0.0011400370858609676
1733699954098759000,6.723759033203125,-0.0016268899198621511,-0.01017257384955883,0.0005687610246241093
1733699954108714000,6.7337138671875,-0.0014186307089403272,-0.009758185595273972,0.0016670485492795706
1733699954118667800,6.743667724609375,-0.0015206190291792154,-0.00936815980821848,0.002320072613656521
1733699954128622800,6.753622802734375,0.0002173599787056446,-0.010852072387933731,0.0009791709017008543
1733699954138576600,6.76357666015625,0.0009269081056118011,-0.009156346321105957,0.0027972417883574963
1733699954148532000,6.773531982421875,0.0029035063926130533,-0.005321660544723272,0.002799638547003269
1733699954158486800,6.78348681640625,0.0030477566178888083,0.0021940809674561024,0.0034312433563172817
1733699954168440800,6.79344091796875,0.0012823473662137985,0.008924688212573528,0.0033974209800362587
1733699954178395600,6.803395751953125,0.00149259134195745,0.012613201513886452,0.0041428375989198685
1733699954188350000,6.813349853515625,-0.00015697069466114044,0.014397785998880863,0.00258755125105381
1733699954198304800,6.8233046875,0.0010763490572571754,0.011890825815498829,0.003257585223764181
1733699954208258800,6.8332587890625,0.00014823745004832745,0.0071986024267971516,0.004098611418157816
1733699954218214000,6.8432138671875,-0.0015609893016517162,0.004848489072173834,0.00462375208735466
1733699954228169000,6.8531689453125,-0.0010057201143354177,0.004213325213640928,0.0033582178875803947
1733699954238123000,6.863123046875,-0.002693846821784973,0.0015518858563154936,0.0034672708716243505
1733699954248077800,6.873077880859375,-0.0008299003820866346,-0.0011285857763141394,0.004115750547498465
1733699954258031900,6.883031982421875,0.00030911900103092194,-0.0008759074262343347,0.00456289341673255
1733699954267986700,6.892986572265625,0.0013259139377623796,-0.002751571824774146,0.004834002815186977
1733699954277940700,6.902940673828125,0.0017999974079430103,-0.003690085606649518,0.003792205825448036
1733699954287895800,6.912895751953125,0.0008798751514405012,-0.006824360229074955,0.004983970429748297
1733699954297851000,6.922850830078125,-0.0008240018505603075,-0.006916100159287453,0.004134182818233967
1733699954307805000,6.932804931640625,-0.003907143138349056,-0.0047773150727152824,0.0023487997241318226
1733699954317759700,6.942759765625,-0.0036989650689065456,-0.0032745448406785727,0.002244582399725914
1733699954327714000,6.952714111328125,-0.003621999640017748,-0.002519804984331131,0.00123870640527457
1733699954337668900,6.9626689453125,-0.0023984871804714203,-0.0003167827962897718,0.0027154316194355488
1733699954347623000,6.972622802734375,-0.0020504118874669075,0.000848616473376751,0.002139656338840723
1733699954357577700,6.98257763671875,-0.001685615861788392,0.003644045442342758,0.0028407457284629345
1733699954367533000,6.992532958984375,-0.0010808119550347328,0.006375383585691452,0.00373210571706295
1733699954377486800,7.00248681640625,-0.0022743067238479853,0.007116881664842367,0.003847041167318821
1733699954387442000,7.01244189453125,-0.0011698937742039561,0.005935769993811846,0.0020837620832026005
1733699954397396000,7.02239599609375,-0.0013487279647961259,0.004772641230374575,0.002512556966394186
1733699954407350800,7.032350830078125,-0.002423313446342945,0.003102839458733797,0.002000697422772646
1733699954417304800,7.042304931640625,-0.0027945435140281916,0.0007883019861765206,0.0024912203662097454
1733699954427260000,7.052260009765625,-0.0017915971111506224,0.003877302398905158,0.003507482586428523
1733699954437215000,7.062215087890625,-0.00047222687862813473,0.00854579173028469,0.0014494549250230193
1733699954447168800,7.072168701171875,-0.0010386812500655651,0.010868067853152752,0.001882484881207347
1733699954457123800,7.082123779296875,0.000010801246389746666,0.011605052277445793,0.0022611699532717466
1733699954467078000,7.092077880859375,-0.0005806868430227041,0.009009003639221191,0.0016172175528481603
1733699954477033000,7.102032958984375,0.0016316799446940422,0.004486741032451391,0.0012454440584406257
1733699954486986800,7.11198681640625,0.0011211519595235586,-0.001992197008803487,0.0009263972751796246
1733699954496941800,7.12194189453125,0.0007278295233845711,-0.0049646226689219475,0.00034233415499329567
1733699954506897000,7.13189697265625,-0.00021945685148239136,-0.009738339111208916,0.0025373115204274654
1733699954516851000,7.141850830078125,-0.0006152025889605284,-0.010254992172122002,0.0011447446886450052
1733699954526805800,7.1518056640625,-0.001479930942878127,-0.0062794252298772335,0.0007217376260086894
1733699954536759800,7.161759765625,-0.002772493986412883,-0.00495068309828639,0.0008534018415957689
1733699954546715000,7.17171484375,-0.004673724994063377,-0.0015090799424797297,-0.0013716693501919508
1733699954556668700,7.181668701171875,-0.0023312128614634275,-0.0013190715108066797,0.00024029379710555077
1733699954566624000,7.1916240234375,-0.0002872368786484003,-0.0035939435474574566,0.0006869060453027487
1733699954576578800,7.201578857421875,0.0002560727298259735,-0.00843990221619606,0.0009826208697631955
1733699954586532900,7.211532958984375,0.0022017781157046556,-0.012043159455060959,0.00016982411034405231
1733699954596487700,7.22148779296875,0.0017565032467246056,-0.017019934952259064,0.0002685519866645336
1733699954606442000,7.23144189453125,0.001353034283965826,-0.01566252112388611,0.00012420862913131714
1733699954616396800,7.241396728515625,0.0004185927100479603,-0.010113806463778019,0.0007507037371397018
1733699954626350800,7.251350830078125,0.0025006518699228764,-0.009089554660022259,-0.00019391952082514763
1733699954636306000,7.261305908203125,0.0008071949705481529,-0.00464182673022151,0.00037091411650180817
1733699954646261000,7.271260986328125,0.002264210255816579,-0.003313974244520068,-0.0008695863652974367
1733699954656215000,7.281215087890625,0.00005740881897509098,-0.003947295248508453,-0.0012336834333837032
1733699954666169900,7.291169921875,0.0018569068051874638,0.00020430661970749497,-0.002128505613654852
1733699954676124000,7.3011240234375,-0.003147612325847149,-0.0006624450325034559,-0.0035361628979444504
1733699954686078700,7.31107861328125,-0.001006164588034153,-0.0016789736691862345,-0.005062420386821032
1733699954696032800,7.32103271484375,-0.0012375310761854053,-0.0020701540634036064,-0.003603506600484252
1733699954705987800,7.33098779296875,-0.0028804352041333914,-0.005121604073792696,-0.0036258769687265158
1733699954715943000,7.34094287109375,-0.0022547326516360044,-0.0066745830699801445,-0.0029354409780353308
1733699954725897000,7.35089697265625,-0.0012054472463205457,-0.007017864845693111,-0.003108280012384057
1733699954735851800,7.360851806640625,-0.0010022243950515985,-0.005475826561450958,-0.0019596023485064507
1733699954745806000,7.37080615234375,0.0030782711692154408,-0.002310659969225526,-0.0024922345764935017
1733699954755761000,7.380760986328125,0.0032624215818941593,-0.0008528942125849426,-0.0000311131589114666
1733699954765715000,7.39071484375,0.003872019238770008,-0.0017056383658200502,-0.0016364664770662785
1733699954775669800,7.400669677734375,0.0014201067388057709,-0.007297213654965162,-0.0010584767442196608
1733699954785624800,7.410624755859375,-0.0006004336755722761,-0.013311163522303104,-0.001109609380364418
1733699954795579000,7.420578857421875,-0.0021645869128406048,-0.019689487293362617,-0.00169106456451118
1733699954805534000,7.430533935546875,-0.00043513020500540733,-0.0185544490814209,-0.0037049471866339445
1733699954815487700,7.44048779296875,-0.0012581234332174063,-0.015843668952584267,-0.004039526917040348
1733699954825442800,7.45044287109375,-0.003224069019779563,-0.005892234388738871,-0.0033076901454478502
1733699954835397000,7.460397216796875,-0.0027515352703630924,0.004198141861706972,-0.003018356626853347
1733699954845352000,7.47035205078125,-0.0018916006665676832,0.010063220746815205,-0.003007171442732215
1733699954855306800,7.480306640625,-0.0007491582073271275,0.01618810184299946,-0.003952385857701302
1733699954865260800,7.4902607421875,0.0010482091456651688,0.01578143797814846,-0.002646638313308358
1733699954875216100,7.500216064453125,0.0012498958967626095,0.0112452432513237,-0.0026979739777743816
1733699954885170000,7.510169921875,0.001638184767216444,0.002787309465929866,-0.0010161874815821648
1733699954895125000,7.520125,0.0012741654645651579,-0.0031264370772987604,-0.0013903065118938684
1733699954905078800,7.530078857421875,0.002746627200394869,-0.004821539390832186,-0.001516273943707347
1733699954915033900,7.540033935546875,0.0015983153134584427,-0.0024816200602799654,-0.0010112812742590904
1733699954924989000,7.549989013671875,0.0018172268755733967,-0.0016925253439694643,-0.0016757398843765259
1733699954934943000,7.55994287109375,0.000009723007678985596,0.001970781246200204,-0.00186085794121027
1733699954944897800,7.569897705078125,0.0016329200007021427,0.0049703000113368034,-0.0027937632985413074
1733699954954851800,7.579851806640625,-0.0002629845403134823,0.006405743770301342,-0.0019021369516849518
1733699954964807000,7.589806884765625,0.0006885628681629896,0.006825724150985479,-0.0015876172110438347
1733699954974761000,7.599760986328125,-0.00001132674515247345,0.004540326073765755,-0.0008347686380147934
1733699954984716000,7.609716064453125,0.0007814962882548571,0.0023291034158319235,-0.0005157219711691141
1733699954994669800,7.619669921875,0.0012657290790230036,-0.0018425604794174433,-0.00024535018019378185
1733699955004625000,7.629625,0.001044420525431633,-0.0031765378080308437,-0.000057597411796450615
1733699955014580000,7.639580078125,-0.00008120201528072357,-0.004027843941003084,-0.000386940548196435
1733699955024534000,7.649533935546875,0.00137048726901412,-0.002725824248045683,-0.002186704659834504
1733699955034488800,7.65948876953125,-0.0003172790165990591,-0.000286670692730695,-0.002632903167977929
1733699955044443000,7.66944287109375,0.0008915297221392393,0.0024547872599214315,-0.002867793897166848
1733699955054397700,7.679397705078125,-0.0001609036698937416,0.0051056803204119205,-0.0029745930805802345
1733699955064351700,7.689351806640625,-0.00023493962362408638,0.005467870272696018,-0.0014275629073381424
1733699955074307000,7.69930712890625,-0.0006089905509725213,0.0019409570377320051,-0.0020946518052369356
1733699955084262000,7.709261962890625,0.001385184470564127,-0.0011903878767043352,-0.0018480431754142046
1733699955094216000,7.7192158203125,0.0016228589229285717,-0.008090336807072163,-0.00153408944606781
1733699955104170800,7.729170654296875,0.002127528190612793,-0.014321867376565933,-0.0014736359007656574
1733699955114125000,7.739125,0.0024060499854385853,-0.018730180338025093,0.000043083447962999344
1733699955124079900,7.749079833984375,0.0007216008380055428,-0.022402413189411163,-0.00004693144001066685
1733699955134034000,7.759033935546875,0.0020361891947686672,-0.02225688099861145,-0.00045354990288615227
1733699955143988700,7.76898876953125,-0.0001145796850323677,-0.018582783639431,-0.00034755608066916466
1733699955153944000,7.778944091796875,-0.00023704231716692448,-0.011517700739204884,0.00005136197432875633
1733699955163898000,7.788898193359375,0.0007917368784546852,-0.002581197302788496,-0.0019670480396598577
1733699955173853000,7.79885302734375,0.0014415397308766842,0.0069028702564537525,-0.0003709094598889351
1733699955183807000,7.808806884765625,-0.0009414568776264787,0.014400467276573181,0.00018409336917102337
1733699955193761800,7.81876171875,-0.000904261483810842,0.018537456169724464,-0.0010163283441215754
1733699955203715800,7.8287158203125,-0.0029639501590281725,0.02103949524462223,-0.002179597271606326
1733699955213671000,7.8386708984375,-0.00276599801145494,0.019044838845729828,-0.001032007159665227
1733699955223626000,7.8486259765625,-0.0017417463241145015,0.014842105098068714,-0.0007776753045618534
1733699955233579800,7.858579833984375,-0.0012980636674910784,0.009232955053448677,-0.0002108167391270399
1733699955243534800,7.868534912109375,-0.0009574453579261899,0.0036807970609515905,-0.0010566366836428642
1733699955253489000,7.878489013671875,0.00024173990823328495,0.00021515728440135717,0.00009154132567346096
1733699955263444000,7.88844384765625,0.0021240622736513615,-0.003808080218732357,-0.0004754457622766495
1733699955273398000,7.89839794921875,0.0016980075743049383,-0.0021554650738835335,-0.0010796256829053164
1733699955283352800,7.908352783203125,0.0021121290046721697,-0.002117914380505681,-0.001097202766686678
1733699955293308000,7.918307861328125,-0.0004893821896985173,-0.0013156633358448744,-0.0020129347685724497
1733699955303262000,7.928261962890625,-0.00023744720965623856,-0.0025106235407292843,0.0000030780211091041565
1733699955313217000,7.938217041015625,-0.0002233369741588831,-0.0015848020557314157,-0.0009437475819140673
1733699955323170800,7.9481708984375,0.0002576299011707306,-0.003209063783288002,-0.002529393881559372
1733699955333126000,7.9581259765625,0.000018002232536673546,-0.006341562606394291,-0.00007499800994992256
1733699955343079700,7.96807958984375,0.002378095407038927,-0.00711494404822588,0.000019544269889593124
1733699955353035000,7.978034912109375,0.002008869545534253,-0.009906364604830742,-0.0008682939223945141
1733699955362989800,7.98798974609375,0.0014211100060492754,-0.011968983337283134,-0.000225406838580966
1733699955372944000,7.99794384765625,0.00123101775534451,-0.01130003109574318,0.0004300891887396574
1733699955382898700,8.007898681640626,0.0022659222595393658,-0.008397185243666172,-0.00009428709745407104
1733699955392853000,8.01785302734375,0.0006196473259478807,-0.006748673971742392,-0.00010028760880231857
1733699955402808000,8.02780810546875,-0.0003353622741997242,-0.003382704919204116,0.0003436615224927664
1733699955412761900,8.037761962890626,-0.0005295557202771306,0.00006243173265829682,-0.00020402763038873672
1733699955422717000,8.047717041015625,0.0011495673097670078,0.003943456336855888,0.000016215723007917404
1733699955432670700,8.057670654296874,-0.0015444587916135788,0.0025214357301592827,-0.0006211104337126017
1733699955442626000,8.0676259765625,-0.00003444659523665905,0.0016191566828638315,-0.0005007355939596891
1733699955452580900,8.077580810546875,-0.0019811398815363646,0.0019710988271981478,-0.0008003262337297201
1733699955462535000,8.087534912109374,-0.0035188491456210613,-0.0028793164528906345,-0.0012836898677051067
1733699955472489700,8.09748974609375,-0.005702844820916653,-0.004049220588058233,-0.0018507549539208412
1733699955482443800,8.10744384765625,-0.004001351073384285,-0.0013189483433961868,-0.001221982529386878
1733699955492399000,8.117399169921875,-0.0030886982567608356,-0.001676255138590932,-0.0003043501637876034
1733699955502353000,8.127352783203126,0.0009569099638611078,0.0033581843599677086,0.000047187088057398796
1733699955512308000,8.137307861328125,0.0007618670351803303,0.004309589043259621,0.0010235114023089409
1733699955522262800,8.1472626953125,0.0021898539271205664,0.006235853768885136,-0.00021539116278290749
1733699955532216800,8.157216796875,0.0024439331609755754,0.0058714281767606735,0.0003488913644105196
1733699955542172000,8.167171875,0.0022183635737746954,0.0034239827655255795,-0.001241814810782671
1733699955552126000,8.1771259765625,0.001263677841052413,-0.0010379147715866566,-0.0009965708013623953
1733699955562080800,8.187080810546876,0.00083197932690382,-0.00613041128963232,-0.0009411771316081285
1733699955572034800,8.197034912109375,-0.0009778799721971154,-0.009954321198165417,-0.00028833490796387196
1733699955581990000,8.206989990234375,0.00038858805783092976,-0.013050246052443981,-0.0010697063989937305
1733699955591945000,8.216945068359376,-0.0008602230809628963,-0.010408088564872742,-0.0021488957572728395
1733699955601899000,8.22689892578125,-0.0015009795315563679,-0.006578994914889336,-0.0021145406644791365
1733699955611853800,8.236853759765625,0.000418179202824831,0.0009401589632034302,-0.001373368315398693
1733699955621807900,8.246807861328126,-0.0017858529463410378,0.005257675424218178,-0.0012332862243056297
1733699955631763000,8.256762939453125,-0.00027779722586274147,0.007682199589908123,-0.0005295684095472097
1733699955641717000,8.266717041015625,0.00013818847946822643,0.006843836512416601,-0.0005151873920112848
1733699955651671800,8.276671875,0.0001821490004658699,-0.0012357502710074186,-0.0011364056263118982
1733699955661625900,8.2866259765625,0.0005824221298098564,-0.005286151543259621,0.00026734662242233753
1733699955671580700,8.29658056640625,-0.0002710043918341398,-0.009210887365043163,0.0002442097757011652
1733699955681536000,8.306535888671876,0.00044298917055130005,-0.007625774946063757,-0.0019070915877819061
1733699955691490000,8.316489990234375,0.0014512734487652779,-0.005419149994850159,-0.0013391110114753246
1733699955701444900,8.32644482421875,0.002464073710143566,-0.004337374120950699,0.00005532032810151577
1733699955711399000,8.33639892578125,0.0002923235297203064,-0.0013923102524131536,0.001295684021897614
1733699955721354000,8.34635400390625,-0.0012776098446920514,-0.004385437350720167,-0.0009235281031578779
1733699955731308000,8.35630810546875,-0.0016284750308841467,-0.0034062997438013554,0.00005202135071158409
1733699955741262800,8.366262939453126,-0.0020274166017770767,-0.0050297630950808525,0.0003851829096674919
1733699955751218000,8.376218017578125,0.0011693527922034264,-0.0034241273533552885,0.0002291079144924879
1733699955761171700,8.386171630859375,-0.000029069604352116585,-0.004482999909669161,0.0017244729679077864
1733699955771127000,8.396126953125,0.001783611485734582,-0.003648898331448436,0.0019210884347558022
1733699955781081000,8.4060810546875,0.0015319425147026777,-0.002066980581730604,0.00117114232853055
1733699955791036000,8.416035888671875,-0.0010847566882148385,0.001330648548901081,0.0024087363854050636
1733699955800990500,8.425990478515626,-0.0005947350291535258,0.004797817673534155,0.0012950022937729955
1733699955810945500,8.435945556640625,-0.0009017481934279203,0.003953596111387014,0.0010807095095515251
1733699955820900400,8.445900390625,-0.0004346296191215515,0.0033850111067295074,0.0009153272258117795
1733699955830854400,8.4558544921875,-0.002486312063410878,0.00061603426001966,0.001467641443014145
1733699955840809500,8.4658095703125,-0.0012098589213564992,-0.0018660316709429026,0.0017707091756165028
1733699955850763300,8.47576318359375,-0.0006116923177614808,-0.0037783768493682146,0.0001536498311907053
1733699955860718600,8.485718505859374,-0.0008495125221088529,-0.005587461870163679,0.0005975987296551466
1733699955870672400,8.49567236328125,-0.0012089032679796219,-0.004415888339281082,0.0010373435216024518
1733699955880627500,8.50562744140625,-0.00028638425283133984,-0.0056457361206412315,0.0026869054418057203
1733699955890581200,8.515581298828126,0.0009868373163044453,-0.004146018996834755,0.000536798033863306
1733699955900536300,8.525536376953125,0.00040946388617157936,-0.004719397518783808,-0.00015296065248548985
1733699955910491400,8.535491455078125,0.0006309202872216702,-0.004251176491379738,0.00002614804543554783
1733699955920445400,8.545445556640624,-2.4889595806598663e-7,0.00012759299715980887,0.00014519132673740387
1733699955930400300,8.555400146484375,0.0015711442101746798,0.001775805139914155,-0.00044342572800815105
1733699955940354300,8.565354248046875,-0.0004078506026417017,0.003945482429116964,0.00038561620749533176
1733699955950309600,8.5753095703125,0.0018932151142507792,0.004391402471810579,-0.00043983012437820435
1733699955960263400,8.585263427734375,-0.001112162135541439,0.0030446420423686504,-0.00006885197944939137
1733699955970218500,8.595218505859375,0.0005442309193313122,-0.0009269130532629788,0.00039854529313743114
1733699955980173300,8.60517333984375,0.0007860460318624973,-0.005511012393981218,-0.0017551528289914131
1733699955990127400,8.61512744140625,0.0006182834040373564,-0.008393261581659317,-0.00011905515566468239
1733699956000082400,8.62508251953125,0.0004909841809421778,-0.009681166149675846,0.0007611195323988795
1733699956010036500,8.635036376953124,-0.00040602078661322594,-0.010995134711265564,-0.0017358239274471998
1733699956019991300,8.6449912109375,0.0011322209611535072,-0.00958259403705597,-0.0006753529887646437
1733699956029945300,8.6549453125,0.000514916842803359,-0.006584852002561092,0.0002655771095305681
1733699956039900400,8.664900390625,-0.0005237159784883261,-0.0019083409570157528,0.0000876779668033123
1733699956049855500,8.67485546875,-0.001988758100196719,0.0031916971784085035,0.0011927238665521145
1733699956059809500,8.6848095703125,-0.0008710293332114816,0.004923550877720118,0.001143721747212112
1733699956069764400,8.694764404296874,-0.002555480459704995,0.005578780081123114,0.0003652949817478657
1733699956079718400,8.704718505859375,-0.0016484077787026763,0.0068935826420784,-0.0013375300914049149
1733699956089673500,8.714673583984375,-0.000883684610016644,0.006510226521641016,-0.000027976464480161667
1733699956099627500,8.72462744140625,0.0015592328272759914,0.002820416819304228,0.00021543656475842
1733699956109582300,8.734582275390625,-0.00035095144994556904,0.0008633534307591617,0.001791453454643488
1733699956119536400,8.744536376953125,0.0020847758278250694,-0.0014426778070628643,0.0014798635384067893
1733699956129491500,8.754491455078124,0.001458790386095643,-0.0015922586899250746,0.0029815025627613068
1733699956139446500,8.764446533203126,-0.00011593685485422611,0.0012815583031624556,0.0026810981798917055
1733699956149400600,8.774400634765625,0.00014505977742373943,0.005621711723506451,0.0027820318937301636
1733699956159355400,8.78435546875,-0.0009915773989632726,0.008282209746539593,0.0018991939723491669
1733699956169309400,8.794309326171875,-0.0008847565623000264,0.010130141861736774,0.0013140678638592362
1733699956179264300,8.80426416015625,-0.000612847856245935,0.0063292779959738255,0.0011444245465099812
1733699956189218600,8.814218505859374,0.0003468617796897888,0.00372418574988842,0.0011977417161688209
1733699956199173400,8.82417333984375,-0.0017567690229043365,-0.0004399328608997166,0.00009545939974486828
1733699956209128400,8.83412841796875,-0.0007735140388831496,-0.00500506442040205,-0.000110207824036479
1733699956219082200,8.844082275390624,-0.0008930899202823639,-0.008088205941021442,-0.0003064828924834728
1733699956229037300,8.854037353515626,-0.0013870274415239692,-0.011340263299643993,0.00024058809503912926
1733699956238991600,8.86399169921875,-0.0036278110928833485,-0.014223667792975903,0.00026855128817260265
1733699956248946400,8.873946533203124,-0.0026752809062600136,-0.013471999205648899,-0.00003514206036925316
1733699956258900500,8.883900390625,-0.002546383999288082,-0.012917262502014637,-0.0003493949770927429
1733699956268855300,8.893855224609375,0.001905557932332158,-0.008818089962005615,0.001093800412490964
1733699956278809300,8.903809326171874,0.0020477704238146544,-0.0027636592276394367,0.0008109727641567588
1733699956288764400,8.913764404296876,0.0026961849071085453,0.001276533817872405,0.000961212906986475
1733699956298719500,8.923719482421875,0.00356490770354867,0.00507579930126667,0.0022903967183083296
1733699956308673300,8.93367333984375,0.0009414257947355509,0.00863603688776493,0.0029311124235391617
1733699956318628400,8.94362841796875,-0.0009094710694625974,0.007495937403291464,0.000015483703464269638
1733699956328582400,8.95358251953125,-0.0011883527040481567,0.006546431686729193,-0.0005918995011597872
1733699956338537500,8.963537353515624,-0.0020171282812952995,0.00460578640922904,0.0005636459682136774
1733699956348491500,8.973491455078126,-0.0013452533166855574,0.0035603183787316084,0.00007094349712133408
1733699956358446300,8.9834462890625,-0.0005548271583393216,0.005210146773606539,-0.0009226819965988398
1733699956368401400,8.9934013671875,-0.0019317017868161201,0.007057830225676298,0.0000279964879155159
1733699956378355500,9.00335546875,-0.0011095840018242598,0.008576098829507828,0.0007790079107508063
1733699956388310500,9.013310546875,0.0006330159958451986,0.006312623620033264,0.0009645791724324226
1733699956398264300,9.023264404296874,0.000666838139295578,0.0008629975491203368,0.0018639287445694208
1733699956408219400,9.033219482421876,0.0004525093827396631,-0.005456789396703243,0.001925966702401638
1733699956418173400,9.04317333984375,-0.0009661564836278558,-0.012253442779183388,0.003095627063885331
1733699956428128500,9.05312841796875,-0.0007050796411931515,-0.014617834240198135,0.0024959463626146317
1733699956438083300,9.063083251953126,0.0008747074753046036,-0.009825210087001324,0.0024349598679691553
1733699956448037400,9.073037353515625,0.0019417928997427225,-0.004796219058334827,0.0026928125880658627
1733699956457992200,9.0829921875,0.0017345987726002932,0.0024920538999140263,0.0018483242020010948
1733699956467946200,9.0929462890625,0.0021551749669015408,0.005738926585763693,0.002464615972712636
1733699956477901600,9.102901611328125,-0.001005730708129704,0.009815692901611328,0.0022006966173648834
1733699956487855400,9.11285546875,-0.0008787791011855006,0.008456910029053688,0.00006234622560441494
1733699956497810400,9.122810546875,-0.0010177961084991693,0.0040549710392951965,0.0014796806499361992
1733699956507764200,9.13276416015625,-0.001438122009858489,0.001708658062852919,0.0016863157507032156
1733699956517719600,9.142719482421874,-0.003094874555245042,-0.002424301579594612,0.001714012585580349
1733699956527674400,9.15267431640625,-0.0011901778634637594,-0.0092223035171628,0.0010090526193380356
1733699956537628400,9.16262841796875,-0.00140030134934932,-0.011553102172911167,0.0024189301766455173
1733699956547583200,9.172583251953125,-0.0002469585742801428,-0.014910513535141945,0.001558183808811009
1733699956557537300,9.182537353515626,-0.002472295891493559,-0.01771269179880619,0.0021834939252585173
1733699956567492600,9.19249267578125,-0.00115999486297369,-0.018548356369137764,0.0016439656028524041
1733699956577446400,9.2024462890625,-0.0034396606497466564,-0.019205357879400253,0.0005909517640247941
1733699956587401500,9.2124013671875,-0.00023177429102361202,-0.02030966617166996,0.0019144548568874598
1733699956597356300,9.222356201171875,-0.0008381761144846678,-0.02282528765499592,0.0008625062182545662
1733699956607310300,9.232310302734374,-0.0012046959018334746,-0.024913383647799492,0.0012079410953447223
1733699956617265400,9.242265380859376,0.0003021205775439739,-0.0272484440356493,0.0010183239355683327
1733699956627219500,9.252219482421875,0.0005062110722064972,-0.026894649490714073,0.0018869054038077593
1733699956637174300,9.26217431640625,0.00039089610800147057,-0.025458140298724174,0.001077304477803409
1733699956647128300,9.27212841796875,0.0022975781466811895,-0.01897595450282097,0.0016997222555801272
1733699956657083400,9.28208349609375,0.0008815755136311054,-0.011262108571827412,0.0015271494630724192
1733699956667037400,9.292037353515624,0.0002659945748746395,-0.0037944442592561245,-0.00007918011397123337
1733699956676992500,9.301992431640626,0.0002457546070218086,0.004154825117439032,0.0013567963615059853
1733699956686947300,9.311947265625,-0.0021519858855754137,0.011486472561955452,0.0009358887327834964
1733699956696901400,9.3219013671875,-0.001939199399203062,0.016924913972616196,0.001045078388415277
1733699956706856400,9.3318564453125,-0.0015851747011765838,0.016278386116027832,0.00233799428679049
1733699956716810500,9.341810546875,0.00008196406997740269,0.012733186595141888,0.0004351655952632427
1733699956726765300,9.351765380859375,-0.0017873849719762802,0.005370111670345068,0.0025343813467770815
1733699956736719400,9.36171923828125,-0.0028806126210838556,-0.0018068409990519285,0.0010342226596549153
1733699956746674200,9.371674072265625,-0.0011115068336948752,-0.008259749971330166,0.0019599893130362034
1733699956756629500,9.38162939453125,-0.0005434545455500484,-0.010912790894508362,0.003645770251750946
1733699956766583600,9.39158349609375,-0.0007687242468819022,-0.011161049827933311,0.0013790917582809925
1733699956776538400,9.401538330078125,-0.0005929556209594011,-0.0064717554487288,0.0014829549472779036
1733699956786492400,9.411492431640625,-0.000141786877065897,-0.0021560858003795147,-0.00034888717345893383
1733699956796447500,9.421447509765626,-0.0005724200746044517,0.0029734286945313215,0.0013158547226339579
1733699956806401300,9.4314013671875,-0.0007921658689156175,0.00693321181461215,0.0007684087613597512
1733699956816356400,9.4413564453125,-0.0006904331967234612,0.008511667139828205,-0.00010564085096120834
1733699956826310400,9.451310302734376,-0.002729702740907669,0.00648494902998209,0.0015305618289858103
1733699956836265200,9.46126513671875,-0.00030196504667401314,0.005655108019709587,0.0009342801058664918
1733699956846220300,9.47122021484375,-0.0021991555113345385,0.0008004138944670558,0.001403520698659122
1733699956856174600,9.481174560546876,-0.00040498399175703526,-0.0009327713050879538,0.002361193299293518
1733699956866129400,9.49112939453125,-0.00007501756772398949,-0.004978965502232313,0.0012555686989799142
1733699956876083500,9.50108349609375,0.0009460384026169777,-0.005485498812049627,0.0008427787106484175
1733699956886038300,9.511038330078126,0.0017817823681980371,-0.007346054073423147,0.0024596164003014565
1733699956895992300,9.520992431640625,0.0009114616550505161,-0.004325230605900288,0.0012079307343810797
1733699956905947400,9.530947509765625,0.0003317117225378752,0.0015666759572923183,0.0023334946017712355
1733699956915902500,9.54090234375,0.0015525049529969692,0.004435965791344643,0.0033385716378688812
1733699956925856300,9.550856201171875,-0.0008363069500774145,0.00561455637216568,0.0031083356589078903
1733699956935811300,9.560811279296875,-0.00016013020649552345,0.007127498276531696,0.001176745048724115
1733699956945765400,9.570765380859376,0.0006602229550480843,0.005209348164498806,0.0003846888430416584
1733699956955720400,9.580720458984375,-0.0006407311884686351,0.005562483333051205,0.0003173109143972397
1733699956965674500,9.590674560546875,0.0001948140561580658,0.0029090328607708216,-0.0011557708494365215
1733699956975629300,9.60062939453125,-0.0015285174595192075,0.003481346182525158,0.00013666111044585705
1733699956985583400,9.610583251953125,-0.004191746935248375,0.0026502632535994053,-0.0012040268629789352
1733699956995538400,9.620538330078125,-0.003973101265728474,0.000011337047908455133,-0.0013345219194889069
1733699957005493500,9.630493408203124,-0.0024913649540394545,-0.0010985264088958502,-0.0024652769789099693
1733699957015447300,9.640447265625,-0.0022769803181290627,-0.0046003167517483234,-0.0007494024466723204
1733699957025402400,9.65040234375,0.000938398065045476,-0.005352891981601715,-0.0011803193483501673
1733699957035356200,9.660356201171876,0.0018476012628525496,-0.007201658561825752,0.0006053302204236388
1733699957045311500,9.6703115234375,0.003230901900678873,-0.006741533987224102,0.001104082097299397
1733699957055265500,9.680265625,0.0027046608738601208,-0.0057963780127465725,0.0008478859672322869
1733699957065220400,9.690220458984374,0.0015648282133042812,-0.007118104957044125,0.00021538510918617249
1733699957075175200,9.700175048828125,-0.00016929837875068188,-0.007207693997770548,0.0016547177219763398
1733699957085129200,9.710129150390625,-0.0005701923510059714,-0.005872439127415419,-0.001595567911863327
1733699957095084500,9.72008447265625,-0.00030440883710980415,-0.004742193501442671,-0.000938033452257514
1733699957105038300,9.730038330078125,0.00025538098998367786,-0.0022376668639481068,-0.0020461317617446184
1733699957114993400,9.739993408203125,-0.00023783650249242783,0.0014580017887055874,-0.0005648816004395485
1733699957124947200,9.749947265625,-0.002677812008187175,0.00775041151791811,0.00046431226655840874
1733699957134902500,9.759902587890625,-0.0012985607609152794,0.012612277641892433,-0.00014874734915792942
1733699957144856600,9.769856689453125,-0.0006102750776335597,0.014847362414002419,-0.002047685207799077
1733699957154811400,9.779811279296876,-0.0009026902262121439,0.013148798607289791,-0.0002444586716592312
1733699957164766200,9.78976611328125,0.00045832619071006775,0.00909385271370411,0.0001504099927842617
1733699957174720300,9.79972021484375,0.00017762905918061733,0.0027318273205310106,-0.0006389508489519358
1733699957184675300,9.80967529296875,-0.0006518781883642077,-0.0012739223893731833,0.0005007297731935978
1733699957194629400,9.81962939453125,0.002156158909201622,-0.0015655383467674255,0.0006525299977511168
1733699957204584400,9.82958447265625,0.002023689914494753,-0.002842701505869627,-0.00012079463340342045
1733699957214538200,9.839538330078126,-0.0002285451628267765,0.000540045672096312,-0.00004169880412518978
1733699957224493300,9.849493408203125,0.0002594105899333954,0.004366492852568626,-0.001177546801045537
1733699957234448400,9.859448486328125,-0.0007973317988216877,0.0037361227441579103,-0.0013945943210273981
1733699957244402400,9.86940234375,-0.000875618658028543,0.0074293771758675575,-0.0018556052818894386
1733699957254357200,9.879357177734375,-0.0008806786499917507,0.006508189719170332,-0.0002433275803923607
1733699957264311300,9.889311279296875,-0.0014434554614126682,0.0075047616846859455,-0.0005761848296970129
1733699957274266400,9.899266357421874,-0.0014152259100228548,0.0017416812479496002,-0.001221202313899994
1733699957284220400,9.909220458984375,0.0015527321957051754,-0.0022286120802164078,-0.00034855795092880726
1733699957294175500,9.919175537109375,0.0017311640549451113,-0.008100615814328194,0.0006831507198512554
1733699957304129300,9.92912939453125,0.0020982215646654367,-0.010816116817295551,0.0004113165196031332
1733699957314084400,9.93908447265625,0.0000364021398127079,-0.012811623513698578,-0.0017200112342834473
1733699957324039400,9.949039306640625,0.00045800721272826195,-0.011562016792595387,-0.0011077402159571648
1733699957333993500,9.958993408203124,0.001516880001872778,-0.010097011923789978,-0.0011554108932614326
1733699957343948300,9.9689482421875,0.0005521958228200674,-0.008672148920595646,-0.0011451139580458403
1733699957353902300,9.97890234375,0.00040279258973896503,-0.006847350858151913,-0.00026973290368914604
1733699957363857200,9.988857177734374,0.00031043821945786476,-0.007116648834198713,-0.0005002359393984079
1733699957373811200,9.998811279296875,-0.0011724098585546017,-0.007661531213670969,-0.001843001926317811
1733699957383766500,10.0087666015625,0.0004229983314871788,-0.0077111381106078625,-0.0008563052397221327
1733699957393720300,10.01872021484375,-0.00026356475427746773,-0.00855749100446701,-0.0002981065772473812
1733699957403675400,10.02867529296875,-0.001506462343968451,-0.007434523664414883,-0.0003611722495406866
1733699957413630200,10.038630126953125,0.0004999632947146893,-0.006296288687735796,0.00015974207781255245
1733699957423584500,10.04858447265625,0.00258295307867229,-0.006473584566265345,-0.00325956242159009
1733699957433539300,10.058539306640625,-0.0010677080135792494,-0.003979800269007683,0.00015993649140000343
1733699957443493400,10.068493408203125,0.0021384255960583687,0.0004134388582315296,-0.0008800227660685778
1733699957453448200,10.0784482421875,0.0000670186709612608,0.005780241452157497,0.0002845774870365858
1733699957463402200,10.08840234375,0.0006745210848748684,0.009954709559679031,0.0005407660501077771
1733699957473357300,10.098357421875,-0.00033641490153968334,0.017142580822110176,-0.0004217003006488085
1733699957483312400,10.1083125,0.0008742180652916431,0.02053958736360073,-0.0023440858349204063
1733699957493266400,10.118266357421875,-0.0016057174652814865,0.021412836387753487,-0.0011384726967662573
1733699957503221200,10.12822119140625,0.0009595681913197041,0.016627172008156776,-0.00138801708817482
1733699957513175300,10.13817529296875,-0.0003216785844415426,0.009861411526799202,-0.001884430181235075
1733699957523130400,10.14813037109375,-0.0002861074171960354,0.0042707957327365875,-0.0019969081040471792
1733699957533084400,10.15808447265625,0.0005197650752961636,-0.0035429189447313547,-0.0015313879121094942
1733699957543039200,10.168039306640624,0.0005917679518461227,-0.003943226300179958,-0.0008583408780395985
1733699957552993300,10.1779931640625,0.0008506274316459894,-0.0012214756570756435,-0.0015217342879623175
1733699957562948400,10.1879482421875,-0.0005281377816572785,0.0036031424533575773,0.00031546340323984623
1733699957572903400,10.1979033203125,-0.00178222032263875,0.002928829984739423,-0.0006011966615915298
1733699957582857500,10.207857421875,-0.0012193020666018128,0.0051372116431593895,-0.0021144766360521317
1733699957592812300,10.217812255859375,-0.0005963887088000774,0.0032245293259620667,0.0000533366110175848
1733699957602766300,10.227766357421874,0.00004792329855263233,0.0006023453315719962,-0.00019089528359472752
1733699957612721400,10.237721435546876,0.0002202298492193222,-0.0025441793259233236,0.001703411340713501
1733699957622675500,10.247675537109375,0.002498041372746229,-0.0034222945105284452,-0.0001663512084633112
1733699957632630300,10.25763037109375,0.000014110933989286423,-0.006870821584016085,0.00020302925258874893
1733699957642584300,10.267584228515625,-0.000018798746168613434,-0.007570275571197271,-0.0007953469175845385
1733699957652539100,10.2775390625,-0.00012852088548243046,-0.003780330764129758,0.00008456152863800526
1733699957662494500,10.287494384765624,0.0015076466370373964,-0.00012134265853092074,0.0019773473031818867
1733699957672448500,10.297448486328125,-0.00021169008687138557,0.0032203919254243374,0.00007451861165463924
1733699957682403300,10.3074033203125,0.00048051681369543076,0.004612516146153212,0.0012766753789037466
1733699957692357400,10.317357421875,-0.0007021930068731308,0.002986922627314925,-0.00011642416939139366
1733699957702312400,10.3273125,0.0006745206192135811,0.0031109186820685863,0.0001573136541992426
1733699957712266500,10.3372666015625,0.00012084958143532276,-0.0012561329640448093,-0.001314349239692092
1733699957722221300,10.34722119140625,0.0009042450692504644,-0.0028621088713407516,-0.0011579659767448902
1733699957732176400,10.35717626953125,-0.0006582315545529127,-0.010418828576803207,-0.0020698322914540768
1733699957742130200,10.367130126953125,-0.002494964748620987,-0.014664899557828903,-0.0015050480142235756
1733699957752085500,10.37708544921875,-0.003598312381654978,-0.017618877813220024,-0.00022886134684085846
1733699957762039300,10.387039306640625,-0.0021744901314377785,-0.01751643605530262,-0.0007646724116057158
1733699957771994400,10.396994384765625,-0.0008588886121287942,-0.014887096360325813,0.0012827657628804445
1733699957781948400,10.406948486328124,0.0030797570943832397,-0.0073425923474133015,-0.0007807745132595301
1733699957791903200,10.4169033203125,0.004296555649489164,0.0003696561325341463,0.0015609429683536291
1733699957801857500,10.426857421875,0.0012314089108258486,0.0052486383356153965,0.0010610159952193499
1733699957811812400,10.436812255859374,0.0022332901135087013,0.007775978185236454,-0.0008782979566603899
1733699957821767400,10.446767333984376,0.00043132039718329906,0.007114147301763296,-0.00021914835087954998
1733699957831721200,10.45672119140625,-0.0012861521681770682,0.0022797109559178352,-0.0013933361042290926
1733699957841676500,10.466676513671874,-0.0005645850906148553,-0.0023756041191518307,-0.001805430045351386
1733699957851630300,10.47663037109375,-0.0009605970699340105,-0.003962848335504532,-0.00019048945978283882
1733699957861585400,10.48658544921875,-0.00039236503653228283,-0.00459712091833353,0.00017424044199287891
1733699957871539500,10.49653955078125,-0.000774262472987175,-0.0025898965541273355,-0.001322722528129816
1733699957881494300,10.506494384765626,-0.00015591108240187168,0.003536119358614087,-0.002402674173936248
1733699957891448600,10.516448486328125,-0.0011426121927797794,0.008893067017197609,-0.0008641660679131746
1733699957901403400,10.5264033203125,0.000832247780635953,0.010871246457099915,0.00034476700238883495
1733699957911358500,10.5363583984375,0.00030733877792954445,0.009352179244160652,0.000002018176019191742
1733699957921312300,10.546312255859375,0.00024688057601451874,0.005530063528567553,0.00027834391221404076
1733699957931267600,10.556267578125,-0.00038562039844691753,-0.0026216062251478434,-0.0020010555163025856
1733699957941221400,10.566221435546876,0.0007479081396013498,-0.004952831193804741,-0.000659712590277195
1733699957951176400,10.576176513671875,0.0024225038941949606,-0.008319334127008915,0.00035947910510003567
1733699957961130500,10.586130615234374,0.0016534272581338882,-0.008358697406947613,-0.00017524976283311844
1733699957971085300,10.596085205078126,0.0015671411529183388,-0.007844706997275352,-0.0005081449635326862
1733699957981039400,10.606039306640625,0.0019526416435837746,-0.005530222784727812,0.00011249375529587269
1733699957990994400,10.615994384765624,0.0006615410093218088,0.0009308722801506519,-0.0009881905280053616
1733699958000949500,10.625949462890626,-0.0019316227408125997,0.003870362415909767,-0.0010286858305335045
1733699958010903300,10.6359033203125,-0.0013574451440945268,0.007069351617246866,-0.0009700963273644447
1733699958020858400,10.6458583984375,-0.0008561250288039446,0.008491657674312592,-0.0010525446850806475
1733699958030812400,10.6558125,-0.001990631688386202,0.006999488919973373,0.0012670685537159443
1733699958040767500,10.665767578125,0.00032018031924963,0.004222111310809851,-0.0012561981566250324
1733699958050721300,10.67572119140625,0.00042990269139409065,-0.0019084857776761055,0.0012397165410220623
1733699958060676400,10.68567626953125,0.0003967150114476681,-0.004191629588603973,0.0005154816899448633
1733699958070631400,10.69563134765625,-0.0005154175451025367,-0.004835049156099558,0.001061962335370481
1733699958080585500,10.70558544921875,-0.0008304103976115584,-0.002869299380108714,0.0013175493804737926
1733699958090540300,10.715540283203126,-0.001040001166984439,-0.00002610863884910941,-0.00014292821288108826
1733699958100494300,10.725494384765625,-0.001086643896996975,-0.00006282486720010638,0.000142672099173069
1733699958110449400,10.735449462890625,-0.001744444714859128,-0.0004601685213856399,0.00046731135807931423
1733699958120403200,10.7454033203125,-0.0014122638385742903,-0.0015783240087330341,-0.0017783341463655233
1733699958130358500,10.755358642578125,-0.0014519449323415756,-0.005443369969725609,0.0005007993895560503
1733699958140312300,10.765312255859374,-0.0015077345306053758,-0.01379422377794981,0.0009258422069251537
1733699958150267400,10.775267333984376,-0.000187605619430542,-0.01493165921419859,0.0016273187939077616
1733699958160222200,10.78522216796875,0.0022468306124210358,-0.012990589253604412,0.0016579382354393601
1733699958170176500,10.795176513671874,0.00035172514617443085,-0.010681894607841969,0.0010291659273207188
1733699958180131300,10.80513134765625,0.0003364025615155697,-0.005511757452040911,-0.00017438014037907124
1733699958190085400,10.81508544921875,0.00016356352716684341,-0.0004040804342366755,-0.0010076831094920635
1733699958200040400,10.82504052734375,-0.000009401235729455948,0.004692197311669588,0.0009588290704414248
1733699958209994200,10.834994140625,0.0016606671269983053,0.009877105243504047,0.0013332695234566927
1733699958219949600,10.844949462890625,-0.00014240294694900513,0.008478307165205479,0.0014170027570798993
1733699958229903400,10.8549033203125,0.00001951702870428562,0.011339074932038784,0.0013967626728117466
1733699958239858400,10.8648583984375,-0.0002081715501844883,0.010457603260874748,0.0005559218116104603
1733699958249813200,10.874813232421875,-0.000612173113040626,0.007219732739031315,0.0007151787867769599
1733699958259767300,10.884767333984374,-0.0015347115695476532,0.0029015233740210533,0.0016678310930728912
1733699958269722400,10.894722412109376,-0.0009397614048793912,-0.0005256985896266997,0.001065423944965005
1733699958279676400,10.904676513671875,-0.00042721303179860115,-0.002068823669105768,0.0005669202655553818
1733699958289631500,10.914631591796875,-0.0008700966136530042,-0.002753522479906678,0.0003043324686586857
1733699958299585300,10.924585205078126,-0.00022851419635117054,-0.005820956081151962,-0.0003690505400300026
1733699958309540600,10.93454052734375,-0.0008261275943368673,-0.0050105564296245575,0.0016051506390795112
1733699958319494400,10.944494384765624,-0.0007581470999866724,-0.003357526147738099,0.0014254244742915034
1733699958329449500,10.954449462890626,0.0006791609339416027,-0.0015021017752587795,0.001739677507430315
1733699958339404300,10.964404296875,-0.0011471579782664776,-0.0015204956289380789,0.0014739541802555323
1733699958349358300,10.9743583984375,0.00008375500328838825,-0.003043557284399867,-0.00019398354925215244
1733699958359313400,10.9843134765625,-0.0023287402000278234,-0.0023015839979052544,-0.0012943879701197147
1733699958369267500,10.994267333984375,0.0009040709119290113,-0.0028635109774768353,0.0012028580531477928
1733699958379222300,11.00422216796875,0.0017831451259553432,-0.0033625520300120115,0.00060515315271914
1733699958389176300,11.01417626953125,0.0005857879295945168,-0.005266446154564619,0.0022752215154469013
1733699958399131400,11.02413134765625,0.0017401119694113731,-0.003538052784278989,0.0008783610537648201
1733699958409085400,11.03408544921875,-0.0008692530682310462,-0.0008362760418094695,0.0006581175839528441
1733699958419040500,11.04404052734375,-0.0003469435032457113,0.001397793646901846,0.0034892335534095764
1733699958428995300,11.053995361328125,0.0015372431371361017,0.00569400517269969,0.0013722868170589209
1733699958438949400,11.063949462890625,-0.0008284652139991522,0.006602338515222073,0.000696433475241065
1733699958448904400,11.073904541015626,-0.0021408710163086653,0.006307526957243681,0.0010615529026836157
1733699958458858500,11.0838583984375,-0.001819685334339738,0.005059181246906519,0.00015592691488564014
1733699958468813300,11.093813232421875,-0.000650557572953403,0.0033646116498857737,-0.0006084002088755369
1733699958478767400,11.103767333984376,0.0027046052273362875,-0.0003921682364307344,0.0002946029417216778
1733699958488722400,11.113722412109375,-0.0009841390419751406,-0.0033637231681495905,-0.0010960998479276896
1733699958498676200,11.12367626953125,-0.001842960948124528,-0.0061897095292806625,0.0004940270446240902
1733699958508631600,11.133631591796876,-0.002435514237731695,-0.009922929108142853,-0.0013512771110981703
1733699958518586400,11.14358642578125,-0.003156107384711504,-0.014746304601430893,-0.0028756798710674047
1733699958528540400,11.15354052734375,-0.003626421559602022,-0.015299176797270775,-0.0014524867292493582
1733699958538495200,11.1634951171875,-0.00043469411320984364,-0.012816008180379868,-0.00078758061863482
1733699958548449500,11.173449462890625,0.0012942301109433174,-0.005852642003446817,0.0005040524993091822
1733699958558404400,11.183404296875,0.002767203375697136,0.0031524247024208307,0.001872709020972252
1733699958568358400,11.1933583984375,0.0028673377819359303,0.010469193570315838,0.001072695362381637
1733699958578313500,11.2033134765625,0.0016064380761235952,0.01746661774814129,-0.0012825995218008757
1733699958588268500,11.2132685546875,0.0000985562801361084,0.01734144799411297,-0.0012511743698269129
1733699958598222600,11.22322265625,-0.0009022847516462207,0.01255928073078394,-0.0004209124017506838
1733699958608177400,11.233177490234375,-0.0016016308218240738,0.005188450682908297,-0.0011727227829396725
1733699958618131500,11.24313134765625,-0.0023566801100969315,-0.0008272039121948183,-0.0011436808854341507
1733699958628086300,11.253086181640626,-0.000805388786830008,-0.004388116765767336,0.00006273086182773113
1733699958638040300,11.263040283203125,-0.00189564423635602,-0.004253325052559376,-0.00012519396841526031
1733699958647995400,11.272995361328125,-0.0010847117519006133,-0.0030359942466020584,-0.0002040236722677946
1733699958657949400,11.282949462890626,-0.0006933894474059343,0.00040275059291161597,0.0013746436452493072
1733699958667904300,11.292904296875,-0.0006257451605051756,0.0022746864706277847,0.000874502002261579
1733699958677859300,11.302859375,0.0018168094102293253,0.0019655090291053057,0.0015208019176498055
1733699958687813600,11.312813720703126,0.0014370426069945097,-0.0026106007862836123,0.0003181183710694313
1733699958697768400,11.3227685546875,-0.001025655772536993,-0.00818273238837719,0.0019420835888013244
1733699958707722500,11.332722412109375,-0.0005915604997426271,-0.006263392511755228,0.0013497965410351753
1733699958717677300,11.34267724609375,0.0008991798385977745,-0.003915884532034397,-0.0008991658687591553
1733699958727631400,11.35263134765625,0.00028372323140501976,-0.00014032103354111314,0.0010670459596440196
1733699958737586400,11.36258642578125,-0.00010498031042516232,0.0055318730883300304,0.0002111478243023157
1733699958747540500,11.37254052734375,-0.00020724558271467686,0.008688784204423428,0.00013791071251034737
1733699958757495300,11.382495361328125,-0.00036675576120615005,0.011319650337100029,0.0009448758792132139
1733699958767450400,11.392450439453125,-0.0019854248967021704,0.01000138558447361,-0.0004381036851555109
1733699958777404400,11.402404296875,-0.0008674263954162598,0.006800817791372538,0.0007532909512519836
1733699958787359500,11.412359375,-0.0003630237188190222,0.0015804891008883715,0.0004329127259552479
1733699958797313500,11.4223134765625,-0.00043091049883514643,-0.0034741724375635386,0.0006536665605381131
1733699958807267600,11.432267578125,-0.001343575888313353,-0.006763442885130644,0.002095768228173256
1733699958817222000,11.442221923828125,0.00015266099944710732,-0.004906139802187681,0.0005719717592000961
1733699958827176700,11.4521767578125,-0.001797572011128068,0.0001229735789820552,-0.0005553443916141987
1733699958837130800,11.462130859375,-0.002642567502334714,0.009529629722237587,0.0004115481860935688
1733699958847085800,11.4720859375,-0.0007932685548439622,0.016067691147327423,-0.0006497215945273638
1733699958857041000,11.482041015625,-0.0012405855813995004,0.020795516669750214,0.00032496824860572815
1733699958866995000,11.491994873046876,-0.00208400865085423,0.019680451601743698,0.0007276382530108094
1733699958876949800,11.50194970703125,-0.00223521888256073,0.015573234297335148,0.00018549221567809582
1733699958886903800,11.51190380859375,-0.0015664991224184632,0.008840230293571949,-0.0004177137743681669
1733699958896858600,11.521858642578126,0.0003961878828704357,0.0005325874080881476,-0.0006326595321297646
1733699958906812700,11.531812744140625,-0.0007242040010169148,-0.007658763788640499,0.002653681207448244
1733699958916767700,11.541767822265625,0.001266572391614318,-0.012043925002217293,0.0022834748961031437
1733699958926721800,11.5517216796875,0.0009240899235010147,-0.014680986292660236,0.002445128746330738
1733699958936676900,11.5616767578125,0.002497253008186817,-0.01489977352321148,0.0020233765244483948
1733699958946631700,11.571631591796875,0.0006439592689275742,-0.013692297041416168,0.00010616681538522243
