time,seconds_elapsed,z,y,x
1733699980802639400,0.022639404296875,0.0034084999933838844,0.02071267180144787,-0.0022425581701099873
1733699980812594400,0.032594482421875,-0.003460591658949852,0.02120695449411869,-0.0004499843344092369
1733699980822548500,0.042548583984375,-0.002459676703438163,0.01558386068791151,-0.003094436600804329
1733699980832503300,0.05250341796875,-0.0009083853801712394,0.010902822017669678,-0.0024147978983819485
1733699980842457300,0.062457275390625,-0.00010064872913062572,0.003770611248910427,-0.001259785145521164
1733699980852412200,0.072412109375,-0.0013219743268564343,-0.0030838330276310444,-0.0006754875648766756
1733699980862366200,0.0823662109375,-0.0008954758523032069,-0.007328344509005547,-0.00258591934107244
1733699980872321300,0.0923212890625,-0.0016414272831752896,-0.013695163652300835,0.0003438241546973586
1733699980882275300,0.102275390625,-0.0010946934344246984,-0.0184421818703413,-0.0034322983119636774
1733699980892230400,0.11223046875,-0.0008651289390400052,-0.024721914902329445,-0.0010200070682913065
1733699980902184200,0.12218408203125,-0.0015360511606559157,-0.029163841158151627,-0.003893571672961116
1733699980912139500,0.132139404296875,-0.0007887681713327765,-0.03491120785474777,-0.0034432311076670885
1733699980922093300,0.14209326171875,-0.002949278336018324,-0.043877970427274704,-0.0016497650649398565
1733699980932048400,0.15204833984375,-0.0010057033505290747,-0.05679110437631607,0.00016890768893063068
1733699980942002200,0.162002197265625,-0.006981610786169767,-0.059507858008146286,-0.0038999493699520826
1733699980951957200,0.171957275390625,-0.001233444083482027,-0.05526597425341606,-0.002237870590761304
1733699980961911300,0.181911376953125,-0.00007188646122813225,-0.04721374437212944,-0.0012842861469835043
1733699980971866400,0.191866455078125,-0.0023518186062574387,-0.04004478082060814,0.0006172108696773648
1733699980981820400,0.2018203125,-0.001975500490516424,-0.03059142455458641,0.0015477458946406841
1733699980991775200,0.211775146484375,0.0005228109657764435,-0.01590995118021965,0.00008167559280991554
1733699981001729300,0.221729248046875,0.002603299915790558,-0.014346545562148094,0.00019118492491543293
1733699981011684400,0.231684326171875,0.0035162316635251045,-0.01997673511505127,-0.00017899461090564728
1733699981021638400,0.241638427734375,0.004313470330089331,-0.033799443393945694,-0.0028952453285455704
1733699981031593200,0.25159326171875,0.00460881507024169,-0.05719131603837013,-0.004029752220958471
1733699981041547300,0.26154736328125,0.0026329969987273216,-0.08431296795606613,-0.005050180479884148
1733699981051502300,0.27150244140625,0.005956888664513826,-0.10973203927278519,-0.006824377924203873
1733699981061456100,0.2814560546875,0.007208652328699827,-0.12952570617198944,-0.008930393494665623
1733699981071411500,0.291411376953125,0.0038794344291090965,-0.15003284811973572,-0.012938184663653374
1733699981081365200,0.301365234375,0.0033779859077185392,-0.16274972259998322,-0.014965984039008617
1733699981091320300,0.3113203125,0.004558831453323364,-0.17292246222496033,-0.016177188605070114
1733699981101274400,0.3212744140625,0.007583313621580601,-0.1837695688009262,-0.017556453123688698
1733699981111229400,0.3312294921875,0.007493564859032631,-0.19613994657993317,-0.02214161679148674
1733699981121183500,0.34118359375,0.008578160777688026,-0.20594410598278046,-0.022900031879544258
1733699981131138300,0.35113818359375,0.008341671898961067,-0.212964728474617,-0.02458980865776539
1733699981141092400,0.36109228515625,0.010874783620238304,-0.22107987105846405,-0.027782980352640152
1733699981151047200,0.371047119140625,0.0100670475512743,-0.23163717985153198,-0.029249314218759537
1733699981161001200,0.381001220703125,0.01460476778447628,-0.2373712956905365,-0.03198952227830887
1733699981170956300,0.390956298828125,0.012996219098567963,-0.24403133988380432,-0.037202127277851105
1733699981180910300,0.400910400390625,0.013134939596056938,-0.2512418031692505,-0.03629898279905319
1733699981190865200,0.410865234375,0.013627356849610806,-0.2566576302051544,-0.038483306765556335
1733699981200819200,0.420819091796875,0.012466808781027794,-0.25508782267570496,-0.040382418781518936
1733699981210774500,0.4307744140625,0.014031948521733284,-0.2555035650730133,-0.04035951569676399
1733699981220728300,0.440728271484375,0.012164842337369919,-0.253470778465271,-0.03995693847537041
1733699981230683400,0.450683349609375,0.013487102463841438,-0.25031837821006775,-0.038923364132642746
1733699981240637200,0.46063720703125,0.01366330124437809,-0.24329182505607605,-0.03789489343762398
1733699981250592300,0.47059228515625,0.014590879902243614,-0.22833524644374847,-0.03322823718190193
1733699981260546300,0.48054638671875,0.01255769282579422,-0.20746740698814392,-0.024237938225269318
1733699981270501400,0.49050146484375,0.00876401923596859,-0.17044973373413086,-0.01672436110675335
1733699981280455400,0.500455322265625,0.0028011207468807697,-0.10188502818346024,-0.008902696892619133
1733699981290410200,0.51041015625,0.001655695028603077,-0.003025290323421359,0.0014929522294551134
1733699981300364300,0.5203642578125,0.01110163051635027,0.16240641474723816,-0.010953384451568127
1733699981310319000,0.530319091796875,0.004275416024029255,0.30815377831459045,0.006948650348931551
1733699981320273400,0.5402734375,-0.012784052640199661,0.4367181360721588,0.011727585457265377
1733699981330228200,0.550228271484375,-0.022920042276382446,0.5544751286506653,0.015818733721971512
1733699981340183300,0.560183349609375,-0.0719088762998581,0.6625847816467285,0.009837566874921322
1733699981350137300,0.570137451171875,-0.12010543048381805,0.7364273071289062,-0.0004361094906926155
1733699981360092400,0.580092529296875,-0.06577463448047638,0.7786000967025757,0.04323276877403259
1733699981370046500,0.59004638671875,-0.017619354650378227,0.7603784799575806,0.07152964919805527
1733699981380001300,0.600001220703125,0.011952131986618042,0.6795927882194519,0.07483241707086563
1733699981389955300,0.609955322265625,0.02312302775681019,0.5738517642021179,0.0597570575773716
1733699981399910100,0.61991015625,0.01510399766266346,0.45291703939437866,0.04498505964875221
1733699981409864200,0.6298642578125,0.002695264294743538,0.3146931231021881,0.03347301483154297
1733699981419819300,0.6398193359375,-0.009676305577158928,0.17180371284484863,0.017820820212364197
1733699981429773300,0.649773193359375,-0.014018590562045574,0.042965300381183624,-0.0018213249277323484
1733699981439728400,0.659728271484375,-0.01500273123383522,-0.07678006589412689,-0.015464886091649532
1733699981449682200,0.66968212890625,-0.014480752870440483,-0.18192991614341736,-0.023388855159282684
1733699981459637500,0.679637451171875,-0.010868215933442116,-0.26500993967056274,-0.025566602125763893
1733699981469591300,0.68959130859375,-0.004936023615300655,-0.3158571422100067,-0.02344166487455368
1733699981479546400,0.69954638671875,-0.0029806755483150482,-0.3339437246322632,-0.019956814125180244
1733699981489500200,0.709500244140625,-0.0022171472664922476,-0.3219797611236572,-0.0189080610871315
1733699981499455200,0.719455322265625,-0.00029268895741552114,-0.2783949077129364,-0.017453454434871674
1733699981509409300,0.7294091796875,-0.0019150867592543364,-0.2098400741815567,-0.012071206234395504
1733699981519364400,0.7393642578125,-0.00213412381708622,-0.13086338341236115,-0.010436558164656162
1733699981529318400,0.749318359375,-0.004133092239499092,-0.05732790753245354,-0.009687677025794983
1733699981539273200,0.759273193359375,-0.003921359311789274,0.00829935073852539,-0.004433887079358101
1733699981549227300,0.769227294921875,-0.004466242156922817,0.053156834095716476,-0.004988622851669788
1733699981559182300,0.779182373046875,-0.004987801890820265,0.07751240581274033,-0.005054230336099863
1733699981569136400,0.789136474609375,-0.008418752811849117,0.08088157325983047,-0.006147724576294422
1733699981579091200,0.79909130859375,-0.00877466332167387,0.06429769843816757,-0.007359289564192295
1733699981589045200,0.809045166015625,-0.010196525603532791,0.037481002509593964,-0.009965458884835243
1733699981599000300,0.819000244140625,-0.008085072040557861,0.004243322182446718,-0.007337385322898626
1733699981608954000,0.8289541015625,-0.004936416633427143,-0.03210749477148056,-0.005879570264369249
1733699981618909400,0.838909423828125,0.0004337581340223551,-0.06875155121088028,-0.005919463001191616
1733699981628863200,0.84886328125,0.004080957267433405,-0.10010653734207153,-0.0020408350974321365
1733699981638818300,0.858818359375,0.008135495707392693,-0.12776270508766174,-0.0007589089218527079
1733699981648772400,0.8687724609375,0.007027886807918549,-0.1440223604440689,-0.0018553321715444326
1733699981658727400,0.8787275390625,0.004414685070514679,-0.14825737476348877,-0.001274419017136097
1733699981668681500,0.888681396484375,0.00388684612698853,-0.14432761073112488,-0.0026526048313826323
1733699981678636300,0.89863623046875,0.002373122377321124,-0.13541769981384277,-0.003548318985849619
1733699981688590300,0.90859033203125,0.001170971430838108,-0.12498929351568222,-0.00421837018802762
1733699981698545200,0.918545166015625,0.0008601495064795017,-0.11294832080602646,-0.0025639482773840427
1733699981708499200,0.928499267578125,0.0001482865773141384,-0.10125438123941422,-0.0014289089012891054
1733699981718454300,0.938454345703125,0.0013487888500094414,-0.08729446679353714,-0.0021687208209186792
1733699981728408300,0.948408203125,0.0003029655199497938,-0.07198262214660645,-0.0004403290804475546
1733699981738363400,0.95836328125,-0.0020323041826486588,-0.055187974125146866,-0.0007491230498999357
1733699981748317200,0.968317138671875,-0.0024799813982099295,-0.03958824276924133,0.0011387919075787067
1733699981758272500,0.9782724609375,-0.0017422075616195798,-0.025986287742853165,0.0012936802813783288
1733699981768226300,0.988226318359375,0.0013758214190602303,-0.016075866296887398,0.001416185637935996
1733699981778181400,0.998181396484375,0.001903278985992074,-0.008959023281931877,0.0016194138443097472
1733699981788135200,1.00813525390625,0.0004116427153348923,-0.008820272982120514,0.0009983646450564265
1733699981798090200,1.01809033203125,0.0003636803012341261,-0.008454930037260056,0.0035452365409582853
1733699981808044300,1.028044189453125,0.0004401130136102438,-0.009362002834677696,0.0024839667603373528
1733699981817999600,1.03799951171875,-0.001610446721315384,-0.010631492361426353,0.002095692092552781
1733699981827954700,1.04795458984375,-0.0007726162439212203,-0.014801469631493092,0.003535130526870489
1733699981837908700,1.05790869140625,-0.0025078910402953625,-0.02006366103887558,0.0023467615246772766
1733699981847863600,1.067863525390625,-0.003148913849145174,-0.02777191437780857,0.005089284852147102
1733699981857817600,1.077817626953125,-0.0029129055328667164,-0.032582271844148636,0.006820592097938061
1733699981867773000,1.08777294921875,-0.0008010186720639467,-0.03650723770260811,0.00816495530307293
1733699981877726700,1.097726806640625,-0.004399321973323822,-0.0387919582426548,0.010496074333786964
1733699981887681800,1.107681884765625,-0.006174318492412567,-0.038220442831516266,0.011750956065952778
1733699981897635600,1.117635498046875,-0.011443641036748886,-0.03110545501112938,0.014823590405285358
1733699981907590700,1.127590576171875,-0.02102595940232277,0.004566788207739592,0.01618313416838646
1733699981917544700,1.137544677734375,-0.02657366171479225,0.0918615534901619,0.017705796286463737
1733699981927499800,1.147499755859375,-0.022156808525323868,0.2044871747493744,0.021539950743317604
1733699981937453800,1.157453857421875,-0.0213145911693573,0.30598482489585876,0.026165712624788284
1733699981947408600,1.16740869140625,-0.028989288955926895,0.40361443161964417,0.028230195865035057
1733699981957362700,1.17736279296875,-0.04686882346868515,0.4876277446746826,0.032009728252887726
1733699981967317800,1.18731787109375,-0.0569709911942482,0.5294686555862427,0.029317539185285568
1733699981977271800,1.197271728515625,-0.0634787380695343,0.5162299275398254,0.027070697396993637
1733699981987226600,1.2072265625,-0.06485825031995773,0.45963186025619507,0.029346900060772896
1733699981997180700,1.2171806640625,-0.05659589171409607,0.3746173083782196,0.030074359849095345
1733699982007135700,1.2271357421875,-0.041039034724235535,0.27621641755104065,0.027188025414943695
1733699982017089500,1.237089599609375,-0.021419575437903404,0.1976528912782669,0.02966139279305935
1733699982027044900,1.247044921875,-0.005203587934374809,0.14087535440921783,0.031612690538167953
1733699982036998700,1.25699853515625,0.010097101330757141,0.11115488409996033,0.03162286430597305
1733699982046953700,1.26695361328125,0.026423610746860504,0.08939526230096817,0.0361369252204895
1733699982056907800,1.27690771484375,0.0301958080381155,0.08715011179447174,0.041112303733825684
1733699982066862800,1.28686279296875,0.03905588015913963,0.0812823697924614,0.03912052512168884
1733699982076817000,1.29681689453125,0.04089536890387535,0.06756901741027832,0.03990837186574936
1733699982086771700,1.306771728515625,0.03486091271042824,0.05283188447356224,0.04166925325989723
1733699982096725800,1.316725830078125,0.024457424879074097,0.04937377944588661,0.042291153222322464
1733699982106680600,1.3266806640625,0.007183363661170006,0.06325417757034302,0.03846445679664612
1733699982116634600,1.336634521484375,0.007089734543114901,0.0819263830780983,0.030969737097620964
1733699982126589700,1.346589599609375,0.005073721520602703,0.08690010756254196,0.02660321816802025
1733699982136543700,1.356543701171875,0.0030074212700128555,0.06299030780792236,0.022082850337028503
1733699982146498600,1.36649853515625,-0.0029878870118409395,0.022629568353295326,0.02146393246948719
1733699982156452600,1.37645263671875,-0.008062238804996014,-0.027559122070670128,0.020560812205076218
1733699982166408000,1.386407958984375,-0.010225258767604828,-0.06920270621776581,0.023353667929768562
1733699982176361700,1.39636181640625,-0.011260214261710644,-0.09279894828796387,0.027859218418598175
1733699982186316800,1.40631689453125,-0.006384232081472874,-0.08716130256652832,0.02699236012995243
1733699982196270600,1.4162705078125,-0.0011889217421412468,-0.07296832650899887,0.0242296252399683
1733699982206225700,1.4262255859375,0.0030188728123903275,-0.054389581084251404,0.02049906924366951
1733699982216179700,1.4361796875,0.003756673773750663,-0.04755835607647896,0.014498937875032425
1733699982226134800,1.446134765625,0.0036394947674125433,-0.056085534393787384,0.010661855340003967
1733699982236088800,1.4560888671875,0.00582502968609333,-0.08205070346593857,0.005863106809556484
1733699982246043600,1.466043701171875,0.00540504977107048,-0.11501983553171158,0.006034880876541138
1733699982255997700,1.475997802734375,0.00690095592290163,-0.13989052176475525,0.006243578158318996
1733699982265952800,1.485952880859375,0.006221050396561623,-0.15121906995773315,0.00047091010492295027
1733699982275906800,1.49590673828125,0.0022566502448171377,-0.1467583030462265,-0.004325544461607933
1733699982285861600,1.505861572265625,-0.002256875392049551,-0.1291010081768036,-0.009052922017872334
1733699982295815700,1.515815673828125,-0.004582430701702833,-0.10667925328016281,-0.011726604774594307
1733699982305770800,1.525770751953125,-0.0025720102712512016,-0.09538398683071136,-0.010805417783558369
1733699982315724500,1.535724609375,-0.003244623076170683,-0.08578307181596756,-0.009294634684920311
1733699982325679900,1.545679931640625,0.00021722004748880863,-0.08108232915401459,-0.007127354387193918
1733699982335634700,1.555634765625,0.0012316098436713219,-0.07682983577251434,-0.007366145960986614
1733699982345588700,1.565588623046875,-0.0007021115161478519,-0.053992170840501785,-0.008473488502204418
1733699982355543600,1.57554345703125,-0.0042516621761024,-0.02141091413795948,-0.009497368708252907
1733699982365497900,1.585497802734375,-0.009786776266992092,0.010078834369778633,-0.009197230450809002
1733699982375452700,1.59545263671875,-0.006034690886735916,0.0441531203687191,-0.005466754082590342
1733699982385406700,1.60540673828125,0.0022253699135035276,0.07753664255142212,-0.005082992371171713
1733699982395361500,1.615361572265625,0.014109686948359013,0.10786721110343933,-0.0005345393437892199
1733699982405315600,1.625315673828125,0.022566555067896843,0.13424742221832275,0.00225592078641057
1733699982415271000,1.63527099609375,0.029714055359363556,0.1578090488910675,-0.001867624931037426
1733699982425224700,1.645224609375,0.04159335419535637,0.16523580253124237,-0.006459979806095362
1733699982435179800,1.6551796875,0.0542040653526783,0.1710549145936966,-0.009081501513719559
1733699982445133600,1.665133544921875,0.06642264127731323,0.1682676523923874,-0.010126793757081032
1733699982455088600,1.675088623046875,0.07177276909351349,0.16198141872882843,-0.01362265832722187
1733699982465043000,1.68504296875,0.07258769124746323,0.1618562489748001,-0.015131605789065361
1733699982474997800,1.694997802734375,0.053861722350120544,0.1468650996685028,-0.001172832679003477
1733699982484951800,1.704951904296875,0.023519262671470642,0.15907889604568481,0.00878632441163063
1733699982494906600,1.71490673828125,0.004353648982942104,0.1967126876115799,0.011353240348398685
1733699982504860700,1.724860595703125,-0.003968995530158281,0.2482919991016388,0.0212095994502306
1733699982514815700,1.734815673828125,-0.014097031205892563,0.29733994603157043,0.029368817806243896
1733699982524769800,1.744769775390625,-0.02635449543595314,0.32017388939857483,0.03906059265136719
1733699982534724600,1.754724609375,-0.03614864870905876,0.3227003216743469,0.040991026908159256
1733699982544678700,1.7646787109375,-0.04147949814796448,0.2950764000415802,0.03613661602139473
1733699982554633700,1.7746337890625,-0.03825899213552475,0.24018029868602753,0.030905915424227715
1733699982564587800,1.784587890625,-0.03325757756829262,0.1606692373752594,0.02575349621474743
1733699982574542800,1.79454296875,-0.019767681136727333,0.06759871542453766,0.017110168933868408
1733699982584496600,1.80449658203125,-0.004108560737222433,-0.03258674964308739,0.015104541555047035
1733699982594451700,1.81445166015625,-0.00045576062984764576,-0.10552135854959488,0.012583766132593155
1733699982604405800,1.82440576171875,0.005861257202923298,-0.16332074999809265,0.012548346072435379
1733699982614360800,1.83436083984375,0.011878389865159988,-0.1974962204694748,0.015844246372580528
1733699982624315000,1.84431494140625,0.009798194281756878,-0.21394896507263184,0.01845494471490383
1733699982634269700,1.854269775390625,0.00419857632368803,-0.19501537084579468,0.02004389464855194
1733699982644223700,1.8642236328125,0.00022008037194609642,-0.14720045030117035,0.020623931661248207
1733699982654178600,1.874178466796875,-0.001317167072556913,-0.08532950282096863,0.02019733190536499
1733699982664132900,1.8841328125,-0.00021994463168084621,-0.027969276532530785,0.017411930486559868
1733699982674087700,1.894087646484375,0.009732218459248543,0.012162921950221062,0.011804098263382912
1733699982684041700,1.904041748046875,0.01269312109798193,0.014959773980081081,0.007652763277292252
1733699982693996500,1.91399658203125,0.013540646061301231,-0.012417771853506565,0.0038963225670158863
1733699982703950600,1.92395068359375,0.014624284580349922,-0.06278720498085022,0.00013141194358468056
1733699982713906000,1.933906005859375,0.015710778534412384,-0.12422807514667511,-0.0030821191612631083
1733699982723859700,1.943859619140625,0.018535859882831573,-0.18810692429542542,-0.011104625649750233
1733699982733814800,1.953814697265625,0.0213258545845747,-0.24792654812335968,-0.012639393098652363
1733699982743768600,1.9637685546875,0.024557335302233696,-0.28869712352752686,-0.01530495099723339
1733699982753723600,1.9737236328125,0.023107316344976425,-0.30718475580215454,-0.01947997510433197
1733699982763678000,1.983677978515625,0.014391321688890457,-0.2971707582473755,-0.025449451059103012
1733699982773632800,1.9936328125,-0.011376823298633099,-0.26225489377975464,-0.03467796742916107
1733699982783586800,2.0035869140625,-0.00467737577855587,-0.2107778787612915,-0.03486385568976402
1733699982793541600,2.013541748046875,0.014197681099176407,-0.14994052052497864,-0.030003122985363007
1733699982803495700,2.02349560546875,0.016959911212325096,-0.11220460385084152,-0.030072100460529327
1733699982813450800,2.03345068359375,0.02093585580587387,-0.09133516997098923,-0.030908504500985146
1733699982823404800,2.04340478515625,0.020590711385011673,-0.0863497331738472,-0.028334559872746468
1733699982833359600,2.053359619140625,0.016393613070249557,-0.09322850406169891,-0.027432052418589592
1733699982843314700,2.063314697265625,0.015070289373397827,-0.10759599506855011,-0.027591044083237648
1733699982853268700,2.073268798828125,0.012679945677518845,-0.12874150276184082,-0.02977968379855156
1733699982863223800,2.083223876953125,0.010824521072208881,-0.1521560102701187,-0.03116372972726822
1733699982873177900,2.093177734375,0.009007432498037815,-0.18058918416500092,-0.029157062992453575
1733699982883132700,2.103132568359375,0.010934761725366116,-0.2056274265050888,-0.0288875512778759
1733699982893086700,2.113086669921875,0.014635942876338959,-0.2153378129005432,-0.02513865754008293
1733699982903041500,2.12304150390625,0.01993882842361927,-0.20228886604309082,-0.019199276342988014
1733699982912995600,2.13299560546875,0.0268387533724308,-0.17775288224220276,-0.014283722266554832
1733699982922950700,2.14295068359375,0.030390877276659012,-0.14630015194416046,-0.01565524935722351
1733699982932904700,2.15290478515625,0.024723589420318604,-0.12057238817214966,-0.012248306535184383
1733699982942859800,2.16285986328125,0.018290190026164055,-0.09160199016332626,-0.008939329534769058
1733699982952813600,2.1728134765625,0.012851158156991005,-0.05994019657373428,0.0022812606766819954
1733699982962769000,2.182768798828125,0.013599506579339504,-0.030158597975969315,0.012501141056418419
1733699982972722700,2.19272265625,0.012964213266968727,0.022628631442785263,0.023720748722553253
1733699982982677800,2.202677734375,-0.0023124772123992443,0.08223417401313782,0.029562925919890404
1733699982992631600,2.212631591796875,-0.004876481834799051,0.17979004979133606,0.010509016923606396
1733699983002586600,2.222586669921875,-0.011148492805659771,0.2592526376247406,0.014454489573836327
1733699983012540700,2.232540771484375,-0.012137576937675476,0.3239668607711792,0.007585158571600914
1733699983022495700,2.242495849609375,-0.014035345055162907,0.3501153588294983,0.0065063126385211945
1733699983032449800,2.25244970703125,-0.014079567976295948,0.3224520981311798,0.0035954504273831844
1733699983042404600,2.262404541015625,-0.011959425173699856,0.24890759587287903,-0.002960186917334795
1733699983052358700,2.272358642578125,-0.006547148339450359,0.1332676112651825,-0.005198173224925995
1733699983062313700,2.282313720703125,0.0002005028072744608,0.006922467146068811,-0.004210673272609711
1733699983072267800,2.292267822265625,0.0037896237336099148,-0.10578393191099167,-0.0032616008538752794
1733699983082222600,2.30222265625,0.012243030592799187,-0.18365663290023804,0.0004929234273731709
1733699983092176600,2.3121767578125,0.014941754750907421,-0.22284077107906342,-0.001625836594030261
1733699983102131700,2.322131591796875,0.015146817080676556,-0.23430036008358002,-0.0023733859416097403
1733699983112085500,2.33208544921875,0.010672721080482006,-0.22077634930610657,-0.003128365147858858
1733699983122040800,2.342040771484375,0.008247380144894123,-0.19196361303329468,-0.004855158738791943
1733699983131994600,2.35199462890625,0.006075558252632618,-0.16196170449256897,-0.0050591835752129555
1733699983141949700,2.36194970703125,0.000038438476622104645,-0.12385214120149612,-0.0055707767605781555
1733699983151903700,2.37190380859375,-0.0032235123217105865,-0.08759117126464844,-0.008965601213276386
1733699983161858800,2.38185888671875,-0.008532524108886719,-0.056150153279304504,-0.013006415218114853
1733699983171812900,2.391812744140625,-0.009507466107606888,-0.031846240162849426,-0.015782801434397697
1733699983181767700,2.401767578125,-0.005301269702613354,-0.01471731998026371,-0.014573993161320686
1733699983191721700,2.4117216796875,-0.0018479597056284547,-0.007531358860433102,-0.015789365395903587
1733699983201676500,2.421676513671875,0.0039034029468894005,-0.015959996730089188,-0.01747700944542885
1733699983211630600,2.431630615234375,0.006405708845704794,-0.03607245534658432,-0.01671694405376911
1733699983221585700,2.441585693359375,0.007273633498698473,-0.058490145951509476,-0.016027452424168587
1733699983231539700,2.451539794921875,0.013242783024907112,-0.07159608602523804,-0.016648875549435616
1733699983241494500,2.46149462890625,0.024499965831637383,-0.0677422285079956,-0.015574555844068527
1733699983251448600,2.471448486328125,0.037452057003974915,-0.047467127442359924,-0.0209667906165123
1733699983261403600,2.481403564453125,0.043902233242988586,-0.017362486571073532,-0.029622331261634827
1733699983271357700,2.491357666015625,0.04950728267431259,0.018541663885116577,-0.03376400098204613
1733699983281312800,2.501312744140625,0.04764387011528015,0.055833909660577774,-0.034408483654260635
1733699983291266600,2.5112666015625,0.04687391221523285,0.10474040359258652,-0.03796574845910072
1733699983301221600,2.5212216796875,0.05578165128827095,0.14852996170520782,-0.03694043308496475
1733699983311175700,2.53117578125,0.044101882725954056,0.16926266252994537,-0.021087326109409332
1733699983321130800,2.541130859375,0.024183565750718117,0.1676706224679947,-0.00999446026980877
1733699983331084800,2.551084716796875,0.007028074003756046,0.16776889562606812,0.0033584695775061846
1733699983341039600,2.56103955078125,-0.005387581884860992,0.17366300523281097,0.008935394696891308
1733699983350993700,2.57099365234375,-0.00908647757023573,0.18784122169017792,0.013950968161225319
1733699983360948500,2.580948486328125,-0.007448366843163967,0.21445685625076294,0.014387726783752441
1733699983370903800,2.59090380859375,-0.007183171808719635,0.2401667982339859,0.017154281958937645
1733699983380857600,2.600857666015625,-0.006698209792375565,0.25807681679725647,0.019441938027739525
1733699983390812700,2.610812744140625,-0.016444839537143707,0.25846579670906067,0.02321735769510269
1733699983400766700,2.6207666015625,-0.02458106353878975,0.24545785784721375,0.025993702933192253
1733699983410721800,2.6307216796875,-0.02847260609269142,0.22312971949577332,0.031046010553836823
1733699983420675800,2.64067578125,-0.02858099713921547,0.19191189110279083,0.03493528813123703
1733699983430630700,2.650630615234375,-0.027236124500632286,0.16597884893417358,0.037540726363658905
1733699983440584700,2.660584716796875,-0.024530885741114616,0.1570039987564087,0.04020628705620766
1733699983450539500,2.67053955078125,-0.024189891293644905,0.15881755948066711,0.03722564876079559
1733699983460493600,2.68049365234375,-0.0236215740442276,0.17331527173519135,0.035850394517183304
1733699983470448600,2.69044873046875,-0.02239626832306385,0.18494604527950287,0.03134708106517792
1733699983480402700,2.700402587890625,-0.024636251851916313,0.17673258483409882,0.02667669579386711
1733699983490357800,2.710357666015625,-0.02428589016199112,0.15175096690654755,0.020809924229979515
1733699983500311600,2.7203115234375,-0.022327400743961334,0.11193618178367615,0.013781842775642872
1733699983510267000,2.730266845703125,-0.021333321928977966,0.056958675384521484,0.013500334694981575
1733699983520220700,2.740220703125,-0.016169985756278038,0.0005782211082987487,0.011372734792530537
1733699983530175700,2.75017578125,-0.013255838304758072,-0.03922839090228081,0.005444243550300598
1733699983540129500,2.760129638671875,-0.01071145385503769,-0.06197737902402878,-0.0005875499919056892
1733699983550084600,2.770084716796875,-0.012374932877719402,-0.06813278049230576,-0.00008795387111604214
1733699983560038700,2.78003857421875,-0.01302447821944952,-0.048066396266222,0.003240997437387705
1733699983569993700,2.78999365234375,-0.012870954349637032,-0.012881211936473846,0.0016687868628650904
1733699983579947800,2.79994775390625,-0.013057908043265343,0.028467824682593346,0.005621716845780611
1733699983589902600,2.809902587890625,-0.012418217025697231,0.06813427805900574,0.006662213709205389
1733699983599856600,2.819856689453125,-0.01445526909083128,0.09917208552360535,0.009488892741501331
1733699983609811700,2.829811767578125,-0.015213808044791222,0.11157024651765823,0.009223242290318012
1733699983619765800,2.839765869140625,-0.015484118834137917,0.11162297427654266,0.007445315830409527
1733699983629720600,2.849720458984375,-0.015238435007631779,0.08529653400182724,0.0043972088024020195
1733699983639674600,2.859674560546875,-0.012773945927619934,0.04576669633388519,0.00299345632083714
1733699983649629700,2.869629638671875,-0.009272224269807339,-0.002818458015099168,0.0041500539518892765
1733699983659583500,2.87958349609375,-0.008005890995264053,-0.03968166559934616,0.0023111412301659584
1733699983669538800,2.889538818359375,-0.006844670046120882,-0.07800564914941788,-0.00099460082128644
1733699983679492600,2.89949267578125,-0.005330663174390793,-0.0911526083946228,-0.0037371241487562656
1733699983689447700,2.90944775390625,-0.0033918535336852074,-0.08916442841291428,-0.005934178363531828
1733699983699401700,2.919401611328125,-0.0054315682500600815,-0.08135364204645157,-0.00688066566362977
1733699983709356800,2.929356689453125,-0.003218636382371187,-0.07527247816324234,-0.006646747700870037
1733699983719310800,2.939310791015625,0.001506343949586153,-0.06290742009878159,-0.00388824543915689
1733699983729265700,2.949265625,0.0033031373750418425,-0.04764384403824806,-0.00011728890240192413
1733699983739219700,2.9592197265625,0.005211292766034603,-0.02824937365949154,0.000057148048654198647
1733699983749174500,2.969174560546875,0.00409335270524025,-0.010988633148372173,-0.001210143556818366
1733699983759128600,2.979128662109375,-0.0009946163045242429,0.00021342100808396935,-0.0016524945385754108
1733699983769083600,2.989083740234375,-0.0026147288735955954,0.0002652503317221999,-0.00043152831494808197
1733699983779037700,2.99903759765625,-0.002399012679234147,-0.010372480377554893,-0.001143125118687749
1733699983788992800,3.00899267578125,-0.0005196342244744301,-0.0273953378200531,-0.0005242330953478813
1733699983798946600,3.018946533203125,-0.00044613098725676537,-0.04658714309334755,-0.0005439405795186758
1733699983808902000,3.02890185546875,-0.0008096381789073348,-0.06555450707674026,0.001310977851971984
1733699983818855700,3.038855712890625,0.005185403861105442,-0.07930973917245865,0.0019386849598959088
1733699983828810800,3.048810791015625,0.0066505493596196175,-0.09612923115491867,0.001465321285650134
1733699983838764500,3.0587646484375,0.0049288151785731316,-0.11262192577123642,0.00042802002280950546
1733699983848719600,3.0687197265625,0.002397031057626009,-0.13146966695785522,-0.002037761267274618
1733699983858673700,3.078673583984375,0.0038915970362722874,-0.15224657952785492,-0.002351747825741768
1733699983868628700,3.088628662109375,0.0046413494274020195,-0.1720130741596222,-0.0031027451623231173
1733699983878582800,3.098582763671875,0.0064855883829295635,-0.19165334105491638,-0.003426319221034646
1733699983888537600,3.10853759765625,0.0065757837146520615,-0.20540748536586761,-0.0036761644296348095
1733699983898492700,3.11849267578125,0.007027721963822842,-0.21141530573368073,-0.0029525835998356342
1733699983908446700,3.12844677734375,0.005347464233636856,-0.21775658428668976,-0.006539607886224985
1733699983918401800,3.13840185546875,0.0037471710238605738,-0.22871549427509308,-0.011878713965415955
1733699983928355600,3.14835546875,0.002435765927657485,-0.24496962130069733,-0.01440606452524662
1733699983938310700,3.158310546875,-0.0004420458571985364,-0.26824191212654114,-0.017387740314006805
1733699983948264700,3.1682646484375,-0.00042599928565323353,-0.2877880036830902,-0.016687436029314995
1733699983958219800,3.1782197265625,0.0012073174584656954,-0.2967735230922699,-0.014599252492189407
1733699983968173800,3.188173828125,0.003629696788266301,-0.28749480843544006,-0.009631059132516384
1733699983978128600,3.198128662109375,0.010863374918699265,-0.2599390745162964,-0.005485049448907375
1733699983988082700,3.208082763671875,0.01182075310498476,-0.21722422540187836,-0.003160429885610938
1733699983998037500,3.21803759765625,0.0141041474416852,-0.16366246342658997,-0.0032951857428997755
1733699984007991800,3.22799169921875,0.007190188858658075,-0.11452451348304749,-0.003146168775856495
1733699984017946600,3.237946533203125,0.003553109709173441,-0.07366922497749329,-0.003407691139727831
1733699984027900700,3.247900634765625,-0.0013497443869709969,-0.04219137504696846,-0.004725274629890919
1733699984037855700,3.257855712890625,-0.0021207295358181,-0.02190954051911831,-0.004816620610654354
1733699984047809500,3.2678095703125,-0.0032238776329904795,-0.010046101175248623,-0.004405391402542591
1733699984057764900,3.277764892578125,-0.0031373249366879463,-0.0009812333155423403,-0.004316441714763641
1733699984067718700,3.28771875,-0.003961812239140272,0.0056400480680167675,-0.005150490440428257
1733699984077673700,3.297673828125,-0.0028715140651911497,0.011614849790930748,-0.0017464379779994488
1733699984087627800,3.307627685546875,-0.001569171785376966,0.01637204922735691,-0.0008906573057174683
1733699984097582600,3.31758251953125,-0.0025526771787554026,0.018816297873854637,-0.000955638475716114
1733699984107537000,3.327536865234375,-0.0030791691970080137,0.01950199343264103,7.294584065675735e-7
1733699984117491700,3.33749169921875,-0.00365041708573699,0.017738981172442436,0.0006002068985253572
1733699984127445800,3.34744580078125,-0.0028101596981287003,0.018248572945594788,0.0016114627942442894
1733699984137400600,3.357400634765625,-0.0038056494668126106,0.01771754026412964,0.0021350402384996414
1733699984147354600,3.367354736328125,-0.005569729488343,0.017614321783185005,0.0017751267878338695
1733699984157309700,3.377309814453125,-0.005544429644942284,0.017178894951939583,0.003968772478401661
1733699984167263700,3.387263671875,-0.0075386324897408485,0.017443902790546417,0.0033288816921412945
1733699984177218600,3.397218505859375,-0.009446787647902966,0.0180596262216568,0.0006771722109988332
1733699984187172600,3.407172607421875,-0.007812883704900742,0.019511688500642776,0.001755738747306168
1733699984197127700,3.417127685546875,-0.006497281603515148,0.02211812511086464,0.002549627097323537
1733699984207081700,3.427081787109375,-0.005530386231839657,0.021507825702428818,0.002480850787833333
1733699984217036800,3.437036865234375,-0.005222524516284466,0.019040938466787338,0.0023008212447166443
1733699984226990600,3.446990478515625,-0.005672399885952473,0.015151350758969784,0.0020632545929402113
1733699984236945700,3.456945556640625,-0.004252135753631592,0.00747052812948823,0.0017881500534713268
1733699984246899700,3.466899658203125,-0.0065117888152599335,-0.0001129122101701796,-0.000701413257047534
1733699984256854800,3.476854736328125,-0.0029508762527257204,-0.0063194092363119125,0.0013761186273768544
1733699984266808800,3.486808837890625,-0.0031353007070720196,-0.01468820869922638,0.0006197555921971798
1733699984276763600,3.496763671875,-0.001044985605403781,-0.0216800719499588,0.00027807208243757486
1733699984286717700,3.5067177734375,0.0019030726980417967,-0.02983492985367775,0.0008769093547016382
1733699984296672500,3.516672607421875,-0.0004631460178643465,-0.04011286422610283,0.0011850370792672038
1733699984306626800,3.526626708984375,-0.00012329663150012493,-0.04209413006901741,0.001110788551159203
1733699984316581600,3.53658154296875,0.0006751192267984152,-0.04078118875622749,0.002312673255801201
1733699984326535700,3.54653564453125,0.0004814129788428545,-0.040017299354076385,0.002107810229063034
1733699984336490800,3.55649072265625,0.0002529136836528778,-0.032852865755558014,0.00228677480481565
1733699984346444500,3.566444580078125,0.0019310121424496174,-0.024986661970615387,0.003438697662204504
1733699984356399900,3.57639990234375,0.00015947758220136166,-0.015299947001039982,0.0025651808828115463
1733699984366353700,3.586353759765625,-0.002241522539407015,-0.0069786435924470425,0.0007645634468644857
1733699984376308700,3.596308837890625,-0.00316697102971375,0.000945592182688415,0.0012303503463044763
1733699984386262500,3.606262451171875,-0.0034585583489388227,0.010041482746601105,0.0025678433012217283
1733699984396217600,3.616217529296875,-0.0038782726041972637,0.021659256890416145,0.004388379864394665
1733699984406172700,3.626172607421875,-0.002722670789808035,0.03427395597100258,0.0029374766163527966
1733699984416126700,3.636126708984375,0.0006757890805602074,0.047070980072021484,0.003683428280055523
1733699984426081500,3.64608154296875,0.0002044285647571087,0.055824074894189835,0.004104621708393097
1733699984436035600,3.65603564453125,0.0005066972225904465,0.05920255929231644,0.004133916459977627
1733699984445990700,3.66599072265625,0.0002943393774330616,0.05865895748138428,0.00255047925747931
1733699984455944700,3.67594482421875,-0.0007983555551618338,0.045283764600753784,0.0031190640293061733
1733699984465899800,3.685899658203125,-0.00030548684298992157,0.030303241685032845,0.001982920104637742
1733699984475853600,3.695853515625,0.000993603141978383,0.014377539046108723,0.0011477528605610132
1733699984485808600,3.70580859375,0.0025693662464618683,-0.002476405818015337,0.0022470522671937943
1733699984495762700,3.7157626953125,0.0016764083411544561,-0.015308846719563007,0.0005540807032957673
1733699984505717800,3.7257177734375,0.0020050283055752516,-0.020464392378926277,-0.0016672888305038214
1733699984515671800,3.735671875,0.00005319737829267979,-0.023287076503038406,-0.0014712801203131676
1733699984525626600,3.745626708984375,-0.00020937039516866207,-0.023164261132478714,-0.001990422373637557
1733699984535580700,3.75558056640625,-0.0009601154597476125,-0.01856631226837635,-0.0018226432148367167
1733699984545535500,3.765535400390625,-0.0005157176638022065,-0.014252129010856152,-0.0011995534878224134
1733699984555489800,3.77548974609375,-0.001385772367939353,-0.010662720538675785,-0.00023096194490790367
1733699984565444600,3.785444580078125,-0.001387262949720025,-0.008312859572470188,-0.0002458794042468071
1733699984575398700,3.795398681640625,0.00012674415484070778,-0.008875852450728416,0.00010219588875770569
1733699984585353700,3.805353759765625,-0.0011120758717879653,-0.013794472441077232,0.0008785467362031341
1733699984595307500,3.8153076171875,-0.0006572080310434103,-0.017956992611289024,0.0010740227298811078
1733699984605262800,3.825262939453125,0.0003400198183953762,-0.01819910854101181,0.00043687468860298395
1733699984615216600,3.835216552734375,0.0009552100673317909,-0.02157333306968212,0.0002059785183519125
1733699984625171700,3.845171630859375,0.0008785545360296965,-0.02117699384689331,0.0012577413581311703
1733699984635125800,3.855125732421875,-0.00032546056900173426,-0.01816043071448803,0.0022859878372401
1733699984645080600,3.86508056640625,0.000963717931881547,-0.012985102832317352,0.0011721469927579165
1733699984655035000,3.875034912109375,0.00048195221461355686,-0.004013446159660816,0.0015801432309672236
1733699984664989700,3.88498974609375,-0.0013328519416972995,0.0019650503527373075,-0.0008788732811808586
1733699984674943700,3.89494384765625,-0.0025736186653375626,0.010525780729949474,0.0018556604627519846
1733699984684898600,3.904898681640625,-0.0026513542979955673,0.01637847349047661,0.0003730281023308635
1733699984694852600,3.9148525390625,-0.0011876809876412153,0.017750801518559456,0.0005240292521193624
1733699984704807700,3.9248076171875,-0.001858181320130825,0.01656406931579113,0.0015476553235203028
1733699984714761700,3.93476171875,-0.0020656415726989508,0.015626637265086174,0.0013681582640856504
1733699984724716500,3.944716552734375,-0.00006504682824015617,0.011901536956429482,0.0017567931208759546
1733699984734670600,3.954670654296875,-0.002359360223636031,0.0057147471234202385,0.0010641049593687057
1733699984744625700,3.964625732421875,-0.0017822812078520656,0.002893530298024416,0.0013925129314884543
1733699984754579700,3.974579833984375,-0.0011481825495138764,-0.000015973171684890985,0.0011158104753121734
1733699984764534800,3.98453466796875,-0.002353364834561944,-0.006968374364078045,0.0006334033096209168
1733699984774488600,3.994488525390625,-0.0017767904791980982,-0.012349557131528854,0.0006741496035829186
1733699984784443600,4.004443603515625,-0.0017227444332093,-0.01683904603123665,-0.0002698879688978195
1733699984794397700,4.014397705078125,-0.0006774537032470107,-0.019283561035990715,0.000597769976593554
1733699984804352800,4.024352783203125,-0.0009239021455869079,-0.016232432797551155,0.0013319465797394514
1733699984814306800,4.034306884765625,-0.0010349559597671032,-0.012489890679717064,0.0004128897562623024
1733699984824262000,4.044261962890625,0.00005629332736134529,-0.006699244026094675,0.0004377211444079876
1733699984834216000,4.0542158203125,0.001481084618717432,-0.002513020997866988,0.002628703834488988
1733699984844170800,4.064170654296875,0.00015000044368207455,-0.0004019396728836,0.0013410979881882668
1733699984854124800,4.074124755859375,0.000035484554246068,0.007633083499968052,0.0008199173025786877
1733699984864080000,4.084079833984375,-0.0016494512092322111,0.015080817975103855,0.0005547309992834926
1733699984874034000,4.094033935546875,-0.0022547878324985504,0.022349916398525238,-0.0020069635938853025
1733699984883988700,4.10398876953125,-0.0012753119226545095,0.022197173908352852,-0.0007935101166367531
1733699984893943800,4.11394384765625,-0.00323486584238708,0.020090879872441292,-0.0008180113509297371
1733699984903897900,4.12389794921875,-0.001207574037835002,0.017545919865369797,-0.0000266877468675375
1733699984913853000,4.13385302734375,0.0018928779754787683,0.010125021450221539,-0.0005721033085137606
1733699984923807000,4.143806884765625,0.00002226303331553936,0.0049682483077049255,-0.0017284131608903408
1733699984933761800,4.15376171875,-0.00010903086513280869,-0.0017173509113490582,-0.0018109711818397045
1733699984943715800,4.1637158203125,0.0028891467954963446,-0.008868231438100338,-0.0019899378530681133
1733699984953670700,4.173670654296875,0.0010020309127867222,-0.01320918370038271,-0.004056817386299372
1733699984963625000,4.183625,0.0004922735970467329,-0.01774536818265915,-0.002825705334544182
1733699984973579800,4.193579833984375,-0.00007497984915971756,-0.022950783371925354,-0.0020238272845745087
1733699984983533800,4.203533935546875,0.0007250458002090454,-0.024453474208712578,-0.0022139239590615034
1733699984993489000,4.213489013671875,0.0022220087703317404,-0.023468904197216034,-0.0018253687303513288
1733699985003442700,4.223442626953125,0.0022692594211548567,-0.022990966215729713,-0.00225076824426651
1733699985013398000,4.23339794921875,0.0022652645129710436,-0.023963553830981255,-0.0032646339386701584
1733699985023351800,4.243351806640625,0.002153219887986779,-0.023908760398626328,-0.004071811679750681
1733699985033307000,4.253306884765625,0.0023204663302749395,-0.020819494500756264,-0.001631557010114193
1733699985043261000,4.263260986328125,0.0019259918481111526,-0.015008075162768364,-0.0008265369106084108
1733699985053215700,4.2732158203125,0.0024847229942679405,-0.012051699683070183,-0.00037566362880170345
1733699985063170000,4.283170166015625,0.0016239478718489408,-0.005268702749162912,-0.0007829933892935514
1733699985073124900,4.293124755859375,-0.00014545628800988197,-0.003045496065169573,-0.0014173584058880806
1733699985083079000,4.303078857421875,-0.0017277952283620834,0.0008316023740917444,-0.0033649548422545195
1733699985093033700,4.31303369140625,0.0017926376312971115,0.0034020855091512203,-0.002713811816647649
1733699985102987800,4.32298779296875,0.000423261197283864,0.0041358815506100655,-0.0022968268021941185
1733699985112942800,4.33294287109375,0.00023417663760483265,0.005654149688780308,-0.0023559490218758583
1733699985122897000,4.34289697265625,-0.0010781133314594626,0.006503561045974493,-0.002409691223874688
1733699985132851700,4.352851806640625,-0.002512225415557623,0.008389079011976719,-0.0035977272782474756
1733699985142805800,4.3628056640625,-0.0025428913068026304,0.003656143555417657,-0.0036886874586343765
1733699985152760800,4.3727607421875,-0.0012834824156016111,-0.0006291489698924124,-0.0009456316474825144
1733699985162715000,4.38271484375,0.0015599722974002361,-0.004968784283846617,-0.0010347559582442045
1733699985172670000,4.392669921875,0.00451581459492445,-0.006764819845557213,-0.0006872133817523718
1733699985182623700,4.402623779296875,0.00554293766617775,-0.009916212409734726,-0.0011443449184298515
1733699985192578800,4.412578857421875,0.005052915774285793,-0.009842975065112114,-0.0008740341290831566
1733699985202532900,4.422532958984375,0.002839562715962529,-0.009026183746755123,-0.0012929493095725775
1733699985212488000,4.432488037109375,0.0007463179063051939,-0.009528722614049911,-0.002714278409257531
1733699985222442000,4.44244189453125,-0.00021051173098385334,-0.011086876504123211,-0.003721938468515873
1733699985232396800,4.452396728515625,-0.001533303875476122,-0.011456789448857307,-0.003982129041105509
1733699985242350800,4.462350830078125,-0.0020933046471327543,-0.01155000738799572,-0.005403084680438042
1733699985252305700,4.4723056640625,0.0007770503871142864,-0.009577137418091297,-0.004073368385434151
1733699985262260000,4.482260009765625,0.000836224528029561,-0.007232801057398319,-0.005378983914852142
1733699985272214800,4.49221484375,-0.001187511719763279,-0.004302524495869875,-0.003975231200456619
1733699985282168800,4.5021689453125,-0.0002880096435546875,-0.00009254878386855125,-0.0038620205596089363
1733699985292124000,4.5121240234375,0.0017445147968828678,-0.00028403004398569465,-0.003162940964102745
1733699985302077700,4.52207763671875,0.0007084198296070099,-0.0023093982599675655,-0.0027721086516976357
1733699985312033000,4.532032958984375,0.003403538605198264,-0.0057512675411999226,-0.003198480699211359
1733699985321986800,4.54198681640625,0.001914737280458212,-0.01114434003829956,-0.002198263071477413
1733699985331942000,4.55194189453125,0.002203157637268305,-0.013025330379605293,-0.0031460821628570557
1733699985341896000,4.56189599609375,0.00283647864125669,-0.011257811449468136,-0.0019000573083758354
1733699985351850800,4.571850830078125,0.0005962273571640253,-0.00893526803702116,-0.0016854063142091036
1733699985361805800,4.581805908203125,0.0017869265284389257,-0.005542933475226164,-0.002195667941123247
1733699985371759900,4.591759765625,0.0011677416041493416,-0.000740987656172365,-0.0032505462877452374
1733699985381715000,4.60171484375,0.0009383885189890862,0.004272610880434513,-0.0029619766864925623
1733699985391668700,4.611668701171875,-0.0018880243878811598,0.009841280989348888,-0.0023952557239681482
1733699985401624000,4.6216240234375,-0.001583394012413919,0.013179395347833633,-0.0022005592472851276
1733699985411577900,4.631577880859375,-0.0013730042846873403,0.01433334220200777,-0.0000532523263245821
1733699985421533000,4.641532958984375,0.0006163234356790781,0.010674952529370785,-0.0014367038384079933
1733699985431486700,4.65148681640625,0.001205414766445756,0.007491143420338631,0.00031219387892633677
1733699985441441800,4.66144189453125,0.0005197823047637939,-0.0006761234835721552,-0.0009340441320091486
1733699985451395800,4.671395751953125,-0.00040220399387180805,-0.007509262301027775,-0.0015020964201539755
1733699985461351000,4.681350830078125,0.00006862706504762173,-0.012298116460442543,-0.002217652974650264
1733699985471305000,4.691304931640625,0.0005969980265945196,-0.011217139661312103,-0.0018000693526118994
1733699985481259800,4.701259765625,-0.0002648410154506564,-0.011033165268599987,-0.00019250810146331787
1733699985491213800,4.7112138671875,-0.00031490845140069723,-0.006286080460995436,-0.0009025067556649446
1733699985501168600,4.721168701171875,0.0005735233426094055,-0.006526677869260311,-0.001924202311784029
1733699985511123000,4.731123046875,-0.0008600563742220402,-0.005256882403045893,-0.0004165868740528822
1733699985521077800,4.741077880859375,0.000033590011298656464,-0.007355214562267065,-0.0012962792534381151
1733699985531031800,4.75103173828125,-0.00007746368646621704,-0.008467351086437702,-0.0019431612454354763
1733699985540987000,4.76098681640625,0.0002113219816237688,-0.009790723212063313,-0.0005917660892009735
1733699985550940700,4.770940673828125,0.0011599399149417877,-0.013328466564416885,0.00009026960469782352
1733699985560896000,4.78089599609375,-0.0005457751685753465,-0.013683644123375416,0.0007769400253891945
1733699985570849800,4.790849853515625,0.0009661014191806316,-0.013029039837419987,0.0011487172450870275
1733699985580804900,4.800804931640625,-0.0007771812379360199,-0.006706967018544674,0.0009444225579500198
1733699985590759000,4.810759033203125,-0.0020994406659156084,-0.0014549470506608486,0.00175375712569803
1733699985600713700,4.820713623046875,-0.0009794614743441343,0.009649827145040035,0.0010869866237044334
1733699985610668000,4.83066796875,-0.0005285883089527488,0.02203752100467682,0.0028007307555526495
1733699985620622800,4.840622802734375,-0.0003620581701397896,0.03096202202141285,0.0020261623430997133
1733699985630577000,4.850576904296875,-0.0012861749855801463,0.038455624133348465,0.002216045744717121
1733699985640531700,4.86053173828125,-0.002138641430065036,0.04008949175477028,0.0011940972181037068
1733699985650485800,4.87048583984375,-0.0022118783090263605,0.03387953341007233,0.001129648764617741
1733699985660440800,4.88044091796875,0.0002762819640338421,0.020253311842679977,0.0013839667662978172
1733699985670395000,4.890394775390625,0.00032661575824022293,0.0053127119317650795,0.0022598805371671915
1733699985680350000,4.900349853515625,0.00028658146038651466,-0.010306733660399914,0.0013830082025378942
1733699985690303700,4.9103037109375,0.0019345453474670649,-0.02270348370075226,-0.0002812009770423174
1733699985700258800,4.9202587890625,0.0031272871419787407,-0.029708076268434525,-0.00027675158344209194
1733699985710212900,4.930212890625,0.005971276666969061,-0.030381321907043457,-0.001540687633678317
1733699985720168000,4.94016796875,0.0037089651450514793,-0.026204310357570648,-0.0014637375716120005
1733699985730121700,4.950121826171875,0.0034072287380695343,-0.0250793918967247,-0.002654703101143241
1733699985740076800,4.960076904296875,0.003121071495115757,-0.02723095938563347,-0.0024216764140874147
1733699985750030800,4.97003076171875,0.002598825842142105,-0.030046986415982246,-0.004841957241296768
1733699985759986000,4.97998583984375,0.0026953602209687233,-0.034782446920871735,-0.004641088657081127
1733699985769940000,4.98993994140625,0.0006484547629952431,-0.03987494483590126,-0.0061540305614471436
1733699985779894800,4.999894775390625,0.00008489098399877548,-0.038852959871292114,-0.002973630093038082
1733699985789848800,5.009848876953125,0.0013269893825054169,-0.03855175897479057,-0.0027936003170907497
1733699985799803600,5.0198037109375,0.001714933430776,-0.035192206501960754,-0.004615163430571556
1733699985809758000,5.029758056640625,0.001958079868927598,-0.03325475752353668,-0.0026753167621791363
1733699985819712800,5.039712646484375,0.0002509681507945061,-0.026473024860024452,-0.0011691919062286615
1733699985829666300,5.049666259765625,0.0004387209191918373,-0.02055920846760273,0.000008724164217710495
1733699985839621400,5.059621337890625,-0.00004369555972516537,-0.016021674498915672,-0.0001710264477878809
1733699985849575200,5.0695751953125,0.00003619934432208538,-0.00860290601849556,0.0007666725432500243
1733699985859530200,5.0795302734375,0.0005284002982079983,-0.001451266696676612,-0.0006158258765935898
1733699985869484300,5.089484375,-0.0016785613261163235,0.005633008200675249,-0.0006405932363122702
1733699985879439400,5.099439453125,-0.001465895096771419,0.011746403761208057,-0.0009772314224392176
1733699985889394200,5.109394287109375,-0.001403843518346548,0.015111573971807957,-0.0005037214141339064
1733699985899348200,5.11934814453125,-0.0024785923305898905,0.01332788448780775,-0.00022122636437416077
1733699985909303300,5.12930322265625,-0.0038903341628611088,0.009556848555803299,-0.0009338881354779005
1733699985919257300,5.13925732421875,-0.00399186322465539,0.00580494524911046,-0.0022622847463935614
1733699985929212400,5.14921240234375,-0.0014408210990950465,-0.0011829230934381485,-0.0021253980230540037
1733699985939166200,5.159166259765625,-0.0010823413031175733,-0.002294013276696205,0.00007057585753500462
1733699985949121300,5.169121337890625,0.00280614010989666,-0.0035888422280550003,-0.0005669849924743176
1733699985959075300,5.179075439453125,0.002829901874065399,-0.0018801651895046234,-0.0003597429022192955
1733699985969030400,5.189030517578125,0.003735110629349947,-0.0014806909020990133,-0.0002862396650016308
1733699985978984400,5.198984375,0.0015756192151457071,-0.003580818884074688,-0.0002722649369388819
1733699985988939300,5.208939208984375,0.00016733957454562187,-0.005868740379810333,-0.0004930410068482161
1733699985998893300,5.218893310546875,0.0006297847721725702,-0.005822454113513231,-0.00117022218182683
1733699986008848100,5.22884814453125,-0.001007260289043188,-0.0017563395667821169,0.0010796162532642484
1733699986018802400,5.238802490234375,-0.003630636492744088,0.011768514290452003,0.0009181798668578267
1733699986028757200,5.24875732421875,-0.0036559365689754486,0.03106844238936901,0.0020926338620483875
1733699986038711300,5.258711181640625,-0.004973430186510086,0.0673978254199028,0.002525078132748604
1733699986048666000,5.268666015625,-0.004765703342854977,0.11767484247684479,0.005274791736155748
1733699986058620200,5.2786201171875,-0.00455098319798708,0.15621790289878845,0.0030959267169237137
1733699986068575500,5.288575439453125,-0.007344905287027359,0.17207810282707214,0.0034607797861099243
1733699986078529300,5.298529296875,-0.007327786181122065,0.16456523537635803,0.002946391236037016
1733699986088484400,5.308484375,-0.009607451967895031,0.14160826802253723,0.0006984168430790305
1733699986098438100,5.318438232421875,-0.009198140352964401,0.10627110302448273,-0.00019882898777723312
1733699986108393200,5.328393310546875,-0.0017135918606072664,0.06330552697181702,0.0012456695549190044
1733699986118347500,5.338347412109375,0.0029529244638979435,0.02022494003176689,0.0012484523467719555
1733699986128302300,5.34830224609375,0.0056770723313093185,-0.017239877954125404,0.0016439317259937525
1733699986138256400,5.35825634765625,0.006610681768506765,-0.04538753256201744,-0.0008219548035413027
1733699986148211200,5.368211181640625,0.005689761135727167,-0.06381687521934509,-0.0007772138342261314
1733699986158165200,5.378165283203125,0.006177088245749474,-0.07152792066335678,0.00014471868053078651
1733699986168120300,5.388120361328125,0.005159228108823299,-0.07087704539299011,-0.002585554262623191
1733699986178074400,5.398074462890625,0.002395212184637785,-0.06139999255537987,-0.001998192397877574
1733699986188029200,5.408029296875,0.0012596400920301676,-0.04769563302397728,-0.0025899463798850775
1733699986197983200,5.417983154296875,0.0020465985871851444,-0.03676312789320946,-0.002486590528860688
1733699986207938300,5.427938232421875,0.00399123877286911,-0.028853537514805794,-0.0017044201958924532
1733699986217892400,5.437892333984375,0.0004679819103330374,-0.024845225736498833,-0.0012378888204693794
1733699986227847400,5.447847412109375,0.0002458742819726467,-0.02392164058983326,-0.0025921063497662544
1733699986237801200,5.45780126953125,-0.00037660368252545595,-0.03037385269999504,-0.002549296012148261
1733699986247756300,5.46775634765625,-0.0016716988757252693,-0.03660431504249573,-0.0034036377910524607
1733699986257710300,5.47771044921875,0.0009351731278002262,-0.03965061157941818,-0.001980510773137212
1733699986267665400,5.48766552734375,-0.00011304696090519428,-0.04120110347867012,-0.0017858336213976145
1733699986277619500,5.497619384765625,0.001613843021914363,-0.04326168820261955,0.00026992650236934423
1733699986287574300,5.50757421875,0.0008029104210436344,-0.03891727328300476,-0.00030771316960453987
1733699986297528300,5.5175283203125,0.0007485160604119301,-0.03547012060880661,0.0020667489152401686
1733699986307483100,5.527483154296875,0.0013607768341898918,-0.029292915016412735,0.0009591403650119901
1733699986317437400,5.5374375,0.0015328170266002417,-0.020795833319425583,0.0009876361582428217
1733699986327392300,5.547392333984375,0.0009498510044068098,-0.008401481434702873,0.002645986620336771
1733699986337346300,5.55734619140625,-0.00033195875585079193,0.0039860825054347515,0.0005660038441419601
1733699986347301000,5.567301025390625,0.0014893771149218082,0.013263470493257046,0.001885866397060454
1733699986357255200,5.577255126953125,-0.002136350842192769,0.020984716713428497,0.0009650248102843761
1733699986367210500,5.58721044921875,-0.0029621971771121025,0.026378683745861053,0.0007162855472415686
1733699986377164300,5.597164306640625,-0.0009460838045924902,0.027568373829126358,0.0012778667733073235
1733699986387119400,5.607119384765625,-0.0011096018133684993,0.02672841213643551,0.001752442098222673
1733699986397073200,5.6170732421875,0.0002497429959475994,0.02305062673985958,0.001248018816113472
1733699986407028200,5.6270283203125,-0.001209669397212565,0.016236398369073868,0.0009750447934493423
1733699986416982500,5.636982421875,-0.00001148437149822712,0.006153267342597246,0.0005302912322804332
1733699986426937300,5.646937255859375,-0.001738810446113348,-0.004370746202766895,-0.0007136713247746229
1733699986436891400,5.656891357421875,-0.0010275366948917508,-0.012493382208049297,0.0012105521745979786
1733699986446846200,5.66684619140625,-0.001054700929671526,-0.020087651908397675,0.00014874967746436596
1733699986456801500,5.676801513671875,0.0008505245205014944,-0.02457561157643795,0.00219584908336401
1733699986466755300,5.68675537109375,0.0006654348690062761,-0.02426641806960106,0.001003019162453711
1733699986476710400,5.69671044921875,0.0005295439623296261,-0.02340519055724144,0.000059361569583415985
1733699986486664200,5.706664306640625,-0.0005437099607661366,-0.019511915743350983,0.0016260992269963026
1733699986496619300,5.716619384765625,-0.00034630950540304184,-0.013069736771285534,0.0012953324476256967
1733699986506573300,5.7265732421875,-0.00091809022706002,-0.009336783550679684,0.00018799002282321453
1733699986516528400,5.7365283203125,-0.0005901447730138898,-0.007546238601207733,0.00022549438290297985
1733699986526482400,5.746482421875,-0.0011017380747944117,-0.005325428210198879,0.00045452616177499294
1733699986536437200,5.756437255859375,-0.0015913003589957952,-0.004326933994889259,0.0007311564404517412
1733699986546391300,5.766391357421875,-0.0004349558148533106,-0.0010720186401158571,0.001792159746401012
1733699986556346400,5.776346435546875,0.003113219980150461,0.0011377809569239616,0.0027050815988332033
1733699986566300400,5.786300537109375,0.0002394027542322874,0.004129043314605951,0.0037764711305499077
1733699986576255200,5.796255126953125,-0.000018030405044555664,0.005240704398602247,0.0022107271943241358
1733699986586209300,5.806209228515625,-0.0006470691878348589,0.007942480966448784,0.0023319008760154247
1733699986596164400,5.816164306640625,-0.0018133972771465778,0.012339277192950249,0.004210165701806545
1733699986606118100,5.8261181640625,-0.001555337104946375,0.016467709094285965,0.002507873112335801
1733699986616073500,5.836073486328125,-0.0032403296791017056,0.016039323061704636,0.0035810049157589674
1733699986626027300,5.84602734375,-0.00020565767772495747,0.014255804941058159,0.0026004291139543056
1733699986635982300,5.855982421875,-0.0010768299689516425,0.010515285655856133,0.002503674477338791
1733699986645936000,5.86593603515625,0.00046567292883992195,0.004711458925157785,0.0003193498123437166
1733699986655891500,5.875891357421875,-0.0005157019477337599,-0.0032050537411123514,0.000036636367440223694
1733699986665845500,5.885845458984375,-0.0002073079813271761,-0.010994799435138702,0.00017591961659491062
1733699986675800300,5.89580029296875,-0.0008360956562682986,-0.02093220129609108,0.001388457021676004
1733699986685754400,5.90575439453125,-0.0011325054802000523,-0.029384009540081024,0.001159957842901349
1733699986695709200,5.915709228515625,-0.0008221687749028206,-0.03542079031467438,0.000006698304787278175
1733699986705663200,5.925663330078125,0.0008502963464707136,-0.037504181265830994,-0.000874275341629982
1733699986715618300,5.935618408203125,-0.001253318740054965,-0.031465794891119,0.0011952423956245184
1733699986725572400,5.945572265625,0.0009365987498313189,-0.024555956944823265,0.001566220773383975
1733699986735527200,5.955527099609375,0.002454448025673628,-0.014666158705949783,0.0035097470972687006
1733699986745481200,5.965481201171875,0.0042137326672673225,-0.007716638967394829,0.0029416948091238737
1733699986755436500,5.9754365234375,0.0013762707822024822,-0.0007402172195725143,0.001226889668032527
1733699986765390300,5.985390380859375,-0.0014101945562288165,0.0011077502276748419,0.0009832103969529271
1733699986775345400,5.995345458984375,-0.0007248871261253953,0.0000458740396425128,0.000863400287926197
1733699986785299200,6.00529931640625,-0.0005299437325447798,-0.0007725153700448573,0.00021518697030842304
1733699986795254300,6.015254150390625,-0.001106001902371645,-0.002811725717037916,0.0009242825908586383
1733699986805208300,6.025208251953125,0.00039362418465316296,-0.0023661789018660784,-0.00011035543866455555
1733699986815163400,6.035163330078125,-0.0003027147613465786,-0.0010298790875822306,0.00019978894852101803
1733699986825117700,6.04511767578125,0.000077052041888237,0.0028972183354198933,0.0011172478552907705
1733699986835072800,6.05507275390625,-0.0005036650691181421,0.0051505593582987785,0.0005987532204017043
1733699986845026800,6.06502685546875,0.0013453676365315914,0.005373465828597546,0.002099977107718587
1733699986854981600,6.074981689453125,0.0011698396410793066,0.000055529759265482426,0.0019151453161612153
1733699986864935700,6.084935791015625,0.002122718608006835,-0.006550441030412912,0.0019058241741731763
1733699986874890500,6.094890380859375,0.0002411380410194397,-0.016095079481601715,0.0013236391823738813
1733699986884844800,6.1048447265625,0.0026089544408023357,-0.02021339163184166,0.00338519224897027
1733699986894799600,6.114799560546875,0.001335398992523551,-0.021998737007379532,0.0012567008379846811
1733699986904753700,6.124753662109375,0.00025548716075718403,-0.015303550288081169,0.002056714380159974
1733699986914708700,6.134708740234375,0.0012089163064956665,-0.009061576798558235,0.002842347137629986
1733699986924662500,6.14466259765625,-0.0002283917274326086,-0.000055831391364336014,0.0033230476547032595
1733699986934617900,6.154617919921875,-0.0005779631901532412,0.008240918628871441,0.002015414647758007
1733699986944571600,6.164571533203125,-0.0013995484914630651,0.010937635786831379,0.0007275099633261561
1733699986954526700,6.174526611328125,-0.0023025316186249256,0.012726220302283764,0.0030257271137088537
1733699986964481500,6.1844814453125,-0.002982969395816326,0.008930151350796223,0.00294290273450315
1733699986974435600,6.194435546875,-0.0014748774701729417,0.006548617035150528,0.0025718919932842255
1733699986984390700,6.204390625,-0.0025720999110490084,0.004835671745240688,0.0026818804908543825
1733699986994344700,6.2143447265625,-0.00007443944923579693,0.004006520379334688,0.00098605512175709
1733699987004299500,6.224299560546875,-0.0005263779312372208,0.004737824201583862,0.0019503857474774122
1733699987014253600,6.234253662109375,-0.0023425105027854443,0.005032314918935299,0.001373800216242671
1733699987024209000,6.244208984375,-0.0015014841919764876,0.005334583576768637,0.0018430491909384727
1733699987034162700,6.25416259765625,0.00039557809941470623,-0.0003376211388967931,0.0021606150548905134
1733699987044117800,6.26411767578125,-0.0015136421425268054,-0.003854858223348856,0.0015507512725889683
1733699987054071600,6.274071533203125,-0.0019403935875743628,-0.005951723083853722,0.0007603479316458106
1733699987064026600,6.284026611328125,-0.0005068139871582389,-0.009647391736507416,0.0005307834362611175
1733699987073980700,6.293980712890625,0.0010740801226347685,-0.013135726563632488,0.001043924130499363
1733699987083935700,6.303935791015625,-0.000805046409368515,-0.014895543456077576,0.001969372620806098
1733699987093889800,6.313889892578125,-0.00029496534261852503,-0.014830141328275204,0.0004402215126901865
1733699987103844600,6.3238447265625,-0.0002542189322412014,-0.016199538484215736,0.0022074952721595764
1733699987113798700,6.333798583984375,-0.0013781143352389336,-0.014059210196137428,0.0024287006817758083
1733699987123753700,6.343753662109375,0.0002653223928064108,-0.011857042089104652,0.0008209504885599017
1733699987133707800,6.353707763671875,0.0007512627635151148,-0.009577389806509018,0.00218560011126101
1733699987143662600,6.36366259765625,-0.0000972202979028225,-0.005593567620962858,0.0022460538893938065
1733699987153616600,6.37361669921875,-0.0003566668601706624,-0.0014243887271732092,0.0014994116500020027
1733699987163571700,6.38357177734375,0.0009999473113566637,0.003175423014909029,-0.0005379065405577421
1733699987173525500,6.393525390625,-0.0020578387193381786,0.007938321679830551,0.0004211824852973223
1733699987183480800,6.403480712890625,-0.0004908348200842738,0.011126924306154251,0.00030293804593384266
1733699987193434600,6.4134345703125,-0.0006038015708327293,0.01573353074491024,0.0015246407128870487
1733699987203389700,6.4233896484375,0.0002958141267299652,0.018828390166163445,0.001837295712903142
1733699987213343700,6.43334375,-0.00025224615819752216,0.018316728994250298,0.0021095105912536383
1733699987223298800,6.443298828125,-0.0010005943477153778,0.015253294259309769,0.001337992725893855
1733699987233252900,6.4532529296875,-0.0010567109566181898,0.009771970100700855,0.0003571673296391964
1733699987243207700,6.463207763671875,-0.0007243484724313021,0.00406881095841527,0.0010384039487689734
1733699987253161700,6.47316162109375,0.0021748412400484085,-0.0022071541752666235,0.001150467898696661
1733699987263116500,6.483116455078125,-0.0007596960058435798,-0.005890838336199522,0.0017494128551334143
1733699987273070600,6.493070556640625,-0.00018203211948275566,-0.007371822372078896,-0.00025581102818250656
1733699987283025700,6.503025634765625,0.0007940165232867002,-0.005017055198550224,-0.000378582626581192
1733699987292979700,6.512979736328125,-0.000028744107112288475,-0.003002128330990672,-0.00017740600742399693
1733699987302934500,6.5229345703125,0.0012234742753207684,-0.0022007832303643227,-0.0012788893654942513
1733699987312888600,6.532888671875,-0.0007704058662056923,-0.0015881732106208801,-0.00033686612732708454
1733699987322844000,6.542843994140625,0.0010653110221028328,0.0003878923016600311,0.0007212077034637332
1733699987332797700,6.552797607421875,0.0020018841605633497,-0.001674596220254898,-0.00019072950817644596
1733699987342752800,6.562752685546875,0.0012599276378750801,-0.001677525695413351,-0.0006847458425909281
1733699987352706600,6.57270654296875,0.00030201184563338757,0.00007660273695364594,0.0001001355703920126
1733699987362661600,6.58266162109375,0.001017603324726224,0.004075339064002037,0.001707619521766901
1733699987372615700,6.59261572265625,0.0016727941110730171,0.0031937919557094574,0.0009019485441967845
1733699987382570800,6.60257080078125,0.00041977688670158386,0.00263000070117414,-0.00022962852381169796
1733699987392524800,6.61252490234375,0.002268492244184017,-0.0018616118468344212,-0.0013487925752997398
1733699987402479600,6.622479736328125,0.0006559479515999556,-0.004044604953378439,-0.00010536261834204197
1733699987412433700,6.63243359375,-0.00022286991588771343,-0.006563190370798111,-0.0018237035255879164
1733699987422388700,6.642388671875,-0.00038638804107904434,-0.006636959966272116,-0.0025816389825195074
1733699987432342800,6.6523427734375,-0.0014228892978280783,-0.005910818465054035,-0.0028048164676874876
1733699987442297600,6.662297607421875,-0.0012825408484786749,-0.00011205143528059125,-0.0014753665309399366
1733699987452251600,6.672251708984375,-0.0024669307749718428,0.0005454211495816708,-0.0028336350806057453
1733699987462206700,6.682206787109375,-0.003300766460597515,0.004807277582585812,-0.0036027561873197556
1733699987472160500,6.692160400390625,0.00009288964793086052,0.004455043468624353,-0.001521427184343338
1733699987482115800,6.70211572265625,0.0022822744213044643,0.0015759000089019537,-0.0010074370075017214
1733699987492069600,6.712069580078125,0.003345124889165163,-0.000372231297660619,0.00010208878666162491
1733699987502024700,6.722024658203125,0.003938211128115654,-0.0035429906565696,0.0007790642557665706
1733699987511978800,6.731978759765625,0.0024072101805359125,-0.008230643346905708,0.0005462855333462358
1733699987521933800,6.741933837890625,0.000838608480989933,-0.010477552190423012,-0.001062530092895031
1733699987531887900,6.751887939453125,0.00042176595889031887,-0.009289230220019817,-0.0011373753659427166
1733699987541842700,6.7618427734375,-0.0011668095830827951,-0.006966421380639076,-0.0020449808798730373
1733699987551797500,6.771797607421875,-0.00006592343561351299,-0.004038151353597641,-0.003172449069097638
1733699987561751600,6.78175146484375,-0.0016529010608792305,0.0032804813235998154,-0.0022991986479610205
1733699987571707000,6.791706787109375,-0.0019356224220246077,0.011594201438128948,-0.003330324310809374
1733699987581660700,6.80166064453125,-0.00018246332183480263,0.016061387956142426,-0.0033737337216734886
1733699987591614700,6.81161474609375,-0.0019451864063739777,0.01744803413748741,-0.002696852432563901
1733699987601569500,6.821569580078125,-0.0004948287969455123,0.017054684460163116,-0.0034183028619736433
1733699987611524600,6.831524658203125,-0.0009896648116409779,0.010450249537825584,0.000382112804800272
1733699987621479000,6.84147900390625,-0.0006080337334424257,0.004470920655876398,-0.001976915169507265
1733699987631433700,6.851433837890625,-0.00045878684613853693,-0.003907486330717802,-0.0016392795369029045
1733699987641387800,6.8613876953125,0.0015340566169470549,-0.00820875819772482,-0.00015643145889043808
1733699987651342600,6.871342529296875,0.0011703160125762224,-0.009741735644638538,-0.002488544676452875
1733699987661296600,6.881296630859375,0.002665414707735181,-0.0054308767430484295,-0.0018821428529918194
1733699987671251700,6.891251708984375,0.0026229610666632652,-0.0059290858916938305,-0.003318917704746127
1733699987681205800,6.901205810546875,0.002927093766629696,-0.0075853061862289906,-0.0026672419626265764
1733699987691160600,6.91116064453125,0.0008723463397473097,-0.009518636390566826,-0.0024169371463358402
1733699987701114600,6.921114501953125,0.0008822001982480288,-0.009742874652147293,-0.0028718053363263607
1733699987711069700,6.931069580078125,0.0016156211495399475,-0.009859447367489338,-0.004043475724756718
1733699987721023700,6.941023681640625,0.00022864690981805325,-0.007496957201510668,-0.002763826632872224
1733699987730978800,6.950978759765625,0.0017189732752740383,-0.0027095347177237272,-0.00268899486400187
1733699987740932600,6.9609326171875,0.001674232305958867,0.0034327800385653973,-0.002477273577824235
1733699987750887700,6.9708876953125,0.002564893802627921,0.006074041593819857,-0.0036302609369158745
1733699987760841700,6.980841796875,0.0021776703651994467,0.004913702141493559,-0.0027889679186046124
1733699987770796800,6.990796875,0.0008130567148327827,0.000931012793444097,-0.005736315157264471
1733699987780750800,7.000750732421875,0.0003544604405760765,-0.007947433739900589,-0.005325655452907085
1733699987790705700,7.01070556640625,0.0006288024596869946,-0.013019060716032982,-0.00262234709225595
1733699987800659700,7.02065966796875,0.0019055218435823917,-0.01896563358604908,-0.004257528111338615
1733699987810614500,7.030614501953125,0.0015783379785716534,-0.02205333113670349,-0.002373035764321685
1733699987820568600,7.040568603515625,0.0013141522649675608,-0.023650694638490677,-0.0027876899112015963
1733699987830523400,7.0505234375,-0.001424545655027032,-0.023972835391759872,-0.0021521663293242455
1733699987840477400,7.0604775390625,-0.0000010861549526453018,-0.01860629953444004,-0.0005180505104362965
1733699987850432500,7.0704326171875,0.0021101899910718203,-0.012664981186389923,-0.0008490062318742275
1733699987860386300,7.08038623046875,0.0012393363285809755,-0.0072667538188397884,-0.001379241468384862
1733699987870341600,7.090341552734375,0.0006375662051141262,-0.0039162407629191875,-0.0022708368487656116
1733699987880295400,7.10029541015625,0.0002636583521962166,-0.0043908157385885715,-0.0025193095207214355
1733699987890250500,7.11025048828125,-0.00012246472761034966,-0.0036228280514478683,-0.002215240616351366
1733699987900204500,7.12020458984375,-0.0000705330166965723,-0.005491568241268396,-0.0028903521597385406
1733699987910159400,7.130159423828125,-0.00009628618136048317,-0.00400352431461215,-0.0014864748809486628
1733699987920113400,7.140113525390625,0.0010768361389636993,-0.0025401173625141382,-0.0015477277338504791
1733699987930068500,7.150068359375,0.0002657542936503887,0.0010214009089395404,-0.0027447319589555264
1733699987940022500,7.1600224609375,0.0001664182636886835,0.007116843946278095,-0.0017801348585635424
1733699987949977300,7.169977294921875,-0.0005819075740873814,0.006786142475903034,-0.002615237608551979
1733699987959931400,7.179931396484375,-0.000006132060661911964,0.006236199755221605,-0.0012511664535850286
1733699987969886500,7.189886474609375,-0.002528407610952854,0.0039005333092063665,-0.0008135833777487278
1733699987979840500,7.199840576171875,0.000476703280583024,-0.0004598602536134422,-0.0010676488745957613
1733699987989795300,7.20979541015625,-0.00011399434879422188,-0.004113541450351477,-0.001541781472042203
1733699987999749400,7.219749267578125,-0.000638370867818594,-0.008117604069411755,-0.00040993792936205864
1733699988009704400,7.229704345703125,-0.00020252540707588196,-0.009905152022838593,-0.000311829149723053
1733699988019658200,7.239658203125,-0.0004976035561412573,-0.011334470473229885,-0.0010223605204373598
1733699988029613600,7.249613525390625,-0.00015903916209936142,-0.012207217514514923,-0.0004789207596331835
1733699988039567400,7.2595673828125,-0.0017896927893161774,-0.010226625017821789,-0.00015428150072693825
1733699988049522400,7.2695224609375,-0.0026265352498739958,-0.0059518651105463505,-0.0007662989664822817
1733699988059476500,7.2794765625,-0.001519991783425212,-0.0015720303636044264,0.0002254621358588338
1733699988069431600,7.289431640625,-0.0020656336564570665,0.003189763054251671,-0.0010210368782281876
1733699988079385600,7.299385498046875,-0.0011937146773561835,0.00727451965212822,-0.0007046533282846212
1733699988089340400,7.30934033203125,-0.00011590635403990746,0.008873590268194675,-0.0005528598558157682
1733699988099294500,7.31929443359375,0.00032591214403510094,0.008241355419158936,-0.0016141294036060572
1733699988109249300,7.329249267578125,0.0005973756778985262,0.004644365049898624,0.0005735979648306966
1733699988119203300,7.339203369140625,-0.000021543120965361595,0.001852839719504118,0.0011685481294989586
1733699988129158400,7.349158447265625,0.0012025455944240093,0.0020696716383099556,0.0026782008353620768
1733699988139112400,7.359112548828125,-0.0001631234772503376,0.0010749810608103871,0.0007689805934205651
1733699988149067500,7.369067626953125,-0.00020116404630243778,0.0008189660729840398,0.0007914667949080467
1733699988159021300,7.379021240234375,-0.00009037647396326065,-0.00042393122566863894,-0.0005489022005349398
1733699988168976600,7.3889765625,0.0005796600598841906,0.001200428232550621,-0.000025557121261954308
1733699988178930400,7.398930419921875,0.0010430500842630863,-0.0021777916699647903,-0.0004489996936172247
1733699988188885500,7.408885498046875,-0.00005076499655842781,-0.0034027553629130125,-0.00030838605016469955
1733699988198839600,7.418839599609375,-0.0008079016115516424,-0.008362626656889915,-0.0017163993325084448
1733699988208794400,7.42879443359375,-0.0007327612256631255,-0.008598078042268753,-0.0013723678421229124
1733699988218749400,7.43874951171875,-0.0010201162658631802,-0.012478036805987358,-0.0016948767006397247
1733699988228703500,7.448703369140625,-0.002447707112878561,-0.014518811367452145,-0.0003196198958903551
1733699988238658300,7.458658203125,-0.0012317077489569783,-0.014503631740808487,-0.0005177592393010855
1733699988248612400,7.4686123046875,0.0012247881386429071,-0.012542990036308765,-0.0014523030258715153
1733699988258567400,7.4785673828125,0.0022972431033849716,-0.010428174398839474,0.0007005962543189526
1733699988268521500,7.488521484375,0.00450919708237052,-0.003949400037527084,0.0009394621010869741
1733699988278476500,7.4984765625,0.0037829531356692314,0.0011811796575784683,0.0006963154301047325
1733699988288430300,7.508430419921875,0.0008919502142816782,0.0027457927353680134,-0.000014446675777435303
1733699988298385400,7.518385498046875,-0.0003783777356147766,0.0056260013952851295,-8.647330105304718e-7
1733699988308339500,7.52833935546875,-0.0008981252321973443,0.003612022614106536,-0.00033840304240584373
1733699988318294500,7.53829443359375,-0.0006342059932649136,0.002324117813259363,-0.0011543955188244581
1733699988328248600,7.54824853515625,5.906913429498672e-7,0.0011856451164931059,-0.0010882534552365541
1733699988338203400,7.558203369140625,-0.002827952615916729,0.0024461192078888416,-0.0016874647699296474
1733699988348157400,7.568157470703125,-0.00016232975758612156,0.002788877347484231,-0.0006746829021722078
1733699988358112300,7.5781123046875,0.00016683712601661682,0.0057721505872905254,-0.0004640268161892891
1733699988368066300,7.58806640625,-0.00006854045204818249,0.007377726957201958,0.00009152875281870365
1733699988378021400,7.598021484375,0.0018388156313449144,0.007941784337162971,-0.0013939824420958757
1733699988387975400,7.607975341796875,0.000436300877481699,0.0047352127730846405,0.0009052447276189923
1733699988397930500,7.617930419921875,0.00012098252773284912,0.00046083933557383716,0.0000279995147138834
1733699988407884300,7.62788427734375,0.000613099429756403,-0.006317250896245241,0.00033789535518735647
1733699988417839600,7.637839599609375,0.001131084281951189,-0.007989982143044472,-0.00042882864363491535
1733699988427793400,7.64779345703125,-0.000001627020537853241,-0.005777359940111637,0.0007593471091240644
1733699988437748500,7.65774853515625,0.0005552398506551981,-0.0023914168123155832,0.00021686125546693802
1733699988447702500,7.66770263671875,0.001563838915899396,0.0007122585084289312,0.0004848282551392913
1733699988457657300,7.6776572265625,0.0012626354582607746,0.005691837053745985,0.00030533119570463896
1733699988467611400,7.687611328125,-0.0003680193331092596,0.0090114064514637,0.0004077124176546931
1733699988477566500,7.69756640625,-0.0015635122545063496,0.009898771531879902,0.0006194337038323283
1733699988487520500,7.7075205078125,-0.0034896605648100376,0.006752256769686937,0.0010482936631888151
1733699988497475300,7.717475341796875,-0.0016749827191233635,0.0030118476133793592,-0.0006819621194154024
1733699988507429400,7.727429443359375,0.00013273954391479492,-0.0012235725298523903,0.0012112358817830682
1733699988517384400,7.737384521484375,0.0008110466878861189,-0.004219895228743553,-0.0007187568116933107
1733699988527338500,7.74733837890625,0.0011799319181591272,-0.009545070119202137,0.00015111989341676235
1733699988537293300,7.757293212890625,0.0025368123315274715,-0.00931816827505827,-0.0017160223796963692
1733699988547247400,7.767247314453125,-0.0008089086040854454,-0.0067106275819242,-0.00040913280099630356
1733699988557202400,7.777202392578125,0.0003098852466791868,-0.004294607788324356,-0.00011511985212564468
1733699988567156200,7.78715625,-0.0012865517055615783,-0.0012946997303515673,-0.0009496717248111963
1733699988577111600,7.797111572265625,-0.0004431286361068487,0.0017815176397562027,0.0003241183003410697
1733699988587065300,7.8070654296875,-0.00006711157038807869,0.00019466952653601766,0.0010209230240434408
1733699988597020400,7.8170205078125,-0.0008596682455390692,-0.002628813963383436,0.0013242571149021387
1733699988606974500,7.826974365234375,-0.00030396925285458565,-0.005075016058981419,0.0012605618685483932
1733699988616929500,7.836929443359375,0.00001561013050377369,-0.009078280068933964,0.00012019625864923
1733699988626883600,7.846883544921875,-0.0010218240786343813,-0.013023952022194862,-0.00007813260890543461
1733699988636838400,7.85683837890625,-0.0007587037980556488,-0.01596061885356903,0.0007248105248436332
1733699988646792400,7.86679248046875,-0.0013890410773456097,-0.01696808636188507,0.0006546889198943973
1733699988656747300,7.876747314453125,0.0015364412683993578,-0.015733711421489716,-0.0005658378358930349
1733699988666701300,7.886701416015625,-0.000012539094313979149,-0.011285003274679184,-0.00023197545669972897
1733699988676656400,7.896656494140625,0.0015163817442953587,-0.006050826516002417,0.0005752287106588483
1733699988686610400,7.9066103515625,0.001145416172221303,-0.0011504518333822489,0.0005392316961660981
1733699988696565500,7.9165654296875,0.000045797089114785194,0.002582500921562314,-0.0006432118825614452
1733699988706519300,7.926519287109375,0.0015864742454141378,0.003928710240870714,-0.0010215702932327986
1733699988716474600,7.936474609375,0.00027779676020145416,0.005282128695398569,-0.0000407281331717968
1733699988726428400,7.946428466796875,-0.0006147875683382154,0.004348060581833124,-0.0007180832326412201
1733699988736383500,7.956383544921875,0.0003330314066261053,0.004056178033351898,-0.00020249513909220695
1733699988746337500,7.966337646484375,0.00027592782862484455,0.0020811574067920446,0.0010910220444202423
1733699988756292400,7.976292236328125,0.00007059820927679539,-0.00006774713983759284,0.0005384162068367004
1733699988766246400,7.986246337890625,0.0000280716922134161,-0.005219059064984322,-0.00040596863254904747
1733699988776201500,7.996201416015625,0.000851787393912673,-0.00884788203984499,0.0010076372418552637
1733699988786155500,8.006155517578126,0.00005149492062628269,-0.010657994076609612,0.0009723497787490487
1733699988796110300,8.0161103515625,0.00043552275747060776,-0.010781831108033657,0.001152113196440041
1733699988806064400,8.026064453125,-0.0005189261864870787,-0.0064296298660337925,-0.0010744500905275345
1733699988816019500,8.03601953125,-0.0007375717395916581,0.0003164231893606484,-0.0005069305188953876
1733699988825973000,8.045972900390625,-0.0020529667381197214,0.004547107964754105,-0.0007864197250455618
1733699988835928300,8.05592822265625,-0.002358431229367852,0.007107737008482218,-0.000593340490013361
1733699988845882000,8.065882080078126,-0.002006030175834894,0.008200370706617832,0.0018335935892537236
1733699988855837200,8.075837158203125,0.00037164008244872093,0.005763578228652477,-0.00009613297879695892
1733699988865791000,8.085791015625,0.0014785400126129389,0.0030516593251377344,0.0015996468719094992
1733699988875746000,8.09574609375,0.0022391388192772865,0.0000135251902975142,0.0005365130491554737
1733699988885700000,8.1057001953125,0.002966613043099642,-0.0027278701309114695,0.0024183373898267746
1733699988895655200,8.1156552734375,0.0018901634030044079,-0.0009613953880034387,0.00336748780682683
1733699988905609200,8.125609130859376,0.0023275702260434628,0.0007874891743995249,0.0030201803892850876
1733699988915564000,8.13556396484375,0.0005278061144053936,0.0021156074944883585,-0.000262698158621788
1733699988925518000,8.14551806640625,-0.0009718494256958365,0.000635107047855854,0.0017882859101518989
1733699988935473200,8.15547314453125,-0.0016384386690333486,-0.002028054092079401,0.001978968270123005
1733699988945427200,8.16542724609375,-0.00045692070852965117,-0.003733451943844557,0.001870021573267877
1733699988955382000,8.175382080078125,0.0028659054078161716,-0.008143380284309387,0.00004602246917784214
1733699988965337000,8.185337158203126,-0.00046314019709825516,-0.009810383431613445,0.0004785642959177494
1733699988975291100,8.195291015625,-0.001236255862750113,-0.012142779305577278,-0.0015377148520201445
1733699988985246200,8.20524609375,-0.0024428514298051596,-0.014726243913173676,-0.000023768050596117973
1733699988995200300,8.2152001953125,-0.0034575159661471844,-0.015530784614384174,0.000737896072678268
1733699989005155000,8.225155029296875,-0.003356523346155882,-0.017649158835411072,-0.0004359132144600153
1733699989015109000,8.235109130859374,-0.002626018365845084,-0.012895416468381882,-0.0009328590240329504
1733699989025064000,8.24506396484375,0.001433071680366993,-0.00833498127758503,0.0007538208737969398
1733699989035018200,8.255018310546875,0.0029042018577456474,-0.001455237390473485,0.0015588945243507624
1733699989044973000,8.26497314453125,0.002713808324187994,0.005584375001490116,0.0018579831812530756
1733699989054927000,8.274927001953126,0.00032388768158853054,0.007286933716386557,0.0007802018662914634
1733699989064882000,8.2848818359375,-0.0005879037780687213,0.007292130496352911,-0.0008624936453998089
1733699989074836000,8.2948359375,-0.0014014996122568846,0.00417090579867363,0.0006355344085022807
1733699989084791300,8.304791259765626,-0.0005195167614147067,0.001086817355826497,-0.0007770601660013199
1733699989094745000,8.3147451171875,-0.0010612037731334567,-0.003607802791520953,0.00023520737886428833
1733699989104700200,8.3247001953125,-0.0016445685178041458,-0.006277622189372778,0.0002272606361657381
1733699989114654000,8.334654052734376,0.0002974085509777069,-0.005714629776775837,-0.0008872721809893847
1733699989124609000,8.344609130859375,-0.0009802517015486956,-0.00235974439419806,0.0012781419791281223
1733699989134563300,8.354563232421874,-0.0012953036930412054,-0.0005027221632190049,0.0007585592102259398
1733699989144518100,8.36451806640625,0.0011292861308902502,0.004035401623696089,0.0013835481368005276
1733699989154472200,8.37447216796875,-0.0015035150572657585,0.0038844007067382336,0.0005073681240901351
1733699989164427000,8.384427001953124,-0.0009079626761376858,0.0032501614186912775,0.0021333901677280664
1733699989174381000,8.394381103515625,-0.000050691189244389534,-0.000954969844315201,0.0013038155157119036
1733699989184336100,8.404336181640625,-0.0009537916630506516,-0.0015538129955530167,0.000822561327368021
1733699989194290200,8.414290283203124,0.0006297240033745766,-0.0023921760730445385,0.0015863559674471617
1733699989204245000,8.424244873046876,0.0005493101198226213,-0.0016089119017124176,0.0007224826840683818
1733699989214199000,8.434198974609375,-0.0019260980188846588,0.0017424100078642368,0.001082542003132403
1733699989224154000,8.444154052734374,0.0003650409635156393,0.0017486712895333767,0.0013363317120820284
1733699989234108200,8.454108154296875,-0.0019061027560383081,0.004556708037853241,0.0015230192802846432
1733699989244063200,8.464063232421875,-0.0008304555667564273,0.006175382994115353,0.0019066103268414736
1733699989254017000,8.47401708984375,-0.0018073030514642596,0.006583379115909338,0.0034195519983768463
1733699989263972000,8.48397216796875,-0.0014770175330340862,0.0054808189161121845,0.0015288267750293016
1733699989273926100,8.493926025390625,-0.00008098850958049297,0.004510895814746618,0.0008414648473262787
1733699989283881200,8.503881103515624,-0.0008280875626951456,0.003421663073822856,0.0019346651388332248
1733699989293835300,8.513835205078125,-0.0006107735680416226,0.0018999327439814806,0.0006017530104145408
1733699989303790000,8.5237900390625,-0.0002035174984484911,0.0023302375338971615,0.004121001344174147
1733699989313744100,8.533744140625,-0.0022682661656290293,0.006295418366789818,0.0031201853416860104
1733699989323699000,8.543698974609375,-0.0013443375937640667,0.014569757506251335,0.002630319446325302
1733699989333653200,8.5536533203125,-0.004229339770972729,0.02104470133781433,0.002656684722751379
1733699989343608000,8.563608154296874,-0.0046454742550849915,0.02706044726073742,0.0027926890179514885
1733699989353562000,8.57356201171875,-0.0033650267869234085,0.0263533778488636,0.0015426010359078646
1733699989363517000,8.583516845703125,-0.0044691963121294975,0.01778331957757473,0.0019149852450937033
1733699989373471000,8.593470947265626,-0.0027866109739989042,0.0044536651112139225,0.0022548045963048935
1733699989383426300,8.60342626953125,-0.0019263235153630376,-0.010674641467630863,0.003148042131215334
1733699989393380000,8.613380126953125,-0.00025678775273263454,-0.019212201237678528,0.0040319450199604034
1733699989403335200,8.623335205078124,0.001156503800302744,-0.025150621309876442,0.0018581512849777937
1733699989413289000,8.6332890625,-0.00026136310771107674,-0.023049386218190193,0.0030858684331178665
1733699989423244000,8.643244140625,-0.0003758876118808985,-0.014036157168447971,0.0031639882363379
1733699989433198300,8.6531982421875,-0.0001505841501057148,-0.007041363976895809,0.0010172142647206783
1733699989443153200,8.663153076171875,0.0012833971995860338,0.00024099316215142608,0.001205028616823256
1733699989453107200,8.673107177734375,0.0006596848834306002,0.007933533750474453,0.000889444025233388
1733699989463062000,8.68306201171875,-0.0015651246067136526,0.011129525490105152,0.0000463149044662714
1733699989473016000,8.69301611328125,-0.0037776788230985403,0.012129276059567928,0.0017419494688510895
1733699989482971100,8.70297119140625,-0.001171326613985002,0.012345212511718273,0.00015951832756400108
1733699989492925200,8.71292529296875,-0.0012062139576300979,0.008404799737036228,0.00026284903287887573
1733699989502880000,8.7228798828125,0.0010153355542570353,0.004417124669998884,0.0013116199988871813
1733699989512834000,8.732833984375,0.00027843890711665154,-0.0007494077435694635,0.0005600759759545326
1733699989522789000,8.7427890625,0.0003057208377867937,-0.004309691954404116,0.0006667033303529024
1733699989532743000,8.752742919921875,0.0014620653819292784,-0.009508182294666767,0.00040571356657892466
1733699989542698200,8.7626982421875,0.0008101393468677998,-0.011347388848662376,0.00196634978055954
1733699989552652000,8.772652099609376,0.0005600685253739357,-0.014303497970104218,0.00199111714027822
1733699989562607000,8.782607177734375,-0.0020781869534403086,-0.01124869380146265,0.002325379056856036
1733699989572561200,8.79256103515625,-0.0010661856504157186,-0.01040553767234087,0.0020284366328269243
1733699989582516200,8.80251611328125,-0.0021517188288271427,-0.008667209185659885,0.0016262959688901901
1733699989592470300,8.81247021484375,-0.0003000230062752962,-0.0036415576469153166,0.0012931344099342823
1733699989602425000,8.822425048828125,-0.001905651530250907,-0.002120556076988578,0.001788791036233306
1733699989612379100,8.832379150390626,-0.002696343930438161,0.0001721592852845788,0.002119821961969137
1733699989622334000,8.842333984375,-0.0008145701140165329,0.001516573945991695,0.0031474600546061993
1733699989632288000,8.8522880859375,-0.0013099180068820715,0.0005200190935283899,0.001022523851133883
1733699989642243000,8.8622431640625,0.0010791802778840065,-0.0028524380177259445,-0.0003175768069922924
1733699989652197000,8.872197021484375,0.0013321805745363235,-0.003818633034825325,0.0011823155218735337
1733699989662152000,8.88215185546875,-0.0006052626995369792,-0.0043803188018500805,0.000922886305488646
1733699989672106000,8.89210595703125,0.00025813421234488487,-0.0036817712243646383,0.0025985471438616514
1733699989682061300,8.902061279296875,0.0006277509965002537,-0.006435115821659565,0.0023740129545331
1733699989692015000,8.91201513671875,0.000654915114864707,-0.009361397475004196,0.0012427021283656359
1733699989701970200,8.92197021484375,0.000500846654176712,-0.008068307302892208,0.001154531491920352
1733699989711924000,8.931924072265625,0.0012683696113526821,-0.006493846420198679,-0.000449224142357707
1733699989721879000,8.941879150390625,-0.001037848531268537,-0.007012058049440384,-0.0007752843666821718
1733699989731833000,8.9518330078125,-0.0005587458144873381,-0.005856246221810579,-0.0017683771438896656
1733699989741788200,8.9617880859375,-0.0007006977684795856,-0.0028015717398375273,-0.0010531314183026552
1733699989751742200,8.9717421875,-0.0032080640085041523,-0.0024513660464435816,-0.0008994669187813997
1733699989761697000,8.981697021484376,-0.0034245855640619993,-0.0014951894991099834,-0.002579384483397007
1733699989771651000,8.991651123046875,-0.003661074209958315,0.00005397136555984616,-0.002563405316323042
1733699989781606100,9.001606201171874,-0.002869068179279566,-0.0002578093553893268,-0.002389508532360196
1733699989791560200,9.011560302734376,-0.0002660946920514107,0.0003547176602296531,-0.00008480902761220932
1733699989801515000,9.021514892578125,0.0030975197441875935,-0.000898903061170131,0.002367309993132949
1733699989811469000,9.031468994140624,0.0026088296435773373,0.00044173223432153463,0.0010069673880934715
1733699989821424000,9.041424072265626,-0.00015255599282681942,-0.0010688228067010641,-0.00035419128835201263
1733699989831379700,9.051379638671875,-0.00022073299624025822,-0.004542650189250708,0.000021846964955329895
1733699989841333500,9.06133349609375,-1.5855766832828522e-7,-0.006291009485721588,-0.00212808046489954
1733699989851288600,9.07128857421875,-0.0009487764909863472,-0.00582149438560009,-0.0033091926015913486
1733699989861242600,9.08124267578125,-0.0024022471625357866,-0.0029054556507617235,-0.0021053608506917953
1733699989871197700,9.09119775390625,0.0002872792538255453,0.0016623982228338718,-0.001263003097847104
1733699989881151700,9.10115185546875,0.00017167860642075539,0.007423170376569033,-0.0025775174144655466
1733699989891106600,9.1111064453125,-0.0013947926927357912,0.014042457565665245,-0.0030853820499032736
1733699989901060600,9.121060546875,-0.0008393630851060152,0.012358913198113441,-0.0021196510642766953
1733699989911015400,9.131015380859376,0.001246957341209054,0.0111743388697505,-0.0020277719013392925
1733699989920969500,9.140969482421875,0.0012021041475236416,0.0023206216283142567,-0.001822984078899026
1733699989930924500,9.150924560546875,0.003332632826641202,-0.0038176982197910547,-0.001638959627598524
1733699989940878600,9.160878662109376,0.0002856398932635784,-0.010388084687292576,-0.00037550332490354776
1733699989950833700,9.170833740234375,0.001361557049676776,-0.011277314275503159,0.00038456276524811983
1733699989960787500,9.180787353515624,0.0013324371539056301,-0.013127945363521576,-0.002399950288236141
1733699989970742800,9.19074267578125,0.001254406524822116,-0.009881552308797836,-0.00112962257117033
1733699989980696600,9.200696533203125,-0.0007149411831051111,-0.007545489817857742,-0.0019731251522898674
1733699989990651600,9.210651611328124,0.0010387504007667303,-0.0038165312726050615,-0.002066335640847683
1733699990000605700,9.220605712890626,-0.0014406631235033274,-0.0011489400640130043,-0.004117751494050026
1733699990010560500,9.230560546875,-0.0019357448909431696,0.00516621395945549,-0.00283224368467927
1733699990020514600,9.2405146484375,-0.00036391487810760736,0.010282402858138084,-0.003019422059878707
1733699990030469600,9.2504697265625,-0.0008832312887534499,0.012794029898941517,-0.0016886405646800995
1733699990040423700,9.260423583984375,0.0010385473724454641,0.014399824663996696,-0.0002730870619416237
1733699990050378500,9.27037841796875,-0.0009007664630189538,0.010970205999910831,-0.002277115825563669
1733699990060332500,9.28033251953125,-0.0004883710062131286,0.005480195861309767,-0.002175135537981987
1733699990070287600,9.29028759765625,0.0005862144753336906,-0.0002871456672437489,-0.002431331668049097
1733699990080241700,9.30024169921875,0.000022238818928599358,-0.005053314380347729,-0.002639773767441511
1733699990090196700,9.31019677734375,0.0009644650854170322,-0.006291950587183237,-0.0022586751729249954
1733699990100150500,9.320150634765625,0.0011845752596855164,-0.009645368903875351,-0.002897920086979866
1733699990110105600,9.330105712890624,0.0008945569861680269,-0.008818723261356354,-0.0007229164475575089
1733699990120059400,9.340059326171875,0.002382364822551608,-0.008677167817950249,-0.0017361517529934645
1733699990130014700,9.3500146484375,0.0006363962311297655,-0.008963724598288536,-0.002950286725535989
1733699990139968500,9.359968505859374,0.0007956016343086958,-0.006579996552318335,-0.002553145634010434
1733699990149923600,9.369923583984376,0.0019157270435243845,-0.006809561047703028,-0.0015723032411187887
1733699990159877600,9.379877685546875,0.002945743966847658,-0.0066162412986159325,-0.00310164550319314
1733699990169832700,9.389832763671874,0.0020163003355264664,-0.007917727343738079,-0.00310111278668046
1733699990179786800,9.399786865234375,0.001216506352648139,-0.00829529669135809,-0.0027289283461868763
1733699990189741600,9.409741455078125,0.0024910953361541033,-0.012191235087811947,-0.0022064163349568844
1733699990199695600,9.419695556640624,0.0006281973328441381,-0.010240637697279453,-0.002179365139454603
1733699990209650400,9.429650390625,0.0019251566845923662,-0.007989734411239624,-0.0016123777022585273
1733699990219604500,9.4396044921875,-0.0001292817760258913,-0.002684160368517041,-0.0022297310642898083
1733699990229559600,9.4495595703125,0.0026728964876383543,0.005811057053506374,-0.001923201372846961
1733699990239513600,9.459513671875,-0.000839340384118259,0.013435154221951962,-0.0008747163228690624
1733699990249468700,9.46946875,0.0006288602016866207,0.0173135157674551,-0.002327736932784319
1733699990259422500,9.47942236328125,-0.0009053947869688272,0.017500469461083412,-0.0024594836868345737
1733699990269377800,9.489377685546875,0.00032471935264766216,0.013302529230713844,-0.0023098140954971313
1733699990279331600,9.49933154296875,-0.0006196490721777081,0.005361055489629507,-0.001263694721274078
1733699990289286700,9.50928662109375,0.001410212367773056,-0.0027551939710974693,-0.001611237064935267
1733699990299240700,9.51924072265625,0.0008879553060978651,-0.012425964698195457,-0.0022835161071270704
1733699990309195500,9.529195556640625,0.0002557209227234125,-0.016811924055218697,-0.0012693842872977257
1733699990319149600,9.539149658203126,0.0021753425244241953,-0.016240257769823074,-0.0014384107198566198
1733699990329104600,9.549104736328125,-0.00004386948421597481,-0.012673218734562397,-0.0006983182393014431
1733699990339058700,9.55905859375,-0.0014505513245239854,-0.005516689270734787,-0.0017517487285658717
1733699990349013500,9.569013427734374,-0.0012308405712246895,0.001409393735229969,-0.003506505861878395
1733699990358967600,9.578967529296875,-0.0006841545691713691,0.009053167887032032,-0.0027518426068127155
1733699990368922600,9.588922607421875,-0.00000824430026113987,0.013653512112796307,-0.0015153370331972837
1733699990378876700,9.598876708984376,-0.0006839541019871831,0.014332005754113197,-0.0005029074382036924
1733699990388831500,9.60883154296875,0.0021283437963575125,0.007142269518226385,-0.0025167898274958134
1733699990398785500,9.61878564453125,-0.0014004205586388707,0.0028611801099032164,-0.0012385384179651737
1733699990408740600,9.62874072265625,0.0014957671519368887,-0.002417471492663026,-0.0008593043312430382
1733699990418694400,9.6386943359375,0.0011598696000874043,-0.0047730132937431335,0.0008947369642555714
1733699990428649700,9.648649658203125,0.002239515073597431,-0.011241033673286438,0.0003626373363658786
1733699990438603500,9.658603515625,0.0020177741535007954,-0.014210514724254608,0.0007305776234716177
1733699990448558600,9.66855859375,0.0009783422574400902,-0.011436033062636852,0.00011165905743837357
1733699990458512600,9.6785126953125,0.0006025996990501881,-0.009823823347687721,-0.0007263796869665384
1733699990468467700,9.6884677734375,0.00008541368879377842,-0.006611252669245005,-0.0005311700515449047
1733699990478421800,9.698421875,-0.00048346747644245625,-0.0029871263541281223,-0.0016738066915422678
1733699990488376600,9.70837646484375,-0.00005709542892873287,-0.0038657032418996096,-0.002587270922958851
1733699990498330600,9.71833056640625,0.00025487528182566166,-0.006977936252951622,-0.0022134832106530666
1733699990508285400,9.728285400390625,-0.0023867140989750624,-0.013056867755949497,-0.003383143339306116
1733699990518239500,9.738239501953124,-0.0026863787788897753,-0.018611818552017212,-0.0018800985999405384
1733699990528194600,9.748194580078126,-0.0017079333774745464,-0.021631577983498573,-0.003292372915893793
1733699990538148600,9.758148681640625,0.0011161721777170897,-0.01990469917654991,-0.002142158569768071
1733699990548103700,9.768103759765625,0.002808877034112811,-0.01718001812696457,-0.00044332793913781643
1733699990558057500,9.778057373046876,0.004322173073887825,-0.011118022724986076,0.000829956610687077
1733699990568012800,9.7880126953125,0.003398854983970523,-0.004909928422421217,-0.0015583662316203117
1733699990577966600,9.797966552734374,0.0006283014081418514,0.0003378865076228976,0.0008902797708287835
1733699990587921700,9.807921630859376,0.0009697186760604382,0.003928093705326319,-0.002301519038155675
1733699990597875700,9.817875732421875,0.0004395006690174341,0.007182906847447157,0.0007048987317830324
1733699990607830500,9.82783056640625,-0.00037915504071861506,0.008433793671429157,-0.0021801036782562733
1733699990617784600,9.83778466796875,-0.0009383514989167452,0.010808546096086502,-0.002014745958149433
1733699990627739600,9.84773974609375,-0.0014009425649419427,0.011435987427830696,-0.001102879410609603
1733699990637693700,9.857693603515624,-0.0012356687802821398,0.01387165579944849,-0.001926118042320013
1733699990647648500,9.8676484375,-0.0010487149702385068,0.015037321485579014,-0.0013383585028350353
1733699990657602600,9.8776025390625,0.00041399477049708366,0.01553716603666544,-0.0005487725138664246
1733699990667557400,9.887557373046874,-0.0010912237921729684,0.013542192056775093,0.00004537869244813919
1733699990677511700,9.89751171875,0.00025704619474709034,0.00846259668469429,-0.00005838973447680473
1733699990687466500,9.907466552734375,-0.0003456271952018142,0.004019112326204777,0.0012734571937471628
1733699990697420500,9.917420654296874,-0.00016604573465883732,-0.0060530537739396095,-0.0009248750284314156
1733699990707375600,9.927375732421876,-0.002239583060145378,-0.009803583845496178,-0.0009685507975518703
1733699990717329400,9.937329345703125,0.001803558086976409,-0.011215426959097385,0.00035309779923409224
1733699990727284700,9.94728466796875,0.0032832103315740824,-0.0119366105645895,-0.0005616981070488691
1733699990737238500,9.957238525390625,0.0020882906392216682,-0.010763624683022499,-0.0008807959966361523
1733699990747193600,9.967193603515625,0.002417723648250103,-0.008136682212352753,-0.0003143416251987219
1733699990757147600,9.977147705078124,0.0018167314119637012,-0.0038080767262727022,-0.00033389078453183174
1733699990767102500,9.9871025390625,-0.0017537686508148909,0.0009224960813298821,-0.0008846325799822807
1733699990777056800,9.997056884765625,-0.0011613507522270083,0.0032622136641293764,-0.0002322241198271513
1733699990787011600,10.007011474609374,-0.0032529975287616253,0.006102208513766527,-0.0008053362835198641
1733699990796965600,10.016965576171875,-0.0010918978368863463,0.0077415877021849155,0.0008208876242861152
1733699990806920400,10.02692041015625,0.000598676735535264,0.010497692972421646,0.0015292884781956673
1733699990816874500,10.03687451171875,-0.0005070483312010765,0.009523115120828152,0.0032462170347571373
1733699990826829600,10.04682958984375,-0.0015507411444559693,0.011699183844029903,0.0009580288315191865
1733699990836783600,10.05678369140625,-0.0007070031715556979,0.013222609646618366,0.00262917997315526
1733699990846738700,10.06673876953125,-0.0004420186160132289,0.017328672111034393,0.0017577935941517353
1733699990856692700,10.076692626953125,-0.0016419680323451757,0.02540097013115883,0.0027514344546943903
1733699990866647800,10.086647705078125,0.002351708011701703,0.030492400750517845,0.00298312958329916
1733699990876601600,10.0966015625,0.0009537604637444019,0.03942783921957016,0.006116127595305443
1733699990886556700,10.106556640625,0.0011569596827030182,0.04297170788049698,0.004795998800545931
1733699990896510700,10.1165107421875,0.002244992647320032,0.04354053735733032,0.0026740138418972492
1733699990906465800,10.1264658203125,0.0017581665888428688,0.04256582260131836,0.0034141060896217823
1733699990916419800,10.136419921875,0.0011631608940660954,0.03520723432302475,0.005878806114196777
1733699990926374700,10.146374755859375,0.0018571806140244007,0.027282465249300003,0.00505109503865242
1733699990936328700,10.15632861328125,0.00439677108079195,0.019212821498513222,0.00733555480837822
1733699990946283500,10.166283447265625,0.0027024680748581886,0.010731184855103493,0.008329181000590324
1733699990956237800,10.17623779296875,0.0032100407406687737,0.001203062362037599,0.009205574169754982
1733699990966192600,10.186192626953124,0.0021937787532806396,-0.011471719481050968,0.007790103554725647
1733699990976146700,10.196146728515625,0.00017653638496994972,-0.02770085446536541,0.008192308247089386
1733699990986101500,10.2061015625,0.00019597751088440418,-0.043206047266721725,0.005547256674617529
1733699990996055600,10.2160556640625,-0.0035337163135409355,-0.060226112604141235,0.006142338737845421
1733699991006011000,10.226010986328125,-0.0025259763933718204,-0.07580666989088058,0.005481874570250511
1733699991015964700,10.235964599609375,-0.0003767412854358554,-0.08780676871538162,0.007935433648526669
1733699991025919700,10.245919677734374,0.0009143592324107885,-0.09779335558414459,0.007920253090560436
1733699991035873500,10.25587353515625,0.0008757675532251596,-0.10005318373441696,0.009397560730576515
1733699991045828600,10.26582861328125,0.0029021669179201126,-0.0987173393368721,0.008145342580974102
1733699991055783000,10.275782958984376,-0.0003331295447424054,-0.08622095733880997,0.006880300585180521
1733699991065737700,10.28573779296875,-0.0010982556268572807,-0.06616682559251785,0.0031899581663310528
1733699991075691800,10.29569189453125,-0.0030366946011781693,-0.04338877275586128,0.00341367837972939
1733699991085646600,10.305646484375,-0.0017927319277077913,-0.019093552604317665,0.005025423131883144
1733699991095600600,10.3156005859375,-0.0024742702953517437,0.005752877797931433,0.004779002163559198
1733699991105555700,10.3255556640625,-0.0005860892124474049,0.025654679164290428,0.0026665828190743923
1733699991115509800,10.335509765625,0.000023810192942619324,0.04166619852185249,0.004629677627235651
1733699991125464600,10.345464599609375,0.001091205282136798,0.05450556427240372,0.0033726657275110483
1733699991135418600,10.355418701171875,0.0008257001172751188,0.064877450466156,0.005637976340949535
1733699991145373700,10.365373779296876,0.00022755423560738564,0.07089778780937195,0.006229730788618326
1733699991155327700,10.37532763671875,0.0006165280938148499,0.07622800767421722,0.0070136720314621925
1733699991165282800,10.38528271484375,-0.0030586342327296734,0.07998545467853546,0.008067484945058823
1733699991175236600,10.395236572265626,-0.0041016023606061935,0.07828126102685928,0.00732418242841959
1733699991185191700,10.405191650390625,-0.007114436477422714,0.06867044419050217,0.007006200961768627
1733699991195146500,10.415146484375,-0.0067208195105195045,0.05416705086827278,0.0075368257239460945
1733699991205100800,10.425100830078126,-0.006157827563583851,0.04056548699736595,0.00660924706608057
1733699991215055600,10.4350556640625,-0.008106833323836327,0.028131019324064255,0.005435257684439421
1733699991225009700,10.445009765625,-0.007682857569307089,0.024894213303923607,0.004820600152015686
1733699991234964700,10.45496484375,-0.004478275775909424,0.020137008279561996,0.0024780835956335068
1733699991244918500,10.46491845703125,-0.0011503896676003933,0.017343351617455482,0.002454647794365883
1733699991254873900,10.474873779296875,-0.0006272557657212019,0.012651720084249973,0.000695281894877553
1733699991264827600,10.48482763671875,-0.0015804010909050703,0.006536570377647877,-0.0007090030703693628
1733699991274781700,10.49478173828125,-0.0017964125145226717,-0.0017438842914998531,-0.0020069824531674385
1733699991284736500,10.504736572265625,-0.0021463518496602774,-0.011404767632484436,-0.00010388786904513836
1733699991294691600,10.514691650390626,-0.0006598589243367314,-0.02568458579480648,-0.0007317329291254282
1733699991304646000,10.52464599609375,-0.001651886384934187,-0.04348009452223778,-0.0016401372849941254
1733699991314600700,10.5346005859375,-0.00035932823084294796,-0.05724460631608963,-0.0021859656553715467
1733699991324554800,10.5445546875,0.0022660160902887583,-0.06555526703596115,-0.0035356555599719286
1733699991334509600,10.554509521484375,0.0023060375824570656,-0.0684942901134491,-0.002879438688978553
1733699991344463600,10.564463623046874,0.004071713425219059,-0.059035010635852814,-0.003159336978569627
1733699991354418700,10.574418701171876,0.007360716816037893,-0.0432714968919754,-0.003116726176813245
1733699991364372700,10.584372802734375,0.008413463830947876,-0.017363466322422028,-0.004386255517601967
1733699991374327600,10.59432763671875,0.007893821224570274,0.013589195907115936,-0.00361779797822237
1733699991384281600,10.604281494140626,0.006047717295587063,0.036503300070762634,-0.005599722731858492
1733699991394236700,10.614236572265625,0.0029898632783442736,0.05412932112812996,-0.008209503255784512
1733699991404190700,10.624190673828124,0.0005823655519634485,0.056938156485557556,-0.008302181959152222
1733699991414145800,10.634145751953126,0.0010274285450577736,0.05059308186173439,-0.006819904316216707
1733699991424099600,10.644099609375,0.0032644839957356453,0.03754865378141403,-0.005134123377501965
1733699991434054700,10.6540546875,0.003183626802638173,0.021907545626163483,-0.0028344164602458477
1733699991444008700,10.6640087890625,0.00625478383153677,0.004419099539518356,0.0011771032586693764
1733699991453963800,10.6739638671875,0.008323527872562408,-0.008907091803848743,0.0014556697569787502
1733699991463917800,10.683917724609374,0.009479871951043606,-0.01783241145312786,0.0006830868078395724
1733699991473872600,10.69387255859375,0.008122368715703487,-0.01949605718255043,0.002044453751295805
1733699991483826700,10.70382666015625,0.008856602013111115,-0.016923977062106133,0.0017594953533262014
1733699991493781500,10.713781494140624,0.0034301255363970995,-0.015101619996130466,-0.0005906519945710897
1733699991503735800,10.72373583984375,0.0040594302117824554,-0.012212356552481651,0.001807258347980678
1733699991513690600,10.733690673828125,0.003364766715094447,-0.010692592710256577,0.00140662572812289
1733699991523644700,10.743644775390624,0.0008478129748255014,-0.01853932999074459,0.0012883814051747322
1733699991533599500,10.753599609375,0.0003160394262522459,-0.0295616015791893,0.0013244438450783491
1733699991543553500,10.763553466796875,0.00011443812400102615,-0.046859897673130035,0.0004985976265743375
1733699991553508900,10.7735087890625,0.0030770886223763227,-0.06870927661657333,-0.0020566557068377733
1733699991563462700,10.783462646484375,0.004521320573985577,-0.08978740125894547,-0.0012638326734304428
1733699991573417700,10.793417724609375,0.005348904989659786,-0.10237673670053482,-0.000708150677382946
1733699991583371500,10.80337158203125,0.0052301278337836266,-0.10801837593317032,-0.0018850015476346016
1733699991593326600,10.81332666015625,0.007630407810211182,-0.09891635179519653,-0.002027267822995782
1733699991603281000,10.823281005859375,0.007731873542070389,-0.07154464721679688,-0.0016264619771391153
1733699991613235700,10.833235595703124,0.006232614628970623,-0.04057111591100693,-0.003935355693101883
1733699991623189800,10.843189697265625,0.004973472096025944,-0.0029225421603769064,-0.0033393402118235826
1733699991633144600,10.85314453125,0.0011243929620832205,0.03317321091890335,-0.004750309512019157
1733699991643098600,10.8630986328125,0.00043889530934393406,0.060871683061122894,-0.00609254278242588
1733699991653053700,10.8730537109375,-0.002338869497179985,0.07593028992414474,-0.004908807575702667
1733699991663007700,10.8830078125,-0.00039875658694654703,0.08295544236898422,-0.006032661534845829
1733699991672962600,10.892962646484374,-0.002570688258856535,0.07332613319158554,-0.006229465827345848
1733699991682916600,10.90291650390625,-0.0020047666039317846,0.050414156168699265,-0.0034848127979785204
1733699991692871700,10.91287158203125,0.001123660011216998,0.020573990419507027,-0.00039590848609805107
1733699991702825700,10.92282568359375,0.0031660383101552725,-0.02019794099032879,0.001579890726134181
1733699991712780800,10.93278076171875,0.0061997314915061,-0.05902765691280365,0.0018678188789635897
1733699991722734600,10.942734619140625,0.010419776663184166,-0.08942524343729019,0.004420458804816008
1733699991732689700,10.952689697265624,0.009375284425914288,-0.10710091143846512,0.0036020693369209766
1733699991742643700,10.962643798828125,0.01026637852191925,-0.11341872811317444,0.0022361341398209333
1733699991752598800,10.972598876953125,0.007368935737758875,-0.10598260909318924,0.001769562717527151
1733699991762552800,10.982552734375,0.0034969658590853214,-0.09479547291994095,-0.002622256288304925
1733699991772507600,10.992507568359375,-0.0035989461466670036,-0.0738358199596405,-0.005957318004220724
1733699991782461700,11.002461669921875,-0.005131328944116831,-0.05197260156273842,-0.0065788994543254375
1733699991792416500,11.01241650390625,-0.00673694908618927,-0.02609865926206112,-0.005155173595994711
1733699991802370800,11.022370849609375,-0.005519085563719273,-0.004258875269442797,-0.005371422041207552
1733699991812325600,11.03232568359375,-0.002366989618167281,0.010475464165210724,-0.0043102046474814415
1733699991822279700,11.04227978515625,0.0008035036735236645,0.0213419608771801,-0.0011916428338736296
1733699991832234500,11.052234375,0.0023368133697658777,0.020197633653879166,-0.0003837859258055687
1733699991842188300,11.062188232421875,0.0024611831177026033,0.016154687851667404,0.0009091786341741681
1733699991852143600,11.0721435546875,0.0001682438887655735,0.005811589770019054,0.0002718657488003373
1733699991862097400,11.082097412109375,0.0037320859264582396,-0.007954556494951248,0.0015901305014267564
1733699991872052500,11.092052490234375,0.002981841564178467,-0.026353957131505013,0.0005094642983749509
1733699991882006500,11.102006591796876,0.003234841860830784,-0.040323566645383835,0.00034434825647622347
1733699991891961300,11.11196142578125,0.0034809987992048264,-0.051613979041576385,0.0011637198040261865
1733699991901915400,11.121915283203125,0.001454599667340517,-0.05054285749793053,0.001215651398524642
1733699991911870500,11.131870361328126,0.003549430053681135,-0.03654707968235016,0.0024398802779614925
1733699991921824500,11.141824462890625,0.0015030570793896914,-0.012422299943864346,0.0019498586189001799
1733699991931779300,11.151779296875,0.002118594478815794,0.014969679526984692,0.0016364199109375477
1733699991941733400,11.1617333984375,0.00006636232137680054,0.05466436222195625,-0.0007396524306386709
1733699991951688400,11.1716884765625,-0.005070041865110397,0.09872269630432129,-0.004789975471794605
1733699991961642500,11.181642578125,-0.011643522419035435,0.1340963989496231,-0.00881987065076828
1733699991971597300,11.191597412109376,-0.011337246745824814,0.14015290141105652,-0.008856596425175667
1733699991981551400,11.20155126953125,-0.01074682455509901,0.12583386898040771,-0.010343438945710659
1733699991991506400,11.21150634765625,-0.008370702154934406,0.10061906278133392,-0.0060868039727211
1733699992001460200,11.221460205078126,-0.0063911741599440575,0.07046009600162506,-0.0032883540261536837
1733699992011415600,11.23141552734375,-0.004579869098961353,0.038392409682273865,-0.0019753745291382074
1733699992021369300,11.241369384765624,-0.0008687542285770178,0.009987135417759418,-0.0019442152697592974
1733699992031324400,11.251324462890626,-0.003897071350365877,-0.015354681760072708,-0.001278892857953906
1733699992041278500,11.261278564453125,-0.003135940060019493,-0.03341730684041977,-0.001020566327497363
1733699992051233500,11.271233642578125,0.0031747231259942055,-0.040426239371299744,0.0013839369639754295
1733699992061187600,11.2811875,0.00441868556663394,-0.045493435114622116,0.0019780881702899933
1733699992071142400,11.291142333984375,0.00791455339640379,-0.04836362600326538,0.0015783596318215132
1733699992081096400,11.301096435546874,0.007705229334533215,-0.056501712650060654,0.0009277493227273226
1733699992091051300,11.31105126953125,0.008682891726493835,-0.0675731673836708,0.0018935613334178925
1733699992101005300,11.32100537109375,0.009572122246026993,-0.0807691290974617,0.0022171353921294212
1733699992110960400,11.33096044921875,0.008326273411512375,-0.0867195650935173,0.0006002780282869935
1733699992120914400,11.34091455078125,0.008047972805798054,-0.08299646526575089,0.002473279135301709
1733699992130869500,11.350869384765625,0.006347270682454109,-0.07191256433725357,0.00000333995558321476
1733699992140823300,11.3608232421875,0.0077430326491594315,-0.05103630945086479,-0.00040252599865198135
1733699992150778600,11.370778564453126,0.003839066717773676,-0.030576104298233986,-0.0008920943364500999
1733699992160732400,11.380732421875,0.003329338040202856,-0.012762753292918205,-0.0031555150635540485
1733699992170687500,11.3906875,0.004609051160514355,-0.0020340147893875837,-0.0006410924252122641
1733699992180641500,11.4006416015625,0.0020958262030035257,0.0030566176865249872,-0.0024658904876559973
1733699992190596400,11.410596435546875,0.001151749398559332,0.0058028013445436954,-0.0002264117356389761
1733699992200550400,11.42055029296875,0.0007006097584962845,0.0065551442094147205,0.0011653562542051077
1733699992210505500,11.43050537109375,0.0030286796391010284,0.005994888022542,-0.0019653216004371643
1733699992220459500,11.44045947265625,0.0017250622622668743,0.010224787518382072,0.000016069971024990082
1733699992230414300,11.450414306640624,0.0009451007936149836,0.009754776954650879,0.0020241085439920425
1733699992240368400,11.460368408203125,0.000851623946800828,0.00988447293639183,0.002337029902264476
1733699992250323500,11.470323486328125,-0.00019402429461479187,0.008886882103979588,0.0018597499001771212
1733699992260277500,11.480277587890624,-0.0004520844668149948,0.013364987447857857,0.0005095272790640593
1733699992270232300,11.490232421875,-0.00200393283739686,0.013701479882001877,0.0027244261000305414
1733699992280186400,11.500186279296875,-0.0018116524443030357,0.019452042877674103,0.0006551499245688319
1733699992290141400,11.510141357421874,0.0022293818183243275,0.0314200259745121,0.0016545293619856238
1733699992300095200,11.52009521484375,0.003224338870495558,0.04881419613957405,0.0015607861569151282
1733699992310050600,11.530050537109375,0.004679651465266943,0.0771857425570488,0.00015883054584264755
1733699992320004400,11.54000439453125,0.007850411348044872,0.10866324603557587,0.000704778591170907
1733699992329959400,11.54995947265625,0.006545856595039368,0.14153654873371124,-0.002141221659258008
1733699992339913500,11.55991357421875,0.0030736266635358334,0.16836762428283691,-0.0033718685153871775
1733699992349868500,11.56986865234375,0.001576610142365098,0.19247011840343475,-0.004622451029717922
1733699992359822600,11.579822509765625,-0.003260222962126136,0.20528125762939453,-0.007503991015255451
1733699992369777400,11.58977734375,-0.0053812372498214245,0.2075989693403244,-0.009211890399456024
1733699992379731500,11.5997314453125,-0.012726768851280212,0.19713567197322845,-0.008240901865065098
1733699992389686300,11.609686279296875,-0.01104538794606924,0.17403829097747803,-0.010258536785840988
1733699992399640300,11.619640380859375,-0.01281692273914814,0.139127716422081,-0.006744761951267719
1733699992409595400,11.629595458984374,-0.007893964648246765,0.0889912098646164,-0.006166255567222834
1733699992419549400,11.639549560546875,-0.003398548811674118,0.032922349870204926,-0.004551048390567303
1733699992429504500,11.64950439453125,-0.0002726351376622915,-0.028745178133249283,-0.0028954290319234133
