time,seconds_elapsed,z,y,x
1733358315481661700,0.04566162109375,0.13952771315574644,0.011894143672287463,0.03902034326791763
1733358315491627000,0.055626953125,0.13128010929226874,0.029926936230063438,0.032822657671570776
1733358315501591000,0.065591064453125,0.11607552589774131,-0.0022758359774947166,0.01866787559092045
1733358315511555800,0.075555908203125,0.07626607807874679,-0.007443886265158653,0.0010720131456851958
1733358315521519900,0.085519775390625,0.07923428023457527,-0.014475976859033107,-0.028342881909012792
1733358315531485000,0.09548486328125,0.09149871852397919,-0.03942863180786371,-0.043882980868220324
1733358315541448700,0.10544873046875,0.09745090492665767,-0.07244184361547232,-0.0501888030141592
1733358315551413800,0.115413818359375,0.1108300264596939,-0.08272855209112166,-0.05842763904929161
1733358315561379000,0.125379150390625,0.09731763393580913,-0.09273264423310756,-0.07300736854374408
1733358315571342800,0.1353427734375,0.08312251984477043,-0.07168050385415553,-0.07995967189967632
1733358315581308000,0.145307861328125,0.08081307385861873,-0.034681729541718956,-0.0628939708083868
1733358315591272000,0.15527197265625,0.11170037955343723,-0.022994798879325387,-0.04692015660703182
1733358315601236700,0.16523681640625,0.11113339332044124,-0.017836977724730967,-0.029800094980001447
1733358315611200800,0.17520068359375,0.11385083558559417,-0.022578034771978853,-0.00023088614642620086
1733358315621166000,0.185166015625,0.1141021799981594,-0.016123744066059587,0.01660509784221649
1733358315631129900,0.1951298828125,0.07821253597140311,-0.022741116379201412,0.016231588354706762
1733358315641095000,0.205094970703125,0.04876373864710331,-0.01559299819022417,0.03238543529808521
1733358315651060000,0.21506005859375,0.02112988179028034,-0.008298457267880439,0.02726911519765854
1733358315661023700,0.225023681640625,0.014734043273329734,-0.008146481576561927,0.0340501536399126
1733358315670988800,0.23498876953125,0.011297054561972617,-0.01802197890281677,0.024801848301291465
1733358315680952800,0.244952880859375,0.00826923117339611,-0.014176117129623888,0.030604981622099875
1733358315690918000,0.25491796875,0.009157119923830032,-0.030748774006962774,0.0202472537368536
1733358315700882000,0.2648818359375,0.0016927753925323485,-0.035224458116292955,0.032013679376244546
1733358315710847000,0.274846923828125,0.0169967275083065,-0.033116379921138285,0.032740240085124966
1733358315720811000,0.28481103515625,0.03752922792732715,-0.020374679508805275,0.0538964253604412
1733358315730775800,0.29477587890625,0.04929623808860779,-0.024519816489517687,0.04995148712694645
1733358315740740900,0.304740966796875,0.06090542733967304,-0.021650398533046244,0.055820086899399754
1733358315750704600,0.31470458984375,0.08509878835380077,-0.0004138414978981018,0.03856324715018272
1733358315760670000,0.324669921875,0.10471885010302066,0.014891279661655425,0.019157704934477805
1733358315770634000,0.334634033203125,0.09847849440872669,0.029277240149676798,0.005627776753902435
1733358315780598800,0.344598876953125,0.11075403861403464,0.0440191744685173,-0.019034370815753935
1733358315790562800,0.354562744140625,0.13148527647554872,0.02180558909475803,-0.046674657413363456
1733358315800528000,0.36452783203125,0.12674538847208022,0.0020817747101187704,-0.0666933630913496
1733358315810493000,0.374492919921875,0.10988953073918818,-0.006508358980715274,-0.08465688980519771
1733358315820457000,0.38445703125,0.06567220335006714,-0.013750585193932055,-0.08910860851705074
1733358315830422000,0.394422119140625,0.034065351209044456,-0.01100245552957058,-0.068309566116333
1733358315840385800,0.4043857421875,0.032359131813049315,0.014685235695540904,-0.031931261789798736
1733358315850350800,0.414350830078125,0.057765375748276705,0.04330576550215483,-0.017034136909246444
1733358315860315000,0.42431494140625,0.07584229970872401,0.023740941071510313,-0.0629722967416048
1733358315870279700,0.43427978515625,0.08903262067139148,-0.004251227703690528,-0.10251520257890225
1733358315880243700,0.44424365234375,0.09080781365036963,-0.009948562562465667,-0.10484276874363421
1733358315890209000,0.454208984375,0.06593991437554358,-0.022764789515733717,-0.12088497200608253
1733358315900173800,0.464173828125,0.05948737723529338,-0.0073699442461133,-0.11198153458237647
1733358315910137900,0.474137939453125,0.07558978625237942,0.03093845136016607,-0.05821838021278381
1733358315920103000,0.48410302734375,0.08110708836913108,0.07597761652618647,-0.03253974907696247
1733358315930067000,0.49406689453125,0.06753916626572609,0.12241700387895106,-0.050339609661698335
1733358315940031700,0.50403173828125,0.020016367590427398,0.19165420623421667,0.07597089452445506
1733358315949996000,0.51399609375,-0.020485738667845727,0.180903679639101,0.12157295427024364
1733358315959960800,0.5239609375,-0.015562895312905311,0.16094547197669742,0.11145195775032042
1733358315969926000,0.53392578125,0.10868424660265445,0.2258618885233998,0.3779945239692926
1733358315979890000,0.543889892578125,0.1292079791933298,0.1788195668414235,0.5712105726927519
1733358315989854700,0.553854736328125,0.05793839422762394,0.10507073228061199,0.5134259077221155
1733358315999818800,0.56381884765625,-0.0017360300123691558,0.07806582097709179,0.36089550513029095
1733358316009784000,0.5737841796875,-0.014843933388590812,0.03571545650362968,0.19209435121715068
1733358316019748000,0.583748046875,-0.01186813244819641,-0.0147398884922266,0.038867783054709434
1733358316029713000,0.593712890625,-0.0675777447104454,-0.06705109048783779,-0.08675356982350349
1733358316039677000,0.603677001953125,-0.08740589625239371,-0.05275602315366268,-0.08008592862784862
1733358316049641700,0.613641845703125,-0.04561024305224418,-0.06322977863401175,-0.04281622841954231
1733358316059606800,0.623606689453125,-0.048451019436120984,-0.11481325087696313,-0.05642214444577694
1733358316069570800,0.63357080078125,-0.13164075929820537,-0.11090689108818769,0.0581534982830286
1733358316079535900,0.643535888671875,-0.05444470689296722,-0.08999503596276044,0.05891220769584179
1733358316089500000,0.6535,0.09040624711215496,0.0036076691031455992,0.08395487901568412
1733358316099465000,0.66346484375,0.105579850846529,0.05224719684869051,0.10529109703302383
1733358316109428000,0.673427978515625,0.09586626608371734,0.017354747165739537,0.03611877660751343
1733358316119393000,0.68339306640625,0.08716916488707065,-0.024469547607004642,-0.06080138244330883
1733358316129358000,0.693358154296875,0.0965080711185932,-0.07716507274508476,-0.15989713196754454
1733358316139322000,0.703322021484375,0.1263449909776449,-0.120899000531435,-0.2531312959820032
1733358316149287000,0.713286865234375,0.17974749534130097,-0.08475859661400317,-0.4068015162587166
1733358316159251000,0.7232509765625,0.20641221490502357,-0.03219195855259895,-0.473295557385683
1733358316169216300,0.73321630859375,0.09333002560436725,0.029382746350765227,-0.43349896904826163
1733358316179180000,0.743179931640625,0.011459551647305487,0.10171733019948005,-0.2770359031826258
1733358316189145000,0.75314501953125,0.016712065348029135,0.12659984252154827,-0.12196107680499553
1733358316199109000,0.763109130859375,-0.007575403690338134,0.1193894727513194,0.05827157170474529
1733358316209074000,0.773073974609375,-0.05874678800106048,0.09745733466744422,0.19751871435344218
1733358316219039000,0.7830390625,-0.1614624815881252,0.09776800805181264,0.27427228368818757
1733358316229003000,0.7930029296875,-0.31976153070926666,0.03890110080242157,0.29161797076463697
1733358316238968000,0.802968017578125,-0.39420565405786034,0.023238836768269537,0.3238151900142431
1733358316248932000,0.81293212890625,-0.37144612523913384,0.09034194970428944,0.3761544490605592
1733358316258897200,0.822897216796875,-0.2945493480414152,0.23611001855432986,0.4536170434474945
1733358316268861000,0.83286083984375,-0.17321137157082556,0.39350422779023647,0.5285884055405855
1733358316278826000,0.842825927734375,-0.13132453295588492,0.47565907164663074,0.5385679477632045
1733358316288790000,0.8527900390625,-0.13273030810058117,0.501703321224451,0.4859972180485725
1733358316298754800,0.8627548828125,-0.21964345239996907,0.45515462827831504,0.3669096508532762
1733358316308720000,0.87272021484375,-0.38429742350578305,0.3540913780733943,0.36361937713623044
1733358316318684200,0.88268408203125,-0.44577918942868705,0.3276438083916902,0.3964420348078012
1733358316328649000,0.89264892578125,-0.5079682268381118,0.374049293474853,0.4143330808073282
1733358316338613000,0.902613037109375,-0.6336632294744253,0.4304498106107115,0.5139812035173177
1733358316348578000,0.912578125,-0.6939736135303973,0.4460837253332138,0.5969646071523428
1733358316358542000,0.9225419921875,-0.625908962085843,0.4120379556074738,0.5561094496726989
1733358316368507100,0.932507080078125,-0.4641080423235893,0.3151107822939753,0.3652215516358614
1733358316378471200,0.94247119140625,-0.41141164040267464,0.17362462854683397,0.05791033717691898
1733358316388436000,0.95243603515625,-0.4810568390369415,0.08816869731843471,-0.1666179646551609
1733358316398401000,0.962401123046875,-0.3757686646133661,0.06474222902357578,-0.3534329141646623
1733358316408365000,0.972364990234375,-0.038002690657973286,0.037406770591437814,-0.5615355663746595
1733358316418329900,0.982329833984375,0.2817535793542862,0.05238280592709779,-0.5507908849984408
1733358316428294000,0.9922939453125,0.3422732222467661,0.06871639335155487,-0.3976315368533134
1733358316438259200,1.00225927734375,0.41882863866090775,0.11226035152375698,-0.1490285319507122
1733358316448223200,1.01222314453125,0.4527355844378471,0.14294307455718516,0.03490472464263439
1733358316458188000,1.02218798828125,0.3738882576942444,0.09926964478641748,0.07336217333078383
1733358316468153000,1.032153076171875,0.3573012800306082,-0.0010363573104143142,0.018187398597598076
1733358316478116900,1.042116943359375,0.3947065893173218,-0.06137333711236715,-0.1249035599976778
1733358316488082000,1.05208203125,0.43671325491964813,-0.07162059036046266,-0.20905659193396567
1733358316498046200,1.062046142578125,0.5193710798621177,-0.028553309789299965,-0.2827151178628206
1733358316508011000,1.072010986328125,0.47680794942080973,-0.04536065220534801,-0.3320212928235531
1733358316517975000,1.08197509765625,0.3127998750030994,-0.1051376600369811,-0.35074294442832465
1733358316527940000,1.091940185546875,0.2929723079830408,-0.09020867871344089,-0.2887877157747745
1733358316537904000,1.101904052734375,0.4228782063126564,0.015333178210258484,-0.06508826598227024
1733358316547869000,1.111868896484375,0.6388917777776718,0.013323299692571162,-0.01139759232699871
1733358316557834200,1.121834228515625,0.707275578173995,-0.13290771049410105,-0.0807750799357891
1733358316567798000,1.131798095703125,0.6994681192934513,-0.26387568509727716,-0.1768178716301918
1733358316577763000,1.14176318359375,0.6725023709565401,-0.3412748588591814,-0.30945290266275405
1733358316587727000,1.15172705078125,0.5765326444983482,-0.43163931265622374,-0.42823008873462676
1733358316597692000,1.16169189453125,0.5833423245131969,-0.43972325039058924,-0.5020201320886611
1733358316607656000,1.171656005859375,0.5635346312373877,-0.44529754339158534,-0.5047089327812194
1733358316617621000,1.18162109375,0.5043991361796856,-0.4391363904133439,-0.4770101939946413
1733358316627586000,1.1915859375,0.5087193374663591,-0.3762114399448037,-0.47144729917049405
1733358316637550000,1.201550048828125,0.5132914676874876,-0.30358167254179713,-0.4262245941311121
1733358316647515100,1.21151513671875,0.4602718251615762,-0.2348100418716669,-0.3829769885569811
1733358316657479200,1.221479248046875,0.40043198122680185,-0.1865384706556797,-0.38064474621713157
1733358316667444000,1.23144384765625,0.34630350067615506,-0.1817676029920578,-0.40529871048033234
1733358316677408000,1.241407958984375,0.3672299688488245,-0.14951836129426954,-0.4179711450487375
1733358316687373000,1.251373046875,0.4796469722390175,-0.08625672621726989,-0.42277942211329933
1733358316697337000,1.261337158203125,0.4602782549023628,-0.04734714984744787,-0.4023214482352137
1733358316707302100,1.27130224609375,0.34691841770410536,0.015090601626038551,-0.33634383219778535
1733358316717267000,1.281266845703125,0.31513387090861794,0.04186871843636036,-0.2926300704166293
1733358316727231000,1.29123095703125,0.3868278187662363,0.03601911562532186,-0.27982582616209983
1733358316737196000,1.301196044921875,0.43564650247097014,-0.014461071550846099,-0.2722179815068841
1733358316747160000,1.31116015625,0.43670273352563377,-0.05709814401119947,-0.2923924622684717
1733358316757125000,1.321125,0.4343535400509834,-0.09757803843766451,-0.3091016050070524
1733358316767089200,1.331089111328125,0.366169646140933,-0.08807780416458845,-0.2989291705608368
1733358316777054000,1.341053955078125,0.2843085245341062,-0.0959118587911129,-0.33894495460689067
1733358316787019000,1.35101904296875,0.29627661022543905,-0.06990414183139801,-0.37086978665590287
1733358316796983000,1.360983154296875,0.3968856869220733,-0.08444441609829664,-0.27756723358035085
1733358316806947800,1.37094775390625,0.48099721780419347,-0.14516396547704935,-0.25495646558254953
1733358316816912000,1.380911865234375,0.5950573122262954,-0.21755729377567767,-0.2643830500975251
1733358316826877200,1.390877197265625,0.6071960783094167,-0.23197277261912821,-0.2567687757015228
1733358316836841200,1.40084130859375,0.4590595267623663,-0.21916677479892968,-0.202282275493443
1733358316846806000,1.410805908203125,0.4165408199846744,-0.16382862619757652,-0.08315612985342741
1733358316856770000,1.42077001953125,0.5201689522415399,-0.1162193182826042,0.0019222002342343329
1733358316866735000,1.430735107421875,0.5768114614397287,-0.15922171692401169,0.008490472708642482
1733358316876700200,1.4407001953125,0.5015367324858904,-0.2628025029078126,0.007739069819450378
1733358316886664200,1.450664306640625,0.34344635767936704,-0.34268121852576733,-0.02708645210713148
1733358316896629000,1.46062890625,0.175043847694993,-0.4227466888874769,-0.18196166425943375
1733358316906593000,1.470593017578125,0.10163608165681362,-0.4967439452514052,-0.22137217588871716
1733358316916558000,1.48055810546875,-0.0033960721790790554,-0.6112143740400672,-0.22798721011430023
1733358316926522000,1.490522216796875,-0.11916297051906585,-0.6089017131835222,-0.30562165393680335
1733358316936487000,1.50048681640625,-0.21666355980634688,-0.5817915879398584,-0.24365561162829397
1733358316946452200,1.5104521484375,-0.17738251977562902,-0.5649529736027121,-0.16344138044565915
1733358316956416300,1.520416259765625,-0.12973346437215805,-0.5321472670659423,-0.17602175281643867
1733358316966381000,1.530381103515625,-0.10593582467734813,-0.487488333389163,-0.19833207656294105
1733358316976345000,1.540344970703125,0.00755377638041973,-0.43869536864757536,-0.15169395176768302
1733358316986310000,1.550309814453125,0.14375029928684233,-0.4056701741412282,-0.13224749301970004
1733358316996274000,1.56027392578125,0.3103869686424732,-0.40822248897254465,-0.09464081594198942
1733358317006239000,1.570239013671875,0.541045736053586,-0.4724027001991868,-0.01589315018057823
1733358317016203000,1.580203125,0.6597112784445286,-0.5386778378784656,0.07910919255018234
1733358317026168000,1.59016796875,0.6496925732553005,-0.6145826814293861,0.07828092503249645
1733358317036133000,1.600133056640625,0.5631558610528707,-0.7018526763424277,-0.007493862886726856
1733358317046097200,1.61009716796875,0.37737376172244547,-0.7470175137147307,-0.13654226760417223
1733358317056062000,1.62006201171875,0.16759996142983435,-0.7500085122242569,-0.1958992964580655
1733358317066026000,1.63002587890625,-0.040681554478406906,-0.7065323585912585,-0.25202917995899915
1733358317075991000,1.639990966796875,-0.21263094328939913,-0.6273918941199779,-0.21367694521099329
1733358317085955000,1.649955078125,-0.3246908038049936,-0.49108548109829425,-0.11731997300088405
1733358317095920000,1.659920166015625,-0.33362989706397056,-0.37045389933139083,-0.04421615834534168
1733358317105885700,1.6698857421875,-0.38656887556910513,-0.24874504372179507,-0.004069441395998001
1733358317115849700,1.679849609375,-0.3762111476838588,-0.08737813146263361,0.05167027374356985
1733358317125814800,1.689814697265625,-0.30740941413640976,0.10413754308372736,0.10221914224177599
1733358317135778600,1.699778564453125,-0.2831459104955196,0.28957302093356846,0.198330322997272
1733358317145743600,1.70974365234375,-0.25898586722910405,0.46970133228600025,0.2977937367901206
1733358317155707600,1.719707763671875,-0.21212416281104088,0.6260252819418907,0.37483518315553666
1733358317165672700,1.729672607421875,-0.09760931035876273,0.773147688010335,0.43663375994265075
1733358317175637800,1.7396376953125,0.05564473033249378,0.8559718094304204,0.4615656643643975
1733358317185601800,1.749601806640625,0.07739712793529033,0.9043985712081193,0.4453647634088993
1733358317195566600,1.759566650390625,0.0864694921851158,0.883240632367134,0.3695186643078923
1733358317205530600,1.769530517578125,0.002441547933220863,0.808220754957199,0.3410381274938583
1733358317215495700,1.77949560546875,-0.06534837822318076,0.6921247707933187,0.254597569142282
1733358317225459500,1.78945947265625,-0.14158990638256072,0.603566197374463,0.19268676415234803
1733358317235424800,1.7994248046875,-0.2019663414120674,0.5337514873921871,0.25844313865453006
1733358317245389800,1.809389892578125,-0.2418804186493158,0.5116328868255019,0.248987620306015
1733358317255353600,1.819353515625,-0.23712708664238452,0.47703503617495296,0.2962511835232377
1733358317265318700,1.829318603515625,-0.23159224886894225,0.4341524645209312,0.4031991078525781
1733358317275282700,1.83928271484375,-0.18633271895051,0.3558537115707993,0.4531465033262968
1733358317285247500,1.84924755859375,-0.12439853308498859,0.30789398278295993,0.5223121017500758
1733358317295211500,1.85921142578125,-0.07708557776808739,0.3168503194376826,0.569005756124854
1733358317305176800,1.8691767578125,0.0013666121780872343,0.33115561590492726,0.54844227604568
1733358317315140600,1.879140625,0.013951952984929085,0.32760727577358484,0.5042825240626931
1733358317325105700,1.889105712890625,0.01956044051647186,0.2585407538101077,0.4247653352335095
1733358317335070700,1.89907080078125,0.008218962290883064,0.2108051891669631,0.32587446063160896
1733358317345034500,1.909034423828125,-0.02218260571360588,0.20358634382933377,0.20880407847762106
1733358317354999800,1.918999755859375,-0.044403205350041386,0.1798936258137226,0.07873597532361745
1733358317364963800,1.9289638671875,-0.0535655859708786,0.21708412330597637,-0.011062661284208297
1733358317374928600,1.9389287109375,-0.05638531956672668,0.21878917365819214,-0.06485591853111981
1733358317384892700,1.948892578125,-0.050854573446512216,0.1978825792297721,-0.09317483504265546
1733358317394857700,1.958857666015625,-0.03950315834879875,0.18872955095916985,-0.111708270598948
1733358317404822500,1.968822509765625,-0.03035597529709339,0.1731622717320919,-0.10951163733750581
1733358317414786600,1.97878662109375,-0.021000702452659607,0.1524938699737191,-0.12059621819257736
1733358317424751900,1.988751953125,0.006941781961917877,0.11873743858337402,-0.16331600050032138
1733358317434715600,1.998715576171875,0.04138941048681736,0.0829123842254281,-0.23695465268492696
1733358317444680700,2.0086806640625,0.06662205142080783,-0.0012535071924328802,-0.3034484015509486
1733358317454644700,2.018644775390625,0.0969838719367981,-0.09322714975178241,-0.3545379527971148
1733358317464609500,2.028609619140625,0.1380354287713766,-0.18033230949193238,-0.40863370012193917
1733358317474574600,2.03857470703125,0.12566402297616006,-0.24669950936883686,-0.4164037496015429
1733358317484538600,2.04853857421875,0.14898644637465477,-0.3177832163736224,-0.4029144456923008
1733358317494503700,2.058503662109375,0.19534020127058027,-0.36040187639445065,-0.3512824581325054
1733358317504467700,2.0684677734375,0.266449627238512,-0.3690183135703206,-0.3068108637213707
1733358317514432800,2.078432861328125,0.32471126207113266,-0.3749783910185098,-0.28586276823878287
1733358317524396500,2.088396484375,0.3402595443367958,-0.39482203239053487,-0.2853136099234223
1733358317534361600,2.098361572265625,0.320046192869544,-0.4468772137984633,-0.31507717228531834
1733358317544325600,2.10832568359375,0.3002916910856962,-0.460699402923882,-0.3259200533390045
1733358317554290700,2.118290771484375,0.27173136703372003,-0.4656251688882708,-0.3018503187045455
1733358317564255700,2.128255859375,0.27827918124198914,-0.455210742379725,-0.23900340190827846
1733358317574219800,2.1382197265625,0.31378362534344195,-0.4118734126955271,-0.18290829745978116
1733358317584184600,2.1481845703125,0.3062888856738806,-0.38180005373209713,-0.11808102050125598
1733358317594148600,2.158148681640625,0.28270342742502685,-0.33256372913718224,-0.0377975234746933
1733358317604113700,2.16811376953125,0.24411563035547731,-0.2687520589619875,0.0198442258939147
1733358317614077700,2.17807763671875,0.22741233283579348,-0.21801205180585384,0.044019758990406985
1733358317624042800,2.188042724609375,0.20653554902374743,-0.1741755404278636,0.04104804970324039
1733358317634007800,2.1980078125,0.15649404552578924,-0.15018997694551944,0.0014145429730415343
1733358317643971600,2.2079716796875,0.07454349206984043,-0.1513400237634778,-0.07324614573568106
1733358317653936600,2.2179365234375,-0.010633622217178344,-0.16846534608751534,-0.10607698671370744
1733358317663900700,2.227900634765625,-0.07743921351134776,-0.19447306304723022,-0.17929449087679386
1733358317673865500,2.237865478515625,-0.1233481472492218,-0.21020137805491684,-0.21517273672670126
1733358317683829800,2.247829833984375,-0.13730711449682712,-0.24244477453380822,-0.17394173167198895
1733358317693794800,2.257794921875,-0.10788578970134258,-0.29665479588806626,-0.11465864483714103
1733358317703759600,2.267759521484375,-0.08026713041365147,-0.3507072885930538,-0.03585983341038227
1733358317713723600,2.2777236328125,-0.009513678276538848,-0.41224662992209193,0.09593845453709364
1733358317723688700,2.287688720703125,0.0892588306427002,-0.4211769553527236,0.24135902512371538
1733358317733652500,2.297652587890625,0.1964250738978386,-0.38991467886567116,0.32557752351164815
1733358317743617800,2.30761767578125,0.25159634149968624,-0.3350941243976354,0.3881140591844916
1733358317753581800,2.317581787109375,0.19083295297920702,-0.2746346872597933,0.4519222222283482
1733358317763546600,2.327546630859375,0.014095745369791983,-0.1748486173838377,0.48953620582967994
1733358317773511700,2.33751171875,-0.13762217179536818,-0.0741632605805993,0.5034051567062735
1733358317783475700,2.347475830078125,-0.18862579832375048,0.04590922599881887,0.49263095697462556
1733358317793440500,2.3574404296875,-0.166278357437253,0.16259557727128265,0.4144131603062153
1733358317803404500,2.367404541015625,-0.12245441327989101,0.2651774153456092,0.3198720053464174
1733358317813369900,2.377369873046875,-0.06906418387591838,0.36086627903580665,0.23480185856521127
1733358317823333600,2.387333740234375,-0.0625409195870161,0.39880350324213504,0.14282003269940613
1733358317833298700,2.397298583984375,-0.0611859978467226,0.4365178784780204,0.09524608835875988
1733358317843263700,2.407263671875,-0.09746610249578952,0.437997595641762,0.04998538939654827
1733358317853227500,2.4172275390625,-0.14152034827768803,0.4165738454714417,0.0056575873702764505
1733358317863192600,2.427192626953125,-0.1594324370652437,0.40575025364011524,-0.04357464557141065
1733358317873156900,2.437156982421875,-0.1434422562509775,0.3628732349440455,-0.12063216628879309
1733358317883121700,2.44712158203125,-0.11596037508547305,0.35754561018049713,-0.1800286503702402
1733358317893085700,2.457085693359375,-0.08219254551827906,0.3210363729506731,-0.2581923787638545
1733358317903050800,2.46705078125,-0.03379880922734737,0.2698866159498691,-0.2922144753530621
1733358317913015600,2.477015625,0.00944996539056301,0.21160160024166105,-0.26147768404483795
1733358317922979600,2.4869794921875,0.08501812433302403,0.1096270804107189,-0.27128479230999947
1733358317932945000,2.49694482421875,0.16877718851566315,0.0560270076483488,-0.22261779203563928
1733358317942908700,2.50690869140625,0.26661504693329335,0.047619244787096976,-0.04400952985733747
1733358317952873700,2.516873779296875,0.35466917796134945,0.11449088705480098,0.10801876843124628
1733358317962837800,2.526837646484375,0.3620657179534435,0.2821396560624242,0.18683716134130954
1733358317972802600,2.536802490234375,0.3155032887428999,0.45528030048459767,0.14922873069792986
1733358317982767600,2.546767578125,0.22612930728793143,0.53452948602736,0.0884393309533596
1733358317992731600,2.556731689453125,0.14543196876347064,0.5264435024663806,0.05919307046383619
1733358318002696700,2.56669677734375,0.02613572725355625,0.444593194514513,0.056285074062645435
1733358318012660700,2.57666064453125,-0.08120061187148093,0.3310948256283998,0.07894669546484946
1733358318022625800,2.586625732421875,-0.18020634502470492,0.2291939555555582,0.12350626042038201
1733358318032589600,2.596589599609375,-0.25591771183013917,0.1312339320629835,0.1738704200014472
1733358318042554600,2.6065546875,-0.2924544215887785,0.07204144612103701,0.24084143099039793
1733358318052518700,2.6165185546875,-0.32154782960414885,0.06692834089100361,0.2886328174740076
1733358318062483700,2.626483642578125,-0.3750052790254354,0.09655074121654034,0.28018443034142254
1733358318072448800,2.63644873046875,-0.39971360382437704,0.11575053172707557,0.24182868846207856
1733358318082412800,2.646412841796875,-0.3628735272049904,0.14251812714338302,0.176246793743968
1733358318092377600,2.656377685546875,-0.3040951750218868,0.16072101557105778,0.11580460000187158
1733358318102341600,2.666341552734375,-0.19180267479419708,0.10396540138721465,0.11919336565732955
1733358318112306000,2.676305908203125,-0.12229250071644782,0.10508797567635773,0.17835048802495002
1733358318122270700,2.686270751953125,-0.10311375299394131,0.15127601861655712,0.275737387804687
1733358318132234800,2.69623486328125,-0.06296878961026668,0.20227876836210487,0.38140579371750355
1733358318142200000,2.706199951171875,-0.06084697515070438,0.25741291882395745,0.4494201762795448
1733358318152164000,2.7161640625,-0.006344985112547874,0.29546997001767156,0.4582604853391647
1733358318162129000,2.72612890625,0.029906477963924406,0.3025295331403613,0.4231345191612839
1733358318172093000,2.736093017578125,0.048994040271639824,0.24956249758452176,0.3507695401743054
1733358318182058000,2.74605810546875,0.040974399945139885,0.19952917739301917,0.2330266655862331
1733358318192021800,2.756021728515625,0.03317103271782398,0.13653291525393724,0.12039485040158032
1733358318201987000,2.765987060546875,0.007490648016333579,0.07033668802976607,0.04160948297828436
1733358318211951900,2.775951904296875,-0.018871873730421065,-0.009769991125166416,-0.016251169838011264
1733358318221916000,2.785916015625,-0.08647533740401267,-0.06656418375372886,-0.041377427788078784
1733358318231881000,2.795880859375,-0.11770049675107001,-0.14827274514734745,-0.06817366477698088
1733358318241845000,2.805844970703125,-0.078766662722826,-0.2090826031580567,-0.09196896638423203
1733358318251809800,2.815809814453125,0.03289689195156097,-0.24528759674429892,-0.13083470361232757
1733358318261773800,2.82577392578125,0.09825696061253547,-0.23380729456990956,-0.12600567602068186
1733358318271739000,2.83573876953125,0.15738894853889943,-0.18431962556242942,-0.07644961795210838
1733358318281704000,2.845703857421875,0.196467159473896,-0.1637678359210491,0.02966799303293228
1733358318291668000,2.85566796875,0.19320611185133457,-0.11526304047107695,0.13936959998458623
1733358318301632800,2.8656328125,0.16213585080504417,-0.09493073879927397,0.17978841187357902
1733358318311596800,2.8755966796875,0.18262801921367644,-0.08729951326847075,0.16556611751466987
1733358318321561900,2.885561767578125,0.24326047483086585,-0.0891366655677557,0.08991729455143213
1733358318331526000,2.89552587890625,0.31955519448220726,-0.12011895606964826,-0.025982874779403208
1733358318341491000,2.905490966796875,0.3813245451748371,-0.1457172154456377,-0.1837640375062823
1733358318351456000,2.9154560546875,0.4451671950101852,-0.19546558121591806,-0.3301554989516735
1733358318361420000,2.925419921875,0.488730442404747,-0.27334114031791684,-0.4491708776935935
1733358318371384800,2.935384765625,0.49283553963601584,-0.3266457372650504,-0.5408472908720374
1733358318381348900,2.945348876953125,0.47674131392538543,-0.34359774884879585,-0.6145873576045036
1733358318391314000,2.95531396484375,0.4606055871605873,-0.3587354044869542,-0.7307216279521584
1733358318401278000,2.96527783203125,0.4211918606609106,-0.365738853508234,-0.8242369469955563
1733358318411243000,2.975242919921875,0.4068985468924045,-0.3768216807976365,-0.9468895131960511
1733358318421207800,2.985207763671875,0.3835153332173824,-0.3725800977051258,-0.9663675361260771
1733358318431171800,2.995171875,0.33937750080525875,-0.3580959375396371,-0.9112570588007569
1733358318441137000,3.005136962890625,0.28852994162142276,-0.32663170873969793,-0.8108426278933882
1733358318451101000,3.015100830078125,0.24351707994043825,-0.2973293341487646,-0.6658776921197772
1733358318461066000,3.02506591796875,0.24258885917961595,-0.277033565095067,-0.4909831897675991
1733358318471030000,3.035030029296875,0.24270751712322233,-0.24842647929191589,-0.33505233108252286
1733358318480994800,3.044994873046875,0.2175298212468624,-0.24029227267503736,-0.19026129057109356
1733358318490960000,3.0549599609375,0.21338789913654327,-0.2196799850180745,-0.06980828024148941
1733358318500924000,3.064923828125,0.17466858464181423,-0.15109335552603007,0.03463584457337856
1733358318510888700,3.074888671875,0.157680624961853,-0.10497311712503432,0.10200491496920586
1733358318520852700,3.084852783203125,0.1549456470400095,-0.07937573453187942,0.16296470284461975
1733358318530818000,3.094818115234375,0.11978490180969238,-0.04963204591423273,0.20738836646080017
1733358318540782000,3.104781982421875,0.08928747221529483,-0.03507189790308475,0.25456571269929407
1733358318550747000,3.114746826171875,0.039869069051742555,-0.03166530432999134,0.2576274383574724
1733358318560712000,3.1247119140625,0.00322246917784214,-0.0140972066745162,0.2101294818624854
1733358318570676000,3.134676025390625,-0.030044425129890442,-0.0004784311667084694,0.16713000583052634
1733358318580641000,3.14464111328125,-0.05817804820239544,0.020776830568909645,0.1747851967588067
1733358318590605000,3.15460498046875,-0.0378191507846117,0.030002631814777848,0.1844376989841461
1733358318600569900,3.16456982421875,-0.03277998757362365,0.020453005442023275,0.20690993529409168
1733358318610534000,3.174533935546875,-0.016963994282484053,0.012860358355939388,0.21348288394361734
1733358318620499000,3.1844990234375,-0.04879764091670513,0.020925883650779725,0.20765227809399364
1733358318630463700,3.194463623046875,-0.07604688237011432,0.014601064543426035,0.1693473896190524
1733358318640427800,3.204427734375,-0.07709493011832237,0.003966857804358005,0.14526274967640637
1733358318650393000,3.21439306640625,-0.0437578931838274,-0.0030582185268402096,0.12669774993807076
1733358318660357000,3.224357177734375,0.00879296278655529,0.016872808867692945,0.12205255448073148
1733358318670322000,3.234322021484375,0.004205050474405289,0.07186199790090322,0.11427578299939632
1733358318680286000,3.244285888671875,0.04079261363744736,0.09027005351185798,0.1456599323004484
1733358318690250800,3.254250732421875,0.023800562304258345,0.1059936923444271,0.1524465237006545
1733358318700215800,3.2642158203125,0.016139818418025968,0.12231442028731107,0.14994360096901654
1733358318710179800,3.274179931640625,0.00829319657087326,0.13756868804246186,0.11828531090170144
1733358318720145000,3.284144775390625,0.004727028521895408,0.14118658627867697,0.12043342884629964
1733358318730109000,3.29410888671875,0.007435118436813354,0.10332622670084238,0.1515033976316452
1733358318740074000,3.304073974609375,-0.008756722429394721,0.09275982450097799,0.18523644814640283
1733358318750038000,3.3140380859375,-0.02840191861987114,0.09729805245250463,0.21800006910711525
1733358318760002800,3.3240029296875,-0.034115620091557504,0.09658464348614215,0.2347168106302619
1733358318769968000,3.333968017578125,-0.05812076505720615,0.11228665500879287,0.24013152915537356
1733358318779932000,3.343931884765625,-0.07360884156823158,0.1168842119321227,0.22277970459908245
1733358318789897000,3.35389697265625,-0.08471358842849731,0.12524433625936507,0.17303572274297474
1733358318799861000,3.363861083984375,-0.08785071741044521,0.11156564725786447,0.1318780751854181
1733358318809825800,3.37382568359375,-0.07090425878465176,0.10136690932661295,0.11270225007236004
1733358318819789800,3.383789794921875,-0.03702361649274826,0.09016834670305252,0.09671849899888038
1733358318829755000,3.3937548828125,-0.012313538128137588,0.07049187859147786,0.08755319576859473
1733358318839720000,3.403719970703125,0.013624620726704596,0.03917465704679489,0.07871259444802998
1733358318849684000,3.41368408203125,0.04435819716453552,0.023771336209774015,0.04776508299857378
1733358318859649000,3.42364892578125,0.04848258361816406,0.00030512042641639707,0.011391747108101844
1733358318869613000,3.433613037109375,0.0455529599070549,-0.02577069333344698,0.0013543372184038162
1733358318879577900,3.443577880859375,0.049309682092070574,-0.0358256388798356,0.0052335167393088335
1733358318889542000,3.4535419921875,0.045589784786105154,-0.03277238878905773,0.01034925231784582
1733358318899506700,3.463506591796875,0.00789279907643795,-0.021283903308212757,0.028833003513514994
1733358318909472000,3.473471923828125,0.05187339510023593,-0.032198680554330346,0.027607261110842225
1733358318919436000,3.48343603515625,0.08470189799070357,-0.04206161065995693,0.01767477290034294
1733358318929400800,3.49340087890625,0.09021452393233775,-0.04792699556201696,0.01601999143064022
1733358318939364900,3.50336474609375,0.10166063157618045,-0.01179798982143402,-0.010556757588684558
1733358318949330000,3.513329833984375,0.10726736554205417,-0.006572656388580799,-0.04630319375246763
1733358318959294000,3.5232939453125,0.14673545257747173,-0.0013487842604517936,-0.0485462965041399
1733358318969259000,3.533259033203125,0.15427286234498022,-0.006255553263425827,-0.05432751025408506
1733358318979224000,3.54322412109375,0.1409159526437521,-0.018022271163761615,-0.07293781043887138
1733358318989187800,3.553187744140625,0.11070844590663909,-0.0400455946624279,-0.12006576457768678
1733358318999153000,3.56315283203125,0.10780980185568333,-0.03599836509823799,-0.17275632127970456
1733358319009117000,3.573116943359375,0.12926117068529128,-0.03956161053776741,-0.23380057256817816
1733358319019081700,3.583081787109375,0.14868600212335586,-0.05268471148312091,-0.2336854217559099
1733358319029045800,3.593045654296875,0.20951427257359026,-0.10030454079210757,-0.23736089539825914
1733358319039011000,3.603010986328125,0.22750118016302584,-0.1270242054134607,-0.21278496480733156
1733358319048976000,3.612975830078125,0.22771336160898206,-0.16186375586539506,-0.201377727869153
1733358319058940000,3.62293994140625,0.19991233149170876,-0.18704203626364468,-0.19484394218623638
1733358319068905000,3.632905029296875,0.18026070556044577,-0.2162646236166358,-0.20529753166139125
1733358319078869000,3.642868896484375,0.17741583752334117,-0.23882453821003435,-0.21485329551398752
1733358319088833800,3.652833740234375,0.15865385390818118,-0.24048428811579942,-0.2349140867680311
1733358319098798000,3.662798095703125,0.1492149944335222,-0.20395225453227758,-0.24024025022685527
1733358319108764000,3.672763916015625,0.12967092052996157,-0.18135083888471126,-0.20332477028369902
1733358319118729000,3.68272900390625,0.12509820578694342,-0.16033786147236823,-0.16327537622898816
1733358319128693000,3.69269287109375,0.08344985210299491,-0.1362687113597989,-0.12032295420914887
1733358319138657800,3.70265771484375,0.08727496334910392,-0.11487053402215242,-0.058037178426980966
1733358319148622000,3.7126220703125,0.09195406107604503,-0.06398731900304555,-0.022321429662406442
1733358319158587000,3.7225869140625,0.06753565913438797,-0.037298341780900954,-0.023289982433617115
1733358319168551000,3.732551025390625,0.04749415710270405,-0.004219955782592297,0.005446282707154751
1733358319178516000,3.742515869140625,0.03750467800796032,0.047020402111113066,0.035711364850401876
1733358319188480800,3.752480712890625,0.04663315635919571,0.07473521524965762,0.09522563009262085
1733358319198444800,3.76244482421875,0.07365034262239932,0.11122136386483907,0.16100918486267327
1733358319208410000,3.77241015625,0.05951660332977771,0.12026508654206991,0.2041588830202818
1733358319218374000,3.782373779296875,0.019807693275809286,0.11683072817921637,0.20536913559287787
1733358319228339000,3.7923388671875,0.02433013913631439,0.13061112398952246,0.19381021522432565
1733358319238304000,3.802303955078125,0.016947043147683142,0.12335048533678054,0.15782997030466794
1733358319248267800,3.812267822265625,0.017404723787307737,0.12147855398505926,0.11039514217376709
1733358319258232800,3.82223291015625,0.024269933381676673,0.11165215649753808,0.07781623013019562
1733358319268196900,3.83219677734375,-0.00034019173979759216,0.07447890240103006,0.07133095976412296
1733358319278162000,3.842161865234375,-0.024397943675518036,0.03685702775418758,0.08097031024694443
1733358319288126000,3.8521259765625,-0.05410802228450775,0.00758300247490406,0.07449965292811393
1733358319298091000,3.862091064453125,-0.047393034815788264,-0.021370997069776056,0.06452332557588815
1733358319308055800,3.872055908203125,-0.02755786901116371,-0.027013971392810344,0.05368161356598138
1733358319318019800,3.882019775390625,0.011771686336398125,-0.04240092561691999,0.04304506873935461
1733358319327985000,3.89198486328125,0.01281271982192993,-0.04076718693524599,0.059389762079715726
1733358319337949000,3.901948974609375,0.01977320648431778,-0.030444238102436065,0.05829816745072603
1733358319347914000,3.9119140625,0.03088496760725975,-0.024225801979005337,0.06759294227957725
1733358319357878000,3.9218779296875,0.04678863918185234,-0.014064181187748909,0.07099865906983613
1733358319367842800,3.9318427734375,0.028393735313415526,-0.01671703378409147,0.05288870962262153
1733358319377808000,3.941807861328125,0.028118425503373144,-0.03143354140073061,0.02474631872177124
1733358319387772000,3.95177197265625,0.01962766053378582,-0.02745557768046856,-0.03242985896170139
1733358319397737000,3.961737060546875,0.027379005312919615,-0.020422610303759574,-0.07314005501270293
1733358319407701000,3.971700927734375,0.04165478342473507,0.009540858544409274,-0.09188976366817951
1733358319417666000,3.981666015625,0.032521628898382185,0.02399900748580694,-0.0997828550055623
1733358319427629800,3.9916298828125,0.06105915659666061,0.031443770533800125,-0.0841384188890457
1733358319437595000,4.001594970703125,0.08163140450417995,0.007024491809308528,-0.10124766686111689
1733358319447560000,4.011559814453125,0.08484510585367679,-0.019093992048501967,-0.08815116166174411
1733358319457523700,4.021523681640625,0.09614566754698753,-0.024034663321077822,-0.08683978680223225
1733358319467489000,4.031489013671875,0.08523673551976681,-0.037837563224136825,-0.07566577409803867
1733358319477453000,4.041453125,0.09290157105922699,-0.045319151151180265,-0.06895867767482995
1733358319487417900,4.05141796875,0.10919921038746833,-0.017590894009172915,-0.06314005452394485
1733358319497382000,4.0613818359375,0.11991641923487185,-0.026506021870672702,-0.06780950763970613
1733358319507347000,4.071346923828125,0.13476093714535237,-0.025915362501144408,-0.04439356073886156
1733358319517311700,4.081311767578125,0.12793079886436462,-0.03144523183852434,-0.03990121775567532
1733358319527275800,4.09127587890625,0.11320318533182143,-0.06506400832384825,-0.036871348540484905
1733358319537241000,4.101240966796875,0.1024468135178089,-0.04579290614277124,-0.05025660755336284
1733358319547204900,4.111204833984375,0.0816512782484293,-0.058606795008480546,-0.06201748023480177
1733358319557170000,4.121169921875,0.08362579319179057,-0.03734364222735166,-0.09100450526624917
1733358319567134000,4.131134033203125,0.10560790789723395,-0.02019406224489212,-0.105413846629858
1733358319577098800,4.1410986328125,0.10132102435827255,-0.03574117546677589,-0.09454261626452207
1733358319587064000,4.15106396484375,0.09082944096028804,-0.08751607862859964,-0.07771978401839733
1733358319597028000,4.161028076171875,0.11359364595413207,-0.09105652771443128,-0.030067806005477902
1733358319606993000,4.170992919921875,0.1388859081208706,-0.1004234909966588,0.0002530979782342911
1733358319616957000,4.18095703125,0.13643793044686317,-0.11675444807261227,0.0008458031743764876
1733358319626922000,4.190921875,0.1530284152418375,-0.10902385382056236,-0.0038449849903583523
1733358319636885800,4.2008857421875,0.14507774849832056,-0.10554156466275454,-0.02831073320508003
1733358319646850800,4.210850830078125,0.11579203278124332,-0.08810439991056919,-0.03994447237551212
1733358319656816000,4.220816162109375,0.07370236507058144,-0.07407762812376022,-0.042152796074748033
1733358319666780000,4.23077978515625,0.03885317000746727,-0.07256897712647914,-0.044326632982492446
1733358319676745000,4.240744873046875,0.04033259491026401,-0.027304771032929418,-0.014696049350500106
1733358319686709000,4.250708984375,0.056553661870956416,-0.0030316227808594703,-0.010474632263183592
1733358319696673800,4.260673828125,0.06460720446705817,0.012843114960193634,0.0016857611298561096
1733358319706637800,4.270637939453125,0.09259411254525184,0.008937924215197563,0.0076899699807167045
1733358319716603000,4.280602783203125,0.08978373129963874,0.033982641361653805,0.004824643677473068
1733358319726568000,4.29056787109375,0.07190729834735393,0.04227992958575487,0.012342471961677074
1733358319736532000,4.300531982421875,0.05545768332779407,0.03153232560008764,0.022789339435100555
1733358319746497000,4.3104970703125,0.05416647447347641,0.047427521607279775,0.0448468574643135
1733358319756460800,4.320460693359375,0.03556815698742866,0.039031156922876835,0.03872749780118465
1733358319766425900,4.33042578125,-0.015026304218173026,0.037326983353495595,0.04538578664660454
1733358319776390000,4.340389892578125,-0.024576222851872442,0.008818681749701499,0.04051788834929466
1733358319786355000,4.35035498046875,-0.03490940081775188,-0.021486732403934002,0.002368190436065197
1733358319796320000,4.360320068359375,-0.0038841479569673536,-0.0047726212292909615,-0.028169278907775878
1733358319806284000,4.370283935546875,-0.002208323699235916,-0.008781272348761558,-0.03682283322364092
1733358319816248800,4.380248779296875,0.013256956458091735,-0.02481032386869192,-0.03916062852144241
1733358319826212900,4.390212890625,0.04847732292115688,-0.04552198024690151,-0.02631166834235191
1733358319836178000,4.400177978515625,0.06511690755486488,-0.06948153250515461,-0.023144728744029997
1733358319846141700,4.4101416015625,0.06385492479503155,-0.07753945901542901,-0.0287108384385705
1733358319856107000,4.42010693359375,0.06296703604459762,-0.07101590246558188,-0.03499298744797706
1733358319866072000,4.430072021484375,0.06522679767012596,-0.06866407864242792,-0.03890840732604265
1733358319876035800,4.440035888671875,0.09140285693407058,-0.06619038200527429,-0.03645458443313837
1733358319886001000,4.4500009765625,0.09315408451557158,-0.03956716349571943,-0.020631284618377686
1733358319895965000,4.45996484375,0.11853051783442496,-0.027674773389101025,-0.022922610425949095
1733358319905929700,4.4699296875,0.0985650036484003,-0.007096680262684822,-0.02606733819246292
1733358319915895000,4.47989501953125,0.06820026052296162,-0.0039051907449960707,-0.044373102472722525
1733358319925859000,4.489859130859375,0.0426946478664875,-0.012309154213964939,-0.021647183662652968
1733358319935824000,4.499823974609375,0.0362678296893835,-0.0037894554108381267,-0.0034556934118270873
1733358319945788000,4.509787841796875,0.02709551219642162,-0.005343114593625069,0.017326397854089737
1733358319955753000,4.5197529296875,0.040303368815779686,-0.009183715669810771,0.04372369865328073
1733358319965716700,4.529716796875,0.057577744221687314,0.0151341485068202,0.05457710110098123
1733358319975682000,4.53968212890625,0.05438508566021919,0.04425619809478521,0.04804506898373365
1733358319985646800,4.549646728515625,0.058743280869722365,0.050067806982994074,0.05230009607970714
1733358319995611000,4.55961083984375,0.03309562939405441,0.05080898073911667,0.046696869245171545
1733358320005576000,4.569575927734375,0.03204348999261856,0.04363309776037931,0.06382949809283017
1733358320015540000,4.5795400390625,0.04271802874207496,0.021303192530572414,0.04165595246851444
1733358320025504800,4.5895048828125,0.022186697366833687,-0.01655015278458595,0.008876841677725315
1733358320035468800,4.59946875,0.020026888984441757,-0.0593342325001955,0.0019359364986419676
1733358320045434000,4.60943408203125,0.010246668726205825,-0.06297112769782542,0.0028872458741068838
1733358320055399000,4.61939892578125,0.031523265510797496,-0.05043079507648945,-0.006150631584227084
1733358320065363000,4.629363037109375,0.03906184432208538,-0.029412849228084084,-0.034008360324800015
1733358320075328000,4.639327880859375,0.06317921749055386,0.016023790822923184,-0.04538607890754938
1733358320085291800,4.649291748046875,0.07719020718634129,0.01993044287264347,-0.06436842727512121
1733358320095256800,4.6592568359375,0.10496376477479934,0.019487375280261038,-0.07145780101418495
1733358320105221000,4.66922119140625,0.11192132882773875,-0.002706336349248886,-0.10780512568056583
1733358320115188500,4.6791884765625,0.13385025204122067,0.0018555647388100623,-0.12185586286485195
1733358320125153500,4.689153564453125,0.12958324224650858,-0.027533319091796873,-0.13182839082479475
1733358320135117600,4.69911767578125,0.12924480407238007,-0.05143851081430912,-0.14754443087279795
1733358320145082600,4.70908251953125,0.14817922164499758,-0.05242985993921757,-0.12380378206223248
1733358320155046700,4.719046630859375,0.16108546496927736,-0.09260901785343885,-0.09020400253832339
1733358320165011700,4.72901171875,0.12427110731303691,-0.1270429101139307,-0.06975947266370057
1733358320174975700,4.738975830078125,0.10935644677579402,-0.1781856528520584,-0.04706511803567409
1733358320184940500,4.7489404296875,0.0767494776815176,-0.19152531915754079,-0.03466068675369024
1733358320194905600,4.758905517578125,0.08461071257591248,-0.156833945004642,-0.03726794664263725
1733358320204869600,4.76886962890625,0.1060416231393814,-0.12452800468355417,0.0038861937835812568
1733358320214834700,4.778834716796875,0.12486615059673785,-0.08256108656972647,0.01681201859116554
1733358320224798700,4.788798828125,0.1134486845254898,-0.055520227169990534,0.027001988694071766
1733358320234763500,4.798763427734375,0.11303075137436389,-0.015005845952033995,0.01974135004132986
1733358320244727600,4.8087275390625,0.10787234569787979,0.026871055790781972,-0.012387772408127783
1733358320254692600,4.818692626953125,0.08555529994964599,0.03126373779177666,0.0005967968493700027
1733358320264657700,4.82865771484375,0.09680617728233337,0.05020049345195293,0.024129648128151892
1733358320274621700,4.83862158203125,0.10285364075303077,0.05294540824592113,0.03749561791867018
1733358320284586800,4.848586669921875,0.08511398592293262,0.061790101219713685,0.02254939319938421
1733358320294550800,4.85855078125,0.06771569187641144,0.06992956853359937,0.02260433825701475
1733358320304515600,4.868515625,0.051940615117549896,0.07680529952198266,0.0017737316742539404
1733358320314479600,4.878479736328125,0.04662731114029884,0.07205255203694105,0.009700433020293713
1733358320324444400,4.8884443359375,0.044940380966663356,0.07779898673444986,-0.010583353334665297
1733358320334409700,4.89840966796875,0.02373100419938564,0.06357230846136808,-0.03013151889145374
1733358320344373800,4.908373779296875,0.00012274959683418273,0.04335398855805397,-0.04301028968691826
1733358320354338600,4.918338623046875,0.01094224977493286,0.038404841718077655,-0.05989274316579103
1733358320364302600,4.928302490234375,0.038135961648821826,0.0236935947984457,-0.07091127304732799
1733358320374267600,4.938267578125,0.05117079978883266,0.02392711129337549,-0.08096358824521303
1733358320384231700,4.948231689453125,0.05988894377350807,0.0152867087200284,-0.08048457255661487
1733358320394196500,4.958196533203125,0.06676175215244293,-0.00912409443706274,-0.047288989919424054
1733358320404161800,4.968161865234375,0.061739540076255796,-0.01466185481995344,-0.029558102917671202
1733358320414125600,4.97812548828125,0.048828620576858515,-0.047889001639187335,-0.01327595341950655
1733358320424090600,4.988090576171875,0.03983282869458198,-0.04934796827584505,0.01503098039329052
1733358320434054700,4.9980546875,0.044540567994117736,-0.06372749902307986,0.016977146025002002
1733358320444019500,5.00801953125,0.05230769486427307,-0.09881722484380007,0.005378478167951107
1733358320453983500,5.0179833984375,0.05978197626769542,-0.09972937125265598,0.013327683606743811
1733358320463948800,5.02794873046875,0.0494610732614994,-0.08855155915617942,-0.005058744694292545
1733358320473913600,5.03791357421875,0.05715455037355423,-0.07457651755660771,-0.007880231855809688
1733358320483877600,5.047877685546875,0.0678220748603344,-0.030532500907778738,0.0029679098948836324
1733358320493842700,5.0578427734375,0.09351590356528758,0.022378420546650884,0.015157237121462821
1733358320503806500,5.067806396484375,0.0765489866733551,0.029117957934737204,0.055120414197444914
1733358320513771500,5.077771484375,0.06438742423653603,0.042117432500422,0.05539513948559761
1733358320523736800,5.08773681640625,0.05608136818408966,0.02524345458894968,0.03566518762111664
1733358320533700600,5.09770068359375,0.07539630950689315,0.01784808364063501,0.017097265273332597
1733358320543665700,5.107665771484375,0.09083236356973648,0.02426964112073183,-0.008197627241909504
1733358320553629700,5.117629638671875,0.06492343080937862,0.02108458134382963,0.009844225405156611
1733358320563594500,5.127594482421875,0.06332359439730643,0.01982318310588598,0.020811025099456308
1733358320573558500,5.13755859375,0.057468438628315924,0.02248275770395994,0.017884616258740424
1733358320583523600,5.147523681640625,0.05713935280442237,0.025709903056919572,0.024320494525134562
1733358320593488600,5.157488525390625,0.06438976232409477,0.02579641229659319,0.01936316437870264
1733358320603452700,5.16745263671875,0.07101765603125094,0.01921937199383974,0.012731179018318653
1733358320613417700,5.177417724609375,0.04328326140940189,0.005385200169682502,-0.019574176780879495
1733358320623381500,5.187381591796875,0.015108721804618835,-0.01834872663915157,-0.03269552416056394
1733358320633346600,5.1973466796875,-0.0012935469418764113,-0.01923515408486128,-0.024375731843709943
1733358320643310600,5.207310546875,0.01714578059017658,-0.04881283848583698,-0.018123685711622237
1733358320653275600,5.217275634765625,0.023835049095749853,-0.049641398264467715,-0.02769903104752302
1733358320663240700,5.22724072265625,0.03397065866291523,-0.036137481307983395,-0.0445201097279787
1733358320673204700,5.237204833984375,0.06193769299685955,-0.015466741462051868,-0.06747545337975025
1733358320683169500,5.24716943359375,0.10741992575526237,-0.005671908156573772,-0.08240180435478686
1733358320693133600,5.257133544921875,0.10475333689451218,0.017909458439052103,-0.06997048506587743
1733358320703098600,5.2670986328125,0.09442658866941929,0.02945785741358995,-0.033109365658462044
1733358320713062400,5.2770625,0.05176058237552642,0.019824352149665353,-0.018192074772715568
1733358320723027700,5.28702783203125,0.028085107755661008,0.020203122334182262,-0.015066343967616557
1733358320732992800,5.29699267578125,0.009529460367560387,0.009554010286927223,-0.027887539356946944
1733358320742956500,5.30695654296875,0.03491466151475906,-0.022144319529831407,-0.04011836763769388
1733358320752921600,5.316921630859375,0.08318272559940815,-0.0488771358937025,-0.019703356118500232
1733358320762885600,5.3268857421875,0.13116729656755924,-0.1065337905704975,0.005509995593130588
1733358320772850400,5.336850341796875,0.14400222822129727,-0.1115340830758214,0.03819704418629408
1733358320782814700,5.346814697265625,0.12599603140950202,-0.10088760137706994,0.049475394047796724
1733358320792779800,5.35677978515625,0.12383739207088947,-0.07057429617792367,0.050154316222667694
1733358320802744600,5.36674462890625,0.12530629557967185,-0.02895692215412855,0.05183510891646147
1733358320812708600,5.37670849609375,0.10376724846661091,-0.015284955154359339,0.04018208052366972
1733358320822673700,5.386673583984375,0.10057868155837059,-0.0015156652599573135,0.04736117837280035
1733358320832637400,5.396637451171875,0.07929039433598518,0.005903671085834503,0.03525602229833603
1733358320842602800,5.406602783203125,0.08850129027366638,0.0272729145899415,0.018546879559755324
1733358320852566800,5.41656689453125,0.09052432053387165,0.009083177904784679,-0.004882803605496883
1733358320862531600,5.426531494140625,0.09577566519081591,-0.009041384589672088,-0.027521044132113454
1733358320872496600,5.43649658203125,0.09861585705280303,0.009780512519180775,-0.049125557696819304
1733358320882460700,5.446460693359375,0.08346329610645771,0.009179331755638122,-0.0486570634022355
1733358320892425500,5.456425537109375,0.09047872782647609,0.010867138712108135,-0.05923690960556268
1733358320902389500,5.466389404296875,0.07008475909531116,0.005680383723974228,-0.07720803510397672
1733358320912354800,5.476354736328125,0.06284779357910156,0.009316402138769626,-0.10057371312230824
1733358320922319600,5.486319580078125,0.06536532935798167,-0.017837854507565497,-0.07940700645297766
1733358320932283600,5.49628369140625,0.11790098775923251,-0.02282353396564722,-0.08385814064294099
1733358320942248700,5.506248779296875,0.13250292908549308,-0.019113281270861624,-0.07915624656230211
1733358320952212500,5.51621240234375,0.09441139110028743,-0.019637889666855333,-0.07156389173716306
1733358320962177500,5.526177490234375,0.05959083760976791,-0.016849720253050326,-0.057094636879861355
1733358320972141800,5.536141845703125,0.046080783173441886,-0.019350597158074377,-0.07176993570327758
1733358320982106600,5.546106689453125,0.04437865543067455,-0.03192132491767406,-0.054089317584037774
1733358320992071700,5.55607177734375,0.05281505986452102,-0.04927081138640642,-0.034410511384904384
1733358321002035700,5.56603564453125,0.0649503188163042,-0.05443593906462192,0.005341653288900852
1733358321012000500,5.57600048828125,0.07969137635231018,-0.06559124706834554,0.03372048329412937
1733358321021964500,5.585964599609375,0.09754910460412501,-0.06323942324519156,0.051699207577109337
1733358321031929900,5.595929931640625,0.12633622314929963,-0.056496086464822286,0.045424657352268694
1733358321041893600,5.6058935546875,0.1265285308510065,-0.0550163693010807,0.041491994078457356
1733358321051858700,5.615858642578125,0.12324176426529884,-0.0700154932513833,0.023341420359909534
1733358321061823500,5.625823486328125,0.11312719748616218,-0.07509761882126331,-0.0032408816173672673
1733358321071787500,5.63578759765625,0.07129296584129333,-0.07083470067977905,-0.008071078252792357
1733358321081752600,5.645752685546875,0.07092004087567329,-0.06825666688531637,0.003301671893894672
1733358321091716600,5.655716552734375,0.08137304582893848,-0.055232350139319895,0.008739186772704124
1733358321101681700,5.665681640625,0.07919862439930439,-0.04309124596863985,0.011022621534764765
1733358321111643600,5.6756435546875,0.10116028083860873,-0.023657354441285132,0.02931143468022346
1733358321121608400,5.6856083984375,0.12351122885644435,-0.012945990812778472,0.023202888672053813
1733358321131573500,5.695573486328125,0.11913842059969901,0.016366028389334677,-0.009250351165235041
1733358321141537500,5.70553759765625,0.10069207880496978,0.01434299812912941,-0.019830781890451905
1733358321151502600,5.715502685546875,0.08983283113837241,-0.008683657193183899,-0.03318243089467287
1733358321161466600,5.725466552734375,0.07668868740499019,0.006644260320067406,-0.04508534239530563
1733358321171431400,5.735431396484375,0.08907178363800049,0.011717618061602115,-0.06339198345839978
1733358321181395500,5.7453955078125,0.07036240699291228,0.00039630584120750427,-0.05803279451280832
1733358321191360500,5.755360595703125,0.04225099575221538,0.010218903936445712,-0.07285714641809463
1733358321201325300,5.7653251953125,0.02309972055852413,0.0089820556178689,-0.07384557293355465
1733358321211289300,5.775289306640625,0.005361234772205352,0.004068272352218628,-0.06884820303767919
1733358321221254700,5.785254638671875,-0.005074819046258926,0.0036567689418792724,-0.04108692040890455
1733358321231218700,5.79521875,-0.01677285562455654,0.02340688681155443,-0.035250761601328846
1733358321241183500,5.80518359375,0.019494974064826965,0.036136604525148865,-0.004530044645071029
1733358321251148500,5.8151484375,0.03405249172747135,0.032679742069542404,0.008284721003472804
1733358321261112600,5.825112548828125,0.022575404423475266,0.04222323096245527,0.01796586480140686
1733358321271077400,5.835077392578125,0.0247217688024044,0.019055705864727497,0.031550738039612766
1733358321281041400,5.84504150390625,0.02536415835916996,-0.008187105847895145,0.04633884958773851
1733358321291006500,5.85500634765625,0.04778466448187828,-0.022233751378953455,0.050768940989673134
1733358321300970500,5.864970458984375,0.049335401055216783,-0.0003179799079895019,0.062327569097280495
1733358321310935600,5.874935546875,0.008656769186258316,0.010875906540453433,0.07336100428700447
1733358321320900400,5.884900390625,0.02255728424489498,0.004105681753158569,0.06844312936812638
1733358321330864400,5.894864501953125,0.06317161870598792,-0.0029468671068549153,0.09548545007258653
1733358321340829700,5.90482958984375,0.07539163333177566,-0.003949029886722564,0.09450754495114087
1733358321350793700,5.914793701171875,0.05943652383089065,-0.01855798547565937,0.0897942526936531
1733358321360758500,5.924758544921875,0.05229951155781746,0.005904547868669033,0.05354045152962208
1733358321370722600,5.93472265625,0.05156769015192985,0.01253390288054943,0.004351473207771778
1733358321380687400,5.944687255859375,0.08636135563552379,0.011918401330709457,-0.02612228325009346
1733358321390652400,5.95465234375,0.13370412156879902,0.015561434008181094,-0.054154784035682677
1733358321400616400,5.964616455078125,0.159058927577734,0.014703940396010876,-0.040673955693840975
1733358321410581500,5.97458154296875,0.15241934343278407,0.01952916859537363,-0.03871580736339092
1733358321420545500,5.984545654296875,0.10536240870356559,0.03308481573909521,-0.02053951468169689
1733358321430510600,5.994510498046875,0.062466685307025906,0.05956862577795982,-0.03140373078435659
1733358321440474600,6.004474609375,0.02410100655555725,0.09424217201322317,-0.044186055468022824
1733358321450439400,6.014439453125,-0.009070026162266731,0.147272043672204,-0.09315671486407517
1733358321460404500,6.024404541015625,-0.040515550261735915,0.17261720506995915,-0.14272095623910427
1733358321470368500,6.034368408203125,-0.06012859774827957,0.15809797359108924,-0.17315058129429817
1733358321480333600,6.04433349609375,-0.06513678129911422,0.17031974178254602,-0.1976154527261853
1733358321490297600,6.054297607421875,-0.07762567599415779,0.1708244764342904,-0.19489450332969427
1733358321500262400,6.064262451171875,-0.061115270698070524,0.15036211864203214,-0.18946604854017496
1733358321510226400,6.074226318359375,-0.03667348788082599,0.12066782212406396,-0.14956161591410636
1733358321520191500,6.08419140625,-0.01787467938661575,0.07631225530803203,-0.07553747154325247
1733358321530156500,6.094156494140625,0.0035901334464550016,0.01279050799012184,-0.0025999533653259274
1733358321540120600,6.10412060546875,0.05656535230875015,-0.05500818599462509,0.05880348662436008
1733358321550085600,6.114085693359375,0.09678864162564277,-0.11993950784951447,0.10653349830955267
1733358321560049400,6.12404931640625,0.13665186545848845,-0.18303163157850502,0.158976802252233
1733358321570014500,6.134014404296875,0.18317980787754057,-0.2140525005251169,0.15032821637243032
1733358321579979500,6.1439794921875,0.21856851664483545,-0.23745003498643635,0.1370700908705592
1733358321589943300,6.153943359375,0.21793431039452552,-0.23800416173785924,0.13179711890369653
1733358321599908600,6.16390869140625,0.20652619667351244,-0.2764002356275916,0.13126315815746784
1733358321609872600,6.17387255859375,0.21093407624363897,-0.3030325142264366,0.14350187748372553
1733358321619837400,6.18383740234375,0.21308219418823718,-0.32266251284778114,0.1591454368174076
1733358321629801500,6.193801513671875,0.22900047881007193,-0.34265199243128297,0.1610553620919585
1733358321639766500,6.2037666015625,0.25923311998844145,-0.36008038935512304,0.16199001259356735
1733358321649731300,6.2137314453125,0.26685236282050606,-0.36351591676175593,0.15703765088319777
1733358321659695400,6.2236953125,0.2640332137465477,-0.3355173182457685,0.14153116193264723
1733358321669660700,6.23366064453125,0.24050386959910391,-0.321748905134201,0.10583820952177048
1733358321679624400,6.24362451171875,0.2013444101214409,-0.2882259902387857,0.059089317828416824
1733358321689589500,6.253589599609375,0.15402034888863564,-0.24409546435028312,0.0056163785770535464
1733358321699553500,6.263553466796875,0.12855799085199832,-0.21318799265027044,-0.05739011269509792
1733358321709518300,6.273518310546875,0.10670564000606536,-0.16225684683620928,-0.1427352770254016
1733358321719483600,6.283483642578125,0.1009048447728157,-0.12814298031032084,-0.18649784638434647
1733358321729447700,6.29344775390625,0.0715162532031536,-0.07181786649823188,-0.248640706564486
1733358321739412500,6.30341259765625,0.04606090942919254,-0.02473229019641876,-0.2868549941465258
1733358321749376500,6.31337646484375,0.018613515055179594,0.023432313513755798,-0.2959516160547733
1733358321759341600,6.323341552734375,-0.012796353209018707,0.04678951596468687,-0.28791034841835494
1733358321769305300,6.333305419921875,-0.008283844220638275,0.07279138770550489,-0.28580051665753126
1733358321779270400,6.3432705078125,-0.00959726490676403,0.11777151616066693,-0.3218815916031599
1733358321789235700,6.353235595703125,-0.0039449382334947585,0.14246639695614577,-0.3118707774594426
1733358321799199500,6.363199462890625,0.01872866586744785,0.1710688065841794,-0.27872604822665453
1733358321809164500,6.37316455078125,0.021543138766288755,0.1840744186297059,-0.20249328789561985
1733358321819128600,6.383128662109375,0.045967970448732375,0.18725304866582154,-0.13739187017083168
1733358321829093400,6.39309326171875,0.047915597385168075,0.20739333489686249,-0.08898293631076812
1733358321839058400,6.403058349609375,0.05904138703346252,0.2218734034091234,-0.048315410357713695
1733358321849022500,6.4130224609375,0.05779226375520229,0.21525193944275378,-0.03216886993795633
1733358321858987500,6.422987548828125,0.0810498052239418,0.19067600885182617,-0.026609482245147226
1733358321868951600,6.43295166015625,0.0841343272358179,0.13882453332245348,-0.013090367719531058
1733358321878916600,6.44291650390625,0.07548398779034614,0.083393738001585,0.024956454341113567
1733358321888880400,6.45288037109375,0.07945698307454585,0.04287146573811769,0.03285129924416542
1733358321898845400,6.462845458984375,0.048045361244678494,0.013435235634446143,0.06959113035947084
1733358321908810500,6.472810546875,0.010991349613666533,-0.012832593566179275,0.07184884615838527
1733358321918774500,6.4827744140625,0.012815642431378364,-0.014388006314635276,0.10101064323484897
1733358321928739600,6.492739501953125,0.011015315011143684,-0.037244273506104944,0.1290101185336709
1733358321938703600,6.50270361328125,0.015549451309442519,-0.060630702051520345,0.1638642820328474
1733358321948668400,6.51266845703125,0.027901567882299423,-0.06793576436787843,0.1487821559742093
1733358321958632400,6.522632568359375,0.044431262400746345,-0.08340396713465452,0.12123247026950121
1733358321968597500,6.532597412109375,0.06767185273468494,-0.09974836821407079,0.0875198780208826
1733358321978562600,6.5425625,0.08097673998773097,-0.11228197883367538,0.07291267599761486
1733358321988526600,6.552526611328125,0.09365560429692268,-0.1047083287090063,0.06921966669857502
1733358321998491600,6.56249169921875,0.09253039965927601,-0.09987637850791216,0.05158697937428951
1733358322008455400,6.572455322265625,0.08522972125709057,-0.06294716230034827,0.04406739752441644
1733358322018420500,6.58242041015625,0.09484510634243488,-0.024255320334434508,0.03270487651079893
1733358322028384500,6.592384521484375,0.08157879753410816,-0.035821254965662956,0.030570202569663522
1733358322038349300,6.602349365234375,0.05485913291275501,-0.025565233889222144,0.02299333757460117
1733358322048314600,6.612314697265625,0.01640343779027462,-0.026875731965899465,0.015339315690100191
1733358322058278700,6.622278564453125,0.0028325930774211884,0.005010229377448558,-0.012613982379436492
1733358322068243500,6.632243408203125,0.0036538463324308395,0.027859190045297143,-0.04609013552367687
1733358322078207500,6.64220751953125,0.0034451720178127285,0.04157791879624128,-0.08989069880545139
1733358322088172500,6.652172607421875,0.03385024715363979,0.06472907728105783,-0.10248509970158338
1733358322098136300,6.66213623046875,0.03149170132875442,0.0792041773572564,-0.08318360238224268
1733358322108101400,6.672101318359375,0.040762218499183656,0.0658218409538269,-0.04598813645392656
1733358322118066400,6.68206640625,0.05017068283557891,0.03705664197951555,-0.011700959187746046
1733358322128030200,6.6920302734375,0.048258711734414095,0.02386865910440683,0.026108839246630666
1733358322137995300,6.701995361328125,0.039976621079444885,0.02630611538439989,0.047508185628056525
1733358322147959300,6.711959228515625,0.028387305572628974,0.02995937719494104,0.030733576437830923
1733358322157924000,6.721924072265625,0.01586567765176296,0.03232961345762014,0.022483342225849627
1733358322167888400,6.731888427734375,0.025712533405423163,0.03194850518554449,0.03642214346826076
1733358322177853400,6.741853515625,0.030743513309955596,0.021029636286199093,0.036513913404941555
1733358322187818200,6.751818359375,0.036139234873652455,0.024347090271115302,0.03440291260033846
1733358322197782300,6.7617822265625,0.04414835380613803,0.0027536826223134993,0.013872750268876553
1733358322207747300,6.771747314453125,0.042625674283504486,-0.03079465897530317,-0.007229951253533363
1733358322217711000,6.781711181640625,0.06652092913389206,-0.0279743408575654,-0.020201076507568357
1733358322227676400,6.791676513671875,0.07195172201097011,-0.04729834226965904,-0.02281184352785349
1733358322237641200,6.80164111328125,0.06803834795951842,-0.04226765462607145,-0.03327010917812585
1733358322247605200,6.811605224609375,0.06587327888011932,-0.03493365847617388,-0.051692193314433095
1733358322257570300,6.8215703125,0.08412848201692104,-0.043318332722783084,-0.07282821258455514
1733358322267534300,6.831534423828125,0.10901391694843768,-0.04057429471164942,-0.05929185466319322
1733358322277499100,6.8414990234375,0.11185469333231449,-0.04411854318976402,-0.043347266556322574
1733358322287463200,6.851463134765625,0.10990765091776847,-0.040977322554588316,-0.043748833094537254
1733358322297428500,6.861428466796875,0.09156418497562407,-0.03457973047196865,-0.036572950115799904
1733358322307393300,6.871393310546875,0.07303425655066967,-0.05356704727560281,-0.05515519324988127
1733358322317357300,6.881357421875,0.06455927367210387,-0.05371668487936258,-0.08770984763503074
1733358322327322400,6.891322265625,0.06768880386948585,-0.0651703913077712,-0.10129062922000884
1733358322337286100,6.9012861328125,0.02276946569085121,-0.05426613545566797,-0.06650894643515348
1733358322347251200,6.911251220703125,0.005738251391053199,-0.057253919094800945,-0.04725450312793254
1733358322357215500,6.921215576171875,0.019426585003733635,-0.04851648588776588,-0.0064162967830896376
1733358322367180300,6.93118017578125,0.04983808988034725,-0.026036066271364688,0.007784078004956245
1733358322377145300,6.941145263671875,0.07729132947325706,-0.01087912141084671,0.020917992605268953
1733358322387109400,6.951109375,0.06470014344751834,-0.008944061695039272,0.016999650117754936
1733358322397074200,6.96107421875,0.03169453042447567,0.006601005700230598,0.031233634914457797
1733358322407038200,6.9710380859375,0.026253216153383253,0.024664193396270274,0.05677753375470638
1733358322417003500,6.98100341796875,0.0028588965624570845,0.022003742015361785,0.07783756517916918
1733358322426968300,6.99096826171875,-0.005317980152368545,0.025521687008440493,0.08857289420515298
1733358322436932400,7.000932373046875,-0.0007552022814750671,0.026653613647818562,0.07927344320118426
1733358322446897200,7.010897216796875,0.010459434694051742,0.010054653285443782,0.06742664580196142
1733358322456861200,7.020861083984375,0.001544306832551956,0.006025836160778999,0.03183101628571749
1733358322466826200,7.030826171875,0.015404489880800246,0.021014146456122398,0.019153905542194843
1733358322476790300,7.040790283203125,0.02262859591543674,0.009028817369043826,-0.0033528175592422486
1733358322486755300,7.05075537109375,0.030079496443271635,0.006224281342327594,-0.00850888514816761
1733358322496720400,7.060720458984375,0.04095101906955242,-0.0011886252626776696,0.01711450866907835
1733358322506684400,7.070684326171875,0.04514204101860523,0.0075260115906596176,0.061034022155404086
1733358322516649200,7.080649169921875,0.0619745178759098,-0.011411036330461501,0.07582944022715091
1733358322526613200,7.09061328125,0.05980126549005508,-0.0031079028874635693,0.07094400627315044
1733358322536578300,7.100578369140625,0.07800912235379219,0.00007540332376956939,0.06386719975471496
1733358322546542300,7.110542236328125,0.1017196682870388,-0.02170417454689741,0.060034781984984874
1733358322556507400,7.12050732421875,0.12844751621484757,-0.058690089377760886,0.04323094670027494
1733358322566472200,7.13047216796875,0.1338221949905157,-0.08590893569290638,0.016446400149166582
1733358322576436200,7.140436279296875,0.13571078521609306,-0.107252752494812,-0.01754793165028095
1733358322586401300,7.1504013671875,0.1181546702593565,-0.10586392848491669,-0.053640697033703326
1733358322596365300,7.160365234375,0.09646306293308735,-0.12461188357472419,-0.08979512947648763
1733358322606330400,7.170330322265625,0.06980126597881317,-0.11701982101052999,-0.10468903948664665
1733358322616294400,7.18029443359375,0.03699906657338142,-0.09184270965605974,-0.10742694001793861
1733358322626259200,7.19025927734375,0.030683892077207564,-0.05861497831493616,-0.10666560025662183
1733358322636224300,7.200224365234375,0.044618893927335736,-0.025120704992115495,-0.09298691125512122
1733358322646188300,7.210188232421875,0.06332417891919613,0.01862549775391817,-0.044158290678262706
1733358322656153000,7.220153076171875,0.07028583462536335,0.07050093868076801,-0.003236205442249775
1733358322666117000,7.2301171875,0.07847849343121051,0.12228753228038548,0.023296119913458823
1733358322676082400,7.24008251953125,0.06880407163500786,0.1489408536672592,0.014244213929772376
1733358322686046500,7.25004638671875,0.04166238220930099,0.1521378961429,0.020360650983452796
1733358322696011300,7.26001123046875,0.03277998757362365,0.10146949291825294,0.010637421609461307
1733358322705976300,7.269976318359375,0.05990764847397804,0.0628717589765787,-0.009022972150146961
1733358322715940400,7.2799404296875,0.06879238119721412,0.05022825824171304,-0.04257628218382597
1733358322725905200,7.2899052734375,0.054635261029005046,0.039516310091316696,-0.08726970265209674
1733358322735869400,7.299869384765625,0.03941548006534576,0.04243979632258415,-0.10163286678642033
1733358322745834200,7.309834228515625,0.05370119504928589,0.04125438593029976,-0.12000672786682844
1733358322755799300,7.31979931640625,0.04068681517541408,0.03631020752638578,-0.10931757607012986
1733358322765763300,7.329763427734375,0.03285772898495197,0.017623042713105677,-0.07940700645297766
1733358322775728000,7.33972802734375,0.02222878294289112,0.001432078629732132,-0.04063303916156292
1733358322785692200,7.349692138671875,0.03796352769136429,0.0016579963400959968,-0.05677782601565122
1733358322795657500,7.359657470703125,0.047639118531346315,-0.02431698739379644,-0.06183773975372314
1733358322805621500,7.36962158203125,0.0567506457477808,-0.043325054724514485,-0.07167378185242414
1733358322815586300,7.37958642578125,0.10875672731697558,-0.0790145000040531,-0.05375175619274378
1733358322825551400,7.38955126953125,0.11754209131896495,-0.10296557669490575,-0.030136195066571232
1733358322835515100,7.39951513671875,0.09760931035876273,-0.12103022569566964,0.005648819541931152
1733358322845480200,7.409480224609375,0.08993746055662631,-0.12961071477532385,0.023199966062605378
1733358322855444200,7.4194443359375,0.07949731508493423,-0.12400047367811202,0.03818564600944519
1733358322865409300,7.4294091796875,0.08997486995756626,-0.09776713126897811,0.04773381107747555
1733358322875373300,7.439373291015625,0.08890753298699855,-0.0819733498096466,0.0478469160631299
1733358322885338400,7.44933837890625,0.09243219998180865,-0.06390870080888271,0.048319502010941505
1733358322895303200,7.45930322265625,0.10146423222124576,-0.04474544291645288,0.04384761729389429
1733358322905267200,7.46926708984375,0.09863105462193489,-0.021363982807099818,0.02850070281922817
1733358322915232300,7.479232177734375,0.06582300999760628,-0.01641863535940647,0.033790918181836604
1733358322925196300,7.4891962890625,0.05829962875545024,-0.006456044271588325,0.04082563912421465
1733358322935161300,7.499161376953125,0.07158931843936443,-0.0001502221256494522,0.054497606123983855
1733358322945126400,7.50912646484375,0.07896773825287819,-0.015111059892177581,0.05988163724988699
1733358322955090200,7.519090087890625,0.08143442062735558,-0.028213410310447214,0.06810819832533598
1733358322965055200,7.52905517578125,0.06856383313834667,-0.0221098327383399,0.06091828682124614
1733358322975019300,7.539019287109375,0.045613165661692615,-0.029926059447228908,0.0663254065617919
1733358322984984300,7.548984375,0.036830139747262,-0.06285130071043968,0.05230214190632104
1733358322994948400,7.5589482421875,0.03414309262037277,-0.09955050755441189,0.07001052481532097
1733358323004913400,7.568913330078125,0.05067278713881969,-0.0913037804737687,0.04868628949671983
1733358323014878200,7.578878173828125,0.06644435676634311,-0.078962477555871,-0.006099193657934665
1733358323024842200,7.58884228515625,0.08563304136097431,-0.043024025951325894,-0.05442980158478021
1733358323034807300,7.598807373046875,0.07488426833152771,-0.023711714977025983,-0.09444821597933768
1733358323044771000,7.60877099609375,0.029756255838274955,0.014683774390816688,-0.13499182329177856
1733358323054736400,7.618736328125,0.018888824865221976,0.044377486386895176,-0.12428893523067235
1733358323064700400,7.628700439453125,0.020163667106628418,0.054475978814065455,-0.09719196172952652
1733358323074665200,7.638665283203125,0.0708849695622921,0.03914426190853119,-0.07786328414231539
1733358323084630300,7.64863037109375,0.12897592400312424,0.04710983396023512,-0.06439034684598445
1733358323094594300,7.65859423828125,0.17244214076399803,0.05743044470548629,-0.07634557305574417
1733358323104559000,7.66855908203125,0.1847901656836271,0.08335282146930693,-0.08149901029616594
1733358323114523000,7.67852294921875,0.17572540021836758,0.08106792540252208,-0.05928600944429636
1733358323124488000,7.688488037109375,0.1394341896533966,0.09797843593209982,-0.05411182167679071
1733358323134452000,7.698451904296875,0.09646364745497703,0.08778963487297296,-0.026473288644850254
1733358323144416800,7.708416748046875,0.06597498568892479,0.07200783611238003,-0.02843231375813484
1733358323154382000,7.718382080078125,0.01830313393175602,0.059439446440339085,-0.024711831930279732
1733358323164345900,7.728345947265625,0.027602877196669578,0.04674333873540163,-0.01761632071137428
1733358323174311000,7.738310791015625,0.0323509485065937,0.0346469504892826,-0.012644962039589881
1733358323184275000,7.74827490234375,0.03729132751822471,0.03134790894389152,-0.02432838557064533
1733358323194239700,7.75823974609375,0.05412497341930866,0.019440029007196425,-0.03747983582764864
1733358323204203800,7.768203857421875,0.0665408028781414,0.011374211451411247,-0.01617255164384842
1733358323214168800,7.7781689453125,0.07970423583388328,0.0035708442240953444,-0.01638824022114277
1733358323224134000,7.7881337890625,0.10651976204514503,0.006928337958455085,0.0017950667232275008
1733358323234098000,7.798097900390625,0.13945464791953563,-0.009673252752423285,-0.0033566169515252113
1733358323244063000,7.80806298828125,0.12801087836325167,-0.009699556237459182,0.0027644962772727013
1733358323254027000,7.818027099609375,0.1401753634095192,-0.041541678439080715,-0.007266483871638775
1733358323263991800,7.82799169921875,0.1198269873857498,-0.08401508477032184,-0.01614537137597799
1733358323273956900,7.837956787109375,0.08859422925412655,-0.10248626874536275,-0.009455810609459877
1733358323283920600,7.847920654296875,0.08347849367558956,-0.11279869618415832,-0.013342881175875662
1733358323293886000,7.857885986328125,0.09225508984923363,-0.12073270405381917,-0.013115502160787582
1733358323303850000,7.86785009765625,0.08325637535750866,-0.11608663181364536,-0.007167991933226585
1733358323313814800,7.877814697265625,0.0639046091556549,-0.08034867121726275,-0.0009703063368797302
1733358323323778800,7.88777880859375,0.061546063330769535,-0.0624430121704936,0.002571604053676128
1733358323333743900,7.897743896484375,0.07125847904980183,-0.06373334424197673,0.006461889490485191
1733358323343709000,7.907708984375,0.06438917780220509,-0.05334522121846676,0.02213204457014799
1733358323353673000,7.9176728515625,0.0583148263245821,-0.0318628727287054,0.024988310784101485
1733358323363638000,7.927637939453125,0.062055766418576234,-0.04957710085660219,0.023349895927309988
1733358323373601800,7.937601806640625,0.0956283656746149,-0.03728168290704489,0.00348170463591814
1733358323383566800,7.94756689453125,0.08210954340994357,-0.015215104788541793,-0.015070435620844364
1733358323393531000,7.95753076171875,0.05837386303544044,0.02134001740962267,-0.03955810340642929
1733358323403495700,7.96749560546875,0.04980360308885574,0.024181670576333997,-0.029124387675523757
1733358323413461000,7.9774609375,0.052667760348320006,0.03768237266242504,-0.014907354013621806
1733358323423425000,7.987425048828125,0.0659831689953804,0.03863046716749668,-0.012474573908746242
1733358323433389800,7.997389892578125,0.04576338778734207,0.019419278480112552,0.011318097350001334
1733358323443353900,8.007353759765625,0.04594634313881397,0.02852905213087797,0.011483224783837795
1733358323453319000,8.01731884765625,0.058308396583795545,0.006220481950044631,-0.026252339370548723
1733358323463283000,8.027282958984374,0.0339981311917305,0.0003071662530303001,-0.04322217887192964
1733358323473247700,8.037247802734376,0.03267243554592132,-0.010168342792987823,-0.03274696208685636
1733358323483213000,8.047213134765625,0.0505634815454483,-0.005789981578290462,-0.04662234270423651
1733358323493176800,8.0571767578125,0.04861936174035072,-0.008408055122196674,-0.020027473506331443
1733358323503142000,8.067141845703125,0.05346621724963188,-0.02529839964658022,-0.016610943061113357
1733358323513106000,8.07710595703125,0.0463806429028511,-0.04921557406783104,-0.020178572414815424
1733358323523070700,8.08707080078125,0.05726794762015342,-0.04403144942820072,-0.026420097152888775
1733358323533036000,8.0970361328125,0.04157236583828926,-0.029131109677255154,-0.016669102989137173
1733358323543000000,8.107,0.04023381071090698,-0.008441080608963966,0.0007698153287172317
1733358323552964900,8.11696484375,0.06271218450069427,0.0173214294180274,0.02040273655951023
1733358323562929000,8.126928955078125,0.0742044693738222,0.025699966184794903,0.02300210540294647
1733358323572894000,8.13689404296875,0.08655424785912036,0.034903263337910176,0.021742168469727038
1733358323582857700,8.146857666015626,0.07668751836121082,0.016437924581766128,-0.006261398482322693
1733358323592822800,8.15682275390625,0.08507014678120613,0.003901391352713108,-0.011390578064322471
1733358323602788000,8.1667880859375,0.07697451860904693,-0.0149795424669981,-0.022082944731414318
1733358323612752000,8.176751953125,0.08762684552669525,-0.014870236873626708,-0.012960311599075793
1733358323622717000,8.186717041015624,0.06933131037950516,-0.01143587851077318,-0.016813479895889757
1733358323632681000,8.196680908203126,0.05924363160729408,-0.016287117934226988,-0.002675356689095497
1733358323642645800,8.206645751953126,0.05838263086378574,-0.014181670087575912,-0.018833879807591436
1733358323652609800,8.21660986328125,0.07089198382496834,-0.015549159048497676,0.016789514498412608
1733358323662574800,8.226574951171875,0.09323357949256897,-0.014331892213225363,0.020915654517710207
1733358323672540000,8.236539794921875,0.09441314466595649,-0.00047580081820487974,0.016904665310680866
1733358323682504000,8.24650390625,0.08915595479011536,-0.009178454972803592,0.028313655814528462
1733358323692469000,8.256468994140626,0.07574936072826385,-0.005357435379922389,0.0112672439455986
1733358323702432800,8.266432861328125,0.06416062974333762,-0.005336392591893673,-0.002049041484296322
1733358323712397800,8.276397705078125,0.04079728981256485,-0.0028001521125435827,-0.01859977879077196
1733358323722361900,8.28636181640625,0.03732289170026779,-0.011576456025242805,-0.015345745430886744
1733358323732327000,8.296326904296874,0.03380933062136173,-0.006775777745246887,0.009653379008173943
1733358323742292000,8.3062919921875,0.05052081144750118,0.001541384223103523,0.02368190436065197
1733358323752256000,8.316256103515625,0.04420096077620983,-0.02799830625504255,0.02581628604084253
1733358323762220800,8.326220703125,0.032119477838277816,-0.0452761887922883,0.021490531796216964
1733358323772184800,8.336184814453125,0.0436661232471466,-0.03155512195378542,0.016695698735117913
1733358323782150000,8.34614990234375,0.052990416431427,-0.02317687744796276,0.0024997078612446783
1733358323792115000,8.356114990234374,0.057625090494751924,-0.05898351936638355,0.00855506237745285
1733358323802079000,8.366078857421876,0.06438508614897727,-0.04222352322340012,-0.00046060324907302855
1733358323812044000,8.3760439453125,0.05556348178982734,-0.03596124795824289,-0.02982961333543062
1733358323822007800,8.3860078125,0.07086801842749119,-0.03180325149595737,-0.04404840056300163
1733358323831972900,8.395972900390625,0.06825871271193028,-0.0045662850022315975,-0.045267713224887846
1733358323841937000,8.40593701171875,0.06728431472182274,-0.01232084465175867,-0.07171879003793001
1733358323851901700,8.415901611328126,0.08314005550146103,-0.018531974251568318,-0.0630526685014367
1733358323861867000,8.425866943359376,0.08650807062983512,-0.010649696569144725,-0.06003010580986738
1733358323871831000,8.4358310546875,0.11086392872929572,0.003568506136536598,-0.058710547643899914
1733358323881795800,8.4457958984375,0.109522450992465,0.01028261682242155,-0.060163961322605604
1733358323891759900,8.455759765625,0.10025544095337391,0.009301204569637775,-0.06472761597633361
1733358323901725000,8.465724853515624,0.0924304464161396,0.026389994275569914,-0.04395253897309303
1733358323911688700,8.475688720703126,0.07731880200207233,0.009972527959942816,-0.034871114633977414
1733358323921654000,8.485654052734375,0.05538637165725231,0.01260492229014635,-0.02662029590010643
1733358323931618800,8.495618896484375,0.05843523783385753,0.005630699363350868,-0.044265258184075354
1733358323941582800,8.505582763671875,0.06282967340052127,-0.0008083937734365463,-0.04424889157116413
1733358323951548000,8.5155478515625,0.07283844171762466,-0.017449147450923918,-0.031816110977530475
1733358323961512000,8.525511962890626,0.06955752035081386,-0.015515256778895854,-0.033868659593164915
1733358323971476700,8.535476806640625,0.0643663814485073,-0.02628653390109539,-0.015059329704940318
1733358323981440800,8.545440673828125,0.07552490432262421,-0.036923663249611854,-0.022908289639651774
1733358323991406000,8.555406005859375,0.08124445101320743,-0.020493921974301336,-0.019908523301780223
1733358324001371000,8.565370849609375,0.08681260653436183,-0.01830517975836992,0.0034764439389109608
1733358324011335000,8.5753349609375,0.05013502700030804,-0.007278174309432506,0.006656535279750824
1733358324021299700,8.5852998046875,0.03232230693399906,-0.012704875533282756,0.008844108451902866
1733358324031263700,8.595263671875,0.039464579904079436,-0.0381742478325963,0.04152355826050043
1733358324041228800,8.605228759765625,0.05592179370820522,-0.04755582416206598,0.05660977597236633
1733358324051193900,8.61519384765625,0.05476268680095672,-0.05775222400575876,0.03718202192485332
1733358324061158000,8.625157958984374,0.037729134413599964,-0.04675941308736801,0.03683189331293106
1733358324071123000,8.635123046875,0.04292494949102402,-0.018352818292379378,0.028447219066321847
1733358324081087000,8.6450869140625,0.03157937961220741,0.0037543840974569318,0.022365268804132938
1733358324091051800,8.6550517578125,0.031003041028976438,0.03637099780291319,0.04725567217171192
1733358324101015800,8.665015869140625,0.021277765828371046,0.035650282312929625,0.04808627777695656
1733358324110980400,8.67498046875,0.026169629523158072,0.04627659800648689,0.07022270626127719
1733358324120945400,8.6849453125,0.029312603724002836,0.07030453932583332,0.05197656321376562
1733358324130909400,8.694909423828125,0.04789923077225685,0.08425999944210052,0.008623743699491024
1733358324140874500,8.70487451171875,0.05637947434782981,0.07923281892985105,-0.007530395504832268
1733358324150838300,8.71483837890625,0.08029811007380486,0.05937164190113544,-0.01736322273313999
1733358324160803300,8.72480322265625,0.08213760046064854,0.023420330815017223,-0.011913140633702277
1733358324170767400,8.734767333984376,0.07913023533821105,-0.0005322071805596351,0.002714519655704498
1733358324180732400,8.744732421875,0.0639788434356451,-0.037950375948846336,0.02746376098692417
1733358324190697500,8.754697509765625,0.05510813923776149,-0.052824412214756006,0.020527239722013473
1733358324200661500,8.76466162109375,0.03470774076581001,-0.07891425449997186,0.020202245551347732
1733358324210626300,8.774626220703125,0.05305062218606472,-0.06912205154299736,-0.0172167999997735
1733358324220590300,8.78459033203125,0.04897942722439766,-0.08217705568820238,-0.0028410686448216435
1733358324230555400,8.794555419921876,0.0287783507168293,-0.06337503232359885,-0.0023819267004728316
1733358324240519200,8.804519287109375,0.032686464071273805,-0.047179684326052664,-0.01482435190528631
1733358324250484500,8.814484375,0.03443418452143669,-0.024268472076952458,-0.023754969596862793
1733358324260449500,8.824449462890625,0.050804304563999175,-0.015940204192698,-0.030347499729692935
1733358324270413300,8.834413330078124,0.06303250249624252,-0.024305004695057867,-0.05180909769237041
1733358324280378400,8.84437841796875,0.060168929758667944,-0.0008446341305971145,-0.05937018059641123
1733358324290342400,8.85434228515625,0.06333294674754142,0.008910743947327136,-0.06161766726225614
1733358324300307200,8.86430712890625,0.056738955309987064,0.01468231308609247,-0.06655220105499028
1733358324310272500,8.8742724609375,0.03643441842794418,0.038489597392082214,-0.06333849970549345
1733358324320236500,8.884236572265625,0.011165537136793136,0.04482143076211214,-0.06861497880369424
1733358324330201300,8.894201416015624,0.030480478459596633,0.043568508091568946,-0.07384849554300307
1733358324340165400,8.904165283203126,0.03812660929858684,0.040209553052484984,-0.06431874291449785
1733358324350130400,8.91413037109375,0.03850771757066249,0.029329262597858903,-0.06356178706735373
1733358324360094200,8.92409423828125,0.05696808789074421,0.029065643225610255,-0.04190378974974155
1733358324370059500,8.9340595703125,0.06266425370573997,0.014887772530317306,-0.004207680822908878
1733358324380024300,8.9440244140625,0.0866051012635231,0.02196224096119404,0.01568272230029106
1733358324389988400,8.95398828125,0.08661328456997872,0.022296587482094763,0.051604515030980104
1733358324399953400,8.963953369140626,0.08851999497413635,0.0120145551815629,0.0635083033144474
1733358324409917400,8.97391748046875,0.051966334080696105,0.0008718143984675407,0.07711568064540625
1733358324419882200,8.98388232421875,0.047016602718830104,-0.03145312288403511,0.06699760673493146
1733358324429846300,8.99384619140625,0.05209200628697872,-0.04658201069384813,0.04042553389072418
1733358324439811600,9.0038115234375,0.045803135275840755,-0.06420271531939506,0.024094284553825854
1733358324449776400,9.0137763671875,0.03470423363447189,-0.07152268294394015,0.009041969111561774
1733358324459740400,9.023740478515625,0.03788578628003597,-0.07017448320537806,0.0012456161469221114
1733358324469705200,9.033705322265625,0.01749824728965759,-0.050506198400259016,0.007496785496175289
1733358324479669200,9.043669189453125,0.046533787637948985,-0.04801496610641479,0.008896423161029815
1733358324489634300,9.05363427734375,0.06696633481383324,-0.035894904723763464,0.022703999239206313
1733358324499599400,9.063599365234374,0.0759083506822586,-0.025908055977523325,0.033169863674044606
1733358324509563400,9.0735634765625,0.0979419033139944,-0.00869797797948122,0.003626666064560413
1733358324519528400,9.083528564453125,0.08573942434489727,0.00322246917784214,-0.021277765828371046
1733358324529492500,9.093492431640625,0.08368892155587673,0.012145780345797538,-0.004933657009899616
1733358324539457300,9.103457275390625,0.07554302450120448,0.018247896613180638,-0.0066606269329786295
1733358324549421300,9.11342138671875,0.09061082977354526,0.019737258388102055,-0.017881401388347148
1733358324559386400,9.123386474609376,0.08702420345842837,0.0247480722874403,-0.022254501906037328
1733358324569351400,9.133351318359376,0.06337152519226073,0.027260055108368396,-0.015889935310184955
1733358324579315500,9.1433154296875,0.05782616602480411,0.008212824811041354,-0.02931143468022346
1733358324589280300,9.1532802734375,0.022777064475417136,0.013887947838008403,-0.028817221422493457
1733358324599244300,9.163244384765624,-0.003147650375962257,-0.0018614099577069282,-0.022761866906285285
1733358324609209300,9.173209228515624,0.021731354814767838,0.004323123896121979,-0.022429273951053617
1733358324619173400,9.18317333984375,0.034061844077706335,0.006452537140250206,-0.018632219755649566
1733358324629138400,9.193138427734375,0.03375672365128994,0.007035013203322887,-0.014339198736846446
1733358324639103500,9.203103515625,0.03753507314622402,0.0041398762837052345,-0.010909516549110413
1733358324649067500,9.213067626953125,0.03687982410788536,0.013855506873130797,-0.03936141179054975
1733358324659032300,9.2230322265625,0.018132453539967536,0.03271802825331688,-0.02240969246774912
1733358324668996400,9.232996337890626,0.01741758326888084,0.03226706961542368,-0.004411678962409496
1733358324678961200,9.242961181640625,-0.005469955843687057,0.03428074752539396,-0.00933539910018444
1733358324688925200,9.25292529296875,-0.012640285864472389,0.03309592165499926,-0.021974515920877454
1733358324698890500,9.262890380859375,0.005549450820684433,0.005966214928030967,-0.016985621592402456
1733358324708855300,9.272855224609375,0.025284663382172584,-0.015817454595863818,-0.011541676972806452
1733358324718819300,9.2828193359375,0.07374152803719043,-0.011856734271347522,-0.011925415593385696
1733358324728784400,9.292784423828126,0.09224223036766052,0.011154723481833934,0.0023249358162283898
1733358324738748400,9.30274853515625,0.09825871417820453,0.03401479006558657,0.002496492990851402
1733358324748713500,9.31271337890625,0.10660101058781146,0.051369244970381256,0.023806699784100053
1733358324758678500,9.322678466796875,0.1332984633773565,0.044778468403220174,0.03685585871040821
1733358324768642300,9.332642333984374,0.1052361519753933,0.04342003953158855,0.043503041639924044
1733358324778607400,9.342607421875,0.08202887938916682,0.018789163883030414,0.04515139336884021
1733358324788571400,9.3525712890625,0.04890460842251777,0.004764730183780193,0.0314098682641983
1733358324798536200,9.3625361328125,0.03533434823155403,-0.0035220366463065145,0.018690671944618223
1733358324808500200,9.372500244140625,0.04387421303987503,-0.037789340168237685,-0.017871464516222475
1733358324818465500,9.382465576171874,0.0717646750062704,-0.08202975617200135,-0.023493396051228046
1733358324828430300,9.392430419921874,0.08783201270997523,-0.09920914677083492,-0.028926527015864848
1733358324838394400,9.402394287109376,0.08107493966519833,-0.12957622798383236,-0.0008303133442997932
1733358324848359400,9.412359375,0.0691027623206377,-0.14891834957450628,0.017911504265666008
1733358324858323500,9.422323486328125,0.06704115361571311,-0.12378215475231408,0.021138941879570484
1733358324868288300,9.432288330078125,0.0672159256607294,-0.10321692110747098,0.02489361823797226
1733358324878252300,9.442252197265624,0.06414777026176452,-0.06930325332880019,0.031413083134591575
1733358324888217300,9.45221728515625,0.07811375177204609,-0.03426087378114462,0.038186230531334873
1733358324898182400,9.462182373046875,0.0802308900564909,-0.008694763109087943,0.05283727169632911
1733358324908146400,9.472146484375,0.07316986562907696,0.004891279172897339,0.03779313956052065
1733358324918111200,9.482111328125,0.07205167525410652,0.027649054425954816,0.015145254422724247
1733358324928075300,9.4920751953125,0.0616653057962656,0.023065233767032622,-0.001985328598320484
1733358324938040600,9.50204052734375,0.0865787977784872,0.027038229051232335,-0.023093290817737578
1733358324948005400,9.51200537109375,0.08061725902557372,0.020442484048008917,-0.04022475062161684
1733358324957969400,9.521969482421875,0.07323124042749404,0.018943769922852516,-0.06449702209085226
1733358324967934500,9.5319345703125,0.0561883356899023,0.03575345042645931,-0.07087240234166384
1733358324977898200,9.541898193359375,0.03228723562061787,0.05755699369460344,-0.07611264108270406
1733358324987863300,9.55186328125,0.058035424861311906,0.06582710165083408,-0.05964081423133611
1733358324997827300,9.561827392578126,0.06585808131098747,0.05451689534634351,-0.014623568636178969
1733358325007792400,9.57179248046875,0.08680851488113403,0.041542847482860086,-0.011697159795463085
1733358325017757400,9.58175732421875,0.09388356783390045,0.03744593355804682,-0.02103665054887533
1733358325027721500,9.591721435546875,0.06662614307403564,0.025287585991621016,-0.01858808835297823
1733358325037686300,9.601686279296874,0.08597206405699252,0.021713234636187552,-0.00934971988648176
1733358325047650300,9.611650390625,0.048695934107899665,0.004882803605496883,-0.022149580226838588
1733358325057615400,9.621615478515626,0.029240707531571385,-0.0021168460234999653,-0.0382876450791955
1733358325067579400,9.631579345703125,0.02017886467576027,-0.012061901454627513,-0.010647943003475666
1733358325077544400,9.64154443359375,0.02688333075046539,-0.034490883144736285,0.015963877329230308
1733358325087509500,9.651509521484375,0.05027706581950187,-0.038350773443281645,0.03653291036635637
1733358325097473300,9.661473388671874,0.07274667178094386,-0.03413081766068935,0.06506313154101372
1733358325107438300,9.671438232421876,0.09258066854178905,-0.04343845197111368,0.06951485025286674
1733358325117402400,9.68140234375,0.08643442087173461,-0.038886780016124244,0.06369505805820226
1733358325127367200,9.6913671875,0.0922340470612049,-0.05109101255089044,0.05554302352368831
1733358325137331200,9.701331298828125,0.09129121325314045,-0.028296120157837865,0.012405892586708068
1733358325147296300,9.711296142578124,0.09500351177453994,-0.019374562555551526,0.007618658310174942
1733358325157261000,9.721260986328126,0.08163491163551807,-0.012104863813519478,0.010371171888709068
1733358325167225300,9.731225341796875,0.08002221574187278,0.009356441888213158,0.0037263270467519758
1733358325177190400,9.7411904296875,0.10095511365532875,0.02263005722016096,0.00939765068143606
1733358325187154200,9.751154296875,0.08809621660411357,0.027063071231544018,0.01028437038809061
1733358325197119200,9.761119140625,0.11317571280300616,0.0312923793643713,0.008877426199615
1733358325207084300,9.771084228515624,0.1390858146071434,0.04298252489715814,0.006301438231766224
1733358325217048000,9.781048095703126,0.1332955407679081,0.037080899637937544,0.005485153412818908
1733358325227013400,9.791013427734375,0.12905249637067318,0.03272095086276531,-0.010906009417772292
1733358325236977400,9.800977294921875,0.1046779335707426,0.024804478649795052,-0.011145371131598948
1733358325246942200,9.810942138671875,0.10302841279804706,0.010578092637658118,-0.03637567397803068
1733358325256906200,9.82090625,0.09265314925611019,-0.00621054507791996,-0.03868804257363081
1733358325266871300,9.830871337890626,0.06353460679948329,-0.03318827611356973,-0.0471346761405468
1733358325276836000,9.840836181640626,0.04071253413856029,-0.039650750125944614,-0.05273235001713037
1733358325286800100,9.850800048828125,0.030444238102436065,-0.05394172580689192,-0.06292962664365769
1733358325296765400,9.860765380859375,0.012017770051956176,-0.029827567508816717,-0.07783873422294854
1733358325306729200,9.870729248046874,-0.010730068328976631,0.01608311979472637,-0.09668839612156152
1733358325316694300,9.8806943359375,-0.004460486540198326,0.079417527846992,-0.11537380736917256
1733358325326658300,9.890658203125,-0.002094341930747032,0.10376228003054856,-0.08521218560039996
1733358325336623000,9.900623046875,0.024651041653752325,0.11527823804020881,-0.0406032285451889
1733358325346588200,9.910588134765625,0.04792202712595463,0.11505962685346603,0.021632862876355647
1733358325356552400,9.920552490234375,0.049666824966669076,0.1079264139726758,0.053471477946639055
1733358325366517200,9.930517333984374,0.053473816034197805,0.10666092408150434,0.09843114813566207
1733358325376481300,9.940481201171876,0.02522036597430706,0.07410013221651315,0.10535685574561357
1733358325386446300,9.9504462890625,0.0281073195874691,0.029851532906293866,0.0832958305850625
1733358325396410000,9.96041015625,0.04325871149003505,-0.002310322768986225,0.04604483507722616
1733358325406375200,9.970375244140625,0.043133623805642125,-0.04787146598249674,0.02582856100052595
1733358325416340200,9.98034033203125,0.05323533110320568,-0.10503799905478954,0.013242635671794414
1733358325426304300,9.99030419921875,0.06042378130257129,-0.16341127756834029,-0.0025610826596617698
1733358325436269300,10.000269287109376,0.05405833792388439,-0.18568068478256464,-0.026874855183064934
1733358325446233300,10.0102333984375,0.08117664647400379,-0.22398323516994714,-0.041137189291417596
1733358325456198100,10.0201982421875,0.11332359684109687,-0.22819705347269773,-0.049099254211783405
1733358325466163200,10.0301630859375,0.15609423255324362,-0.2315142151966691,-0.025981997996568678
1733358325476127200,10.040127197265624,0.20283903259336947,-0.23775310958623885,0.01111088434010744
1733358325486092300,10.05009228515625,0.2255038688659668,-0.239464881940186,0.05422083500921726
1733358325496056300,10.060056396484375,0.21107026984393595,-0.18178017021268605,0.06850625773221254
1733358325506021400,10.070021484375,0.18470073383450508,-0.1217576631873846,0.0837353910461068
1733358325515985200,10.079985107421875,0.15679156716763973,-0.12280454189181327,0.08449556176364421
1733358325525950200,10.0899501953125,0.10879004506468773,-0.0902127703666687,0.0944558147639036
1733358325535915300,10.099915283203124,0.014975450813770294,-0.04325695792436599,0.07133300559073687
1733358325545879300,10.10987939453125,-0.09718144033551215,0.043451603713631624,0.02834521999657154
1733358325555844400,10.11984423828125,-0.15829963364303112,0.17356500731408595,-0.028516192649304866
1733358325565808400,10.129808349609375,-0.1799853957504034,0.3415612745851278,0.009856792625784873
1733358325575773200,10.139773193359375,-0.06132160692512989,0.46694121992290016,0.11618220114260912
1733358325585737200,10.1497373046875,0.09881459449529648,0.49333822846114633,0.21513503506481646
1733358325595702300,10.159702392578126,0.18184359083771703,0.433265160292387,0.24350918889492748
1733358325605667300,10.169667236328126,0.18990765482783317,0.30734482446759936,0.19824790541082618
1733358325615631400,10.17963134765625,0.10710720654428005,0.1857575494110584,0.1062353921458125
1733358325625596200,10.18959619140625,-0.04986790049672127,0.06469283692389727,-0.004700725036859512
1733358325635560200,10.199560302734374,-0.19663959343135357,-0.045694998726248735,-0.08584171567559241
1733358325645525200,10.209525146484374,-0.2922083378732204,-0.10313158091157675,-0.16110767680108545
1733358325655489300,10.2194892578125,-0.30888591642975805,-0.11709580885618924,-0.21139029557853936
1733358325665454000,10.2294541015625,-0.2458463996708393,-0.08196341293752193,-0.2264119236215949
1733358325675419400,10.23941943359375,-0.11057692848145961,-0.03750233992040157,-0.17617840468287466
1733358325685383400,10.249383544921875,0.04503507351279259,0.024279577992856502,-0.1544049642920494
1733358325695348200,10.25934814453125,0.14763736985325812,0.03887801218777895,-0.11704729353934526
1733358325705312300,10.269312255859376,0.20218553712069987,0.04585691128969192,-0.10353373197168111
1733358325715277300,10.27927734375,0.22263328186571596,0.04201397212594747,-0.06896481515467166
1733358325725242000,10.2892421875,0.20713643752634525,0.02002893481105566,-0.040244332104921336
1733358325735206400,10.299206298828125,0.21591128013432023,-0.0043473815545439715,0.012536240968108176
1733358325745171200,10.309171142578125,0.21505612460970877,-0.02926233484148979,0.04930734400451183
1733358325755135200,10.31913525390625,0.22273498867452143,-0.03907148893326521,0.09272709127515553
1733358325765100300,10.329100341796876,0.219964354917407,-0.0588657382056117,0.13123363980203867
1733358325775064300,10.339064208984375,0.18921967256367206,-0.09475625901520252,0.15231851340681313
1733358325785029000,10.349029052734375,0.16978665781915186,-0.15986615230739115,0.12595657618194817
1733358325794994400,10.358994384765625,0.15402268697619437,-0.16077216123640536,0.1254185237824917
1733358325804958500,10.36895849609375,0.14630349090099334,-0.18174656020402907,0.1038049501284957
1733358325814923300,10.37892333984375,0.12616437371373176,-0.17404606882929802,0.07860650372505187
1733358325824887300,10.38888720703125,0.11501111153662204,-0.15001783524900675,0.05371843844503164
1733358325834852000,10.39885205078125,0.0922258637547493,-0.12558452799916267,0.03785743696838617
1733358325844816100,10.408816162109375,0.0958200888544321,-0.10509352863430976,0.009286299261450767
1733358325854781200,10.41878125,0.09359189141094684,-0.07010813997089863,-0.017623042713105677
1733358325864746200,10.428746337890624,0.07084463755190372,-0.033625790748000144,-0.05994418109208345
1733358325874710300,10.438710205078126,0.0313531696408987,0.0273120775565505,-0.10028379026502371
1733358325884675300,10.44867529296875,0.013065233278274536,0.09789368025809526,-0.08897767561376094
1733358325894639400,10.458639404296875,0.06816869634091853,0.16030074433237312,-0.08138882791996002
1733358325904604200,10.468604248046875,0.07662555904090404,0.22597674707472323,-0.0854810656696558
1733358325914568200,10.478568115234374,0.030087679749727248,0.2740963425993919,-0.12035276482552289
1733358325924533200,10.488533203125,-0.04587152433693409,0.30067806005477904,-0.13161620937883853
1733358325934498300,10.498498291015625,-0.10206512072384356,0.3054074266642332,-0.11253010837584733
1733358325944462300,10.50846240234375,-0.10567805052399634,0.29463731858581305,-0.09547902033179997
1733358325954427100,10.51842724609375,-0.08121580944061278,0.22061083612740037,-0.044646366456151006
1733358325964391200,10.52839111328125,-0.06496025568842888,0.14942249970436094,-0.0013607669591903686
1733358325974356200,10.538356201171876,-0.03432078727483749,0.06430822152048349,0.027804537248611448
1733358325984321300,10.5483212890625,-0.02295242104232311,-0.021526772153377532,0.006951426573097706
1733358325994285300,10.558285400390625,0.00584931055009365,-0.1129457034394145,-0.06113222183287143
1733358326004250400,10.56825048828125,0.05866378589272499,-0.20803426314890383,-0.12595453035533427
1733358326014214400,10.57821435546875,0.11846212877333163,-0.2869315665140748,-0.1726364942923188
1733358326024179200,10.58817919921875,0.1775841798275709,-0.3155196553558111,-0.19902385821938515
1733358326034143200,10.598143310546876,0.22050854479670523,-0.33757571208029985,-0.19856354723125694
1733358326044108000,10.60810791015625,0.26106325802505015,-0.3484077794790268,-0.17996172261387108
1733358326054073300,10.6180732421875,0.2531657827734947,-0.3466974684298038,-0.1369134390041232
1733358326064037400,10.628037353515625,0.22431378229856488,-0.3248129688799381,-0.0797752552434802
1733358326074002200,10.638002197265624,0.21428572475910185,-0.289413446457684,-0.04300444446802139
1733358326083966200,10.64796630859375,0.21560732875168323,-0.2632142985790968,-0.013657353952527046
1733358326093931300,10.65793115234375,0.21509178044497965,-0.21105361097007988,0.02940612722635269
1733358326103896000,10.66789599609375,0.22924247087240218,-0.1816778788819909,0.06214958218187094
1733358326113860900,10.67786083984375,0.2476940733641386,-0.12936959949582813,0.10210749856084585
1733358326123825700,10.68782568359375,0.2576888131558895,-0.10369476775228977,0.11725684463679789
1733358326133789700,10.697789794921874,0.2311228777915239,-0.08127776876091956,0.1047413541957736
1733358326143755000,10.707755126953124,0.17024024680554867,-0.05206278019249439,0.09238339240401983
1733358326153719000,10.717718994140625,0.10187281302213669,-0.00034486791491508483,0.054313481728732585
1733358326163683800,10.727683837890625,0.03710486503541469,0.05151069926768541,0.03687923958599567
1733358326173649000,10.73764892578125,0.004304419195652008,0.06970511212795973,0.033930326652526856
1733358326183613000,10.747613037109375,-0.013421791630983351,0.08343670036047697,0.042536242434382435
1733358326193577700,10.75757763671875,-0.019900047734379766,0.1309922322615981,0.05373714314550161
1733358326203542000,10.7675419921875,-0.055122167763113974,0.14170827206522227,0.0047530397459864615
1733358326213506800,10.7775068359375,-0.062252750295400616,0.1667693558245897,-0.06363192969411612
1733358326223470800,10.787470947265625,-0.09608779987990855,0.18650310708135365,-0.14041764773279428
1733358326233436000,10.797435791015625,-0.1610100616455078,0.17988515024632215,-0.20864450400173662
1733358326243400700,10.807400634765624,-0.20854981145560741,0.20245587849467991,-0.20008388866633176
1733358326253364700,10.81736474609375,-0.21692133395969868,0.26421383101046086,-0.15443360586464405
1733358326263330000,10.827330078125,-0.1542705242574215,0.2836439231455326,-0.1264049044713378
1733358326273294000,10.837294189453125,-0.07913023533821105,0.2501704003497958,-0.09707359604686498
1733358326283259000,10.8472587890625,-0.018591303223371505,0.21481559385210275,-0.04492722922414541
1733358326293223000,10.857222900390624,0.006789806270599365,0.17238894927203655,-0.01028174003958702
1733358326303188000,10.86718798828125,0.03747545191347599,0.12374796022176741,0.0013464461728930472
1733358326313152800,10.87715283203125,0.01668926899433136,0.05267682043761015,-0.0075868018671870225
1733358326323116800,10.88711669921875,0.009682020580768584,-0.07119008998870849,-0.010609949080646037
1733358326333081900,10.897081787109375,0.044240708264708516,-0.17756372156143188,-0.025917700588703154
1733358326343046000,10.9070458984375,0.08493453770279884,-0.2725374227195978,-0.05470832626521587
1733358326353011000,10.917010986328124,0.14967092150747774,-0.3432484970197081,-0.10061346061080693
1733358326362975000,10.92697509765625,0.19273089555501938,-0.4091153461590409,-0.13218611822128296
1733358326372939800,10.936939697265625,0.19995383254587648,-0.4318266519218683,-0.12533143002092836
1733358326382904800,10.94690478515625,0.22674188622832298,-0.4368678609594702,-0.13334843999892473
1733358326392869000,10.956869140625,0.21780162392556665,-0.3984098277494311,-0.09967296489030122
1733358326402834000,10.966833984375,0.1691962907105684,-0.3329638343706727,-0.06401245344430208
1733358326412798000,10.9767978515625,0.10600129112899302,-0.27276713982224465,-0.028459494026005266
1733358326422762800,10.9867626953125,0.07663900304436683,-0.1455997265458107,0.06684095486849546
1733358326432727800,10.996727783203125,0.13662205484211445,-0.0032826749324798583,0.1783133708849549
1733358326442691800,11.00669189453125,0.2228273431330919,0.13679887271374463,0.24499562806040048
1733358326452657000,11.016656982421875,0.260325006878376,0.2259691482901573,0.24316519776284692
1733358326462621000,11.026620849609374,0.21680793671309948,0.25651918485462666,0.19261516022086142
1733358326472586000,11.0365859375,0.11225333726108074,0.2761956529662013,0.132456459595263
1733358326482550000,11.046550048828125,0.011956979775428771,0.29537410842776296,0.08997399317473173
1733358326492514800,11.056514892578125,0.020748188996315,0.2838756860747933,0.04887245971858501
1733358326502480000,11.06647998046875,0.03334346667528152,0.23449235422462222,0.046914603649079796
1733358326512444000,11.07644384765625,0.035302199527621266,0.18205021932572124,0.04245674745738506
1733358326522409000,11.086408935546874,0.016399346137046814,0.11186989090144633,0.024050153151154517
1733358326532373000,11.096373046875,-0.0666974547445774,0.05103782105892896,-0.03387830420434475
1733358326542337800,11.106337890625,-0.14022504777014255,0.009992401704192161,-0.07131488541215658
1733358326552301800,11.1163017578125,-0.1668225473165512,-0.02196720939725637,-0.14376257424652575
1733358326562267000,11.126266845703125,-0.13941139329969882,-0.0630377631932497,-0.1702911002099514
1733358326572231700,11.136231689453124,-0.09724807583093642,-0.10092588756084442,-0.2157785936653614
1733358326582195700,11.14619580078125,-0.022227613899111747,-0.12199176420420407,-0.22109861964434385
1733358326592161000,11.1561611328125,0.0641442631304264,-0.13306085522919892,-0.19770225422680376
1733358326602125000,11.166125,0.12851006005704402,-0.1276680562749505,-0.15612112056016922
1733358326612089900,11.17608984375,0.19171558103263378,-0.10786825404465197,-0.13561229327768087
1733358326622055000,11.186054931640625,0.2036135240972042,-0.11707213571965694,-0.09946721318513155
1733358326632018700,11.196018798828124,0.16506488999426364,-0.08581307410299778,-0.03375613912940025
1733358326641984000,11.20598388671875,0.10490122093260287,-0.07711363481879234,0.044726445955038066
1733358326651948000,11.215947998046875,0.06795008515417575,-0.040088557021319866,0.06414923156648875
1733358326661912800,11.225912841796875,0.06043780982792377,-0.0031000118419528006,0.06635667848289012
1733358326671876900,11.235876953125,0.032901568126678465,0.04282996468394994,0.10888707569837569
1733358326681842000,11.245842041015624,-0.009796002349257468,0.047725043249130246,0.157132343429327
1733358326691806700,11.255806640625,-0.03033727059662342,0.0872714562177658,0.2232072823613882
1733358326701770800,11.265770751953125,-0.02748889542818069,0.1347267426148057,0.2565697459980845
1733358326711736000,11.275736083984375,0.008996960926055907,0.16538316216319798,0.2575453130319714
1733358326721699800,11.285699951171875,0.03580547287464142,0.1504591492757201,0.22526100002080202
1733358326731665000,11.295664794921874,0.02146364378929138,0.1186550209969282,0.17516776633560657
1733358326741629000,11.30562890625,-0.0004547580301761627,0.061412792339920995,0.09694237088263034
1733358326751593700,11.31559375,-0.018151158240437507,0.005475801062583923,0.04128858046084642
1733358326761558800,11.325558837890625,-0.005813070192933082,-0.05454173752665519,0.019780220746994016
1733358326771522800,11.335522705078125,0.010423194336891173,-0.09324293184280395,0.0147027713522315
1733358326781487900,11.34548779296875,0.018830957198143004,-0.1650955773934722,0.030460312454402446
1733358326791452000,11.355451904296874,0.0321679931551218,-0.2262695925414562,0.04852613049894571
1733358326801417000,11.3654169921875,0.01551321095228195,-0.25100772795677184,0.06673164927512407
1733358326811381800,11.3753818359375,0.022474866658449173,-0.25185645374059673,0.08495265788137912
1733358326821345800,11.385345703125,0.06318740079700946,-0.2568254743248224,0.09035276335924863
1733358326831311000,11.39531103515625,0.13647709341347217,-0.2754591553851962,0.08374766600579023
1733358326841275000,11.40527490234375,0.20131752211451528,-0.27577947338074443,0.07035889986157418
1733358326851240000,11.415239990234374,0.2337602405577898,-0.24213848506361244,0.012802198427915572
1733358326861204000,11.425203857421875,0.23858663780093192,-0.2517006786569953,-0.08397212241142987
1733358326871168800,11.435168701171875,0.2388748070925474,-0.2786158658504486,-0.17361060002148151
1733358326881133800,11.4451337890625,0.23480302760899066,-0.33948213022351265,-0.27150428027957674
1733358326891097900,11.455097900390625,0.20806524280905722,-0.38594782106131315,-0.35751200017184015
1733358326901063000,11.46506298828125,0.16703472876250744,-0.39782355229407546,-0.40115474254339933
1733358326911027000,11.47502685546875,0.14735212317109106,-0.40571313650012014,-0.3878668064251542
1733358326920992000,11.484991943359375,0.1434907715678215,-0.34225217945873737,-0.36858664415478704
1733358326930955800,11.494955810546875,0.15618892509937285,-0.27892770827859636,-0.3047597764104605
1733358326940920800,11.5049208984375,0.19850947895646093,-0.19905688370615243,-0.2611377845659852
1733358326950886000,11.514885986328125,0.22280746938884258,-0.14581366155743597,-0.24501316371709106
1733358326960849700,11.524849609375,0.24364099858105182,-0.07423223416358232,-0.21885522463172674
1733358326970815000,11.53481494140625,0.2296341005384922,0.007333119367063045,-0.2158347077667713
1733358326980779000,11.544779052734375,0.23806582879722116,0.10745558159053326,-0.2143617126047611
1733358326990743800,11.554743896484375,0.24712533356547353,0.1712383179321885,-0.22951310450732706
1733358327000707800,11.564707763671874,0.2082704099923372,0.2060641321197152,-0.19231003979444503
1733358327010673000,11.5746728515625,0.196144503390789,0.2854924736216664,-0.13885112906843422
1733358327020638000,11.584637939453126,0.22257190706729887,0.3483531266823411,-0.0932823870703578
1733358327030602000,11.59460205078125,0.2254641213774681,0.3906313027024269,-0.0512412346765399
1733358327040567000,11.604567138671875,0.18927520214319227,0.4035477751597762,-0.0736231623545289
1733358327050530800,11.61453076171875,0.11696224560439586,0.353853185403347,-0.0599722381427884
1733358327060496000,11.624495849609374,0.028441666108369824,0.2980006575390696,-0.007713643117249012
1733358327070460700,11.634460693359374,-0.06343056190311909,0.2654766905531287,0.04093143758624792
1733358327080424700,11.6444248046875,-0.11969546996057033,0.3055512190490961,0.10851678108125924
1733358327090390000,11.65439013671875,-0.0962251625239849,0.3440019457355141,0.17246406033486128
1733358327100354000,11.66435400390625,0.017111293798685073,0.35579087546765803,0.20211101057976483
1733358327110318600,11.674318603515625,0.09953004928827285,0.32178631453514095,0.2056239871367812
1733358327120282600,11.68428271484375,0.11869769109487532,0.25696809766590595,0.18567483956366776
1733358327130247700,11.69424755859375,0.06721358757317066,0.2100362506210804,0.141484984703362
1733358327140212500,11.70421240234375,0.028354572346806526,0.17924509877711534,0.09277648337483406
1733358327150176500,11.714176513671875,0.0012239888370037077,0.11755436627864838,0.008972995528578758
1733358327160141800,11.724141845703125,-0.04452712399065494,0.031095980009436607,-0.0820908387094736
1733358327170105600,11.734105712890624,-0.048375616112351416,-0.021446400393545628,-0.14858400305360556
1733358327180070700,11.744070556640626,-0.07754325840771198,-0.0754310885593295,-0.19959581288844347
1733358327190034700,11.75403466796875,-0.08079787628948688,-0.07714549126178026,-0.2059095260798931
1733358327199999500,11.76399951171875,-0.0269482126802206,-0.07362403913736343,-0.18542495645582674
1733358327209964500,11.773964599609375,0.06088029289841652,-0.06431465126127005,-0.13305939392447472
1733358327219928800,11.7839287109375,0.11061083075106143,-0.0572103722140193,-0.10367430948615074
1733358327229893600,11.7938935546875,0.11300970858633518,-0.052043783231079575,-0.05264437947273254
1733358327239857700,11.803857666015626,0.12828618817329407,-0.04103402117788792,-0.04505816212743521
1733358327249822700,11.81382275390625,0.10385960292518139,-0.04327449358105659,-0.03269406285583973
1733358327259787500,11.82378759765625,0.07409633282423018,-0.07597703200429677,-0.008047989638149738
1733358327269751600,11.83375146484375,0.038349896660447115,-0.1158668515831232,0.07037585099637508
1733358327279716600,11.843716552734374,0.04409223970472812,-0.15313275239914656,0.07126023261547088
1733358327289680600,11.8536806640625,0.009752747729420662,-0.13367343416959046,0.06628741263896226
1733358327299645700,11.863645751953126,-0.013811083209514618,-0.06934709247052669,0.06446195077747106
1733358327309609700,11.873609619140625,-0.03728022160232067,0.011935936987400054,0.04255027095973491
1733358327319574500,11.883574462890625,-0.033169863674044606,0.06369447353631258,0.06521978340744972
1733358327329539600,11.89353955078125,-0.025348376268148422,0.1278618252813816,0.10747457855194806
1733358327339503600,11.903503662109374,-0.03295885127186775,0.16305647278130053,0.1484998319014907
1733358327349468700,11.91346875,-0.005730068084597587,0.18628040424138306,0.1860524407044053
1733358327359432700,11.9234326171875,0.03663958561122417,0.20483400580286978,0.18985913951098918
1733358327369397800,11.933397705078125,0.04316927964091301,0.19925620567053556,0.18279285438656806
1733358327379361500,11.943361572265625,-0.004627659800648689,0.15541969429254532,0.18829408215135335
1733358327389326600,11.95332666015625,-0.03663666300177574,0.10671791496574878,0.17952391571849582
1733358327399291400,11.96329150390625,-0.040676293781399725,0.03661941960602998,0.19049831419736146
1733358327409255700,11.973255615234375,-0.04929740713238716,0.009999123705923556,0.1799821808800101
1733358327419220700,11.983220703125,-0.023387889850139617,-0.019098960484564304,0.18143033386170862
1733358327429184800,11.993184814453125,-0.0166875154286623,-0.02596007842570543,0.17546353441178797
1733358327439149600,12.003149658203125,-0.048348143583536146,-0.03926262759119272,0.20817425614148377
1733358327449114600,12.013114501953124,-0.04404255534410476,-0.01125555350780487,0.27594986151158807
1733358327459078700,12.02307861328125,0.01738426552116871,0.024415771593153474,0.3123115069642663
1733358327469043700,12.033043701171875,0.05240589454174041,0.041165538603067396,0.2868371662288904
1733358327479007700,12.0430078125,0.05051204361915588,0.049127603523433205,0.2419175357893109
1733358327488972500,12.05297265625,0.056363107734918594,0.044106268230080604,0.17038316240757703
1733358327498936600,12.0629365234375,0.055664604076743125,0.048236792163550854,0.10131284105181694
1733358327508901600,12.072901611328126,0.05830021327733993,0.045560558691620824,0.05788724856227636
1733358327518866400,12.082866455078126,0.07150865441858768,0.022147242139279842,0.05801876598745584
1733358327528830500,12.09283056640625,0.09535013325512409,-0.005245207177102565,0.08661299230903387
1733358327538795800,12.102795654296875,0.12742927908301352,-0.03499298744797706,0.13497194954752922
1733358327548759800,12.112759765625,0.17103402753174304,-0.04533347193747759,0.14734861603975294
1733358327558724600,12.122724609375,0.1687269196331501,-0.03023702509254217,0.15943419063091277
1733358327568688600,12.132688720703126,0.147947166454792,-0.008147942881286143,0.16187223143279553
1733358327578653700,12.14265380859375,0.15347615900933742,-0.015972645157575606,0.1365340842977166
1733358327588618500,12.152618408203125,0.13868074093759059,-0.045375849774479865,0.11162994466573
