time,seconds_elapsed,z,y,x
1733697617943847700,0.02184765625,0.1971259156435728,-0.18511311402767897,-0.3131097446698695
1733697617953800700,0.03180078125,0.33559622870087624,-0.2498820849277079,-0.36530648997295645
1733697617963754800,0.041754638671875,0.18302432505488395,-0.09153583566397427,-0.4732407584585249
1733697617973707800,0.051707763671875,0.01002513493001461,0.04728299857005477,-0.5420489948119968
1733697617983660800,0.061660888671875,-0.1794014583826065,0.18258593363761902,-0.5459116615895182
1733697617993614600,0.071614501953125,-0.3631155192673206,0.24932883495911953,-0.4459047520371154
1733697618003567600,0.081567626953125,-0.40446284417808054,0.1697727754242718,-0.2626973985655233
1733697618013520600,0.091520751953125,-0.2823012763649225,0.07557093542143702,0.014618454069644212
1733697618023474700,0.101474609375,-0.11353870089650153,-0.012544862665981054,0.2933209204913117
1733697618033427700,0.111427734375,0.053608256068825716,-0.08580927471071481,0.5004298306899145
1733697618043380700,0.121380615234375,0.16150515168607235,-0.16153350099772215,0.6313295988950878
1733697618053334800,0.131334716796875,0.19549802218079565,-0.15572525311037896,0.6969906963292509
1733697618063287800,0.141287841796875,0.18788579361140728,-0.09717486446425318,0.6844668033860624
1733697618073240800,0.15124072265625,0.14883154807388782,-0.07025412431284785,0.6259339503966271
1733697618083194600,0.161194580078125,0.13425591023266314,-0.047747839602828024,0.49482817475795743
1733697618093147600,0.171147705078125,0.12518003885149956,-0.05645458541065454,0.3214642429739237
1733697618103101700,0.181101806640625,0.14187223045527933,-0.08602423263564705,0.1713891793786548
1733697618113054700,0.1910546875,0.18857377587556837,-0.0776980105780065,0.03834328425657004
1733697618123007700,0.2010078125,0.2311807454586029,-0.06915186215937137,-0.054800516327004875
1733697618132961800,0.2109619140625,0.2452443421244621,-0.05632394476830959,-0.07993687554597854
1733697618142914800,0.220914794921875,0.19184417584836483,-0.03188625360429287,-0.041672373880352824
1733697618152867800,0.230867919921875,0.13074819437265395,0.02972454552575946,0.03671491586975753
1733697618162822000,0.24082177734375,0.049852702927589414,0.10679039568006991,0.16497467269385233
1733697618172775000,0.25077490234375,0.013333528825640678,0.16543357717618346,0.2841842223010026
1733697618182728000,0.26072802734375,-0.00019756839871406555,0.19337138541564344,0.33487544014565646
1733697618192681700,0.270681640625,-0.004991816937923431,0.18318316887840627,0.3174598661707714
1733697618202634800,0.280634765625,-0.025507950744032858,0.1535401641562581,0.23133966234736142
1733697618212587800,0.290587890625,-0.029669162076711653,0.11121508025452494,0.10847149890111758
1733697618222541800,0.300541748046875,-0.047665422016382214,0.07124576569870114,-0.02891445298558101
1733697618232494800,0.310494873046875,-0.05613689776360988,0.06301306714341044,-0.15008463514121248
1733697618242448000,0.32044775390625,-0.05357727640867233,0.048346097756922245,-0.24901158570349216
1733697618252402000,0.33040185546875,-0.05054010066986084,0.01768251781538129,-0.3351907166399061
1733697618262355000,0.34035498046875,-0.024086393508315086,-0.03224865717589855,-0.3675623426083475
1733697618272308000,0.350307861328125,0.0026046295404434203,-0.05605974087417125,-0.35143878120537847
1733697618282261800,0.36026171875,0.044129649105668065,-0.0300320040397346,-0.3145377681789919
1733697618292214800,0.37021484375,0.057031216254830354,-0.026176059263944625,-0.2613413077814504
1733697618302167600,0.38016748046875,0.040407998234033585,-0.027026392482966184,-0.22800408818386494
1733697618312121900,0.390121826171875,0.023874796584248542,-0.02777443437129259,-0.20744891927530987
1733697618322074600,0.40007470703125,-0.014663316124677658,-0.008503332190215587,-0.17397912280661984
1733697618332029000,0.41002880859375,-0.04819207623898983,0.03041457361653447,-0.13473580270409583
1733697618341981700,0.419981689453125,-0.02519406248927116,0.058827013630419964,-0.11615502087473868
1733697618351934700,0.429934814453125,0.004547580301761627,0.06395356286391615,-0.09522899109348654
1733697618361888800,0.439888671875,0.020408581778407094,0.07339461429566145,-0.04370046390816569
1733697618371841800,0.449841796875,-0.008747370079159737,0.07977540137395263,0.020755769514571875
1733697618381794800,0.459794921875,-0.09186170661747455,0.07052548860013484,0.07486675094114616
1733697618391748600,0.46974853515625,-0.14559855750203132,0.03647679626494646,0.11455589684871956
1733697618401701600,0.47970166015625,-0.13467851955890656,-0.005440437488257885,0.14328783287424593
1733697618411654700,0.489654541015625,-0.0640612610220909,-0.027098727066814897,0.1585712719249539
1733697618421608700,0.499608642578125,0.03361819196343422,-0.05107932211309671,0.19395241844030095
1733697618431561700,0.509561767578125,0.12240998961627482,-0.04804024667814374,0.21495606176871804
1733697618441514800,0.5195146484375,0.15536474923491478,-0.008366261807084083,0.2644352734751068
1733697618451468800,0.52946875,0.15686580144762993,0.014599164847284555,0.30530029476163906
1733697618461421800,0.539421875,0.14554185887873172,0.03853168296813965,0.27844374242024494
1733697618471374800,0.549374755859375,0.09918576589524745,0.07430807587876916,0.23714546254929153
1733697618481328600,0.55932861328125,0.08908172051012515,0.07680544565245509,0.1698579877560027
1733697618491281700,0.56928173828125,0.05848550671637058,0.09583747838065028,0.09075438469639048
1733697618501234700,0.579234619140625,0.044648704543709755,0.07426496738940477,0.027563166240788993
1733697618511188700,0.589188720703125,0.06918342634141444,0.04270926091372967,-0.022867263509519398
1733697618521141800,0.599141845703125,0.09465046055316924,0.03235840116068721,-0.07113803100790828
1733697618531095800,0.609095703125,0.10136720158755778,0.007132628358900547,-0.10884265203475951
1733697618541048800,0.619048828125,0.07947451873123645,-0.005792319665849209,-0.13556063615567981
1733697618551001900,0.629001953125,0.0374573317348957,-0.01617459747046232,-0.18291512905936688
1733697618560955600,0.63895556640625,0.0033668460845947264,0.002943652236461639,-0.24236739844866095
1733697618570908700,0.64890869140625,-0.021440847435593605,0.001655073730647564,-0.2733892903085798
1733697618580861700,0.65886181640625,-0.01853752720952034,-0.02049260680004954,-0.2866358349705115
1733697618590815700,0.668815673828125,-0.0034556934118270873,-0.02387041267007589,-0.299605754648149
1733697618600768800,0.678768798828125,0.007533902636170387,-0.017582272311300037,-0.27714981188587845
1733697618610721800,0.6887216796875,-0.0023410101681947708,0.020840981846302748,-0.26644422041103244
1733697618620675800,0.69867578125,0.011239186894893645,0.06372472254410386,-0.246815317768231
1733697618630629000,0.708629150390625,-0.02450608022511005,0.07811813568621874,-0.2349647575093433
1733697618640582100,0.71858203125,-0.034818215402960775,0.08607216343060135,-0.2432507571544498
1733697618650536000,0.728535888671875,-0.020451836398243904,0.04185293634533882,-0.23429849388664586
1733697618660489000,0.738489013671875,0.0008984101444482803,0.02923661587834358,-0.23646407442269846
1733697618670442000,0.74844189453125,0.017915595918893815,0.005985796411335468,-0.21265333778429776
1733697618680396000,0.75839599609375,0.04571311890482902,0.013482581907510756,-0.1537700456556864
1733697618690349000,0.76834912109375,0.014278700721263885,0.005078326177597046,-0.09676171708609908
1733697618700302000,0.778302001953125,-0.02793254754245281,0.022902736681699752,-0.03465643070368096
1733697618710256000,0.788256103515625,-0.0540577534019947,0.02721972309798002,0.018200349410716445
1733697618720209200,0.798209228515625,-0.05046352830231189,0.04012888903170824,0.08061005296665244
1733697618730163200,0.8081630859375,1.382401867893338,0.1754088816151023,0.29570646392097694
1733697618740116200,0.8181162109375,2.4583698886841536,-0.8397396365538239,-0.6084030429463834
1733697618750069200,0.8280693359375,-1.968248868703842,0.17415902768447994,-0.37925855255573987
1733697618760023000,0.83802294921875,-2.114385186344385,0.34860125622451305,0.19124065699726342
1733697618769976000,0.84797607421875,-2.1172768161326645,0.3605029986813664,0.14220172727112657
1733697618779929000,0.85792919921875,-0.39744858150184154,0.4328597943618893,0.3926571459742263
1733697618789883100,0.867883056640625,0.673222501924634,0.14012801713645456,0.48915239414386447
1733697618799836200,0.877836181640625,1.1347580634117125,-0.13822598290741442,0.6047887614393607
1733697618809789200,0.8877890625,1.0596645362436772,-0.24910072529166935,0.5284094687771052
1733697618819743200,0.8977431640625,0.11326689821779727,-0.054769116541743275,0.20061098128035662
1733697618829696300,0.9076962890625,0.11425298664569854,-0.05849193645715713,0.20806699637472628
1733697618839649300,0.917649169921875,-0.1919499743103981,0.05877133792042732,0.0037932468116108793
1733697618849603000,0.92760302734375,-0.2181184347897768,0.13776567191928624,-0.13894542888891884
1733697618859556000,0.93755615234375,-0.07851531831026076,0.09060440003275871,-0.22349848386030643
1733697618869509000,0.947509033203125,0.06384440340101719,-0.02443681438118219,-0.21030905794678253
1733697618879463200,0.957463134765625,0.1504664557993412,-0.1101791613355279,-0.10600688061956316
1733697618889416200,0.967416259765625,0.1798848579853773,-0.07440525264292955,0.027121738049644045
1733697618899370200,0.977370361328125,0.1359481011033058,-0.0028130115941166875,0.16328224436119199
1733697618909323300,0.9873232421875,0.04808920038640499,0.04154869270175695,0.20045389102250336
1733697618919276300,0.9972763671875,-0.028006781822443007,0.05197042573392391,0.16463771409075706
1733697618929230300,1.007230224609375,-0.024517186141014096,0.06361205594986677,0.08295644256286322
1733697618939183400,1.017183349609375,-0.0024941549032926557,0.05869914946705103,-0.014929910622013267
1733697618949136400,1.027136474609375,0.012975801429152488,0.023716391152143478,-0.11356877637435682
1733697618959090200,1.037090087890625,0.026913141366839408,0.006365151117742061,-0.14462963027148507
1733697618969043200,1.047043212890625,0.021376550027728078,-0.008387889117002487,-0.1390686625429429
1733697618978996000,1.056995849609375,0.015627777242660523,0.002406184358894825,-0.11847623036392033
1733697618988950300,1.0669501953125,0.00651332741677761,0.008295534658432007,-0.09153137868456541
1733697618998903000,1.076903076171875,-0.016462474501132963,0.01804857464879751,-0.09824548937045037
1733697619008856000,1.08685595703125,-0.03380406992435455,-0.015379939961433409,-0.13323433036627247
1733697619018810000,1.09681005859375,0.0142214175760746,-0.05800181485265493,-0.1755944125161506
1733697619028763100,1.10676318359375,0.05208440750241279,-0.07405161689966916,-0.1837868338599801
1733697619038716200,1.116716064453125,0.06336977162659167,-0.07566372827142477,-0.13213590413769707
1733697619048670000,1.126669921875,0.053366848528385157,-0.06707067197114229,-0.08519759081946686
1733697619058623000,1.136623046875,0.03566752570867538,-0.027375205920636653,-0.026803301483928225
1733697619068577000,1.146576904296875,0.0034779052436351775,0.003545417521893978,0.018141757941141257
1733697619078530000,1.156530029296875,-0.005810732105374336,0.04566138871759176,0.022414891515963244
1733697619088483000,1.166483154296875,-0.008423544952273368,0.08305471530556678,0.020839993182325267
1733697619098437000,1.17643701171875,0.009728197810053825,0.09199790021777153,0.009513301533914637
1733697619108390100,1.18639013671875,0.014637012639641761,0.07593816129863262,-0.003103657112253131
1733697619118343200,1.19634326171875,0.022079145339131353,0.06246785435080528,-0.010777958024735561
1733697619128297200,1.206297119140625,0.013491934257745742,0.04068535387068987,-0.00785306300438242
1733697619138250200,1.216250244140625,0.0013128361642360687,0.03985094887316227,0.006782565962348598
1733697619148203000,1.226203125,-0.006373626685142517,0.05320961214005947,0.019120042088499756
1733697619158157000,1.236156982421875,-0.00298632233440876,0.05278232663869858,0.035146673322480636
1733697619168110000,1.246110107421875,0.03318447672128677,0.045559681908786294,0.053858586701238526
1733697619178063000,1.25606298828125,0.028819851770997044,0.039327509520947934,0.06561555495911743
1733697619188017200,1.26601708984375,0.03553834637105465,0.01916179658770561,0.08211969034462235
1733697619197970200,1.27597021484375,0.03631517596244812,-0.004583820658922195,0.09159096338469534
1733697619207923200,1.285923095703125,0.018712299254536626,0.01215133330374956,0.10333092114226892
1733697619217877200,1.295877197265625,-0.020905425384640693,0.02297697096168995,0.1144374855002854
1733697619227830300,1.305830322265625,-0.03991524628102779,0.04428747001588344,0.10245106956781819
1733697619237784000,1.3157841796875,-0.03127016753256321,0.05163491016924381,0.08810160516528412
1733697619247737000,1.325737060546875,-0.03524316281676292,0.031173136898875235,0.06193157378332689
1733697619257690000,1.335690185546875,0.013137713992595671,0.0010597381860017775,0.061371624645893456
1733697619267644200,1.34564404296875,0.06688976244628429,-0.022243103729188442,0.0369958265868132
1733697619277597200,1.35559716796875,0.09479425293803215,-0.028328853383660316,0.031107937592000232
1733697619287550200,1.36555029296875,0.10535539444088936,-0.0030579262658953664,0.025319346536486407
1733697619297504300,1.375504150390625,0.06523556549847126,0.013756430412828922,-0.004439411786128767
1733697619307457300,1.385457275390625,-0.002241056925058365,0.02875818471163511,-0.028039403167122508
1733697619317410300,1.395410400390625,-0.05570084443390369,0.03763736447691917,-0.08210655686841346
1733697619327364000,1.405364013671875,-0.039486207213997836,0.028477321943640707,-0.13554421474384143
1733697619337317000,1.415317138671875,-0.009050736939907074,0.03681874157041311,-0.16102613599747417
1733697619347270100,1.425270263671875,0.014941548544168471,0.0033452187746763227,-0.17992723582237957
1733697619357224200,1.43522412109375,0.03162146518826484,-0.011911094807088374,-0.1732581698546186
1733697619367177200,1.44517724609375,0.033737434428930284,-0.008670797711610794,-0.1776813565917313
1733697619377131300,1.45513134765625,0.04048340155780315,0.0022819734573364257,-0.1568447951922193
1733697619387084300,1.465084228515625,0.017270283752679822,-0.005016659118235111,-0.11792353751775808
1733697619397037000,1.475037109375,0.008557400465011597,0.006285071618854999,-0.06952326188818551
1733697619406991400,1.484991455078125,-0.009216741156578064,0.021780746914446352,-0.03711652122387895
1733697619416944000,1.494944091796875,-0.0016711480826139449,0.03397211996763944,-0.03415139694112586
1733697619426897200,1.504897216796875,0.018226561564207076,0.0453653283804655,-0.04754381406386383
1733697619436851000,1.514850830078125,0.02103109759092331,0.04506634543389082,-0.061119969706074334
1733697619446804000,1.524803955078125,0.05677285757958889,0.057873512297868725,-0.07485701499842107
1733697619456757000,1.534757080078125,0.06128945822119713,0.0489405565187335,-0.06986410208195447
1733697619466711000,1.5447109375,0.05583762255609035,0.042323476466536517,-0.03834319292502478
1733697619476664000,1.5546640625,0.047054596641659736,0.010121581041812896,0.003483590632327832
1733697619486617000,1.5646171875,0.028399580532312393,-0.010292845955491065,0.04091797531647608
1733697619496571100,1.574571044921875,0.014802432334423065,0.010393675981462002,0.102416692374181
1733697619506524200,1.584524169921875,-0.011444938600063324,0.04066051169037819,0.14450478918226434
1733697619516477200,1.594477294921875,-0.01393032567501068,0.04276362144947052,0.1424393080198206
1733697619526431000,1.604430908203125,-0.012627426382899284,0.03572188624441623,0.13920171433808282
1733697619536384000,1.614384033203125,0.001143324816226959,0.005172141940891742,0.15326295465007422
1733697619546338000,1.624338134765625,0.014845686954259871,0.0063648588567972175,0.16670259246500208
1733697619556291000,1.634291015625,0.0323468568533659,0.01350157886892557,0.15735899179205298
1733697619566244000,1.644244140625,0.03893091141879558,0.03573211537748575,0.12558462846386245
1733697619576198100,1.6541982421875,0.04605740229785442,0.07282938162833452,0.06922310989783145
1733697619586151200,1.664151123046875,0.04771744446456432,0.0958349941626191,0.039217007484333585
1733697619596104200,1.674104248046875,0.024274609556794165,0.10217910249233245,-0.007343719534535193
1733697619606058200,1.684058349609375,0.021568857729434964,0.07192629530876875,-0.05068524476159364
1733697619616011300,1.69401123046875,0.026336802783608435,0.01805032821446657,-0.11096464002425782
1733697619625964300,1.70396435546875,0.03772212015092373,-0.041485272076725956,-0.1589945753709413
1733697619635918000,1.71391796875,0.05136135392487049,-0.07168781037777662,-0.17975061888014895
1733697619645871000,1.72387109375,0.04892155955731869,-0.07315846745222807,-0.19489190951380878
1733697619655824000,1.733823974609375,0.04266308368444442,-0.03657704176902771,-0.17642280789799988
1733697619665778200,1.743778076171875,0.006941781961917877,-0.010059913982450961,-0.1434193046336528
1733697619675731000,1.75373095703125,-0.024359949752688407,0.010901917764544486,-0.1226416977466084
1733697619685684000,1.76368408203125,-0.037466099563241005,0.02567395496070385,-0.10206323016085661
1733697619695638000,1.773637939453125,-0.03915712139010429,0.025895488756895065,-0.08599031209973618
1733697619705591000,1.783591064453125,-0.012518705311417579,0.04266191464066505,-0.0742447374521289
1733697619715545000,1.793545166015625,-0.010009352838993072,0.029333938772976395,-0.06105644404976628
1733697619725497900,1.803497802734375,-0.005803717842698097,-0.0033536943420767783,-0.03710176889603026
1733697619735451000,1.813450927734375,-0.005856324812769889,-0.050747605940699575,0.029111416312807704
1733697619745405000,1.823405029296875,-0.053413610279560084,-0.08293108892589807,0.10303076915191486
1733697619755358000,1.83335791015625,-0.05965045884251594,-0.09681640641540289,0.16260933180199935
1733697619765311000,1.84331103515625,-0.016769933015108106,-0.03974310458451509,0.23873139830017462
1733697619775265000,1.85326513671875,0.040219782185554505,0.035488369749486444,0.2988453282022849
1733697619785218000,1.863218017578125,0.06403904919028282,0.0871127585247159,0.3545160332262516
1733697619795171000,1.873171142578125,0.10615209777653217,0.08789104942083359,0.3666765362171456
1733697619805125000,1.883125,0.14000351397395133,0.07168810263872147,0.3239931038644165
1733697619815078100,1.893078125,0.15458032085895537,0.05930412962287664,0.26441956444932146
1733697619825031200,1.90303125,0.15345862335264682,0.054340369735658166,0.17546561677102
1733697619834985000,1.91298486328125,0.08286299212574959,0.0706041067942977,0.08527453764635137
1733697619844938000,1.92293798828125,0.025794950991868973,0.0885439603716135,-0.0031020759348757564
1733697619854892000,1.93289208984375,-0.04097907612025738,0.07858020024001598,-0.09027955199256539
1733697619864845000,1.942844970703125,-0.05592179370820522,0.06112842244058847,-0.14514035627259872
1733697619874798000,1.952798095703125,-0.04919511580169201,0.017289280714094638,-0.18452088375557213
1733697619884752100,1.962752197265625,-0.020881459987163543,-0.02291238129287958,-0.22549166697151957
1733697619894705200,1.972705078125,-0.016150924333930016,-0.03767214352935552,-0.2396836757900193
1733697619904658200,1.982658203125,-0.0019476269364356994,-0.012970540732145309,-0.2512646618599072
1733697619914612000,1.992612060546875,0.022160978403687477,0.021796529005467892,-0.2500712142916396
1733697619924565000,2.00256494140625,0.02306932542026043,0.054953825458884234,-0.23464208315992727
1733697619934518000,2.01251806640625,0.03444938209056854,0.09217764069885015,-0.2176240206026472
1733697619944472000,2.02247216796875,0.02860708580315113,0.09458265601396561,-0.1918211602989584
1733697619954425000,2.032425048828125,0.016128712502121924,0.08579466166347265,-0.16729615617766974
1733697619964378000,2.042378173828125,0.014411971712112425,0.06248246739804744,-0.14837792255487292
1733697619974332200,2.052332275390625,0.03496785300672054,0.033927111782133576,-0.12667330048340372
1733697619984285200,2.06228515625,0.02818739908635616,0.00459755692332983,-0.111101427279599
1733697619994238200,2.07223828125,0.029251228925585744,-0.008975625877082347,-0.09619974495493806
1733697620004192000,2.08219189453125,0.034244799429178234,-0.013759353022277354,-0.04821801439784467
1733697620014145000,2.09214501953125,0.03401391328275204,0.009209434632956981,-0.015481491506611928
1733697620024099000,2.10209912109375,0.021769933259487152,0.01000467666387558,0.021816932472679764
1733697620034052000,2.112052001953125,0.015894319224357602,-0.007103110003471374,0.03337093920409679
1733697620044005000,2.122005126953125,0.005651157629489898,-0.028490765947103498,0.040096228871122
1733697620053959200,2.131959228515625,0.016074351966381073,-0.051337096266448494,0.03404879279988818
1733697620063912200,2.141912109375,0.015445990934967993,-0.04528174175024032,0.01675397739415057
1733697620073865200,2.151865234375,0.025017536878585815,-0.014507833302021026,0.019108577696280552
1733697620083819300,2.1618193359375,0.03429273022413253,0.0214759187489748,0.007055708931479603
1733697620093772300,2.171772216796875,0.028642157116532323,0.04519464798867702,-0.0016003570018801837
1733697620103725000,2.18172509765625,0.02507248193621635,0.05774579426497221,-0.012741636480251327
1733697620113679000,2.19167919921875,0.014627660289406775,0.0535176551759243,-0.007013422426022589
1733697620123631900,2.2016318359375,-0.002179097604751587,0.05841974800378084,-0.017422560838097706
1733697620133585000,2.2115849609375,0.01400748256444931,0.08890753298699855,-0.014427196680707856
1733697620143539000,2.2215390625,0.02610650115907192,0.08472264851778745,-0.008980064590182154
1733697620153492000,2.231491943359375,0.015666355687379837,0.04697919331789016,-0.038277708207070826
1733697620163446000,2.241446044921875,0.021744214296340943,0.018001228375732897,-0.027744865783513522
1733697620173399000,2.25139892578125,0.017421090400218962,0.0050385786890983575,-0.006262704523419961
1733697620183352000,2.26135205078125,0.019257073655724523,0.0067626260027289385,-0.002880048948340118
1733697620193305900,2.271305908203125,0.03023614830970764,0.02648819395303726,0.025369355124095452
1733697620203259000,2.2812587890625,0.037490064960718154,0.028903438401222226,0.01669630152331665
1733697620213212000,2.2912119140625,0.022256839993596074,0.05359627337008714,0.026224930773815137
1733697620223166000,2.301166015625,0.014117372679710386,0.08415478550195693,0.03865087063470855
1733697620233119000,2.311118896484375,0.010983166307210922,0.07777735942453146,0.023672497211489826
1733697620243072000,2.321072021484375,0.022007249146699905,0.0373722837999463,-0.006872187324427068
1733697620253026000,2.331026123046875,0.015663433077931402,-0.01658025566190481,-0.04768083421464543
1733697620262979000,2.34097900390625,0.02986614595353603,-0.039270518636703486,-0.09726507263150996
1733697620272932000,2.35093212890625,0.032658991542458535,-0.05728986719101667,-0.13004986424441448
1733697620282886100,2.36088623046875,0.033298458489775654,-0.02896832033097744,-0.11972008381201885
1733697620292839200,2.370839111328125,0.017398878568410873,-0.0033031331986188885,-0.08095728636858984
1733697620302793000,2.38079296875,-0.0074853873193264,0.009677344405651092,-0.06404424138863105
1733697620312746000,2.39074609375,-0.04077449345886707,0.03429214570224285,-0.036302019653352904
1733697620322699000,2.400698974609375,-0.031799744364619256,0.051449908991158005,-0.008450154397985897
1733697620332653000,2.410653076171875,-0.03695756551921368,0.06557517271637917,-0.0144420974223176
1733697620342606000,2.420606201171875,-0.039461657294631004,0.063980889262259,-0.01748258849622216
1733697620352559000,2.43055908203125,-0.03215279558598995,0.06800181534141302,-0.03320834165406413
1733697620362513200,2.44051318359375,-0.014539397484064102,0.059223757863044735,-0.04280967538116965
1733697620372466200,2.450466064453125,0.006992050844430923,0.03761427586227655,-0.04099533313531428
1733697620382419200,2.460419189453125,0.029014497560262677,0.036489655746519564,-0.035964211666886695
1733697620392373000,2.470373046875,0.04854571198225021,0.03501461475789547,-0.02796397016060073
1733697620402326000,2.480325927734375,0.07426350608468055,0.015225041660666464,-0.0015710464257164857
1733697620412280000,2.490280029296875,0.08641980782449245,0.011522972272336483,0.020134655641275458
1733697620422233000,2.500233154296875,0.07827157268226147,-0.0017936054185032843,0.04821395014408044
1733697620432186000,2.51018603515625,0.08794482543468475,-0.005299567712843418,0.059359919497300864
1733697620442140200,2.52014013671875,0.06752513774037361,-0.014138123206794261,0.06035566166953649
1733697620452093200,2.53009326171875,0.025683307310938833,-0.004485328720510006,0.06694559341990389
1733697620462046200,2.540046142578125,-0.010984919872879981,0.020822423276305197,0.06998407976638991
1733697620472000000,2.55,-0.047072716820240015,0.053531391440331935,0.05474751663128845
1733697620481953000,2.559953125,-0.057522799164056775,0.046669104455411434,0.05214665451708715
1733697620491906000,2.569906005859375,-0.058012628507614135,0.044699265687167644,0.027766748821758662
1733697620501860000,2.579860107421875,-0.026940613895654678,0.011351999619603157,0.01722648799343733
1733697620511813000,2.589813232421875,0.0007224690556526184,-0.033196167159080504,-0.004465177556691924
1733697620521766000,2.599765869140625,0.049395022287964815,-0.0410150242164731,0.011689537036366528
1733697620531720200,2.60972021484375,0.04562427157759666,-0.028340543821454046,0.009672040326159913
1733697620541673000,2.6196728515625,0.05280629203617573,-0.016527356430888176,0.022081077001313676
1733697620551626000,2.6296259765625,0.04526888226866722,0.004800386019051074,0.027544922764622604
1733697620561580000,2.639580078125,0.02274900742471218,0.0161690445125103,0.022953918879665434
1733697620571533000,2.649532958984375,0.029701310780644415,0.02441957098543644,0.004003488603874575
1733697620581486800,2.65948681640625,0.00923603037893772,0.025012276181578634,-0.018564180037716867
1733697620591440000,2.66943994140625,0.013826865300536156,0.025019582705199717,-0.04198177775624208
1733697620601393000,2.679392822265625,0.017070961788296698,0.013804653468728065,-0.06057489847736433
1733697620611347000,2.689346923828125,0.008097381737828254,0.020654373233020305,-0.07752698312634601
1733697620621300000,2.699300048828125,0.011427402943372725,0.03262128988057375,-0.06565296892663464
1733697620631253200,2.709253173828125,-0.003096212449669838,0.043133039283752436,-0.061066033862018955
1733697620641207300,2.719207275390625,-0.001771101325750351,0.056093935404717916,-0.07721126824067905
1733697620651160300,2.729160400390625,-0.012895721930265426,0.04598667514920234,-0.06838680520416238
1733697620661113000,2.739113037109375,-0.0062456163913011545,0.03914426190853119,-0.05322519330168143
1733697620671067100,2.749067138671875,0.013093874850869177,0.03241904530674219,-0.03566210974804126
1733697620681020200,2.759020263671875,0.03437047163546085,0.008215455159544945,-0.004730067579064052
1733697620690973000,2.768972900390625,0.04971592480540275,-0.02652735691964626,0.003181322033412289
1733697620700927200,2.77892724609375,0.04495733210146427,-0.024832243439555167,0.0027094667379627935
1733697620710880000,2.7888798828125,0.038949616119265555,-0.039219665232300756,0.005902808002731763
1733697620720834300,2.798834228515625,0.022527473628520964,-0.027652561557292937,0.007642430769762723
1733697620730787000,2.808787109375,0.020011691415309906,-0.000488075777888298,0.016143954595382093
1733697620740740000,2.818739990234375,0.015078326666355132,0.04876052377671003,0.03597387911095284
1733697620750694100,2.828694091796875,0.05812836384177208,0.06482523113191127,0.045776521263550966
1733697620760647200,2.838647216796875,0.043999300724267956,0.06089578272849321,0.04345291888788342
1733697620770600200,2.84860009765625,0.03598784370422363,0.04550619815587997,0.0555617510570446
1733697620780554000,2.858553955078125,0.02466214756965637,0.03453355324268341,0.047724961050739506
1733697620790507000,2.868507080078125,0.014280454286932944,0.05627221458107233,0.03518995762506966
1733697620800460000,2.8784599609375,-0.01457388427555561,0.054772623673081396,0.002206782479409594
1733697620810414000,2.8884140625,-0.028171032473444938,0.025770401072502135,-0.02604608762516873
1733697620820367000,2.8983671875,-0.021483517533540726,0.010527239233255386,-0.038388913496583695
1733697620830320000,2.908320068359375,-0.014915829581022262,0.017615736189484595,-0.04392197030489333
1733697620840274200,2.918274169921875,-0.00471826069355011,0.004204465952515602,-0.04297905886501539
1733697620850227200,2.928227294921875,0.016855857732892037,0.006622340749204159,-0.039511213791090995
1733697620860181000,2.938180908203125,0.022558453288674354,0.042732057267427445,-0.02038853450422175
1733697620870134000,2.948134033203125,0.03960077350437641,0.07730155860632658,-0.023239078796864487
1733697620880087000,2.958087158203125,0.05775017817914486,0.08931465248316525,-0.0300638376498362
1733697620890041000,2.968041015625,0.04813011691868305,0.08476531861573457,-0.06640694736540317
1733697620899994000,2.977994140625,0.033818098449707026,0.04558072469681501,-0.10765115896156056
1733697620909947100,2.987947021484375,0.050667526441812515,-0.007920856127142906,-0.14777423017383554
1733697620919901200,2.997901123046875,0.05731763198077678,-0.031493454894423484,-0.17185995696187018
1733697620929854200,3.007854248046875,0.06067921736836433,-0.05353635987639427,-0.16467353432280943
1733697620939807200,3.01780712890625,0.040347207957506175,-0.05051701205521822,-0.1187175374396611
1733697620949761300,3.02776123046875,0.01616144572794437,-0.015773030932247637,-0.07554107913929037
1733697620959714000,3.037714111328125,-0.01122983454465866,0.0006473579928278923,-0.03990231373421847
1733697620969668000,3.047668212890625,-0.022591186514496802,0.03775251528918743,-0.0022705661473330107
1733697620979621000,3.05762109375,-0.006222235515713691,0.050396308284997936,0.02648934473050758
1733697620989574100,3.06757421875,0.013386720317602158,0.06891279270648956,0.040262539048469624
1733697620999528200,3.077528076171875,0.02145487596094608,0.07896013946831226,0.04857674187475349
1733697621009481200,3.087481201171875,0.006482932278513908,0.056962534932792186,0.03355691991300555
1733697621019434200,3.097434326171875,0.0433393755108118,0.04433656985461712,0.02444423050265759
1733697621029388300,3.10738818359375,0.035353637453913685,0.05201923331171274,0.03603640468684025
1733697621039341300,3.11734130859375,0.0167658413618803,0.036576749508082866,0.034446174070041156
1733697621049294300,3.12729443359375,0.02215688675045967,0.026979776862263678,0.04353576573259197
1733697621059248000,3.137248046875,0.02500117026567459,0.011110299818217755,0.04409321238568518
1733697621069201200,3.147201171875,0.03995324020385742,0.005466740973293781,0.0392834146508947
1733697621079154200,3.157154296875,0.04249883303344249,0.0011216975063085555,0.016247477760293987
1733697621089108200,3.167108154296875,0.04775193125605583,-0.026914602671563623,0.010013782418938353
1733697621099061200,3.177061279296875,0.0353746802419424,-0.014648703077435493,-0.00634224459536781
1733697621109015300,3.187015380859375,0.017949498188495634,0.011079904679954051,-0.006471980484592495
1733697621118968300,3.19696826171875,-0.02389057867527008,0.03300678206682205,-0.02066372786654392
1733697621128921000,3.206921142578125,-0.03438040850758552,0.06014847149252891,-0.023596086957433725
1733697621138875100,3.216875244140625,-0.03761339907944202,0.07066372802704572,-0.030458271194365807
1733697621148828000,3.226827880859375,-0.026996143475174903,0.056438803319633,-0.0367067964953836
1733697621158781000,3.236781005859375,-0.005822422543168068,0.026007424698770043,-0.02703097047667252
1733697621168735000,3.24673486328125,0.031767595660686494,0.003218669785559177,-0.035503078694851135
1733697621178688000,3.25668798828125,0.0547767153263092,-0.013153203822672366,-0.03902575466197449
1733697621188641000,3.26664111328125,0.04750117136538028,0.0153150580316782,-0.04308572041015141
1733697621198595000,3.276594970703125,0.026195348486304282,0.01670885047763586,-0.04022645852151326
1733697621208548000,3.286548095703125,-0.0030851065337657926,0.017357962036132813,-0.04085717590679414
1733697621218502100,3.296502197265625,-0.01389116270840168,0.031327742938697334,-0.022458710108092052
1733697621228455200,3.306455078125,-0.015184125128388404,0.051067923936247824,0.0004679029228282161
1733697621238408200,3.316408203125,-0.016241525226831435,0.03932107978016138,0.0029959235631045883
1733697621248362000,3.326362060546875,-0.01390460671186447,0.04017389721721411,0.0014379078656085766
1733697621258315000,3.33631494140625,0.0015858078867197036,0.04467763837724924,-0.005869599852873943
1733697621268268000,3.34626806640625,0.034843934366106985,0.018543664689362048,-0.007239910958544351
1733697621278222000,3.35622216796875,0.06564297725558281,0.014393559272587298,0.008686027246783487
1733697621288175000,3.366175048828125,0.0800736536681652,0.002277589543163776,0.009428899769647978
1733697621298128100,3.376128173828125,0.09052022888064384,0.0017684709772467612,0.005204034916497766
1733697621308082200,3.386082275390625,0.08545534670650959,-0.018231822261214257,-0.00987628277754411
1733697621318035200,3.39603515625,0.06891220818459987,-0.02404226210564375,-0.017787069601821713
1733697621327988200,3.40598828125,0.05030278478264808,-0.028171032473444938,-0.02202904085339978
1733697621337942000,3.41594189453125,0.020798457878828048,-0.01789572217464447,-0.02477564984753262
1733697621347895000,3.42589501953125,-0.019544658425450324,-0.000048807577788829804,-0.02053951468169689
1733697621357849000,3.43584912109375,-0.024792495951056478,0.037214170628786084,-0.012406513641215861
1733697621367802000,3.445802001953125,-0.04362579123675823,0.0638499563589692,0.0091456030159723
1733697621377755100,3.455755126953125,-0.025713702449202538,0.07996025642156601,0.002398585574328899
1733697621387709200,3.465709228515625,0.01402443369925022,0.06159516316950321,0.010629996354831382
1733697621397662200,3.475662109375,0.03106266226172447,0.02720569457262754,0.023983462856803087
1733697621407615200,3.485615234375,0.03995557829141617,-0.011678455094993113,-0.0013470717939781025
1733697621417569300,3.4955693359375,0.045755789002776145,-0.017972002281248567,-0.00614020152175799
1733697621427522300,3.505522216796875,0.05438800826966762,0.02170972750484943,-0.034687191168125714
1733697621437475300,3.515475341796875,0.03292261091470718,0.05800444520115852,-0.07160758474841714
1733697621447429000,3.52542919921875,0.015178864431381224,0.06037760407328605,-0.07222404527948237
1733697621457382100,3.535382080078125,0.0055073652446269985,0.0576741903334856,-0.0638916629091138
1733697621467336200,3.545336181640625,0.02190904946923256,0.0055830608293414115,-0.03915613500941544
1733697621477289200,3.555289306640625,0.02139525472819805,-0.004733750523626804,-0.0146507854366675
1733697621487242200,3.5652421875,0.03062076371312141,0.013645078992843626,0.002513229496520944
1733697621497196300,3.5751962890625,0.03286123611629009,0.008955752132833004,0.0008553016550838947
1733697621507149300,3.5851494140625,0.025877953100204465,0.006602467004954814,-0.0072015106103383
1733697621517102300,3.595102294921875,-0.006364274334907531,0.004129647150635719,-0.00603317008386366
1733697621527056100,3.60505615234375,-0.04316869511902332,0.009558394201099872,0.022689833716535938
1733697621537009200,3.615009033203125,-0.03691255733370781,0.03460778752267361,0.056844379312684754
1733697621546962200,3.624962158203125,-0.0051256724506616586,0.06502016918212175,0.059422888031182806
1733697621556916200,3.634916259765625,0.036838907575607295,0.07619038249403239,0.0693942652136553
1733697621566869200,3.644869140625,0.06443769311904907,0.08711655791699886,0.0512956134785898
1733697621576822000,3.654822021484375,0.05581248811483383,0.08268558973222971,0.04190327829308808
1733697621586776300,3.6647763671875,0.049230771636962885,0.02559592128843069,-0.030589619656186548
1733697621596729000,3.67472900390625,0.08021393892168999,-0.018241759133338926,-0.06720297484761104
1733697621606683100,3.68468310546875,0.08057692701518535,-0.054557519617676735,-0.11762333986163138
1733697621616636200,3.69463623046875,0.0711550186753273,-0.07150865441858768,-0.15424264986980707
1733697621626589200,3.704589111328125,0.052392450538277624,-0.04722264668494463,-0.1700302390503697
1733697621636543000,3.71454296875,0.021707389417290685,-0.037815935914218425,-0.13400673037772065
1733697621646496000,3.72449609375,-0.021996143230795857,-0.0025388708278536796,-0.09182413281975313
1733697621656449000,3.734448974609375,-0.05094634338319301,0.02667377965301275,-0.02945092534930445
1733697621666403000,3.744403076171875,-0.056795069411396976,0.04455985721647739,0.00580160808400251
1733697621676356000,3.754356201171875,-0.04070084370076656,0.06698620855808257,0.03360649239248596
1733697621686309000,3.76430908203125,-0.0071545479297637935,0.08678367270082235,0.04152880982435308
1733697621696263200,3.77426318359375,0.006601590222120285,0.08189473161548376,0.030642043963167814
1733697621706216200,3.78421630859375,0.01364975516796112,0.07332739427834749,0.05248603797270916
1733697621716170000,3.794169921875,0.019112112227082253,0.0573757919088006,0.07862774744248018
1733697621726123000,3.804123046875,0.03435293597877025,0.055172144384682174,0.07901752307820134
1733697621736076000,3.814075927734375,0.027937223717570302,0.02022416512221098,0.084831488320278
1733697621746030000,3.824030029296875,0.03394026352465153,0.01897796445339918,0.08107829153290949
1733697621755983000,3.833983154296875,0.049804187610745426,0.02500292383134365,0.06319483518479392
1733697621765936000,3.84393603515625,0.02177344039082527,0.016142156505584714,0.059744183274265374
1733697621775890200,3.85389013671875,0.020659926190972327,0.005573708479106426,0.04687623526691459
1733697621785843200,3.86384326171875,0.01773848578631878,0.009429799385368823,0.021552491116523742
1733697621795796200,3.873796142578125,-0.004638181194663048,0.0014718261182308195,-0.007460380742233246
1733697621805750000,3.88375,-0.003674889120459556,0.016560381917655468,-0.029254407263360916
1733697621815703000,3.893703125,0.008369184416532517,0.03833236100375652,-0.02750442179087549
1733697621825656000,3.903656005859375,-0.0018605331748723982,0.049076750119030475,-0.04613195623825304
1733697621835610000,3.913610107421875,0.014395020577311514,0.03975187241286039,-0.04898749179984443
1733697621845563100,3.923563232421875,0.02706687062382698,0.017203063735365866,-0.0499678126406623
1733697621855517200,3.93351708984375,0.046187166157364845,-0.012898352278769015,-0.07088309726561419
1733697621865470200,3.94347021484375,0.04406652074158191,-0.03002309008091688,-0.07735156262735836
1733697621875423000,3.953423095703125,0.047834933364391326,-0.012493278609216212,-0.09149281850615516
1733697621885377300,3.963377197265625,0.056710898259282105,0.007488602189719676,-0.09793072433285414
1733697621895330000,3.973330078125,0.047639703053236004,0.016937690797448158,-0.10501544929626397
1733697621905283000,3.983282958984375,0.008922142124176025,0.031358138076961035,-0.08942939230347983
1733697621915236900,3.99323681640625,0.010857494100928306,0.04204173691570758,-0.06628478229045867
1733697621925190000,4.00318994140625,-0.00461713840663433,0.03225859404802322,-0.02828566269590519
1733697621935143000,4.013142822265625,-0.019414310044050215,0.03740472476482391,-0.0207033086749725
1733697621945097000,4.023096923828125,-0.020516718327999114,0.03818067757338285,-0.0043712921530939634
1733697621955050000,4.033050048828125,-0.012827917391061781,0.043887364782392975,-0.0073679258189629756
1733697621965004000,4.043004150390625,0.009387421548366547,0.04370850108414888,-0.020982290013134477
1733697621974957000,4.05295703125,0.014749240842461585,0.03583089957684278,-0.005206044210493564
1733697621984910000,4.06291015625,0.030948680493235587,0.019039046990871427,0.011255261246860026
1733697621994863900,4.07286376953125,0.0497574258595705,0.00785831228494644,0.031050697829294947
1733697622004817000,4.08281689453125,0.04898702600896358,0.007236380994319915,0.047880398207623506
1733697622014770000,4.09277001953125,0.04106207822859287,0.014762392584979533,0.049827605018951
1733697622024724000,4.102723876953125,0.02458382163643837,0.02823006918430328,0.037471433325484395
1733697622034677000,4.112677001953125,0.014355273088812827,0.022091128037869927,0.035856691605225206
1733697622044630000,4.122630126953125,-0.0021826047360897064,0.023678104968369005,0.018469978398643432
1733697622054584000,4.132583984375,0.0008691840499639511,0.008855798889696597,0.019159540698537602
1733697622064537000,4.142537109375,0.011154431220889091,0.0008969488397240638,0.01874242039816454
1733697622074491100,4.1524912109375,0.03720657184422016,0.004749240353703499,0.05274968474442139
1733697622084444200,4.162444091796875,0.04295709819495678,0.0024856793358922005,0.053208918020315465
1733697622094397200,4.172397216796875,0.056412207573652264,0.008542787417769431,0.065845788084995
1733697622104351000,4.18235107421875,0.062433952081203455,0.02823942153453827,0.05659321756321005
1733697622114304000,4.192303955078125,0.04749766423404216,0.016559212873876093,0.02386180010535754
1733697622124257000,4.202257080078125,0.023624621215462684,0.010550912369787693,-0.0018702508512884377
1733697622134211000,4.212211181640625,-0.006475333493947982,0.018626959058642385,-0.037114527912903574
1733697622144164000,4.2221640625,-0.020893150424957273,0.021546645897626875,-0.04292821916034445
1733697622154117000,4.2321171875,-0.011294131952524185,0.043561786089837545,-0.06671657043700106
1733697622164071200,4.2420712890625,0.0032049335211515426,0.04458645296245813,-0.0913842526983004
1733697622174024200,4.252024169921875,0.0006605097353458404,0.04655979886204004,-0.08664135988699272
1733697622183978000,4.26197802734375,-0.003855506384372711,0.019253566524386406,-0.09671251678266563
1733697622193931000,4.271930908203125,-0.00032207156121730803,0.025235855804383752,-0.07942866116235964
1733697622203884000,4.281884033203125,0.008096797215938568,0.03960457289665937,-0.061278854628792026
1733697622213838000,4.291838134765625,-0.01027472577691078,0.027163316735625265,-0.04281819204776548
1733697622223791000,4.301791015625,-0.003769581666588783,0.011120528951287269,-0.03280817248849198
1733697622233744100,4.311744140625,0.01791442687511444,-0.009045476242899895,0.0076217361832503225
1733697622243698200,4.3216982421875,0.021569442251324653,0.0001949380502104759,0.04979827845976688
1733697622253651200,4.331651123046875,0.04710720361173153,0.014347674304246901,0.08492368751522153
1733697622263604200,4.341604248046875,0.05752689081728458,0.031031974862515924,0.10673897602008656
1733697622273558000,4.35155810546875,0.06344049877524376,0.06536123770475387,0.08517234678035601
1733697622283511000,4.361510986328125,0.049341830796003336,0.09982406379878521,0.048266712377779186
1733697622293465000,4.371465087890625,0.03977320746183395,0.07375000360459089,0.001532945188321173
1733697622303418000,4.381418212890625,0.03312193287909031,0.036058863113820554,-0.07213530755010433
1733697622313371000,4.391370849609375,0.03531447448730469,-0.023469138392806052,-0.12857268609763123
1733697622323325200,4.4013251953125,0.041803836506605144,-0.06596154168546199,-0.16184908801922573
1733697622333278000,4.41127783203125,0.04605915586352348,-0.09892185426205397,-0.1514460414212197
1733697622343231000,4.42123095703125,0.020677461847662924,-0.0776642544388771,-0.10557448968482203
1733697622353185300,4.431185302734375,-0.007826163581013679,-0.03882598973959684,-0.0534277210033033
1733697622363138000,4.441137939453125,-0.03279460062086582,0.025075404545664787,-0.007658405798673629
1733697622373091000,4.451091064453125,-0.03946750251352787,0.07249591189026833,0.03621900384528562
1733697622383044900,4.461044921875,-0.04055705131590366,0.09023644350320101,0.06421292618615553
1733697622392998000,4.470997802734375,-0.031816110977530475,0.09858546191453933,0.06739283486390486
1733697622402951000,4.480950927734375,-0.0027601123631000517,0.09525573296993971,0.030109453190118072
1733697622412905000,4.490905029296875,0.0068096800148487084,0.0803916335761547,0.00021121333157643674
1733697622422858000,4.50085791015625,0.023864275190234183,0.04876227734237909,-0.009996657754201442
1733697622432812000,4.51081201171875,0.03480009522438049,0.048347266800701616,-0.02254861688124947
1733697622442765000,4.52076513671875,0.06326748029589653,0.03989829514622688,-0.019860893900925294
1733697622452718000,4.530718017578125,0.07173954056501389,0.02687427066117525,0.0038899109774734823
1733697622462672000,4.540671875,0.04135317012965679,0.00782177966684103,0.022931999308802187
1733697622472625000,4.550625,0.05696048910617828,-0.008584872993826865,0.03895263006025925
1733697622482578000,4.560577880859375,0.061571197772026055,-0.011445230861008166,0.06412320207608864
1733697622492532000,4.570531982421875,0.0434744000673294,-0.03771159875690937,0.07489549297844059
1733697622502485000,4.580485107421875,0.021718495333194733,-0.027684418000280854,0.06667207370814866
1733697622512439000,4.59043896484375,0.012578911066055297,-0.0034118542701005936,0.030049850223679092
1733697622522392000,4.60039208984375,0.0003419453054666519,0.027733810099959372,0.030194683788157997
1733697622532345000,4.610344970703125,-0.021630232527852056,0.05276011480689048,0.015914969286741687
1733697622542299100,4.620299072265625,-0.023877134671807288,0.0809951524272561,0.010595719625893979
1733697622552252200,4.630252197265625,-0.014727613532543182,0.07091244209110736,0.025809098248230293
1733697622562205200,4.640205078125,-0.00019055413603782652,0.06541998215466738,0.015689426035713404
1733697622572159000,4.650158935546875,0.01992868930697441,0.037872634537518025,0.009059952292824164
1733697622582112000,4.660112060546875,0.03888824132084846,0.007795476181805133,-0.026382769950339568
1733697622592065000,4.67006494140625,0.05897007536292076,-0.0013178046002984046,-0.055254452373273664
1733697622602019000,4.68001904296875,0.041437925803661346,-0.011707681189477443,-0.06391327651930041
1733697622611972000,4.68997216796875,0.021529694762825964,0.0030897827088832855,-0.07754172403775154
1733697622621925000,4.699925048828125,0.027936639195680617,0.022270283997058868,-0.05713905597690027
1733697622631879000,4.70987890625,0.019489128845930098,0.026009762786328793,-0.05379959565615281
1733697622641832000,4.71983203125,0.012196049228310584,0.007304477794468403,-0.058340440256451256
1733697622651785700,4.72978564453125,0.006793313401937485,0.003015256167948246,-0.040595542995654973
1733697622661738800,4.73973876953125,0.0014916998624801634,0.007732932339608669,-0.07216734208960551
1733697622671691800,4.74969189453125,0.016828385204076767,0.023565584504604338,-0.06965682057340164
1733697622681645800,4.759645751953125,0.008295534658432007,0.013671674738824366,-0.07779820128316059
1733697622691598800,4.769598876953125,0.011613865426182746,0.038217502452433105,-0.06060099189984612
1733697622701551900,4.7795517578125,0.01777940231859684,0.04057926314771175,-0.05257130966994446
1733697622711506000,4.789505859375,0.02271802776455879,0.03674830668270588,-0.028856293057557193
1733697622721459000,4.799458984375,0.01235270109474659,0.01929419079571962,-0.013835423066327348
1733697622731411700,4.80941162109375,0.0067763622671365735,0.025039748710393904,0.014405057914135978
1733697622741366000,4.819365966796875,-0.002118307328224182,0.012800737123191356,0.03658095989231951
1733697622751318800,4.82931884765625,0.004960252755880356,0.030213351956009864,0.03355912785311229
1733697622761272800,4.83927294921875,0.007566051340103149,0.02200695688575506,0.05398320859475061
1733697622771225600,4.8492255859375,0.015575170272588729,0.014648703077435493,0.04906075796545483
1733697622781178600,4.8591787109375,0.012694646400213241,0.012852467310428618,0.03627880774112418
1733697622791133000,4.8691328125,0.03064356006681919,0.0034632921963930127,0.031879924328206105
1733697622801085700,4.879085693359375,0.03511164539158344,0.014928396801650524,0.029809721324872224
1733697622811038700,4.889038818359375,0.045558805125951764,0.02075344969332218,0.015631202175607904
1733697622820992800,4.89899267578125,0.043321839854121205,0.03334317441433668,0.00801087249815464
1733697622830945800,4.90894580078125,0.03811842599213123,0.013673428304493427,-0.0008290712352842092
1733697622840899600,4.918899658203125,0.021703882285952568,0.0012862404182553292,-0.00641263438812457
1733697622850852600,4.9288525390625,0.0021370120286941527,-0.0034539398461580274,-0.022088356125471182
1733697622860805600,4.9388056640625,0.0024538228929042814,0.012060440149903297,-0.04410362418184522
1733697622870759700,4.948759765625,0.027728549402952194,0.04009469450116157,-0.036205509609472934
1733697622880712700,4.958712646484375,0.021862872239947317,0.0491734884917736,-0.04586474296969827
1733697622890665700,4.968665771484375,0.03787701845169067,0.036574119159579276,-0.029709315990586762
1733697622900619800,4.978619873046875,0.018904606956243512,0.034032910244166846,-0.028667099761543795
1733697622910572800,4.98857275390625,-0.003989946419000625,0.04717062423676252,-0.008128553194226697
1733697622920525800,4.99852587890625,-0.003887655088305473,0.05988777472972869,0.012446772586368024
1733697622930479900,5.00847998046875,-0.011470657563209533,0.045561727735400195,-0.006510605736728757
1733697622940433000,5.018432861328125,-0.00783785401880741,0.021809388487040997,-0.017910106893023477
1733697622950386700,5.02838671875,-0.022953590086102486,0.006400514692068099,-0.02772965451464988
1733697622960339700,5.038339599609375,-0.028778935238718984,-0.0006128712013363837,-0.017970586642296983
1733697622970292700,5.048292724609375,-0.012880524361133575,0.0028258710756897923,-0.03615322686638683
1733697622980246800,5.058246826171875,0.02104980229139328,0.007443594004213809,-0.03588785392846912
1733697622990199800,5.06819970703125,0.08112053237259388,0.014538228440284727,-0.025840644163964314
1733697623000152800,5.07815283203125,0.10977730253636836,0.049234863290190695,0.014409012570045888
1733697623010107000,5.08810693359375,0.10681962177455424,0.06564999151825904,0.05464754512184299
1733697623020060000,5.098059814453125,0.09727437931597233,0.06972644717693328,0.08096252879928797
1733697623030013000,5.108012939453125,0.04557926339209079,0.049372225934267044,0.06843838012777269
1733697623039966700,5.117966796875,0.014402619361877441,0.0016807926937937735,0.029944636283535508
1733697623049919700,5.127919677734375,0.015967968982458114,-0.03514583992213011,-0.03872637442317791
1733697623059873800,5.137873779296875,0.012509352961182593,-0.05875672487318515,-0.08892510517630725
1733697623069826800,5.147826904296875,0.025932898157835005,-0.07088993799835443,-0.14189737402969038
1733697623079779800,5.15777978515625,0.023934417816996574,-0.06353752940893173,-0.13839944891133346
1733697623089734000,5.16773388671875,0.01497778890132904,-0.04724953469187021,-0.13808616344477048
1733697623099687000,5.17768701171875,-0.014434183543920516,-0.008313362576067447,-0.10845994546064175
1733697623109640000,5.187639892578125,-0.023235914158821105,0.04491115487217903,-0.09909963111490942
1733697623119594000,5.197593994140625,-0.019610709398984908,0.08408961131125688,-0.07739144711317494
1733697623129547000,5.207547119140625,-0.03210311122536659,0.11136895564198493,-0.04370606253189035
1733697623139499800,5.217499755859375,-0.01966682350039482,0.12333090385347605,-0.01572425075392239
1733697623149453800,5.227453857421875,-0.0016734861701726913,0.12361088983863591,0.013985846121376379
1733697623159406800,5.23740673828125,0.025951602858304976,0.0923386764794588,0.055150909800408404
1733697623169361000,5.24736083984375,0.02269756949841976,0.08576572782993316,0.062083266346855084
1733697623179314000,5.25731396484375,0.014710077875852583,0.08485387368202209,0.0756836020156741
1733697623189267000,5.267266845703125,-0.0022907412856817246,0.04605623325407505,0.06223771712305024
1733697623199221000,5.277220947265625,-0.016835399466753005,0.0242012520596385,0.04771736226617358
1733697623209174000,5.287174072265625,-0.007913841864466666,0.02103752733170986,0.06210058280783705
1733697623219126800,5.297126708984375,0.030539515170454976,-0.016514204688370226,0.0680662680129055
1733697623229080800,5.307080810546875,0.06053600950539112,-0.051092181594669814,0.06847163394340314
1733697623239033600,5.31703369140625,0.07013268989026546,-0.04840922612100839,0.0638956312647555
1733697623248986600,5.326986572265625,0.06728489924371242,-0.03148994776308536,0.05888839756199159
1733697623258940700,5.336940673828125,0.06212064834833145,-0.006782499746978282,0.04267368727684952
1733697623268893700,5.346893798828125,0.041972763332724566,0.016769933015108106,0.014579281969880684
1733697623278847700,5.35684765625,0.0464373415261507,0.021562720249593256,-0.019571829560166225
1733697623288800800,5.36680078125,0.025528993532061575,0.022269407214224338,-0.04285024028699845
1733697623298753800,5.37675390625,0.022961773392558095,0.019416355870664117,-0.07108512264373712
1733697623308707800,5.386707763671875,0.01890343791246414,-0.010579261681437491,-0.10314202924035488
1733697623318660900,5.396660888671875,0.014608955588936805,-0.017502338942885397,-0.108069101245841
1733697623328613600,5.406613525390625,0.01621639078557491,-0.010480769743025302,-0.08878218044112436
1733697623338567700,5.416567626953125,0.015338438907265663,-0.009240122032165527,-0.06143686733525246
1733697623348520700,5.426520751953125,-0.00037350948750972747,0.004613631275296211,-0.04074828130537644
1733697623358474800,5.436474853515625,0.0010626607954502105,0.03707330085337162,-0.017395691097481174
1733697623368427800,5.446427734375,-0.0047451487004756925,0.059274319006502624,-0.01307150775543414
1733697623378380800,5.456380859375,0.002088496711850166,0.03554039219766855,-0.0007292549894656985
1733697623388334800,5.4663349609375,0.014133154770731925,0.04725304182320833,0.008633927166787908
1733697623398288000,5.476287841796875,0.019330723413825034,0.04601648576557636,-0.0009581135755870491
1733697623408241000,5.486240966796875,0.0507815082103014,0.03378478070199489,-0.005049036151031032
1733697623418194700,5.496194580078125,0.03555822011530399,0.026608313201367854,-0.004500297960778698
1733697623428147700,5.506147705078125,0.03402560372054576,0.028873627784848213,-0.0016061291555408386
1733697623438100700,5.516100830078125,0.024399112719297407,0.028763153147697448,-0.006891421747859567
1733697623448054800,5.5260546875,0.016941782450675964,0.02142360403984785,-0.00851867588981986
1733697623458007800,5.5360078125,0.005406827479600906,0.02423778467774391,-0.02192890494717285
1733697623467961900,5.5459619140625,-0.005541267514228821,0.023953122517466542,0.005112657705461606
1733697623477915000,5.555914794921875,0.004774959316849708,0.025410043327510356,-0.00411254075220786
1733697623487868000,5.565867919921875,0.005851064115762711,0.007582417953014373,-0.019433891527354717
1733697623497821700,5.57582177734375,0.007326981887221336,-0.0094046649441123,-0.014375028102053329
1733697623507774700,5.585774658203125,0.009724690678715705,-0.0041822541207075115,-0.0007426259276922791
1733697623517727700,5.595727783203125,0.02214168918132782,0.02366962940096855,0.022039123855996875
1733697623527681800,5.605681884765625,0.03696457978188991,0.026222821015119552,0.025828962859325108
1733697623537634800,5.615634765625,0.03326572526395321,0.03318856837451458,0.011335222014738246
1733697623547587800,5.625587890625,0.023885902500152587,0.020323241582512853,0.00418811760591343
1733697623557542000,5.6355419921875,0.03739011171758175,0.002585340318083763,0.011958094020280986
1733697623567495000,5.645494873046875,0.02817044795155525,-0.0025175357788801193,0.0027275983329862353
1733697623577449000,5.655448974609375,0.03464578144550323,0.030108722537755966,0.0023333931173197923
1733697623587402000,5.665402099609375,0.041592239582538604,0.026397008538246152,0.00121519360919483
1733697623597355000,5.67535498046875,0.026278935116529463,0.04543839361667633,-0.025032405654154717
1733697623607308800,5.685308837890625,0.03448679149150848,0.0139338328063488,-0.010114639844372868
1733697623617261800,5.69526171875,0.016235095486044883,0.008678104235231876,0.0173047248783987
1733697623627214800,5.70521484375,0.00684533585011959,0.016882745739817618,0.010860170115204527
1733697623637168600,5.715168701171875,0.012298340559005737,0.01042640920728445,0.017126080375863238
1733697623647121700,5.72512158203125,0.0014788403809070586,-0.010670739357173442,0.017830849378043783
1733697623657074700,5.73507470703125,0.002343348255753517,-0.02833645216822624,0.015953292003134265
1733697623667028700,5.74502880859375,-0.003674889120459556,-0.021449030742049215,0.030337453259713945
1733697623676981800,5.754981689453125,0.017315291938185692,-0.01177577798962593,0.04475931617817841
1733697623686935600,5.764935546875,0.021671733582019806,0.03728255968987942,0.048285681939730415
1733697623696888600,5.774888671875,0.040977907076478005,0.05594838945418596,0.038907621874753384
1733697623706841600,5.784841552734375,0.04368248986005783,0.07674830863773822,0.03522327993935905
1733697623716795600,5.794795654296875,0.02264262444078922,0.11184387967735528,0.013106999193923547
1733697623726748700,5.804748779296875,0.011958733341097831,0.10558423476070165,-0.02686154817692004
1733697623736701700,5.81470166015625,0.024319033220410347,0.06329144569337368,-0.06774776751510798
1733697623746655700,5.82465576171875,0.03937164092361927,-0.0016702712997794151,-0.10726887251255102
1733697623756608800,5.83460888671875,0.07021627652049064,-0.0707493604838848,-0.148552968594525
1733697623766562800,5.844562744140625,0.08026128519475459,-0.09480302076637745,-0.1672357677599415
1733697623776515800,5.854515869140625,0.06011047756969928,-0.09249211347550153,-0.15507950255274772
1733697623786468900,5.86446875,0.033897593426704405,-0.06849485955536365,-0.1294259327929467
1733697623796422700,5.874422607421875,0.0039174657046794886,-0.012568974193930625,-0.0781410325046163
1733697623806375700,5.884375732421875,-0.05354162057340145,0.042482174159586425,-0.02500009255344048
1733697623816328400,5.894328369140625,-0.04710486552417278,0.07158084287196398,0.004938643712271005
1733697623826282800,5.90428271484375,-0.03095627927780151,0.06926642844974994,0.02959121973598376
1733697623836235500,5.914235595703125,-0.006774608701467514,0.06536416031420231,0.036779770400049164
1733697623846188500,5.9241884765625,0.0332920287489891,0.0683075202897191,0.05539378777872771
1733697623856142800,5.934142822265625,0.04425707487761974,0.04019201739579439,0.049313563682744276
1733697623866095600,5.944095703125,0.049152445703744885,0.013812544514238833,0.048546259971521795
1733697623876049700,5.954049560546875,0.03928337811827659,0.018389058649539946,0.0677205324483104
1733697623886002400,5.96400244140625,0.029289222848415373,0.031707682166993614,0.05819506326927803
1733697623895955500,5.97395556640625,0.02481587682664394,0.023965689738094806,0.05119686581185087
1733697623905909500,5.983909423828125,0.030785598886013028,0.006632862143218517,0.059727862327126784
1733697623915862500,5.993862548828125,0.04680734388232231,-0.012975801429152488,0.07272657884098589
1733697623925815600,6.003815673828125,0.04389700939357281,-0.032768297135829925,0.061431451374618334
1733697623935769600,6.01376953125,0.04446867180168628,-0.03751987557709217,0.061289239025488496
1733697623945722600,6.02372265625,0.02728431276679039,-0.023117548476159572,0.042286478057550266
1733697623955675600,6.033675537109375,0.007279051092267036,0.0025789105772972107,0.018507305601192636
1733697623965629700,6.043629638671875,-0.011730185282230377,0.045343993331491944,-0.00440826316261664
1733697623975582700,6.053582763671875,-0.015128595548868178,0.08902239153832196,-0.012897676425334065
1733697623985536500,6.06353662109375,-0.024603110858798027,0.08239595913589,-0.05377382189407944
1733697623995489500,6.073489501953125,-0.005469371321797371,0.057617491710186,-0.05956018674317747
1733697624005442600,6.083442626953125,0.008211948028206824,0.013883563923835754,-0.05567496107397601
1733697624015396600,6.093396728515625,0.03148585610985756,-0.027101357415318487,-0.07644855850618332
1733697624025349600,6.103349609375,0.037220015847682954,-0.037564883762598034,-0.08547280016480945
1733697624035302700,6.113302734375,0.06339607511162758,-0.01576718571335077,-0.08617871081130579
1733697624045256700,6.123256591796875,0.052071548020839686,-0.001692190870642662,-0.08110812041559257
1733697624055209700,6.133209716796875,0.0248830968439579,0.03391688264906406,-0.053604484076006334
1733697624065163500,6.14316357421875,0.02594400407373905,0.02697568520903587,-0.046026358705619344
1733697624075116500,6.153116455078125,0.007778232786059379,0.03196487179845571,-0.02133484804416075
1733697624085069600,6.163069580078125,0.013650339689850806,0.03131663702279329,-0.008907309881225229
1733697624095023600,6.173023681640625,0.008534604111313819,0.016260229927301407,-0.024888220543647182
1733697624104976600,6.1829765625,0.011641337954998016,0.03012771949917078,-0.022849088532011955
1733697624114929700,6.1929296875,0.026937691286206242,0.014418109191954135,-0.015091140482155605
1733697624124883700,6.2028837890625,0.027168577432632443,0.01200315700471401,-0.0030234303412493314
1733697624134836700,6.212836669921875,0.031361937469244004,0.007974924401938914,0.024292145213484762
1733697624144789800,6.222789794921875,0.037834932875633234,-0.0033510639935731886,0.010551953549403697
1733697624154743600,6.23274365234375,0.0393745635330677,0.00791238055974245,0.0321929814659059
1733697624164696600,6.242696533203125,0.01961421653032303,0.01968815854936838,0.029799455659184602
1733697624174650600,6.252650634765625,0.01194178220629692,0.02891717466562986,0.009496781940665095
1733697624184603600,6.262603759765625,0.0035001170754432676,0.03704875093400478,0.033852786170598115
1733697624194556700,6.272556640625,0.008071078252792357,0.025315058520436286,0.03299755758075043
1733697624204510700,6.2825107421875,0.020579262170195577,0.013569675669074058,0.01512894260874018
1733697624214463700,6.292463623046875,0.04304068482518196,0.00034369887113571166,0.01260013651717454
1733697624224416800,6.302416748046875,0.024523031359910963,-0.0029378070175647736,0.026682985872775313
1733697624234370800,6.312370849609375,0.022044658547639845,0.005493921241164207,0.021589169865101576
1733697624244323800,6.32232373046875,0.012258008548617362,0.02551876439899206,0.020958324615657328
1733697624254277600,6.332277587890625,0.006218143862485885,0.049430970384180546,0.018566789836622775
1733697624264230700,6.342230712890625,0.009134908092021941,0.03528261804431677,0.012957644717954098
1733697624274183700,6.35218359375,-0.003009118688106537,0.007745791821181774,0.02977096021706238
1733697624284137700,6.3621376953125,0.007205985856056213,-0.005952478663623332,0.024701182672102
1733697624294090800,6.3720908203125,0.0195849904358387,-0.007812427316606045,0.01853241264298558
1733697624304043500,6.38204345703125,0.021051555857062337,0.03517798862606287,0.020141674470528958
1733697624313997800,6.391997802734375,0.04677461065649986,0.0458121953651309,0.005084956847783178
1733697624323950600,6.40195068359375,0.057005497291684144,0.059491176627576345,-0.015837976794084534
1733697624333903600,6.411903564453125,0.0508119033485651,0.03623158933222294,-0.012079610641254112
1733697624343857400,6.421857421875,0.04114683390259743,0.009792787478864192,-0.02040098299384117
1733697624353810400,6.431810546875,0.027392449316382406,-0.005107844533026218,-0.02739596558087505
1733697624363764500,6.441764404296875,0.010628361520171164,0.02086187850385904,-0.028943542082747444
1733697624373717500,6.451717529296875,-0.0037590602725744247,0.0043374446824193,-0.05600865914090536
1733697624383670500,6.46167041015625,-0.01903378629386425,-0.03057517100572586,-0.07955489049106836
1733697624393624600,6.47162451171875,-0.023100305080413816,-0.02344955690950155,-0.0786013160932809
1733697624403577600,6.48157763671875,-0.01667348690330982,-0.011296177779138088,-0.04619246338699013
1733697624413530600,6.491530517578125,0.012416413980722426,0.014752455712854861,0.015183266611862927
1733697624423484700,6.501484619140625,0.05157178180515766,0.04571808734089136,0.03754167641694657
1733697624433437700,6.511437744140625,0.05704933643341064,0.07099632098227739,0.04743316589677706
1733697624443390700,6.521390625,0.050318566873669625,0.09710048405379057,0.03964101418321952
1733697624453344500,6.531344482421875,0.026734862190484997,0.09764379715025424,0.01645785312494263
1733697624463297500,6.541297607421875,0.032839024284482,0.05133066652566194,-0.03985862985611893
1733697624473251600,6.55125146484375,0.045941666963696476,0.000870060832798481,-0.084403472166555
1733697624483204600,6.56120458984375,0.07436521289348602,-0.03941606458723545,-0.12510142979049124
1733697624493157600,6.57115771484375,0.08364274432659148,-0.07661328408122062,-0.14600918412953615
1733697624503111700,6.581111572265625,0.06599369038939476,-0.07973375418931246,-0.13419566794540733
1733697624513064700,6.591064697265625,0.018500117808580397,-0.052668637131154536,-0.09714642382105812
1733697624523017700,6.601017822265625,-0.02918868508338928,-0.014979834727942943,-0.06098018220947124
1733697624532971500,6.610971435546875,-0.04301730394959449,0.04090396505743265,-0.004350075835129246
1733697624542924500,6.620924560546875,-0.05293547137379646,0.05222703084349632,0.018428787871729583
1733697624552878600,6.630878662109375,-0.030945173361897466,0.07041647526770829,0.0397147918054834
1733697624562831600,6.64083154296875,-0.02590834823846817,0.08700725232362747,0.034419717604666944
1733697624572784600,6.65078466796875,0.012810381734371185,0.09356967957913875,0.042685551244579255
1733697624582738700,6.66073876953125,0.037061610415577886,0.05840425817370414,0.03311970438938588
1733697624592691700,6.670691650390625,0.052553194057941434,0.040683308044075966,0.05749894336443394
1733697624602644700,6.680644775390625,0.047443888220191,0.004549333867430686,0.05073578763874247
1733697624612598800,6.690598876953125,0.062113634085655206,-0.011921031679213046,0.05449473831346258
1733697624622551600,6.700551513671875,0.05809563061594963,-0.00286824891269207,0.04579948201403022
1733697624632505900,6.710505859375,0.0491430933535099,-0.017761282140016554,0.04499844956314191
1733697624642459000,6.720458984375,0.042298342025279996,-0.03685644323229789,0.03429360700696706
1733697624652412000,6.730411865234375,0.0342985754430294,-0.031063246783614155,0.027044512661546467
1733697624662366000,6.740365966796875,0.040541269224882125,-0.05225070398002862,0.017205876746959982
1733697624672319000,6.750319091796875,0.04685001398026943,-0.016040157435834406,0.01143512959210202
1733697624682272000,6.76027197265625,0.019353519767522812,-0.002920563621819019,0.0011127104822546243
1733697624692226000,6.77022607421875,-0.021063830816745756,0.02606821497529745,-0.015751750682201235
1733697624702179000,6.780178955078125,-0.029547581523656843,0.08826017499417066,-0.03430115099260583
1733697624712132000,6.790132080078125,-0.021807342660427092,0.0969967314183712,-0.03669501472604461
1733697624722086000,6.8000859375,-0.005815992802381515,0.06082564010173082,-0.04423163904226385
1733697624732039000,6.810038818359375,0.028276246413588522,0.020460019704699513,-0.05372209170684218
1733697624741993000,6.819992919921875,0.05164660060703754,-0.02969020486474037,-0.054579576185857875
1733697624751946000,6.829946044921875,0.08624269769191742,-0.05842120930850506,-0.06031195495855063
1733697624761899000,6.83989892578125,0.08687631942033767,-0.05720920317023992,-0.048456727657699955
1733697624771853000,6.84985302734375,0.07428045721948147,-0.035388124245405196,-0.03659647712185979
1733697624781806000,6.85980615234375,0.042883448436856264,-0.017816227197647094,-0.031123397739324717
1733697624791759000,6.869759033203125,0.022539748588204383,0.0073173372760415075,-0.01075956841809675
1733697624801713000,6.879712890625,0.006830722802877426,0.021268998000025748,0.005834496573451906
1733697624811666000,6.889666015625,0.03452653898000717,0.015780921977758405,0.015199852420482784
1733697624821620000,6.899619873046875,0.031233342653512953,0.0035147301226854323,0.016623099289787932
1733697624831573000,6.909572998046875,0.015454758763313292,0.004553717781603336,0.006795240497542545
1733697624841526000,6.919526123046875,0.006938859352469444,0.03308218539059162,-0.007125458832597359
1733697624851480000,6.92947998046875,0.0003074585139751434,0.056250879532098765,-0.03003195837396197
1733697624861433000,6.93943310546875,-0.005199322208762168,0.06569120031148194,-0.04198080050870776
1733697624871386000,6.94938623046875,-0.017331658551096914,0.06669219404757022,-0.03351687788027338
1733697624881340000,6.95933984375,-0.019154782325029374,0.03823533037006855,-0.02431977300592698
1733697624891293000,6.96929296875,-0.018060557347536085,0.032362638944387435,-0.023253276285575702
1733697624901246000,6.979245849609375,-0.010999532920122146,0.02599544200003147,-0.014564659789483993
1733697624911200000,6.989199951171875,-0.014590250888466834,0.04039893814474344,-0.005590458684507757
1733697624921152800,6.99915283203125,-0.008595394387841224,0.046374505423009395,-0.02049920093761757
1733697624931107000,7.009107177734375,-0.0096247374355793,0.02430003625899553,-0.03370292937112972
1733697624941059800,7.019059814453125,0.02157645651400089,0.01021773489266634,-0.025901461839955297
1733697624951012900,7.029012939453125,0.05254676431715488,0.014594050280749797,0.0015256203983910381
1733697624960967000,7.038966796875,0.07809387802779674,-0.0019426585003733633,0.010289795481879263
1733697624970920000,7.048919921875,0.08691723595261573,-0.0010375263541936874,0.012358363650552928
1733697624980873000,7.058873046875,0.06645078650712967,-0.0008455109134316444,0.0071290298960171635
1733697624990826800,7.06882666015625,0.05541676679551601,-0.011016484054923057,-0.007493534093163907
1733697625000779800,7.07877978515625,0.017294249150156975,-0.005959492926299572,-0.03504541175495833
1733697625010732800,7.08873291015625,0.00919862097799778,0.00805529616177082,-0.041342045947443694
1733697625020686800,7.098686767578125,0.0037748423635959624,0.033925942738354205,-0.0388878394620493
1733697625030639900,7.108639892578125,0.02842003879845142,0.02285626719146967,-0.01307701504761353
1733697625040594000,7.118593994140625,0.0327519305229187,0.025887305450439452,-0.01302893812218681
1733697625050547000,7.128546875,0.025741174978017804,-0.0030348376512527465,-0.0003562295591458678
1733697625060500000,7.1385,-0.005133271235227585,0.006047463470697402,0.015077650812920182
1733697625070453800,7.148453857421875,-0.007639116576313972,0.042454409369826314,0.026256047431286424
1733697625080406800,7.15840673828125,-0.017690554991364477,0.04854454293847084,0.01999216473093256
1733697625090359800,7.16835986328125,-0.017297171759605406,0.02567570852637291,-0.007081391362007707
1733697625100313900,7.17831396484375,-0.0025946926683187484,-0.002187573172152042,0.008642722394596784
1733697625110267000,7.188266845703125,0.013405425018072127,-0.030963878062367438,0.05425263665327802
1733697625120221000,7.198220947265625,0.05033084183335304,-0.029084347926080226,0.08345368802789598
1733697625130174000,7.208174072265625,0.06039981590509414,-0.006499298891425132,0.09089943745657801
1733697625140127000,7.218126953125,0.0766664755731821,0.030080373226106166,0.07356613493766635
1733697625150081000,7.2280810546875,0.06147942783534526,0.06893091288506985,0.056377976510487496
1733697625160034000,7.238033935546875,0.02478548168838024,0.09438245726674795,0.017338490150682628
1733697625169987000,7.247987060546875,0.016647183418273925,0.07698182513266802,-0.03089866733904928
1733697625179940900,7.25794091796875,0.022929624688625333,0.03556406533420086,-0.09474287894382141
1733697625189894000,7.267893798828125,0.057330491462349885,-0.02613222012221813,-0.15324731868952512
1733697625199848000,7.277847900390625,0.05484276629984378,-0.07011836910396814,-0.1877964896264486
1733697625209801000,7.287801025390625,0.044968438017368315,-0.06772621327042579,-0.19770671120621264
1733697625219754000,7.29775390625,0.029978958678245543,-0.061382981723546975,-0.17792521181758492
1733697625229708000,7.3077080078125,-0.0059761518001556395,-0.01839811873883009,-0.1286614694927819
1733697625239661000,7.3176611328125,-0.03582826922833919,0.023014672623574733,-0.05841768391085788
1733697625249614000,7.327614013671875,-0.03477496078312397,0.038643618910014624,-0.007079674328956753
1733697625259567900,7.33756787109375,-0.002672434079647064,0.05459726710617542,0.02267851773807779
1733697625269521000,7.34752099609375,0.015454174241423606,0.066793316334486,0.03558370161643252
1733697625279474000,7.357473876953125,0.039574470019340516,0.06930033071935177,0.04861939827296883
1733697625289428000,7.367427978515625,0.045751697349548336,0.052501463870704174,0.024601704353000967
1733697625299381000,7.377381103515625,0.04149930060207844,0.04648848719149828,0.019931410987023262
1733697625309335000,7.3873349609375,0.037569559937715526,0.049663902357220645,0.024671353789418933
1733697625319288000,7.3972880859375,0.04401099116206169,0.02062806974798441,0.02533648490095511
1733697625329241000,7.407240966796875,0.046318099060654636,-0.001273088675737381,0.03199170500645414
1733697625339195100,7.417195068359375,0.044333062723279,-0.023930910685658453,0.037259379743691534
1733697625349148200,7.427148193359375,0.05048574013411999,-0.02775397610515356,0.031059045532532033
1733697625359101000,7.437100830078125,0.04769523263275623,-0.02025192991197109,0.027582966919802127
1733697625369055000,7.447054931640625,0.053343467652797696,-0.027696692959964273,0.043396530791837716
1733697625379007700,7.4570078125,0.05324877510666847,-0.040972354118525976,0.020063878260273484
1733697625388962000,7.466962158203125,0.03302899389863014,-0.02607902863025665,-0.003069927230942994
1733697625398915000,7.4769150390625,0.005126841494441032,0.0014227262794971466,-0.013956830089446157
1733697625408867800,7.486867919921875,-0.024342998617887496,0.05414017098844051,-0.025064097700361162
1733697625418822100,7.496822265625,-0.04722060085833072,0.09562573532611131,-0.041782629321794953
1733697625428775000,7.50677490234375,-0.0714513712733984,0.12170944013148545,-0.02801807040143758
1733697625438728000,7.51672802734375,-0.09302841230928897,0.08716507323384284,-0.020833949317317454
1733697625448681700,7.526681640625,-0.08960019142627716,0.022217677026987074,-0.0022774434126913547
1733697625458634800,7.536634765625,-0.03364683353602886,-0.030882337258756158,0.040791042734868825
1733697625468588800,7.5465888671875,0.02899520833790302,-0.06236322493255138,0.06360052990885451
1733697625478541800,7.556541748046875,0.09616729485690594,-0.052308279386162754,0.08360628477372228
1733697625488494800,7.566494873046875,0.11561083099544048,-0.01635141534209251,0.09191712659914046
1733697625498449000,7.576448974609375,0.1047474916756153,0.01264934595376253,0.056564968716260045
1733697625508402000,7.58640185546875,0.07921908266544342,0.03547697157263756,0.02117408625818789
1733697625518355000,7.59635498046875,0.057523383685946464,0.05859948848485946,-0.019365831259824336
1733697625528309000,7.60630908203125,0.0347387204259634,0.041723172485828394,-0.05164283774737268
1733697625538262000,7.616261962890625,0.008352817803621291,0.01857932052463293,-0.07375234169214963
1733697625548215000,7.626215087890625,0.006321019715070724,0.009040800067782401,-0.08040401813369244
1733697625558168800,7.6361689453125,-0.006506897675991058,-0.002528641694784164,-0.08655896056685596
1733697625568121900,7.646121826171875,-0.018272738793492317,-0.008805237746238708,-0.09376525695016608
1733697625578076000,7.656075927734375,-0.016461889979243277,-0.0027320553123950956,-0.09939623030815273
1733697625588029000,7.66602880859375,0.010047346761822699,0.005462649320065975,-0.08948111335756256
1733697625597982000,7.67598193359375,0.007794014877080917,0.008149988707900046,-0.09435640951003879
1733697625607936000,7.68593603515625,0.008635141876339911,-0.00310439575612545,-0.08299169653933494
1733697625617889000,7.695888916015625,0.013665537258982658,0.00416881011724472,-0.06445354827530682
1733697625627842000,7.705842041015625,0.023304303219914436,0.029654549029469488,-0.04730500947246328
1733697625637796000,7.715796142578125,0.016912556356191634,0.034847441497445106,-0.033101200618315486
1733697625647749000,7.7257490234375,0.015296353331208228,0.038865444967150685,-0.025777616264577953
1733697625657703200,7.735703125,0.01367547413110733,0.004412555745244026,-0.012900124110747127
1733697625667656200,7.74565625,0.02688917596936226,0.018664660720527172,0.021020795392617583
1733697625677609200,7.755609130859375,0.04506137699782848,0.006529986290633678,0.05342762053860351
1733697625687563300,7.765563232421875,0.05910100826621055,-0.020239070430397986,0.060305598283000285
1733697625697516300,7.775516357421875,0.05778583401441574,-0.029300913286209106,0.07253547671567648
1733697625707469300,7.78546923828125,0.05223989032506943,-0.03014028671979904,0.06089490594565868
1733697625717423000,7.795423095703125,0.055149640291929244,-0.02567687757015228,0.0473254312059842
1733697625727376100,7.805376220703125,0.0370218629270792,-0.0419257093206048,0.03701220004959032
1733697625737329200,7.8153291015625,0.02938566896021366,-0.02786678882986307,0.04489747340669855
1733697625747283200,7.825283203125,0.020858663633465765,-0.006648059712350368,0.0348963404067792
1733697625757236200,7.835236328125,0.02505553080141544,0.013228314885497092,0.028735260493773965
1733697625767190300,7.845190185546875,0.017851883032917976,0.016185703386366365,0.01958290807660669
1733697625777143300,7.855143310546875,-0.019514263287186622,0.025458558644354343,0.02923701773714274
1733697625787096300,7.865096435546875,-0.023753800553083418,0.062303019177913664,0.029260818737838416
1733697625797050000,7.875050048828125,-0.0174935711145401,0.09164631030112505,0.03317605595281348
1733697625807003100,7.885003173828125,-0.015154899033904075,0.0924871450394392,0.018889683381747454
1733697625816956200,7.8949560546875,0.004309679892659187,0.04188946896344423,0.009167275991663336
1733697625826910200,7.90491015625,0.01672492482960224,0.005631868407130241,0.016609299093298613
1733697625836863200,7.91486328125,0.01575987918972969,-0.004067687830328941,0.011570848268363625
1733697625846817300,7.9248173828125,0.023401918375492093,0.0038747956067323682,0.026504962424747643
1733697625856770300,7.934770263671875,0.008300795355439186,0.028830665425956248,0.029973789312783626
1733697625866723300,7.944723388671875,0.012851882788538932,0.07381430101245641,0.0044592261648736895
1733697625876677400,7.954677490234375,0.0030482816547155378,0.10882131698578595,-0.03321773967007175
1733697625886630400,7.96463037109375,0.021219898161292074,0.09616407998651265,-0.04712488539889455
1733697625896583400,7.97458349609375,0.037385435542464256,0.06373159067630768,-0.08638716593021527
1733697625906537200,7.984537109375,0.0719610743612051,0.003795592890679836,-0.1275495261955075
1733697625916490200,7.994490234375,0.09483166233897208,-0.062059273549914355,-0.16069054736755786
1733697625926444300,8.0044443359375,0.0933235958635807,-0.1048345854371786,-0.20972055400172246
1733697625936397300,8.014397216796874,0.07879822690486908,-0.1119257127419114,-0.19030752259930594
1733697625946350300,8.024350341796875,0.035273557955026624,-0.06895400149971247,-0.1585853004503064
1733697625956304400,8.034304443359375,-0.019960253489017487,-0.030886136651039123,-0.11763771544685586
1733697625966257400,8.04425732421875,-0.04660217669904232,0.01421528009623289,-0.057564044489897784
1733697625976210400,8.05421044921875,-0.07176292144060134,0.04133943386524915,-0.020049210414104162
1733697625986164200,8.064164306640626,-0.04752864389419555,0.0613514175415039,0.026034093509986995
1733697625996117200,8.0741171875,-0.026222821015119552,0.06738163761645555,0.040872766201570626
1733697626006070300,8.0840703125,-0.0030950434058904645,0.07294687052816153,0.048809568816516546
1733697626016024300,8.0940244140625,0.014693126741051672,0.06569090805053711,0.05310235237330198
1733697626025977300,8.103977294921876,0.03656067515611648,0.0549096940562129,0.058961672860756514
1733697626035931400,8.113931396484375,0.04833236149251461,0.03534486962556839,0.05550917605301365
1733697626045884400,8.123884521484374,0.05732581528723239,0.01659428418725729,0.05047092615747824
1733697626055837200,8.133837158203125,0.06260229438543319,0.018126900582015514,0.05406032895157113
1733697626065791500,8.14379150390625,0.06881926920413971,0.00021188918501138687,0.05264699155492708
1733697626075744300,8.153744140625,0.07412789700627327,-0.006385609383881091,0.04109696687888354
1733697626085697300,8.163697265625,0.06148118140101432,0.009238368466496467,0.05617827095361426
1733697626095651000,8.173651123046875,0.04947276369929313,0.0024985388174653053,0.052925516235362735
1733697626105604000,8.18360400390625,0.04156125992238521,-0.019630875404179095,0.05702232056232169
1733697626115558400,8.193558349609376,0.018118425014615056,-0.01936316437870264,0.040127245063893494
1733697626125511200,8.20351123046875,-0.0010942249774932862,0.022386603853106497,0.02445968380011618
1733697626135464200,8.213464111328125,-0.004492635244131088,0.06055939038097858,0.008822371544130146
1733697626145418200,8.223418212890625,-0.003980009546875953,0.0725032184138894,-0.01139225856475532
1733697626155371300,8.233371337890626,-0.006407528954744338,0.07335428228527308,-0.02086774198906496
1733697626165324300,8.24332421875,0.01575344944894314,0.04398293411135673,-0.04725702387858182
1733697626175278000,8.253278076171876,0.03668926997184753,0.005540390731394291,-0.06513647077186033
1733697626185231000,8.263231201171875,0.057096682706475256,-0.027359131568670272,-0.06257023701304569
1733697626195185200,8.27318505859375,0.05247136099338531,-0.038681320571899415,-0.07245561641249805
1733697626205138200,8.28313818359375,0.030563480567932125,-0.02785276030451059,-0.07049195165671408
1733697626215091200,8.29309130859375,0.026478841602802276,-0.01381575938463211,-0.04272118881354108
1733697626225045200,8.303045166015625,0.011118775385618208,0.0026630817294120788,-0.025781963646132496
1733697626234998300,8.312998291015624,0.0026350246787071228,0.010653788222372531,-0.0016252265816554426
1733697626244951300,8.322951416015625,0.020724808120727536,0.02578793672919273,-0.003035732700396329
1733697626254905300,8.3329052734375,0.02533142513334751,0.03488485089838505,-0.015512991756573318
1733697626264858400,8.3428583984375,0.02783668595254421,0.03939677536487579,-0.02326482972605154
1733697626274811400,8.352811279296875,0.03471650859415531,0.021632570615410802,-0.04368208800125867
1733697626284765200,8.36276513671875,0.03129179484248161,0.0360983183413744,-0.041847109392751006
1733697626294718200,8.37271826171875,0.026833061867952344,0.024148645089566705,-0.030488552168197926
1733697626304672300,8.38267236328125,0.010103460863232612,0.039536476096510884,-0.04680650363210588
1733697626314625300,8.392625244140625,0.004267594316601753,0.03807078745812177,-0.052765722563769664
1733697626324578300,8.402578369140626,-0.0026788638204336165,0.034410803645849225,-0.04183828676547855
1733697626334532400,8.412532470703125,-0.013141221123933792,0.03893529533296823,-0.030933683853503313
1733697626344485400,8.4224853515625,0.006750058782100677,0.025891981625556944,-0.018314988766331225
1733697626354438400,8.4324384765625,0.030101708275079724,0.030920915703475473,-0.013611030592769384
1733697626364392200,8.44239208984375,0.03841302502453327,0.0331657720208168,-0.002656286662444472
1733697626374345200,8.45234521484375,0.027270868763327596,0.016099778668582438,-0.013916260617040098
1733697626384299300,8.46229931640625,0.02653846283555031,0.005912146653234958,-0.004788037994131446
1733697626394252300,8.472252197265625,0.039408465802669525,0.0010208674803376197,0.014278481525555253
1733697626404205300,8.482205322265624,0.02625204710960388,0.004196867167949677,0.030535058191046117
1733697626414159400,8.492159423828125,0.03690378950536251,0.009008066841959953,0.03520410944800824
1733697626424112400,8.5021123046875,0.05128185894787311,-0.0008987024053931236,0.02942921584099531
1733697626434065400,8.5120654296875,0.03483633558154106,-0.0193082193210721,0.016691680147126315
1733697626444019200,8.522019287109375,0.015098784932494162,-0.016921908706426618,0.01097202385868877
1733697626453972200,8.53197216796875,0.011540800189971924,-0.007122399225831032,0.004489420373737812
1733697626463926300,8.54192626953125,0.0035842882275581357,0.023543080411851405,-0.015819810949731616
1733697626473879300,8.55187939453125,0.007116554006934166,0.04265665394365787,-0.017196506130415946
1733697626483832300,8.561832275390625,0.030255437532067296,0.06551233661323785,0.008996668665111065
1733697626493786400,8.571786376953124,0.03485153315067291,0.0479448234796524,0.003629022418428212
1733697626503739400,8.581739501953125,0.03139291712939739,0.027466391335427758,-0.015017189329955726
1733697626513692400,8.5916923828125,0.02508008072078228,0.006443769311904907,-0.0016590009870938957
1733697626523646500,8.601646484375,0.03928162455260754,0.021870763285458086,-0.0003295972805470228
1733697626533599500,8.611599609375,0.014103344154357909,0.05157324310988187,-0.012748824272863566
1733697626543553300,8.62155322265625,0.004058335480093956,0.027560207098722457,-0.03437112922258675
1733697626553506300,8.63150634765625,-0.0004196867167949676,-0.0014303250640630722,-0.0456758556343615
1733697626563459000,8.641458984375,-0.01729191106259823,-0.005396013824641705,-0.013011786057986318
1733697626573413400,8.651413330078125,-0.014730536141991614,0.014568915839493273,0.013997381295543163
1733697626583366100,8.6613662109375,0.011477671825885771,0.019855331809818744,0.029743980878591536
1733697626593319200,8.671319091796875,0.03664543083012104,0.03198416102081537,0.027732823719270525
1733697626603273200,8.681273193359376,0.040005847173929215,0.047206572332978244,0.01850176177639514
1733697626613226200,8.691226318359375,0.03722410750091076,0.05110767142474651,-0.002311491812765598
1733697626623180000,8.701179931640626,0.05747603741288185,0.04311813397556543,-0.03580138122141361
1733697626633133000,8.711133056640625,0.046267830178141595,0.005489829587936401,-0.0753587539754808
1733697626643086000,8.721086181640626,0.05508534288406372,-0.046722588208317754,-0.1338891227468848
1733697626653040000,8.7310400390625,0.05951075811088085,-0.09438391857147216,-0.183372992362082
1733697626662993200,8.7409931640625,0.04562953227460384,-0.09631722472161054,-0.18607640610188245
1733697626672946200,8.7509462890625,0.019429507613182066,-0.08150807038545609,-0.14289846823047847
1733697626682900200,8.760900146484374,-0.021731939336657524,-0.015426409451663493,-0.08655797418616712
1733697626692853200,8.770853271484375,-0.0369043740272522,0.03766191439628601,-0.01412109900675714
1733697626702807300,8.780807373046875,-0.05415770664513111,0.06809504658281802,0.03192366300523281
1733697626712760300,8.79076025390625,-0.04054711444377899,0.10319529379755257,0.07303411042019724
1733697626722713300,8.80071337890625,-0.027304186511039732,0.10481178908348082,0.09468281018650158
1733697626732667100,8.810667236328126,0.00880816035568714,0.10138093785196542,0.08827129917638375
1733697626742620200,8.8206201171875,0.02875555436313152,0.08742547773569821,0.07200511443233117
1733697626752573200,8.8305732421875,0.04201718699634075,0.06944938380122184,0.07113147340295836
1733697626762527200,8.84052734375,0.04770400046110153,0.045159576675295826,0.0801181869296357
1733697626772480300,8.850480224609376,0.04251929129958153,0.008283259698748588,0.06816635825335979
1733697626782433000,8.86043310546875,0.051909635457396505,-0.015299860462546347,0.06532335337977856
1733697626792387300,8.87038720703125,0.05298515573441982,-0.022783494216203688,0.04420083291204646
1733697626802340000,8.880340087890625,0.05022328980565071,-0.03310848887562751,0.04492582271834835
1733697626812294100,8.890294189453124,0.056305824589729304,-0.0362353887245059,0.05486457627285272
1733697626822247000,8.900246826171875,0.04041851962804794,-0.04510053996443748,0.03791729566315189
1733697626832200000,8.910199951171874,0.023047113588452336,-0.04619885659515857,0.022263835989963263
1733697626842154000,8.920154052734375,0.01841068595945835,-0.029544366653263567,-0.008674323109257965
1733697626852107000,8.93010693359375,-0.016311667853593826,0.000881166748702526,-0.035563974002655596
1733697626862060000,8.94006005859375,-0.02231587670445442,0.055986091116070745,-0.0555797570711933
1733697626872014000,8.95001416015625,-0.025536007794737813,0.07068740116357802,-0.04987811136348173
1733697626881967000,8.959967041015625,-0.028828035077452657,0.08618716811239718,-0.051325953817926345
1733697626891921200,8.969921142578125,-0.014561024793982505,0.05515899264216423,-0.04432659644987434
1733697626901874200,8.979874267578126,0.019863807377219198,-0.00044131402671337126,-0.04891134869055822
1733697626911827200,8.9898271484375,0.04325520435869693,-0.026588731718063353,-0.05817839526226744
1733697626921781000,8.999781005859376,0.052475452646613116,-0.022842823188006876,-0.05924569570021704
1733697626931734000,9.009734130859375,0.05548398681282997,-0.021940905912220476,-0.06434159406712278
1733697626941687000,9.01968701171875,0.04656242921054363,0.009474515309929847,-0.0530710987185128
1733697626951641000,9.02964111328125,0.024167057529091835,0.018756430657207966,-0.034453400678560134
1733697626961594000,9.039593994140626,0.006827215671539306,0.035491292358934876,-0.01850883083799854
1733697626971548200,9.049548095703125,0.012314707171916961,0.05997779110074043,-0.0019523213778622447
1733697626981501200,9.059501220703124,-0.0004997662156820296,0.05607172357290983,0.0014721914444118737
1733697626991454200,9.0694541015625,-0.005705518165230751,0.015168343037366866,0.010426573604065924
1733697627001408000,9.079407958984374,-0.0002846621602773666,0.006146539930999279,-0.024526008768286554
1733697627011361000,9.089361083984375,0.02691431041061878,0.01374123284369707,-0.029249530158843844
1733697627021314000,9.09931396484375,0.03712064712643623,0.007300386141240596,-0.010863156656734645
1733697627031268000,9.10926806640625,0.04735094923973083,0.002670388253033161,-0.019603713402617722
1733697627041221000,9.11922119140625,0.020870938593149185,0.003124561761319637,-0.014323690640460698
1733697627051175200,9.129175048828126,0.0064876084536314,0.015291092634201049,0.0029761297339573503
1733697627061128200,9.139128173828125,0.013467384338378905,0.03266454450041056,0.0096520821002312
1733697627071081200,9.149081298828126,0.008567337337136268,0.02094604965597391,0.020720351141318677
1733697627081035300,9.15903515625,0.014160627299547195,0.014772329457104206,0.02699910261724144
1733697627090988000,9.168988037109376,0.03308569252192974,-0.0022992168530821797,0.03809497205130756
1733697627100941000,9.178941162109375,0.042647886115312575,-0.006977730058133602,0.03614336305949837
1733697627110895000,9.18889501953125,0.03474924181997776,-0.005516133072972297,0.043146994743868704
1733697627120848100,9.19884814453125,0.033490181669592854,-0.010816869829595089,0.03133143273312598
1733697627130801200,9.20880126953125,0.03120119394958019,0.016016192038357257,0.027210663008689878
1733697627140755200,9.218755126953125,0.026359599137306212,0.03377952000498771,0.028760851592756806
1733697627150708200,9.228708251953124,0.02729775677025318,0.04803688567727804,0.020414043404813856
1733697627160662300,9.238662353515625,0.0250835878521204,0.01669745230078697,0.000499254759028554
1733697627170615300,9.248615234375,0.01671323439180851,-0.010693243449926376,-0.027280385510344056
1733697627180568300,9.258568359375,0.013000351348519325,-0.025913024413585662,-0.06140457250084728
1733697627190522000,9.268522216796875,0.0018342296898365019,-0.014219079488515854,-0.06330251507665961
1733697627200475100,9.27847509765625,0.015016367346048354,0.016724340307712554,-0.07186391586335375
1733697627210428200,9.28842822265625,0.028794717329740524,0.03504325633049011,-0.07224440308092162
1733697627220382200,9.29838232421875,0.018161679634451866,0.03362491396516561,-0.06994385278727859
1733697627230335200,9.308335205078125,0.029932196927070616,0.03410948261171579,-0.055966107773967086
1733697627240289300,9.318289306640626,0.019833412238955496,0.021766718389093876,-0.0297737732286565
1733697627250242300,9.3282421875,0.009255904123187065,0.020279110179841516,-0.011863328408915548
1733697627260195300,9.3381953125,0.01960311061441898,0.03445259696096182,0.010322784436028451
1733697627270149000,9.348149169921875,0.011829554003477096,0.03385930724292993,0.017523546127695588
1733697627280102100,9.35810205078125,0.012036474752426148,-0.00629851562231779,0.008920187629107386
1733697627290055000,9.368054931640625,-0.0016185411125421523,-0.03602700667083263,0.012762085613235831
1733697627300009200,9.37800927734375,0.014276362633705138,-0.01626402931958437,0.04042911408729851
1733697627309962000,9.3879619140625,0.03114624889194965,-0.009341828840970992,0.08287470082985236
1733697627319916300,9.397916259765625,0.041619712111353874,0.021145663881301877,0.1066066366109997
1733697627329869000,9.407869140625,0.04356090930700302,0.04585311189740896,0.09821524036265909
1733697627339822000,9.417822021484374,0.03269815450906753,0.08415127837061881,0.06612135362336412
1733697627349776100,9.427776123046876,0.01200841770172119,0.09111381085962057,0.04937021664027124
1733697627359729200,9.437729248046875,0.033598318219184874,0.0657739101588726,-0.006557404020521789
1733697627369682200,9.44768212890625,0.061440264868736265,0.007361176417768001,-0.06544844106417148
1733697627379636000,9.457635986328125,0.06555003827512264,-0.06728869863599539,-0.12513897618874906
1733697627389589000,9.467589111328126,0.07578793917298317,-0.10012100091874598,-0.16882016914086415
1733697627399543000,9.47754296875,0.06593816080987452,-0.10477291837781667,-0.16765280586192383
1733697627409496000,9.48749609375,0.0269657483369112,-0.06484685844182968,-0.16187166517721488
1733697627419449000,9.497448974609375,-0.020866262418031693,-0.004069733656942844,-0.11185467506600544
1733697627429403100,9.507403076171874,-0.042618075498938555,0.03805091371387243,-0.04617679089382291
1733697627439356200,9.517356201171875,-0.041891514790058135,0.06578647737950086,-0.006456190402060746
1733697627449309200,9.52730908203125,-0.021690438282489774,0.08669219502508639,0.016195822921581567
1733697627459263000,9.537262939453125,-0.011992635610699652,0.08890256455093622,0.024649489017482845
1733697627469216000,9.547216064453124,0.021074352210760115,0.07761486233919858,0.041884957185108214
1733697627479170000,9.557170166015625,0.03350888637006283,0.062137307222187514,0.036982480764761565
1733697627489123000,9.567123046875,0.03475684060454368,0.0483653869792819,0.03800303771784529
1733697627499076000,9.577076171875,0.033899931514263154,0.03749941731095314,0.04081215858813375
1733697627509030100,9.587030029296875,0.04549100058674812,0.012040858666598797,0.048457924100942906
1733697627518983200,9.596983154296876,0.04023205714523792,0.006285656140744686,0.045006925130542365
1733697627528936200,9.606936279296875,0.03575695755779743,-0.016192425388097762,0.0354890456029214
1733697627538890200,9.61689013671875,0.029196283867955208,-0.028939386497437953,0.0315735526596196
1733697627548843300,9.62684326171875,0.05110416429340839,-0.022309446963667868,0.027915505076106635
1733697627558797000,9.636797119140626,0.03517828088700771,-0.02590834823846817,0.0214489211441949
1733697627568750000,9.64675,0.03367722867429256,-0.019072364738583564,-0.0006007606384344399
1733697627578703000,9.656703125,0.025778584378957747,-0.012671850046515463,-0.027367187010962513
1733697627588657200,9.6666572265625,-0.0059247138738632195,0.010644435872137545,-0.0337790633472614
1733697627598610200,9.676610107421874,-0.01253916357755661,0.045912148608267304,-0.03924985944116488
1733697627608563200,9.686563232421875,-0.01727612897157669,0.07538286550343036,-0.031177995737083256
1733697627618517200,9.696517333984374,-0.02021978120803833,0.09188304166644812,-0.03525419566743076
1733697627628470300,9.70647021484375,-0.01400046830177307,0.05607318487763405,-0.03869432618394494
1733697627638424300,9.71642431640625,-0.0015349544823169707,0.005545066906511784,-0.05184670802270993
1733697627648377300,9.72637744140625,0.03522504263818264,-0.030084757140278813,-0.03298851575776934
1733697627658330400,9.736330322265625,0.04787760346233844,-0.05049480022341012,-0.03292949731322005
1733697627668284400,9.746284423828126,0.060196986809372896,-0.024025895492732523,-0.02021187189621851
1733697627678237400,9.756237548828125,0.047428106129169464,-0.005647942759096622,-0.0045705593185499304
1733697627688190500,9.7661904296875,0.036159693139791484,0.01227028350830078,0.013065032348874956
1733697627698144500,9.77614453125,0.023016718450188635,0.03603577449917793,0.028747718116547912
1733697627708097500,9.78609765625,0.009938625690340996,0.04351473207771778,0.008382628419995307
1733697627718051300,9.79605126953125,0.007741992428898811,0.03934533743858337,0.01334616911150515
1733697627728004400,9.80600439453125,0.0023725743502378462,0.03396890509724617,0.010785835370514541
1733697627737957400,9.815957275390625,0.015707272219657897,0.02756868266612291,0.0032542342892847953
1733697627747911400,9.825911376953124,0.019075287348031995,0.0077919690504670135,-0.009375110056065023
1733697627757864400,9.835864501953125,0.007726794859766959,0.010540390975773334,-0.0028200989220291376
1733697627767817500,9.8458173828125,0.01719897208213806,0.00002484218031167984,-0.005152122066169977
1733697627777771500,9.855771484375,0.020098785176873205,0.01668137794882059,-0.005738178325816989
1733697627787724500,9.865724609375,0.008193243327736854,0.011302899780869484,0.02313353149658069
1733697627797678600,9.8756787109375,0.009716507372260094,0.015360358478128909,0.014852061896119265
1733697627807631600,9.885631591796875,0.015385785180330276,0.016152677899599073,-0.005565872232522815
1733697627817584600,9.895584716796876,0.017655483677983284,0.01996580644696951,0.0025563151529990136
1733697627827538400,9.905538330078125,0.031556583258509636,0.012913549847900867,-0.007246975453570485
1733697627837491500,9.915491455078126,0.02130465383529663,0.011644845086336135,-0.01412745568230748
1733697627847444500,9.925444580078125,0.026695699223875997,0.014212357486784457,-0.01965339776324108
1733697627857398500,9.9353984375,0.018908114087581633,0.004111819233000278,-0.02664906533686444
1733697627867351600,9.9453515625,0.013185060265660286,0.002125321590900421,-0.00009390709483996033
1733697627877305600,9.9553056640625,0.03318623028695583,0.011008008487522602,0.013910177936125546
1733697627887258600,9.965258544921875,0.039245384195446965,0.026190380050241945,-0.007844119362812488
1733697627897211600,9.975211669921874,0.028083938711881636,0.014938333673775195,-0.012340882792789488
1733697627907165400,9.98516552734375,0.009074702337384223,-0.008029284937679767,-0.014675865078996866
1733697627917118500,9.995118408203124,-0.008448679393529892,-0.01647095006853342,-0.049389925987739114
1733697627927071200,10.0050712890625,-0.0041261400192975995,0.010503273835778235,-0.048630723384581506
1733697627937025500,10.015025634765625,0.00526069700717926,0.03214811941087246,-0.04249673240790143
1733697627946978300,10.024978271484375,0.025868016228079795,0.0455421462520957,-0.03853086098423227
1733697627956932600,10.0349326171875,0.04951952545046806,0.03807517137229442,-0.03159055859334767
1733697627966885400,10.044885498046876,0.0393961908429861,0.018330021938681603,-0.05269386290395632
1733697627976838400,10.05483837890625,0.015480477726459503,0.0026847090393304824,-0.022588501367066055
1733697627986792400,10.06479248046875,0.016584055054187773,0.012593816374242305,-0.005177311306353658
1733697627996745500,10.074745361328125,0.014070610928535461,0.02960866406112909,-0.008802388202026485
1733697628006698500,10.084698486328126,0.005412088176608086,0.014719137965142726,-0.008235182773321867
1733697628016652300,10.09465234375,-0.010046762239933013,-0.02582300804257393,0.005337141510564834
1733697628026605300,10.104605224609376,0.00987958897948265,-0.039647242994606494,0.04759445740571245
1733697628036558300,10.114558349609375,0.03078326079845428,-0.034893034204840655,0.07854107380602508
1733697628046512400,10.124512451171874,0.04986263979971409,-0.009809154091775418,0.1247796596233733
1733697628056465400,10.13446533203125,0.051175475963950154,0.0402305958405137,0.11836540866689756
1733697628066419500,10.14441943359375,0.029406711748242376,0.08563479492664337,0.10663882184755057
1733697628076372500,10.15437255859375,0.00734334850013256,0.11950637712925671,0.07191929931240156
1733697628086325500,10.164325439453124,0.0017003741770982741,0.1053732223585248,0.017697222194168714
1733697628096279300,10.174279296875,0.025875030490756033,0.060844344802200793,-0.05217687155883759
1733697628106232300,10.184232421875,0.06936871978044509,-0.025196692837774752,-0.12109406644580885
1733697628116185300,10.194185302734375,0.08157879753410816,-0.0816924870416522,-0.16160623744037
1733697628126139400,10.204139404296875,0.07107260108888148,-0.1277773618683219,-0.17651967413490638
1733697628136092400,10.214092529296876,0.056084875315427773,-0.10574410149753093,-0.18261170739969237
1733697628146046500,10.22404638671875,0.013580197063088417,-0.06352671575397252,-0.15463873651530594
1733697628155999500,10.23399951171875,-0.023480244308710096,-0.00488075777888298,-0.10216686406526714
1733697628165952500,10.243952392578125,-0.06742927615046501,0.03394523196071386,-0.03848822741890326
1733697628175906300,10.25390625,-0.060223290294408795,0.07727700868695973,-0.0018577201632782815
1733697628185859300,10.263859375,-0.02323006893992424,0.08897942917943,0.015222484377399086
1733697628195812400,10.273812255859376,-0.01215747078359127,0.09440729944705963,0.015089816174749283
1733697628205766400,10.283766357421875,0.03575637303590774,0.08600041336864232,0.007906042150501162
1733697628215719400,10.293719482421874,0.04691898756325245,0.0753115538328886,0.008527425451856106
1733697628225673500,10.303673583984375,0.05573299313783645,0.04188070113509893,0.019337938605900853
1733697628235626500,10.31362646484375,0.07643383586108685,-0.0050832946136593815,0.02723261911217123
1733697628245579500,10.32357958984375,0.07970189774632454,-0.012477496518194674,0.039546303370781244
1733697628255533600,10.333533447265625,0.05748129810988903,-0.024968144778907297,0.056627768286783245
1733697628265486600,10.343486572265626,0.0391436773866415,-0.03480535592138767,0.053903658818826077
1733697628275439600,10.353439697265625,0.04686170441806316,-0.016328618988394737,0.04535948316156864
1733697628285393400,10.363393310546876,0.02150806745290756,-0.01571662456989288,0.038622740518767386
1733697628295346400,10.373346435546875,0.012488894695043563,-0.02712123115956783,0.031342191589158026
1733697628305300500,10.383300537109376,0.012947159856557845,-0.030778876884281634,-0.012966138551663606
1733697628315253500,10.39325341796875,0.0008557400465011596,-0.013898761492967605,-0.017834055115282535
1733697628325206500,10.40320654296875,0.012411737805604934,0.024766192466020583,-0.031987558554299175
1733697628335160600,10.41316064453125,0.024531214666366576,0.03793634742349386,-0.019353154441341756
1733697628345113600,10.423113525390624,0.0243166951328516,0.06463613830059767,-0.021688337656948713
1733697628355066600,10.433066650390625,0.019559855994582175,0.0464440635278821,-0.01189438113430515
1733697628365020400,10.4430205078125,0.016642507243156433,0.024248890593647956,-0.017162202002014963
1733697628374973400,10.452973388671875,0.006645429363846779,-0.00741699825823307,-0.03968927377173677
1733697628384927500,10.462927490234375,0.0017331074029207228,-0.017719196563959122,-0.03473426344655454
1733697628394880500,10.472880615234375,0.006266659179329872,-0.017202186952531336,-0.057945335425063964
1733697628404833300,10.482833251953124,-0.006245031869411468,0.018125147016346453,-0.04962782639684155
1733697628414787600,10.49278759765625,-0.011817863565683364,0.013894962100684641,-0.020848726761341092
1733697628424740600,10.50274072265625,0.012529226705431938,0.017205109561979768,0.00003764686295762658
1733697628434693400,10.512693359375,0.022663082706928253,0.017854513381421563,0.02478582874825224
1733697628444647400,10.5226474609375,0.014341829085350036,0.004519815512001514,0.028021577532775697
1733697628454600400,10.532600341796876,0.028762568625807762,0.02057049434185028,0.02065064690597355
1733697628464554500,10.542554443359375,0.045583939567208284,0.02059884365350008,0.010270652389992028
1733697628474507300,10.55250732421875,0.04504793299436569,0.015254267755150794,-0.006806885269563644
1733697628484460300,10.562460205078125,0.04307049544155597,0.012544716535508631,-0.011186579924821853
1733697628494414300,10.572414306640624,0.03471300146281719,0.012165946350991726,-0.019073570314981043
1733697628504367400,10.582367431640625,0.03223170604109764,0.02553016257584095,-0.009654675916116684
1733697628514320400,10.5923203125,0.010400397983193397,0.019444705182313917,-0.006769512401241809
1733697628524274400,10.6022744140625,0.0006418050348758697,-0.004729366609454154,-0.014970135317835956
1733697628534227500,10.6122275390625,0.015707856741547583,0.006626724663376808,0.00022962577110156415
1733697628544181200,10.62218115234375,0.018665537503361702,0.01032704048603773,-0.0031458420113660394
1733697628554134300,10.63213427734375,0.010817162090539931,-0.00018880057036876677,-0.004295432171598077
1733697628564087300,10.64208740234375,0.029063012877106664,0.013047405360639095,-0.011927077827509493
1733697628574041300,10.652041259765625,0.024130232650041578,0.005127426016330719,-0.020578239256888627
1733697628583994400,10.661994384765626,0.0077758946985006325,0.01009878468811512,-0.005615282598510385
1733697628593947400,10.671947509765625,0.0073059390991926185,0.027552023792266844,0.0006449833726510405
1733697628603901400,10.6819013671875,0.010721885022521018,0.022874679630994797,0.009901636414509266
1733697628613854500,10.6918544921875,0.01760287670791149,0.025164836394786835,0.024221874722559003
1733697628623808300,10.701808349609376,0.039925183153152466,0.0256216402515769,0.01711432600598782
1733697628633760500,10.711760498046875,0.042485389029979705,-0.009023556672036647,0.004746500407345593
1733697628643713500,10.721713623046876,0.03148468706607818,-0.013223346449434757,-0.022008272060006856
1733697628653667300,10.731667236328125,0.03140519208908081,-0.02194821243584156,-0.041752928303275254
1733697628663620400,10.741620361328126,0.003170446729660034,0.0021060323685407637,-0.02556603760682046
1733697628673573400,10.751573486328125,0.008709376156330108,0.03689414489418268,-0.036776455064956096
1733697628683527400,10.76152734375,0.030205753171443937,0.04910714525729418,-0.0426399585371837
1733697628693480400,10.77148046875,0.014752163451910019,0.05138619610518217,-0.034030572156608103
1733697628703434500,10.7814345703125,0.012308277431130409,0.02599105808585882,-0.01984543147031218
1733697628713387500,10.791387451171875,-0.005140285497903824,0.0023947861820459364,-0.0011715645300224423
1733697628723340500,10.801340576171874,0.015695581781864164,0.02307487837821245,0.010786091098841278
1733697628733294600,10.811294677734375,0.011240940460562706,0.028516192649304866,0.0038087446331977843
1733697628743247600,10.82124755859375,0.011384732845425604,-0.0061325114056468,0.0016853410047478973
1733697628753200400,10.831200439453125,0.017132921108603476,-0.0304208572268486,-0.006936667395383119
1733697628763154400,10.841154541015625,0.022877602240443228,-0.017675357422232627,0.012745097945816814
1733697628773107200,10.851107177734375,0.037080899637937544,-0.007643792751431465,0.04407236596047878
1733697628783061500,10.8610615234375,0.052235214149951935,0.027802783682942388,0.0546085922177881
1733697628793014300,10.87101416015625,0.03893500307202339,0.054340954257547855,0.04938024484394118
1733697628802967300,10.88096728515625,0.02481470778286457,0.06579962912201881,0.0346546771380119
1733697628812921300,10.89092138671875,0.0006745382606983184,0.0763984722867608,0.006860405555088073
1733697628822874400,10.900874267578125,0.013251695761084556,0.06598404577821493,-0.0344842342082411
1733697628832827400,10.910827392578126,0.05181728099882602,-0.0009551087677478789,-0.07392912303116173
1733697628842781200,10.92078125,0.054070612883567806,-0.06118073714971542,-0.10709648422086611
1733697628852734200,10.930734130859374,0.058087447309494014,-0.0958066448509693,-0.13970096909711135
1733697628862688300,10.940688232421875,0.06359364351034164,-0.09546148467510938,-0.12300822950406
1733697628872641300,10.950641357421874,0.03321545638144016,-0.04547112684249878,-0.10288794488143176
1733697628882594300,10.96059423828125,-0.020543606334924698,-0.014544365920126437,-0.0632332674990408
1733697628892548400,10.97054833984375,-0.05134907896518707,0.032737317475676535,0.0009168956492096185
1733697628902501400,10.98050146484375,-0.05324643701910972,0.0588332972407341,0.04693813065513968
1733697628912454400,10.990454345703125,-0.03200315798223018,0.07743219924867152,0.06419208432752639
1733697628922408400,11.000408447265626,0.006464227578043938,0.07272738255858421,0.07933010529186577
1733697628932361500,11.010361572265625,0.04630991575419902,0.07054331651777028,0.07407885196646675
1733697628942315300,11.020315185546876,0.048054129073023796,0.049204760412871834,0.04624044898087158
1733697628952268300,11.030268310546875,0.058220718300342554,0.0301312266305089,0.031135654432699084
1733697628962221300,11.04022119140625,0.03787058871090412,0.012076514501869678,0.033018198509979994
1733697628972175400,11.05017529296875,0.03503974919915199,-0.0012497078001499175,0.03805414685057476
1733697628982128400,11.06012841796875,0.01709434266388416,-0.00845744722187519,0.018184969178494065
1733697628992081400,11.070081298828125,0.021762334474921225,-0.008693301804363727,0.024994393465016036
1733697629002035500,11.080035400390624,0.034815292793512344,-0.028379706788063046,0.027133487852942197
1733697629011988500,11.089988525390625,0.03263619518876076,-0.025960370686650275,0.021064616268035023
1733697629021942300,11.0999423828125,0.04203881430625915,-0.02639320914596319,0.0243734302887693
1733697629031895300,11.109895263671875,0.039814123994112015,-0.03248831115067005,0.006864186681061982
1733697629041848300,11.119848388671874,0.027738486275076864,-0.0163911628305912,-0.015010978784877806
1733697629051802400,11.12980224609375,0.016065584138035775,0.018096213182806967,0.004888575759157538
1733697629061755400,11.13975537109375,-0.0046522097200155255,0.04978139125704765,-0.021039390495233238
1733697629071708400,11.14970849609375,-0.010208674803376198,0.06516980678588151,-0.031435514162108304
1733697629081662500,11.159662353515625,-0.014373393267393111,0.05727291605621576,-0.026819709196034817
1733697629091615500,11.169615478515626,0.011001286485791205,0.038785949990153314,-0.015074198480509221
1733697629101569500,11.179569580078125,0.034904140120744706,-0.00044949733316898343,-0.0315053827942349
1733697629111522600,11.1895224609375,0.04348550598323345,-0.02597702956050634,-0.04209180486882105
1733697629121475600,11.1994755859375,0.04619593398571014,-0.043131577979028224,-0.05935118363499641
1733697629131429400,11.209429443359374,0.04507189839184284,-0.020149930842220783,-0.04797269786726683
1733697629141382400,11.21938232421875,0.028410686448216437,-0.010934943251311778,-0.03627000338016078
1733697629151335400,11.22933544921875,0.008408931905031204,0.012934592635929583,-0.03341751829218119
1733697629161289500,11.23928955078125,-0.008211948028206824,0.02294862165004015,-0.008305909921973944
1733697629171242500,11.249242431640624,-0.0019879589468240737,0.03884878609329462,0.008111245866399257
1733697629181196500,11.259196533203125,-0.008521744629740714,0.04626052365452051,0.014699081557802855
1733697629191149600,11.269149658203125,0.017879355561733246,0.02704232070446014,0.009770666978601366
1733697629201102600,11.2791025390625,0.027225276055932043,0.00891103620827198,0.015849639832414684
1733697629211056400,11.289056396484375,0.03914192382097244,0.00298369198590517,0.027404797341302037
1733697629221009400,11.299009521484376,0.04739245029389858,0.007874386636912822,0.008696334011666477
1733697629230962200,11.308962158203125,0.040427871978282924,0.01258709437251091,0.00485834501767531
1733697629240916500,11.31891650390625,0.04348199885189533,0.01747048249989748,0.010525430868659168
1733697629250869200,11.328869140625,0.00967091466486454,0.02791998032182455,-0.003983772406540811
1733697629260822300,11.338822265625,-0.006229834300279617,0.02251899806112051,-0.010240147653874009
1733697629270776600,11.348776611328125,-0.0050970308780670165,0.005563479346036911,0.008410722003318369
1733697629280729300,11.358729248046876,0.014760931280255317,-0.0018631635233759879,0.005518690356239676
1733697629290683400,11.368683349609375,0.013555062621831893,0.00210924723893404,-0.0011676007409580052
1733697629300636400,11.378636474609374,0.032850714722275735,0.004431260445713996,-0.014581336929649113
1733697629310589400,11.38858935546875,0.030486908200383186,0.014213818791508674,-0.012569193389639258
1733697629320543200,11.398543212890624,0.027666590082645416,0.004236030134558678,-0.010783716478664428
1733697629330496300,11.408496337890625,0.013960136291384696,0.019079671262204646,-0.017636778977513312
1733697629340449300,11.41844921875,0.02318915240764618,0.026769933503866195,-0.0006488923627883195
1733697629350403300,11.4284033203125,0.02828676780760288,0.005640051713585853,0.008246909743733703
1733697629360356400,11.4383564453125,0.036605098819732666,0.01192658463716507,0.00924176599998027
1733697629370310400,11.448310302734376,0.024008652096986768,0.0007695230677723884,0.0029435061059892176
1733697629380263400,11.458263427734375,0.026560674667358397,-0.007502338454127311,-0.024204339065868406
1733697629390216400,11.468216552734376,0.020348376023769377,-0.010518179143965243,-0.03676786989970132
1733697629400170200,11.478170166015625,0.022344518277049065,0.011768763726949691,-0.04434813242824748
1733697629410123300,11.488123291015626,0.028813422030210492,0.024627953039109706,-0.05660425954703241
1733697629420076300,11.498076171875,0.041050972312688824,0.041725802834331985,-0.05119597076270729
1733697629430030300,11.5080302734375,0.03486673071980476,0.04119418017566204,-0.04316107806814834
1733697629439983400,11.5179833984375,0.030178865164518353,0.01983370449990034,-0.03901058905888349
1733697629449937400,11.5279375,0.0031973347365856167,0.014742226579785345,-0.023666779856756328
1733697629459890400,11.537890380859375,0.0012806874603033065,0.023236206419765947,-0.008896295296866447
1733697629469843500,11.547843505859374,-0.0003355155646800995,0.03064911302477121,0.008322112138103693
1733697629479797200,11.55779736328125,0.0021259061127901074,0.0027305940076708794,0.0034349428847432134
1733697629489750300,11.567750244140624,0.011135141998529434,-0.03564414483308792,0.014130816683173179
1733697629499703300,11.577703369140625,0.012692308312654494,-0.03528583291471004,0.04009244774514809
1733697629509657300,11.5876572265625,0.029420155751705167,-0.005195230555534363,0.07777922258805484
1733697629519610400,11.5976103515625,0.04694236843883991,0.033794717574119566,0.09977187695382163
1733697629529564400,11.607564453125,0.05621931535005569,0.03355740168690681,0.09705576812922954
1733697629539517400,11.617517333984376,0.05708849940001964,0.07979775933623313,0.075165441626776
1733697629549470500,11.627470458984375,0.020872692158818245,0.09120207366496325,0.040924879981298
1733697629559424500,11.637424560546876,0.027940730848908423,0.07628186016976833,-0.006899422391224652
1733697629569377500,11.64737744140625,0.03120820821225643,0.01758767913877964,-0.06322234424622729
1733697629579330600,11.65733056640625,0.05573182409405708,-0.03952829279005527,-0.13203505584541708
1733697629589284400,11.667284423828125,0.06940203752815723,-0.11147241601645946,-0.17205440182173623
1733697629599237400,11.6772373046875,0.04950783501267433,-0.12009469841122626,-0.1781819447913207
1733697629609191400,11.68719140625,0.03436579546034336,-0.1074666875064373,-0.1515139372919686
1733697629619144400,11.69714453125,0.010019289711117743,-0.09117986183315514,-0.08248557364810258
1733697629629097500,11.707097412109375,-0.03471124789714813,-0.05596358702331781,0.0007902918611653149
1733697629639052000,11.717052001953125,-0.04285305329859256,0.0006838906109333038,0.07296393126081675
1733697629649005000,11.727005126953125,-0.029988895550370216,0.07311492057144642,0.1075565577469766
1733697629658958000,11.7369580078125,-0.010561726024746894,0.10383096135258674,0.1199880049000494
1733697629668912000,11.746912109375,0.03504500989615917,0.1502221256494522,0.1250814555815421
1733697629678865200,11.756865234375,0.05179916082024574,0.1293275139197707,0.10750128389578312
1733697629688819200,11.766819091796876,0.060824178797006606,0.09198065682202577,0.08381795476302505
1733697629698772200,11.776772216796875,0.07304477794468403,0.06729454385489225,0.030522564035654065
1733697629708725200,11.786725341796876,0.09293722689449786,0.019839549718797207,-0.014286573500465602
1733697629718679300,11.79667919921875,0.05549158559739589,0.008635726398229598,-0.043214707951527084
1733697629728632300,11.80663232421875,0.010780921733379363,0.0027416999235749242,-0.07356368725225329
1733697629738585300,11.81658544921875,-0.025762217766046522,-0.013648586124181747,-0.08086434738812967
1733697629748539100,11.8265390625,-0.016844167295098304,-0.016253800186514854,-0.06921906391037627
1733697629758492200,11.8364921875,-0.01001812066733837,-0.021311083576083183,-0.04959691980192438
1733697629768446200,11.8464462890625,-0.009348258581757545,-0.02391717442125082,-0.05546674341708421
1733697629778399200,11.856399169921875,0.008130114963650703,-0.036436171993613244,-0.05613105254471302
1733697629788352300,11.866352294921874,0.014718845704197884,-0.017544424518942833,-0.05281717875637114
1733697629798306300,11.876306396484376,0.017435703447461127,0.02517769587635994,-0.040372086670435965
1733697629808259300,11.88625927734375,0.0070388125956058496,0.05473287618458271,-0.03230407715756446
1733697629818212400,11.89621240234375,0.010446575212478637,0.06970569664984941,-0.004457710061222315
1733697629828166100,11.906166259765625,0.012411153283715247,0.043731881959736346,0.002616922766435891
1733697629838119200,11.916119140625,0.03621230010986328,-0.0039051907449960707,-0.006468958552088588
1733697629848072200,11.926072265625,0.05379296498596668,-0.04143646449893713,-0.012000837183464317
1733697629858026200,11.936026123046876,0.05533318016529083,-0.038381460842490195,-0.0028639380637556313
1733697629867979300,11.945979248046875,0.05370587122440338,-0.05011369195133447,0.0056010896763764315
1733697629877933300,11.955933349609374,0.04948445413708687,-0.027596447455883025,0.02125949951931834
1733697629887886300,11.96588623046875,0.053800563770532606,-0.013589841674268245,0.030076117176096883
1733697629897839000,11.975839111328124,0.01812485475540161,0.0010354805275797844,0.03825398027161136
1733697629907793400,11.98579345703125,-0.002210077264904976,0.02253156528174877,0.02620223488481715
1733697629917746200,11.99574609375,0.0026747721672058106,0.029767361754179,0.025615320108644663
