time,seconds_elapsed,z,y,x
1733698024806551300,0.02255126953125,-0.05471007983088493,-0.2196300449291244,-0.11403759032934903
1733698024816506000,0.032506103515625,-0.21993805143237113,-0.005331460688449442,-0.2230366019695997
1733698024826460200,0.042460205078125,-0.2275035182505846,0.12394483450073748,-0.18786591986715792
1733698024836415200,0.052415283203125,-0.1397960087031126,0.12712814071197062,-0.05583645351231098
1733698024846369300,0.062369384765625,-0.052284898510575294,0.05955178424101323,0.055476388028264045
1733698024856323300,0.0723232421875,0.006656535279750824,-0.03880355871208012,0.0904153072014451
1733698024866278100,0.082278076171875,0.08065934460163116,-0.08823639225978404,0.08984744418561458
1733698024876232200,0.092232177734375,0.128127782741189,-0.05677450154740363,0.07555617624372243
1733698024886186200,0.102186279296875,0.10440320828258991,-0.005934577680751681,0.05905716912448406
1733698024896141300,0.112141357421875,0.010953355690836906,0.04307904407419264,0.047936932434141634
1733698024906095400,0.122095458984375,-0.0793985308855772,0.0441697253877297,0.03038958530575037
1733698024916050200,0.13205029296875,-0.08336977260410786,0.03455762823801487,0.01776625057607889
1733698024926004200,0.142004150390625,-0.018389058649539946,-0.01641202295552939,0.02751081499904394
1733698024935958300,0.151958251953125,0.05283084195554256,-0.03610423662550747,0.039060383017361165
1733698024945913300,0.161913330078125,0.09408931953907013,-0.037977081292681396,0.042513153819739816
1733698024955867400,0.171867431640625,0.08793664212822913,-0.0180937289647758,0.03846446295082569
1733698024965821200,0.1818212890625,0.0449514868825674,0.04175122953653335,0.00016658873856067658
1733698024975776300,0.1917763671875,0.006791559836268424,0.06768189920466393,-0.05937836390286684
1733698024985730000,0.20172998046875,-0.03298924641013145,0.06843724761661142,-0.08569237033277749
1733698024995685000,0.21168505859375,-0.03393500282764435,0.04416738730017095,-0.08766483944952487
1733698025005639400,0.221639404296875,0.002957096239924431,0.023802863859198987,-0.0452761887922883
1733698025015593200,0.23159326171875,0.05091419467926025,0.021379764898121354,0.017221768435835838
1733698025025548300,0.24154833984375,0.05764847137033939,0.03123487702347338,0.08124298970848322
1733698025035502000,0.251502197265625,0.046074353432655334,0.023767134958691892,0.11068038885593413
1733698025045456100,0.2614560546875,0.05092880772650241,0.009393266767263412,0.07960925102680921
1733698025055411200,0.2714111328125,0.04009878615438938,0.00014342705868184566,0.03265343858450651
1733698025065365200,0.281365234375,0.024895371803641316,-0.009296053470484912,-0.034304128400981425
1733698025075320300,0.2913203125,0.008712298765778542,-0.0018334990374743937,-0.07227554713785649
1733698025085274000,0.301274169921875,0.023064064723253248,-0.011832878471724689,-0.08369827390611172
1733698025095228200,0.311228271484375,0.054824646121263504,-0.03292867532931268,-0.09078969347178935
1733698025105183200,0.321183349609375,0.09784136554896831,-0.06675689331423491,-0.05246025507748127
1733698025115137000,0.331136962890625,0.11478022539019583,-0.06364124551173299,-0.019423077872395514
1733698025125091300,0.34109130859375,0.07732172461152076,-0.0638451340533793,0.027121523420512675
1733698025135046100,0.351046142578125,0.04592822296023369,-0.03653367755133658,0.056015317210555075
1733698025145000200,0.361000244140625,0.006878653597831725,-0.005670483384467661,0.06297726517766714
1733698025154955300,0.370955322265625,-0.0035872108370065686,0.017356025807373224,0.07279898649007081
1733698025164909000,0.380908935546875,-0.026965163815021512,0.014141520740278064,0.08452771046757697
1733698025174863000,0.390863037109375,-0.019250059393048285,0.04467778450772166,0.09244184459298849
1733698025184818200,0.400818115234375,-0.03316109584569931,0.05039780612234026,0.08929828587025404
1733698025194772200,0.410772216796875,-0.01794365296959877,0.06472421844284981,0.05273614940941333
1733698025204727300,0.420727294921875,-0.014983634120225905,0.06965670640897005,0.034222295336425304
1733698025214681000,0.43068115234375,-0.01913081692755222,0.042070013162121174,-0.006319558410346508
1733698025224635100,0.44063525390625,-0.013882979401946067,0.04103716298304498,-0.004780804535746574
1733698025234590200,0.450590087890625,-0.011775193467736244,0.045840910002961754,-0.007763911999762058
1733698025244544300,0.460544189453125,-0.006334463718533516,0.03119410662166774,0.010100538253784179
1733698025254498300,0.470498291015625,0.005917699611186981,0.005502871732600033,0.013922434629499911
1733698025264453000,0.480453125,-0.004940963533520699,0.014832169885560869,0.07809007863551377
1733698025274407200,0.4904072265625,0.00018587796092033385,0.0045235418390482665,0.10451105257123708
1733698025284362200,0.5003623046875,0.001450198808312416,-0.01961640848740935,0.11728344038277863
1733698025294316300,0.51031640625,-0.009873743760585784,-0.021592421268112956,0.11080898367166518
1733698025304270300,0.520270263671875,-0.0010854571491479873,-0.026795506336539984,0.11293781239390373
1733698025314225200,0.53022509765625,0.01690320400595665,-0.013981909731775521,0.08293722640573978
1733698025324179200,0.54017919921875,0.01822597704231739,0.012228745921514928,0.033445758005976677
1733698025334133200,0.55013330078125,-0.01884381667971611,0.05396035744212568,0.018362170642614365
1733698025344088300,0.56008837890625,-0.02034954506754875,0.058033488632552324,0.02232815166413784
1733698025354042400,0.57004248046875,-0.02914776855111122,0.04193444061633199,0.020181202763319014
1733698025363997200,0.5799970703125,-0.0015063129097223282,0.013841039956361054,0.005127426016330719
1733698025373951200,0.589951171875,0.011353753185272215,-0.015808723300136624,0.0025809564039111135
1733698025383905300,0.5999052734375,0.04457096313238144,-0.025485373586043716,-0.013290566466748715
1733698025393860000,0.609860107421875,0.05143734177052974,-0.03441719685401767,-0.02480593995451927
1733698025403814400,0.619814453125,0.054105684196949,-0.009806998667307198,-0.021645137836039066
1733698025413769200,0.629769287109375,0.059518356895446774,-0.004755450898781419,-0.018582535395026207
1733698025423723300,0.63972314453125,0.05354045152962208,0.0016561697091907262,-0.0033650925189256664
1733698025433677300,0.64967724609375,0.033391397470235826,0.002736439226567745,-0.0034837504625320433
1733698025443632000,0.659632080078125,0.021291794353723525,0.0030127719499170777,0.015918284621834755
1733698025453586200,0.669586181640625,0.03532090422809124,0.010235635875537991,0.028271277977526186
1733698025463540200,0.679540283203125,0.007104863569140434,0.027889219857379792,0.023358663755655287
1733698025473495300,0.689495361328125,0.013504793739318847,0.030264826414920388,0.020887889727950096
1733698025483449300,0.699449462890625,0.00421498734652996,0.027165179899148642,0.02122282077074051
1733698025493404200,0.709404052734375,0.006678162589669227,0.029141996397450565,0.033223055166006085
1733698025503358200,0.719358154296875,0.021097148564457893,0.022855573071725664,0.030893443174660203
1733698025513312000,0.72931201171875,0.017259762358665467,0.005452602850086987,0.027383973748981952
1733698025523267300,0.739267333984375,0.014844517910480498,0.007228051557391882,0.03299216901957989
1733698025533221000,0.74922119140625,-0.0026437925070524216,0.01560987625978887,0.030433132186532017
1733698025543175200,0.759175048828125,-0.007423427999019622,0.02065305805876851,0.03147591923773289
1733698025553130200,0.769130126953125,-0.006356675550341606,0.016582557216845453,0.00824175864458084
1733698025563084000,0.779083984375,-0.0136550158649683,0.01597907489836216,0.0027688801914453505
1733698025573039400,0.789039306640625,-0.02085983267724514,0.012067052553780376,0.0014548749834299086
1733698025582993200,0.7989931640625,0.014366963526606559,0.011964578559994696,0.016146540419757365
1733698025592947200,0.808947265625,0.014793664506077766,0.019490188291855157,0.04560381331145763
1733698025602902300,0.81890234375,-0.0022129998743534085,0.01173986642602831,0.05470072748064995
1733698025612856000,0.82885595703125,0.00870060832798481,-0.00829677676744759,0.057356794947385784
1733698025622811400,0.838811279296875,0.01359481011033058,-0.04081950164437294,0.0361766442745924
1733698025632765200,0.84876513671875,0.0225128605812788,-0.05958309269472956,0.03542845625579357
1733698025642719200,0.85871923828125,0.019219664254784583,-0.04719437043853104,0.037001404660940165
1733698025652674300,0.86867431640625,0.012891045755147934,-0.026605025265738366,0.04330196610987186
1733698025662628000,0.878628173828125,0.02307750872671604,-0.0013699731789529324,0.05145107803493738
1733698025672582100,0.88858203125,0.10481178908348082,0.20519491153713315,-0.13851356767714024
1733698025682537200,0.898537109375,1.0156892009168863,-0.01726363481618464,0.7084872920513152
1733698025692491300,0.9084912109375,0.06899053411781787,-0.103624150201492,-0.08836042049825191
1733698025702446300,0.9184462890625,-1.129361757326126,-0.20226174416206777,-0.6790887636095285
1733698025712400100,0.928400146484375,-1.0313070412874221,0.09123349171653389,-0.4470040550485253
1733698025722354200,0.938354248046875,-0.1835965719848871,0.21632183369658886,0.06287818871736527
1733698025732309000,0.94830908203125,0.4134101207435131,0.17687555663418023,0.49271512812674045
1733698025742263300,0.95826318359375,0.5143465296983718,0.04553593570701778,0.6167009887576103
1733698025752218400,0.96821826171875,0.302153393304348,-0.04465115222912282,0.3706108434587717
1733698025762172200,0.978172119140625,0.01791442687511444,-0.036006365741603076,0.08051321412920952
1733698025772126200,0.988126220703125,-0.17910335221886634,-0.0013695347875356673,-0.16253391021192073
1733698025782081000,0.9980810546875,-0.2426864743351936,0.054803968659415836,-0.21959990551918743
1733698025792035000,1.00803515625,-0.17852759815752506,0.11024437205884605,-0.13714052575826643
1733698025801989400,1.0179892578125,-0.02535188339948654,0.08573339646290987,-0.032813889843225474
1733698025811944200,1.027944091796875,0.08350888881385325,0.00853595581818372,0.06550707591623067
1733698025821898200,1.037898193359375,0.16436112563908098,-0.07764160421565175,0.058039224253594875
1733698025831853000,1.04785302734375,0.2696335179716349,-0.11596695095673203,0.00011895020455121993
1733698025841807000,1.05780712890625,0.26455694535970686,-0.11715539355631917,-0.062360010062158105
1733698025851761200,1.06776123046875,0.1459095231473446,-0.08469703915249556,-0.08307078965753316
1733698025861716200,1.07771630859375,-0.018476736932992933,-0.04374843123573809,-0.04859481182098389
1733698025871670300,1.087670166015625,-0.10323299545943737,-0.01233940322175622,-0.014258826977014541
1733698025881624300,1.097624267578125,-0.04007482075691223,-0.016856332656927406,0.054202714830636975
1733698025891579100,1.1075791015625,0.043181554600596424,-0.0026030586378648878,0.11189911699593066
1733698025901533200,1.117533203125,0.07943243315517902,-0.004061769546195864,0.12920271849632262
1733698025911488300,1.12748828125,0.07092120991945267,0.015063786684349179,0.1346560154661536
1733698025921442300,1.1374423828125,0.044268765315413475,0.04196103636231273,0.08542612061202526
1733698025931396400,1.147396240234375,-0.006219312906265258,0.0637445962883532,0.020090601870417595
1733698025941351200,1.15735107421875,-0.022368483674526214,0.05137523631975054,-0.06760229462981224
1733698025951305200,1.16730517578125,-0.055821255943179125,0.04531717838980257,-0.12269932795166968
1733698025961259000,1.177259033203125,-0.05317278726100921,0.04134253913778811,-0.13516308820545672
1733698025971214300,1.18721435546875,-0.028722821137309073,0.044214222116582096,-0.11107231078296899
1733698025981168400,1.19716845703125,-0.007353869894146919,0.03613375498093664,-0.012448270423710345
1733698025991123200,1.207123291015625,0.005934066224098205,0.037830000972189005,0.05851648637652397
1733698026001077200,1.2170771484375,0.3141910371005535,0.1425735105924308,0.11096183614581823
1733698026011031000,1.227031005859375,2.0096347720593215,0.357764586693421,1.4355068506151436
1733698026020987100,1.236987060546875,-0.582709871828556,-0.13654252333249897,0.011686053879559039
1733698026030941000,1.24694091796875,-1.333438222759962,-0.11191950219683348,-1.5573744039177895
1733698026040896300,1.256896240234375,-1.3399848679244517,-0.1057128661090508,-1.5441519342511891
1733698026050850000,1.26685009765625,-0.7035176869451999,0.014557334999553858,-0.5007239547982811
1733698026060804000,1.27680419921875,0.306224588266015,0.2661801991799846,0.9122519150570034
1733698026070759200,1.28675927734375,0.6813976250737905,0.2478392174558714,1.297359778162837
1733698026080713000,1.296712890625,0.6931926922857761,-0.011939809444919227,1.2028662617370485
1733698026090667000,1.3066669921875,0.42294659537374973,-0.13668452561907468,0.6582414981529117
1733698026100622000,1.3166220703125,-0.27213468713760375,-0.054764549964480096,-0.5149661229014396
1733698026110576000,1.326576171875,-0.2726455592691898,-0.05989760200399905,-0.5134951735660434
1733698026120531200,1.33653125,-0.4564525591343641,0.06896192907784134,-0.6033510933190583
1733698026130485000,1.346485107421875,-0.3911269772648811,0.14956274842526762,-0.3850415198713541
1733698026140439000,1.35643896484375,-0.11873626953959464,0.13118830282296984,-0.03809036894142628
1733698026150394000,1.36639404296875,0.14692191506028174,0.01198803250081837,0.2113426570445299
1733698026160348200,1.37634814453125,0.29552316150963304,-0.08479494656901806,0.2971855417639017
1733698026170302200,1.38630224609375,0.32850656270086764,-0.1073714835036546,0.21375117949098346
1733698026180257000,1.396257080078125,0.2701917363762855,-0.062233022681623694,0.043106735798716544
1733698026190211000,1.406211181640625,0.09609539866447449,0.006650726593472063,-0.08437836512476206
1733698026200166100,1.416166259765625,-0.08139701122641563,0.049809521372988816,-0.1592857220709324
1733698026210120200,1.4261201171875,-0.16089607987701893,0.06391618999559431,-0.13393617675900457
1733698026220074200,1.43607421875,-0.09067688074707984,0.040216859576106066,-0.05888444290608167
1733698026230029000,1.446029052734375,0.03335281902551651,0.008148381272703408,0.02859013466835022
1733698026239983000,1.455983154296875,0.13895371266007422,-0.00795768100619316,0.1187704640701413
1733698026249937200,1.465937255859375,0.16679741287529468,0.0008414557928219437,0.14763386272192
1733698026259892200,1.475892333984375,0.11817805113494395,0.008438377195224165,0.0888815217629075
1733698026269846300,1.48584619140625,0.04083236112594604,0.0291489741275087,0.015607903498411178
1733698026279801000,1.495801025390625,-0.0052472530037164684,0.04257156947609037,-0.09782762928456068
1733698026289755100,1.505755126953125,-0.0539139610171318,0.04888908205982297,-0.16834201196879148
1733698026299709200,1.515709228515625,-0.032141689670085904,0.041817134379595514,-0.16643471704274415
1733698026309664000,1.5256640625,0.004255903878808021,0.03761456812322139,-0.10089490790069103
1733698026319618300,1.535618408203125,0.039815293037891386,0.0346651437330991,-0.012726502843201159
1733698026329573000,1.545572998046875,0.07676584429442881,0.03273735400829464,0.05148205769509077
1733698026339527200,1.555527099609375,1.6171400135725735,1.065646314067021,0.7411351776778697
1733698026349481200,1.565481201171875,0.36068273916244503,0.07681881659068167,0.5510927905544638
1733698026359436000,1.57543603515625,-0.9148872319966554,-1.4276236961498856,-1.0129749735221265
1733698026369390000,1.58539013671875,-0.7907692694187164,-0.8462269527465105,-1.399813898204267
1733698026379344100,1.59534423828125,-0.9002811990171671,-0.19422321647200733,-0.7463502819776534
1733698026389299200,1.60529931640625,-0.27187399037480353,0.5234494352169334,0.47946869306266304
1733698026399253200,1.615253173828125,0.17848843519091606,0.6210491009645164,1.0077674680069089
1733698026409208000,1.6252080078125,0.5687088190048932,0.3932777986232191,1.216752163748443
1733698026419162000,1.635162109375,0.6693816085875034,0.0031538974536582825,0.8376601999312638
1733698026429116000,1.645115966796875,0.3654559449136257,-0.25192257777936755,0.17674188378453254
1733698026439071200,1.6550712890625,-0.11341595129966735,-0.256112430684641,-0.34800796650648114
1733698026449025300,1.665025390625,-0.5076870718091726,-0.0562896041072905,-0.5543684512242675
1733698026458979000,1.67497900390625,-0.5061036020100116,0.18519673719052224,-0.42015404204577206
1733698026468934100,1.68493408203125,-0.21343115375638008,0.3233183464080095,-0.10839461600631475
1733698026478888000,1.694887939453125,0.07399871766865253,0.2650288371877745,0.11446283000409603
1733698026488843300,1.70484326171875,0.22472528570890427,0.07817373833097517,0.18388795614689588
1733698026498797000,1.714797119140625,0.30731296802461144,-0.07708042666893453,0.17215338695049284
1733698026508751000,1.724751220703125,0.32863281942903994,-0.12560790887475012,0.08186258291155099
1733698026518706200,1.7347060546875,0.24563597179055213,-0.11191910033803433,0.006823708540201187
1733698026528660000,1.744659912109375,0.05816869585216045,-0.023664989758469163,-0.03723930507004261
1733698026538615300,1.754615234375,-0.06887304521799087,0.030876711235567924,-0.09114069886654615
1733698026548569000,1.764569091796875,-0.04414835380613803,0.006660115476325154,-0.11996493455171585
1733698026558523100,1.774523193359375,0.05831833345592022,-0.06925733182784169,-0.10541589245647191
1733698026568478200,1.784478271484375,0.18082827631533144,-0.11755253964774309,-0.08265431781113147
1733698026578432000,1.794431884765625,0.22251462392210958,-0.11963595832567661,-0.0324643457531929
1733698026588386000,1.804385986328125,0.1837023704469204,-0.08572177909035235,-0.0008992869272828101
1733698026598341000,1.814341064453125,0.10515431891083717,-0.009485365497507154,-0.018836217895150182
1733698026608295200,1.824295166015625,0.025588614764809607,0.0590277238342911,-0.03958616045713424
1733698026618250200,1.834250244140625,-0.009791910696029662,0.08106102073770016,-0.0828124309822917
1733698026628204000,1.8442041015625,-0.041866964870691296,0.0732788424288854,-0.08843377799540758
1733698026638158000,1.854157958984375,-0.0344295083463192,0.054872321187891065,-0.045911564086377615
1733698026648113000,1.86411279296875,-0.028741525837779044,0.04531268487777561,0.015080372492969035
1733698026658067200,1.874067138671875,0.01498480316400528,0.03413695514053106,0.08025485545396804
1733698026668021200,1.884021240234375,0.034303836140036584,0.04081281617525965,0.10973112530708312
1733698026677976000,1.89397607421875,0.0198550395488739,0.054729222922772165,0.0744751030087471
1733698026687930000,1.90393017578125,-0.0107575408577919,0.07055803916286676,0.0469841617539525
1733698026697885000,1.913885009765625,-0.03993804263472557,0.057022010035067794,-0.0031762919485569
1733698026707839000,1.9238388671875,-0.061580550122261046,0.017795695866271853,0.002474281159043312
1733698026717793300,1.933793212890625,-0.06444120025038719,0.019798158262483774,0.060631871095299716
1733698026727748000,1.943748046875,-0.036888591936230654,0.020744024277850985,0.10495412016361952
1733698026737702100,1.9537021484375,0.01911269674897194,-0.00811699975375086,0.1533119083583355
1733698026747656200,1.96365625,0.010342530316114425,-0.014441891926340758,0.1721814440011978
1733698026757611000,1.973611083984375,-0.003477320721745491,-0.026719481958262622,0.16078677428364752
1733698026767565000,1.98356494140625,0.6672334906429052,-0.04835468292217701,0.16333675102740525
1733698026777520000,1.99352001953125,2.502814010566473,0.08841949374172836,1.4566121824860572
1733698026787474200,2.00347412109375,-0.9761036249816417,-0.6494245699688792,-1.4053265241459012
1733698026797428200,2.01342822265625,-1.6672177574276923,0.7152155773930251,-1.0880813601717352
1733698026807383000,2.023383056640625,-1.6742396188884971,0.7227025721475482,-1.0739295007005334
1733698026817337000,2.033337158203125,-0.5211830977201461,0.8007762841701507,0.7128633151784539
1733698026827292200,2.043292236328125,0.4395218825995922,0.427869730989635,1.3010977956473826
1733698026837246200,2.05324609375,0.8253197737962007,0.020952917788177726,1.6987401461556553
1733698026847200300,2.0632001953125,0.8338117078095674,-0.320881072791107,1.3630083083763718
1733698026857155000,2.073155029296875,0.5597317318230867,-0.3318563845854252,0.6013923604667186
1733698026867109000,2.083109130859375,0.05467910017073154,-0.19848379652593284,-0.2727715237364173
1733698026877063000,2.09306298828125,-0.4048036204397678,0.010601181252300739,-0.8023436796173453
1733698026887018200,2.103018310546875,-0.6060422320991754,0.20050353885050862,-0.8713760070502757
1733698026896972300,2.11297216796875,-0.4349830701261759,0.23475100516080855,-0.580870965963602
1733698026906926000,2.122926025390625,-0.05958791500031948,0.11220394516140222,-0.14211597608327864
1733698026916881200,2.132881103515625,0.23009295022189616,-0.10663776240162551,0.2031970522508025
1733698026926835000,2.1428349609375,0.3727250591337681,-0.20281579784825443,0.3552922782957554
1733698026936790300,2.152790283203125,0.4118143759846687,-0.16042773171290756,0.3274617298230529
1733698026946744300,2.162744384765625,0.34515900681614875,-0.01816865736451,0.19780074616521595
1733698026956698000,2.172697998046875,0.0875245541960001,0.10043730032630264,0.0381242712110281
1733698026966653200,2.182653076171875,-0.14591829097568987,0.14903835922498254,-0.06924567792266607
1733698026976607000,2.19260693359375,-0.23583237065672874,0.1061543262662366,-0.11102058059573174
1733698026986562000,2.20256201171875,-0.1457955413788557,0.031040742690861222,-0.09006839345991612
1733698026996516400,2.212516357421875,0.03825637315809727,-0.03225822872184217,-0.032177930027246476
1733698027006470100,2.22247021484375,0.16417115602493285,-0.037944275001622736,0.03571399519890547
1733698027016424200,2.232424072265625,0.1920890905201435,-0.024692871501483023,0.07245762570649385
1733698027026378200,2.242378173828125,1.6579729592204093,0.274335156323947,0.3622399054765701
1733698027036332000,2.25233203125,2.0377415071249008,0.5359206846574321,1.5461974686041473
1733698027046287400,2.262287353515625,-1.0018722724884748,-0.33598248807210473,-0.8094865371093154
1733698027056241200,2.2722412109375,-1.7286808186501263,-0.6378370810929685,-2.277077794249356
1733698027066196200,2.2821962890625,-2.2482395300388336,-0.5085679828295484,-2.019124484938383
1733698027076150300,2.292150390625,-1.1025327871114015,0.2810358960716054,-0.5423591567397117
1733698027086104000,2.30210400390625,0.3537497250288725,0.5450398471910506,0.4897983638972044
1733698027096059400,2.312059326171875,1.0358920309901236,0.21917733272556214,1.4000392313927412
1733698027106013200,2.32201318359375,1.1821586970120668,0.02142828021496534,1.7277952679872512
1733698027115967200,2.33196728515625,0.8810060051828622,-0.17513901516515762,1.2629174103349448
1733698027125922300,2.34192236328125,0.2930757683575153,-0.25947266436535865,0.34547172602713105
1733698027135876000,2.3518759765625,-0.384090502756834,-0.1433556374134496,-0.4545461409911513
1733698027145831200,2.3618310546875,-0.8893424563735723,0.071315725662373,-0.7587763405695557
1733698027155785200,2.37178515625,-0.9091963268786668,0.2873954576987773,-0.5550453275725246
1733698027165739300,2.3817392578125,-0.48388124880790706,0.3256061285516247,-0.08744213660955429
1733698027175694300,2.3916943359375,0.0064472764432430265,0.22232593294959513,0.3541881164461374
1733698027185648000,2.401648193359375,0.3188853323966265,0.02226370812579989,0.5813304001688957
1733698027195602200,2.411602294921875,0.49444882005155083,-0.13557963311709462,0.5783464159220457
1733698027205557000,2.421556884765625,0.4565267934143543,-0.18706896080318838,0.39314737717658277
1733698027215511300,2.43151123046875,0.2530892104059458,-0.1362436865163967,0.14108108007758854
1733698027225466400,2.44146630859375,-0.02932546320557594,-0.03812445387411863,-0.08359715161919594
1733698027235420200,2.451420166015625,-0.21949849097132682,0.05761248674150556,-0.21240356427431106
1733698027245374200,2.461374267578125,-0.20249708728790283,0.07439111451972276,-0.26215543717592954
1733698027255329000,2.4713291015625,-0.046806759360432625,0.0442277391852811,-0.23789719423204658
1733698027265283000,2.481282958984375,0.15775310567617415,-0.022499197382107376,-0.1146948851943016
1733698027275238400,2.49123828125,0.2813034974992275,-0.08806406790018081,-0.028046529310941693
1733698027285192200,2.501192138671875,0.25740298195183275,-0.09789846603106707,0.027857728740572928
1733698027295146200,2.511146240234375,0.17860884670019148,-0.06155347945224494,0.008134791138768195
1733698027305101000,2.52110107421875,0.05262509025037288,0.011892718900181353,-0.06380319460779428
1733698027315055000,2.53105517578125,-0.041626141852140426,0.05637994927186519,-0.14890549009293316
1733698027325009200,2.541009033203125,-0.08694295491576194,0.06343596873059869,-0.2121270854204893
1733698027334964200,2.550964111328125,-0.07162322070896625,0.054352206303924316,-0.1919783236220479
1733698027344918300,2.560918212890625,-0.04477028509676456,0.038892150310985744,-0.06696107411682606
1733698027354873000,2.570873046875,-0.0014583821147680282,0.029443317431583998,0.08069821530729532
1733698027364827100,2.5808271484375,0.04595920262038707,0.02496398006044328,0.17621406051814556
1733698027374781200,2.59078125,0.039653380474448205,0.027617709439620376,0.20835896505862472
1733698027384736300,2.600736328125,0.007110124266147613,0.03585154050607234,0.16418284646272657
1733698027394690300,2.610690185546875,-0.04749824875593185,0.04325677526127547,0.06956395009160041
1733698027404644400,2.620644287109375,-0.10028525156974792,0.023130517555586993,0.01255436114668846
1733698027414599200,2.63059912109375,-0.08118775238990783,0.009004377047531306,0.0055199324652552605
1733698027424553200,2.64055322265625,-0.04470248055756092,-0.005899798628315329,0.047510231454670426
1733698027434508300,2.65050830078125,0.01806523352265358,-0.003239931769296527,0.10161416208595037
1733698027444462300,2.66046240234375,0.047286651831865305,0.009399294649250805,0.18471856175214052
1733698027454416400,2.67041650390625,0.05598901372551918,-0.02908054853379726,0.22258944272398948
1733698027464371200,2.68037109375,0.01569149012863636,-0.027573760700039564,0.18135697636455297
1733698027474325200,2.6903251953125,0.006436755049228668,-0.01675462584812194,0.10908084470480679
1733698027484279000,2.700279052734375,0.0005956278055906295,-0.008559117498062551,0.034329262842237945
1733698027494234400,2.710234375,-0.004983049109578132,0.02541683839447796,-0.019725860211253166
1733698027504188400,2.7201884765625,-0.007736147210001945,0.05440116001218557,-0.07290361590832471
1733698027514143200,2.730143310546875,-0.01569149012863636,0.06277746828924864,-0.0907704042494297
1733698027524097300,2.74009716796875,-0.012891045755147934,0.04716770162731409,-0.0760676328971982
1733698027534051000,2.750051025390625,0.017193711385130882,0.03212064688205719,-0.05880640923380851
1733698027544006100,2.760006103515625,0.026745383584499356,0.020973010728135705,-0.01604308004528284
1733698027553960400,2.76996044921875,0.0035170682102441788,-0.0003648147244006395,0.015068682055175303
1733698027563914200,2.779914306640625,0.013211948272585868,-0.0024381869323551655,0.02822363944351673
1733698027573869300,2.789869384765625,0.013669044390320777,-0.0016183219168335197,0.04670885194391012
1733698027583823000,2.799822998046875,0.019622984358668327,-0.008336926114745437,0.05764964041411876
1733698027593778200,2.809778076171875,0.023766660034656523,-0.004814414544403553,0.053231239449977874
1733698027603732200,2.819732177734375,0.029345921471714973,-0.001459258897602558,0.06197130300551652
1733698027613686300,2.829686279296875,0.014738719448447226,0.005697809782810509,0.05948474688678979
1733698027623641300,2.839641357421875,0.004373392778635025,0.014176226727478205,0.05137041401416063
1733698027633595100,2.84959521484375,0.004852116206288337,0.016226071929372848,0.04312456371635198
1733698027643550200,2.85955029296875,0.009895955592393875,0.015752901459671557,0.023196751192212102
1733698027653504300,2.869504150390625,0.012833762609958648,0.031149792555905876,0.025713410188257693
1733698027663458000,2.8794580078125,0.0352267962038517,0.04006773342899978,0.02806669531613588
1733698027673413400,2.889413330078125,0.04017302043437958,0.0280715541543439,0.026557752057909965
1733698027683367200,2.8993671875,0.050070145070552824,0.021619747666455805,0.020379940205812453
1733698027693321200,2.9093212890625,0.03627952012717724,0.020257629000395534,0.013078092759847641
1733698027703276000,2.919276123046875,0.013463292685151099,0.003350041080266237,0.001514203955233097
1733698027713230000,2.92922998046875,0.003906944310665131,-0.004999086928926408,-0.0018485504761338234
1733698027723185400,2.939185302734375,0.009207388806343078,0.00893587838858366,-0.018299042278528212
1733698027733139200,2.94913916015625,0.01255436114668846,0.01995042621474713,-0.01033054761737585
1733698027743093200,2.95909326171875,0.02226268521249294,0.015312354617938399,0.0010939327165484427
1733698027753048000,2.969048095703125,0.024024434188008308,0.017970431378670035,0.025093816985189914
1733698027763002000,2.979002197265625,0.02381517535150051,0.013430303731001913,0.05526566788703203
1733698027772956200,2.9889560546875,0.015353051954507826,-0.021988142587430773,0.032383097210526464
1733698027782911200,2.9989111328125,0.029767361754179,-0.026196371399611233,0.030977322065830228
1733698027792865300,3.008865234375,0.03240063286721706,-0.03566182662025094,0.02788870840072632
1733698027802820000,3.018820068359375,0.031608021184802056,-0.02215074927061796,0.02914250785410404
1733698027812774100,3.028774169921875,0.018912790262699125,0.006710201695747673,0.041325989861786365
1733698027822728200,3.038728271484375,0.02874561749100685,0.029050920580513773,0.056603053970634934
1733698027832683300,3.048683349609375,0.023103812211751937,0.022005897439830002,0.05506079296469688
1733698027842637300,3.05863720703125,0.016152677899599073,0.02396280366126448,0.017793138583004475
1733698027852591400,3.06859130859375,-0.01397474933862686,0.036592750794813035,0.012498539306223392
1733698027862546200,3.078546142578125,-0.028964813199639318,0.036879787575267255,0.011022621534764765
1733698027872500200,3.088500244140625,-0.047923196169734,0.04553224591258913,-0.004560732044279575
1733698027882455000,3.098455078125,-0.06380114878118037,0.04482230754494667,-0.01464665725082159
1733698027892409300,3.108409423828125,-0.034493805754184724,0.027859372708387672,0.031572949871420855
1733698027902363400,3.11836328125,-0.007882277682423592,0.04281352500580251,0.07112637710273266
1733698027912318200,3.128318115234375,0.008095043650269508,0.044495705939084286,0.10986351951509714
1733698027922272300,3.138272216796875,0.012754852154850959,0.04623926167078316,0.12548574379980562
1733698027932226300,3.148226318359375,0.016926584881544113,0.010904694243520498,0.08452011168301105
1733698027942181000,3.15818115234375,0.038163434177637096,0.002863682335428893,0.016644553069770335
1733698027952135400,3.168135498046875,0.04477086961865425,-0.0017654022373259067,-0.038899931758642196
1733698027962090200,3.17809033203125,0.02436813305914402,0.008371851297654212,-0.08568038763403892
1733698027972044300,3.188044189453125,0.05144084890186786,-0.0038236499413847923,-0.11647153947800397
1733698027981998000,3.197998046875,0.05332359390854835,-0.03371777988038957,-0.106381814879179
1733698027991953200,3.207953125,0.0764133775949478,-0.07653572533298283,-0.09639876552522182
1733698028001907200,3.2179072265625,0.08718670054376125,-0.0950774537935853,-0.03663870882838964
1733698028011861200,3.227861328125,0.06955050608813762,-0.09526910390816629,0.02161649626344442
1733698028021816800,3.23781689453125,0.019210896426439285,-0.07369911366757005,0.09550357025116682
1733698028031770600,3.2477705078125,-0.028956629893183705,-0.027061792589910327,0.1384700207963586
1733698028041725700,3.2577255859375,-0.042730303701758385,0.02278269049860537,0.17810206622183322
1733698028051679500,3.267679443359375,-0.05496960754990577,0.05726341757550835,0.17791648052185774
1733698028061633800,3.2776337890625,-0.07328209383189678,0.07948003515657037,0.1412751413449645
1733698028071588900,3.2875888671875,-0.049319034442305565,0.09467153987381607,0.07785480857491493
1733698028081542700,3.297542724609375,-0.017934300619363783,0.10315613083094358,0.029207097522914408
1733698028091497700,3.307497802734375,-0.02119534824192524,0.10784019699394702,-0.013803192164003848
1733698028101451500,3.317451416015625,-0.024235446590185165,0.09473097844347357,-0.053609425112605094
1733698028111405600,3.327405517578125,-0.009521277061104774,0.0730647978194058,-0.07978343854993582
1733698028121361000,3.33736083984375,0.007027122157812118,0.07145155393648893,-0.07751666266173124
1733698028131314700,3.347314697265625,0.007047580423951149,0.04718238773979246,-0.06767799021452665
1733698028141268700,3.357268798828125,0.028878303959965705,0.022634331536479292,-0.03338935164362192
1733698028151223600,3.3672236328125,0.03076981679499149,-0.002370857317186892,0.015965338633954523
1733698028161177600,3.377177490234375,0.04368833507895469,-0.008916077709570527,0.0825263075172901
1733698028171133000,3.3871328125,0.049288054782152174,-0.021968524571508167,0.1331038175880909
1733698028181086700,3.397086669921875,0.01335047996044159,-0.04090802017804235,0.1577265099301934
1733698028191040800,3.407040771484375,-0.0029588498055934903,-0.06940649450756609,0.15467822827547786
1733698028200995600,3.41699560546875,-0.00329261180460453,-0.06691760030128062,0.08397007658481598
1733698028210949600,3.42694970703125,0.014123217898607253,-0.042617600574903186,0.04303951578140258
1733698028220903700,3.436903564453125,0.006741875475645065,-0.004698058155737817,0.018015256901085377
1733698028230858800,3.446858642578125,-0.015801964765787123,0.015838606981746852,-0.0012844868525862692
1733698028240812800,3.456812744140625,-0.025830606827139852,0.0032232363628223537,-0.0027270868763327595
1733698028250767600,3.466767578125,-0.004823474633693695,-0.000837218009121716,-0.0004214402824640274
1733698028260721700,3.4767216796875,0.03127075205445289,-0.014328348549269138,0.002984276507794857
1733698028270675700,3.48667578125,0.04657353512644768,-0.016000263816863296,0.00010229133069515228
1733698028280630800,3.496630859375,0.037331075006723405,-0.02077935131955892,0.013100596852600574
1733698028290584800,3.506584716796875,0.031236849784851074,0.018832455035485324,0.009930734644830226
1733698028300539000,3.516538818359375,0.01769523116648197,0.036064087278209624,0.02493716511875391
1733698028310493700,3.52649365234375,0.005372340688109397,0.03569547316152602,0.01954348938167095
1733698028320447700,3.53644775390625,0.021214637464284897,0.03687478260658681,0.00928746830523014
1733698028330402600,3.546402587890625,0.02327449260354042,0.04306706137545407,0.015517887127399444
1733698028340356900,3.55635693359375,0.02026245130598545,0.036410343432612714,0.0025607903987169265
1733698028350311000,3.566310791015625,0.01963993549346924,0.03512271477486938,0.02088759746700525
1733698028360265700,3.576265625,0.01614800172448158,0.02961465541049838,0.017424889792501924
1733698028370219800,3.5862197265625,0.010938158121705054,0.03434621397703886,0.018023147946596145
1733698028380173600,3.596173583984375,0.02505260819196701,0.030799554346129295,0.02456774728447199
1733698028390128600,3.606128662109375,0.042915597140789026,0.03485394430346787,0.02286708084642887
1733698028400083000,3.6160830078125,0.027764205238223073,0.03256656401865184,0.034087563040852545
1733698028410037800,3.626037841796875,0.0316711495488882,0.012784407042898236,0.0347299525976181
1733698028419991800,3.63599169921875,0.01684475181698799,0.014358707154914736,0.03111059305667877
1733698028429945600,3.645945556640625,0.0029939211189746857,0.007079473399557173,0.012091712071001529
1733698028439900700,3.655900634765625,0.01087561427950859,-0.0019202274728566406,0.009003682927787303
1733698028449854700,3.665854736328125,0.01780161415040493,0.005791881274431944,0.01398351716697216
1733698028459808800,3.675808837890625,0.012108955466747283,0.010599354621395468,0.022611644780635834
1733698028469763800,3.685763916015625,0.002039396873116493,0.003755626206472516,0.04164075489938259
1733698028479717600,3.695717529296875,0.020000585499405858,-0.01795589139666408,0.015359481695294379
1733698028489672700,3.705672607421875,0.035516719061136244,-0.04189893091153353,0.020417349606752396
1733698028499626800,3.715626708984375,0.03035422173142433,-0.0509746196296066,0.028112288023531436
1733698028509580500,3.72558056640625,0.03075111209452152,-0.05260116138551384,0.04775836099684238
1733698028519535900,3.735535888671875,0.031058570608496663,-0.04100161674562841,0.05937777938097715
1733698028529489700,3.74548974609375,0.031226328390836715,-0.020074746714159847,0.05931377423405647
1733698028539444700,3.75544482421875,0.025589199286699293,-0.010681297283805907,0.05244038133323192
1733698028549398800,3.765398681640625,0.035329672056436535,0.006933415992371738,0.02137391967922449
1733698028559352600,3.7753525390625,0.03077157036066055,0.02739752735029906,-0.0007028875723481178
1733698028569308000,3.785307861328125,0.011870470535755157,0.030034743986092505,0.005766308441758156
1733698028579261700,3.79526171875,0.0017325228810310363,0.046072892127931114,0.018636019147932528
1733698028589215700,3.8052158203125,-0.04284019381701946,0.0685323785541579,0.015487491989135741
1733698028599170600,3.815170654296875,-0.07579787604510783,0.05859470271188765,0.029474808548390862
1733698028609124600,3.82512451171875,-0.05202361722588539,0.052044842677004634,0.01289864453971386
1733698028619080000,3.835079833984375,-0.0014496142864227294,0.05533204765412956,0.04211714023947716
1733698028629033700,3.84503369140625,0.005935235267877578,0.06792557176742703,0.08232114033401013
1733698028638987800,3.85498779296875,-0.00613514175415039,0.06099084060080349,0.09275193345546721
1733698028648942600,3.864942626953125,0.004525368469953537,0.00703928751964122,0.08031301538199186
1733698028658896600,3.874896728515625,0.05861234796643257,-0.021587635495141148,0.06081073479354381
1733698028668850700,3.8848505859375,0.08306056052446364,-0.028778387249447403,0.007236965516209602
1733698028678805800,3.8948056640625,0.06843465380072593,-0.03072762162107974,-0.04349105894118547
1733698028688759800,3.904759765625,0.044672085419297215,-0.05400193156152963,-0.07237374681532383
1733698028698714600,3.914714599609375,0.07555354589521884,-0.06439608246702701,-0.09222031079679727
1733698028708668700,3.924668701171875,0.10410101046562194,-0.0771093970350921,-0.0990071944579482
1733698028718622700,3.934622802734375,0.09750760354995727,-0.0666906962102279,-0.06840776579380035
1733698028728577500,3.94457763671875,0.0754337189078331,-0.04825516807045787,-0.01895224549025297
1733698028738531800,3.95453173828125,0.05645370862782001,-0.019672632186673582,0.024623569124937055
1733698028748486000,3.96448583984375,0.013397826233506202,0.006697744072973728,0.06024082595109939
1733698028758440700,3.974440673828125,0.015017536389827727,0.016448299845308066,0.07579875282794236
1733698028768394800,3.984394775390625,0.002915595185756683,0.017572408504411576,0.0808081054225564
1733698028778349600,3.994349609375,0.0055704936087131495,0.01311941115092486,0.06469196014106274
1733698028788303600,4.0043037109375,0.021277765828371046,0.014698971959948539,0.04090133470892906
1733698028798258000,4.0142578125,0.021160276928544042,0.00967760013397783,0.016909633746743202
1733698028808212700,4.024212646484375,0.03888882584273815,0.031886691995710134,-0.0023719898283481597
1733698028818166800,4.034166748046875,0.013086276066303252,0.04346398827116936,-0.021248247472941875
1733698028828120800,4.044120849609375,0.012123568513989448,0.059222004297375674,-0.010385200414061546
1733698028838075600,4.05407568359375,0.014745733711123466,0.0716944227816537,-0.01480301685631275
1733698028848029700,4.06402978515625,0.011662380743026732,0.07259239453468472,-0.022943945474922657
1733698028857984800,4.07398486328125,0.01987082163989544,0.051518553780578076,0.0006344985112547874
1733698028867938800,4.083938720703125,-0.016354922473430632,0.06796159292887896,0.022383973504602906
1733698028877892600,4.093892578125,0.010383446848392486,0.055046545243635774,0.05750672481209039
1733698028887847700,4.10384765625,0.0247480722874403,0.03622943390775472,0.042992461769282814
1733698028897801700,4.1138017578125,0.015568740531802176,0.020993943918310106,0.046670273499190805
1733698028907756800,4.1237568359375,0.03477846791446209,-0.006815306038036942,0.013176000176370143
1733698028917710800,4.1337109375,0.05826748005151748,-0.014909874764271079,-0.0171884506881237
1733698028927664600,4.14366455078125,0.03580138122141361,0.011289492310024797,-0.012061316932737827
1733698028937619700,4.15361962890625,0.021340309670567513,0.002478811203688383,-0.0364466933876276
1733698028947573800,4.16357373046875,-0.004868482819199562,0.014083689605817198,-0.038277708207070826
1733698028957527600,4.173527587890625,0.011373042407631873,-0.0033485067103058096,-0.05308072506338358
1733698028967483000,4.18348291015625,0.033627544313669204,-0.008715550168789922,-0.05002776723355055
1733698028977436700,4.193436767578125,0.050209845802187916,-0.03731704648137092,-0.06767097595185041
1733698028987391700,4.203391845703125,0.06117898358404636,-0.0716208460887894,-0.06002630641758441
1733698028997345800,4.213345703125,0.049856210058927534,-0.07040544241704046,-0.07769318827241659
1733698029007299600,4.223299560546875,0.05439677609801292,-0.05498484165165573,-0.06800123081952333
1733698029017255000,4.2332548828125,0.04339139795899391,-0.05233900331798941,-0.04773088846802711
1733698029027208700,4.243208740234375,0.0424070630967617,-0.04114741842448711,-0.017721534651517868
1733698029037162800,4.253162841796875,0.03485153315067291,-0.03163706461619586,-0.004645195457339287
1733698029047117800,4.263117919921875,0.017877017474174497,-0.02456566492523998,0.025775954030454157
1733698029057071600,4.273071533203125,0.0029313772767782208,-0.014766813031770288,0.05406301409900188
1733698029067027000,4.28302685546875,0.002573065358400345,0.0034031229743734,0.06544190172553062
1733698029076980700,4.292980712890625,-0.0014420155018568038,0.03846526666842401,0.06574030015021562
1733698029086934800,4.302934814453125,-0.0002916764229536056,0.06176354200635105,0.058121349579095836
1733698029096889900,4.312889892578125,0.010423194336891173,0.08571081930492072,0.040380525705218315
1733698029106843600,4.32284375,0.021027005937695502,0.108209286034666,0.04173310935795307
1733698029116797700,4.332797607421875,0.013148819908499717,0.09953965736683458,0.038894086539745326
1733698029126752800,4.342752685546875,0.011171966877579688,0.07439980928283184,0.02946750202476978
1733698029136706800,4.352706787109375,0.011121697995066642,0.0707986064530909,0.014961714549362659
1733698029146661600,4.36266162109375,-0.0018126023799180982,0.045864400476403534,-0.0008975333616137504
1733698029156615700,4.37261572265625,-0.012305354821681975,0.03523578322790563,-0.014774667544662952
1733698029166569700,4.38256982421875,0.013968904119729996,0.039910131714493036,-0.02722235344648361
1733698029176524500,4.392524658203125,0.02350011805295944,0.028784451664052902,0.0012897475495934486
1733698029186478800,4.402478759765625,0.012397709280252456,0.02266315577216446,0.038735681107640266
1733698029196433700,4.41243359375,0.014920505756139754,-0.0071134122017771,0.04157499618679285
1733698029206387700,4.4223876953125,0.013700024050474166,-0.037339221780560906,0.051776364466547965
1733698029216341800,4.432341796875,0.03171849582195282,-0.03626216713357717,0.054824353860318656
1733698029226296600,4.442296630859375,0.037467268607020376,-0.060999279635585844,0.07381722362190485
1733698029236250600,4.452250732421875,0.03776771285831928,-0.07243753276653588,0.09390256479531527
1733698029246205000,4.462204833984375,0.04027998794019222,-0.06060892861112952,0.09613777650147676
1733698029256159700,4.47215966796875,0.042595279145240784,-0.05450052873343229,0.09356967957913875
1733698029266113800,4.48211376953125,0.05459668258428573,-0.05412011458110064,0.07823679362982511
1733698029276068600,4.492068603515625,0.05967676232755184,-0.0439462553627789,0.053145606993138785
1733698029286022700,4.502022705078125,0.052417584979534144,-0.043216041392087935,0.02988105126172304
1733698029295976700,4.511976806640625,0.014985387685894965,-0.003892988850548863,0.011459259386360644
1733698029305931800,4.521931884765625,0.009346505016088484,0.01826101182308048,-0.01747165154367685
1733698029315885800,4.5318857421875,-0.03235620920360088,0.03900616861209273,-0.03057604778856039
1733698029325840000,4.54183984375,0.00044482115805149076,0.04265928429216146,-0.02989186491668224
1733698029335794700,4.551794677734375,0.010275894820690154,0.06414572443515063,-0.006285071618854999
1733698029345748700,4.561748779296875,0.029855040037631987,0.0695071784030646,0.020153730234503744
1733698029355703800,4.571703857421875,0.025264205116033552,0.05242394165508449,0.049608665038645264
1733698029365657900,4.581657958984375,0.0243558580994606,0.037604302457533774,0.027117724028229713
1733698029375612000,4.59161181640625,0.059573301953077314,0.019184373745694757,-0.003850537948310375
1733698029385566700,4.601566650390625,0.06756722331643104,-0.020690467459708452,-0.042454409369826314
1733698029395520800,4.611520751953125,0.049638767915964124,-0.012363076358288526,-0.06667816552221775
1733698029405474600,4.621474609375,0.038916882893443104,-0.010056114590168,-0.10467764130979776
1733698029415430000,4.631429931640625,0.056762920707464214,-0.04509476781077683,-0.10352174927294254
1733698029425383700,4.6413837890625,0.08871931693851948,-0.06107851888425648,-0.07690466824322939
1733698029435338800,4.6513388671875,0.09188216488361359,-0.08941529984604567,-0.03712736912816763
1733698029445292800,4.661292724609375,0.07028408105969429,-0.07738795824814587,0.028708500351011752
1733698029455246600,4.67124658203125,0.039386253970861436,-0.0485611652797088,0.06572919423431157
1733698029465202000,4.681201904296875,-0.005706102687120437,-0.02456102528274059,0.09047025225907564
1733698029475155700,4.69115576171875,-0.0037239889591932293,-0.000620433453284204,0.12719371676146984
1733698029485110800,4.70111083984375,-0.018677812463045118,0.012100516431964933,0.13230828329622746
1733698029495064800,4.71106494140625,-0.03907704189121723,0.03339296837281436,0.13458558057844638
1733698029505018600,4.7210185546875,-0.04199029898941516,0.02939052779842168,0.08875205016434193
1733698029514973700,4.7309736328125,-0.042537411478161806,0.029401706779561936,0.045244624610245227
1733698029524927700,4.740927734375,-0.04068856874108314,0.049266792798414824,0.024171149182319638
1733698029534881800,4.7508818359375,-0.018584873482584953,0.048071189805679024,-0.007509644977748394
1733698029544836900,4.7608369140625,-0.0050052609413862225,0.048209210036881264,-0.01573854414075613
1733698029554790700,4.770790771484375,0.0021381810724735257,0.06164298436660319,-0.008281213872134685
1733698029564745700,4.780745849609375,0.03213175279796123,0.06654131433479488,0.008098258520662784
1733698029574699500,4.790699462890625,0.03529518526494503,0.05353164716865867,0.020847265456616876
1733698029584653800,4.80065380859375,0.03017126637995243,0.02684734612163156,0.04929857617616653
1733698029594609000,4.81060888671875,0.03690203593969345,0.04130670063942671,0.06093640699982643
1733698029604562700,4.820562744140625,0.0991401731878519,0.016978936123289167,0.07130933245420455
1733698029614516700,4.830516845703125,0.11714227834641933,-0.0074753773819655174,0.10857581779211758
1733698029624471600,4.840471435546875,0.11106500425934791,-0.018453429122641682,0.10084230093061923
1733698029634425600,4.850425537109375,0.12396364879906177,-0.038138591997325416,0.07376958508789538
1733698029644381000,4.860380859375,0.11542495303452015,-0.04800754998493939,0.04846417117863893
1733698029654334700,4.870334716796875,0.10200608401298522,-0.020000950825586915,0.01256049862653017
1733698029664288800,4.880288818359375,0.07424246329665184,0.0004960764212533831,-0.030917408572137355
1733698029674243600,4.89024365234375,0.05945464400947094,0.004195077069662511,-0.08576631235182285
1733698029684197600,4.90019775390625,0.05148819517493248,0.012615735945105552,-0.1227899288445711
1733698029694153000,4.910153076171875,0.04967617731690407,-0.015276369989104569,-0.12326806775033473
1733698029704106800,4.920106689453125,0.06610708763599395,-0.04098433681726456,-0.12902327027618885
1733698029714060800,4.930060791015625,0.05872048451602459,-0.05934292726330459,-0.12625818947702647
1733698029724015600,4.940015625,0.05289747745096683,-0.039923429587483406,-0.10034311923682689
1733698029733969700,4.9499697265625,0.0389911171734333,-0.03486852081809193,-0.08705226050913334
1733698029743923700,4.959923828125,-0.000436053329706192,-0.017890899869054556,-0.046400224386155604
1733698029753878800,4.969878662109375,-0.018349895682930946,0.005427468408830464,-0.026949381723999976
1733698029763832800,4.979832763671875,-0.02349135022461414,0.014474880880489944,0.012741700412333011
1733698029773787600,4.98978759765625,-0.0253927999317646,0.014415003919415175,0.02381166822016239
1733698029783741700,4.99974169921875,-0.05195990433990955,0.028341128343343732,0.04173749327212572
1733698029793695700,5.00969580078125,-0.052823827692866324,0.047077100734412666,0.07471767959296703
1733698029803650800,5.01965087890625,-0.0427121835231781,0.04890789635814726,0.09339373849034309
1733698029813604900,5.02960498046875,-0.04931260470151901,0.06897310805898159,0.09463760107159613
1733698029823559700,5.0395595703125,-0.037409400939941405,0.05530077573303133,0.0931426863387227
1733698029833513700,5.049513671875,-0.02762099737524986,0.02759546107519418,0.07868892131149768
1733698029843467800,5.0594677734375,-0.019085808742046354,0.0328039164384827,0.07620528780221938
1733698029853422600,5.069422607421875,0.00041150341033935545,0.01735686605758965,0.08848550818264483
1733698029863377000,5.079376953125,0.010270049601793289,0.004690459371171891,0.08595072900801896
1733698029873331000,5.0893310546875,0.010252513945102692,0.0030445187950506806,0.06652297496050597
1733698029883285800,5.09928564453125,0.012005495092272759,0.003890577697753906,0.058824237151443956
1733698029893239800,5.10923974609375,0.0029477438896894454,-0.0007747106995433569,0.06423164915293454
1733698029903194600,5.119194580078125,-0.004608955100178718,0.018839213569834826,0.06289280176460743
1733698029913148700,5.129148681640625,0.010004092141985893,0.020361856559850275,0.03593319090753794
1733698029923103000,5.13910302734375,0.02551438048481941,0.020023637581430373,0.04102116169631481
1733698029933057800,5.149057861328125,0.010982581785321235,0.022754304654337466,0.04709434413015842
1733698029943011800,5.15901171875,0.02285188327729702,0.02036013952679932,0.041648061423003674
1733698029952966700,5.168966552734375,0.006471241840720177,0.015121910079754887,0.020858663633465765
1733698029962920700,5.178920654296875,0.01823649843633175,-0.023894926056824622,0.004543196387588978
1733698029972874800,5.188874755859375,0.030226795959472655,-0.03378529215864837,-0.022660452358424663
1733698029982829800,5.198829833984375,0.04252221390902996,-0.04410787566527724,-0.019626491490006445
1733698029992784000,5.208783935546875,0.053936172848939895,-0.0424772787887603,-0.016170505817234514
1733698030002737700,5.218737548828125,0.0281073195874691,-0.03335252676457166,-0.020865970157086848
1733698030012692700,5.228692626953125,0.03936228857338428,-0.0032847207590937615,-0.005351882421970367
1733698030022646800,5.238646728515625,0.035142040529847145,-0.010821217211149632,-0.0017073884397745133
1733698030032601600,5.2486015625,0.02111293065547943,0.00641699090283364,-0.00912497121989727
1733698030042556000,5.258555908203125,0.007237550038099288,0.006396715299785137,0.005293722493946552
1733698030052509700,5.268509765625,-0.008591887256503105,0.03574676495734602,0.019249182610213755
1733698030062464800,5.27846484375,-0.06215688870549202,0.05396740823742002,0.013004150740802287
1733698030072418800,5.288418701171875,-0.06193710847496986,0.043189737907052037,-0.0044482115805149075
1733698030082373600,5.29837353515625,-0.031277766317129134,0.05228825951144099,0.03382335914671421
1733698030092327700,5.30832763671875,-0.014639350727200507,0.03821213215757161,0.07760697129368782
1733698030102281700,5.31828173828125,0.0031827216893434524,0.04626593048200011,0.12056319270581006
1733698030112236800,5.32823681640625,-0.010026303973793983,0.028912535023130476,0.13539075948148965
1733698030122190600,5.338190673828125,0.009507833057641982,-0.007273461601696908,0.0853764362514019
1733698030132145700,5.348145751953125,0.04609831883013248,-0.012932729472406208,0.020879998682439328
1733698030142099700,5.358099609375,0.041725510573387144,-0.0008065306099131703,-0.031581425438821316
1733698030152053500,5.368053466796875,0.03583411444723606,0.017125760715454817,-0.0782353323251009
1733698030162008800,5.3780087890625,0.041405192577838895,-0.003743278181552887,-0.12428016740232706
1733698030171962600,5.387962646484375,0.07615268083214759,-0.02118800518568605,-0.11906009466648101
1733698030181916700,5.397916748046875,0.09870645794570446,-0.04272314330860972,-0.09441665179729461
1733698030191871700,5.407871826171875,0.10845686758756637,-0.044418731712736186,-0.04223375235646963
1733698030201825500,5.417825439453125,0.07727963903546332,-0.039554157883673904,0.0020338439151644707
1733698030211780900,5.42778076171875,0.03469020510911942,-0.023585531314089893,0.030987843459844587
1733698030221734700,5.437734619140625,-0.004663900157809257,-0.010172945902869105,0.05497749859541654
1733698030231688700,5.447688720703125,-0.010493921485543251,0.017568207253329454,0.06568184796124696
1733698030241643800,5.457643798828125,-0.02833645216822624,0.03167611798495054,0.08893588229864835
1733698030251597600,5.46759765625,-0.04132978925406933,0.02821370257139206,0.085012571375072
1733698030261553000,5.477552978515625,-0.01495031637251377,0.03621383447982371,0.06909487127512692
1733698030271506700,5.487506591796875,-0.025816578301787376,0.023197883703373372,0.039841596522927285
1733698030281460700,5.497460693359375,-0.027837270474433896,0.005726670551113784,0.02446428690999746
1733698030291415800,5.507415771484375,-0.044319034197926516,0.023202084954455495,0.010744096854329109
1733698030301369600,5.51736962890625,-0.043481414330005644,0.007060805231705308,-0.016549568262696265
1733698030311323600,5.52732373046875,-0.018538111731410026,0.004239464200660586,-0.0028910452663898465
1733698030321278700,5.53727880859375,-0.002948328411579132,0.006995302247442305,0.03890168532431126
1733698030331232800,5.547232666015625,-0.020582184779644012,0.002309993975423276,0.07443827812969685
1733698030341187800,5.557187744140625,-0.024532968232035636,0.03211275583654642,0.11557283707261085
1733698030351141600,5.5671416015625,0.02145136882960796,0.0258181126717478,0.14277677807956934
1733698030361095700,5.577095703125,0.003861351603269577,0.04005958665516227,0.13989303933680056
1733698030371050500,5.587050537109375,-0.015448913544416427,0.017784115026332436,0.10966448981165886
1733698030381004800,5.5970048828125,-0.0010515548795461654,0.027442608601041137,0.08149959481805563
1733698030390959600,5.606959716796875,0.015482231292128562,0.03142247201744467,0.026925124065577982
1733698030400913700,5.61691357421875,0.000685059654712677,0.05609755213391036,-0.010506196445226669
1733698030410867700,5.62686767578125,-0.0008294365614652633,0.07145465920902788,-0.03402063528448343
1733698030420822500,5.636822509765625,-0.006954641443490982,0.04059994060955941,-0.06634937195926904
1733698030430776600,5.646776611328125,0.012101356682181357,0.020452165191806853,-0.0690522011771798
1733698030440731000,5.65673095703125,0.05032265852689743,0.0010441022254526614,-0.0676169076770544
1733698030450685700,5.666685791015625,0.07954933753311634,-0.01982764008529484,-0.04355681765377521
1733698030460639700,5.6766396484375,0.09915653980076312,-0.035657077379897234,-0.019689327593147753
1733698030470594600,5.686594482421875,0.07434826175868511,-0.05030329623930156,-0.014262041847407817
1733698030480548600,5.696548583984375,0.007308861708641052,-0.0618077464742586,-0.038710838927328586
1733698030490502700,5.706502685546875,-0.10185761545300483,-0.12279434929136186,-0.1169084695905447
1733698030500457700,5.716457763671875,-0.1400660578161478,-0.13649177952595054,-0.12527297783195973
1733698030510411800,5.726411865234375,-0.15321078607141972,-0.09528521479275077,0.003227437613904476
1733698030520366600,5.73636669921875,-0.23722587084174154,-0.0030976372217759486,0.2526066875860095
1733698030530320600,5.746320556640625,-0.3271796980112791,0.07010883409064263,0.5544143361926078
1733698030540274700,5.756274658203125,-0.44781098751723764,0.12524305761773138,0.8190767877534031
1733698030550229800,5.766229736328125,-0.5601923350721597,0.13092216270007193,0.9955842782601714
1733698030560183800,5.776183837890625,-0.5220137033253908,0.12809051947072148,1.120902264277637
1733698030570137900,5.786137939453125,-0.35905250761210916,0.21007499346258118,1.188221065790951
1733698030580092700,5.7960927734375,-0.16631109066307545,0.2712206958315335,1.170878593584895
1733698030590046700,5.806046630859375,0.0051291795819997784,0.3027324170350097,1.1045461727604269
1733698030600001800,5.816001708984375,0.18395254581570625,0.161520970309712,0.905325915186107
1733698030609955800,5.825955810546875,0.2331716270148754,0.21391086356472222,0.7493117621317505
1733698030619910000,5.835909912109375,0.24179741654098033,0.09728760412372649,0.3490156822443008
1733698030629864700,5.84586474609375,0.2668529473423958,-0.05309957589432597,-0.11714257060736417
1733698030639818800,5.85581884765625,0.328869550794363,-0.11624763106163591,-0.557733836004138
1733698030649773600,5.865773681640625,0.38683424850702286,-0.15115871237982065,-0.9109992846474051
1733698030659728000,5.875727783203125,0.40518589775562286,-0.12555405979566275,-1.1087839564606548
1733698030669681700,5.885681640625,0.4454214620321989,-0.06836363439112901,-1.1869167051941156
1733698030679636700,5.89563671875,0.5187117391705512,-0.03253507290184498,-1.1742360873192548
1733698030689590800,5.9055908203125,0.5605769504755735,-0.0182159305723384,-1.0541542483896016
1733698030699545600,5.915545654296875,0.620215134358406,-0.05202686862889677,-0.9195394417166709
1733698030709499600,5.925499755859375,0.6438473543584347,-0.1516917963432148,-0.7564730320632457
1733698030719453700,5.93545361328125,0.5568991387456655,-0.20280626283492892,-0.5521808780521154
1733698030729408800,5.94540869140625,0.3520505198955536,-0.22731018763557076,-0.4016173916190862
1733698030739362800,5.95536279296875,0.17183131538927554,-0.21062796943653372,-0.2392927402436733
1733698030749316600,5.965316650390625,-0.0011795651733875275,-0.1923159946111962,-0.10903203712701796
1733698030759271700,5.975271728515625,-0.13420271874070167,-0.1405495304841548,0.006427402698993683
1733698030769225500,5.9852255859375,-0.2009206317514181,-0.07872664123969152,0.10894728145301341
1733698030779180800,5.995180908203125,-0.23673779506385326,-0.04178935132352635,0.20499708741009234
1733698030789134800,6.005134765625,-0.1940975077331066,-0.013422613614890723,0.3021612843498587
1733698030799088600,6.015088623046875,-0.19748948825895785,-0.013518749199435114,0.3307522958010435
1733698030809043700,6.025043701171875,-0.2157388461768627,-0.01372192535502836,0.3531991054087877
1733698030818997500,6.03499755859375,-0.23564298556447028,0.03329018385177478,0.3590373100429773
1733698030828952800,6.044952880859375,-0.290150236299634,0.08475998485349118,0.3314221578866243
1733698030838907000,6.054906982421875,-0.26419045013487336,0.0982841043477878,0.2570522688180208
1733698030848860700,6.064860595703125,-0.19136019172370433,0.1137969865065068,0.2129661665931344
1733698030858815700,6.074815673828125,-0.1195440787911415,0.14239391624182463,0.16001345182359217
1733698030868769500,6.08476953125,-0.03691898707449436,0.1721688950468786,0.13230360712110995
1733698030878723600,6.0947236328125,0.031142157238721845,0.19735618073549122,0.09058043463528155
1733698030888679000,6.104678955078125,0.11110241366028785,0.16671872161589563,0.0050029228538274765
1733698030898632700,6.1146328125,0.17656711173951625,0.1441808361912146,-0.08359715161919594
1733698030908587800,6.124587890625,0.19206570964455602,0.10058041685773059,-0.20596037948429582
1733698030918541600,6.13454150390625,0.1856055737197399,0.09267603694135322,-0.2816717462897301
1733698030928495600,6.14449560546875,0.16783026305437088,0.08677470394307747,-0.36244448813796043
1733698030938450700,6.15445068359375,0.253349907168746,0.0370427961172536,-0.39584757604598997
1733698030948404700,6.16440478515625,0.33342122274935243,-0.0017191519428044557,-0.3310369579613209
1733698030958359800,6.17435986328125,0.3555255025297403,-0.055847614227142184,-0.2271978133022785
1733698030968313600,6.184313720703125,0.31942952227592464,-0.09983957189517095,-0.14949614946246145
1733698030978267600,6.194267578125,0.22774141865968703,-0.13886528545795007,-0.13002397175133226
1733698030988222700,6.20422265625,0.1519300986111164,-0.17189353043790906,-0.16685528054237364
1733698030998176800,6.2141767578125,0.1052402436286211,-0.14392645957134664,-0.19475684842467306
1733698031008131800,6.2241318359375,0.008465630528330803,-0.09759314467525108,-0.19268939450085162
1733698031018085400,6.23408544921875,-0.07357318573296069,-0.05881824580207467,-0.16678981409072874
1733698031028039700,6.244039794921875,-0.11976327449977398,-0.024853615021146833,-0.08863222317695617
1733698031037994500,6.253994384765625,-0.15060264939963816,-0.01658160736877471,-0.014019173002243042
1733698031047948500,6.263948486328125,-0.156770524379611,-0.020507731303945183,0.06400806953012943
1733698031057902600,6.273902587890625,-0.14382336452305317,-0.01567430153181776,0.1472767198473215
1733698031067857400,6.283857421875,-0.11033435189723968,-0.02172658730810508,0.21126053171902895
1733698031077811500,6.2938115234375,-0.12925824807584285,-0.012981043859850614,0.282070974740386
1733698031087766500,6.3037666015625,-0.21143091984987258,0.011908519257511943,0.32565497266203164
1733698031097720600,6.313720458984375,-0.19137597381472587,0.058757455525547266,0.37522418247312306
1733698031107674600,6.323674560546875,-0.17120879957675933,0.11160625326288863,0.4117179298728704
1733698031117629400,6.33362939453125,-0.11800094100236892,0.16137297667376696,0.4113397442102432
1733698031127583500,6.34358349609375,-0.06048340253531932,0.17885862021017818,0.3979883874669671
1733698031137538600,6.35353857421875,-0.033003859457373615,0.1751909280154854,0.34174598350226876
1733698031147492600,6.36349267578125,0.01640168422460556,0.1471551027616486,0.2396200725018978
1733698031157446700,6.37344677734375,0.044670331853628155,0.12471386437816545,0.14486673609614373
1733698031167401500,6.3834013671875,0.05659750101268291,0.1202512224134989,0.05035509949177503
1733698031177355500,6.39335546875,0.04331424106955528,0.10044298114841803,-0.06089022977054119
1733698031187309600,6.4033095703125,0.06510813972651958,0.050370717186015095,-0.14363544073551893
1733698031197264600,6.4132646484375,0.09330079950988292,0.018037322602421045,-0.1937403648585081
1733698031207218700,6.42321875,0.08637772224843501,-0.015557598083280026,-0.2302121926873922
1733698031217173500,6.433173583984375,0.11731997300088405,-0.05305264974636957,-0.232122410222888
1733698031227127600,6.44312744140625,0.14146598774194716,-0.06605230697514489,-0.20771277610957622
1733698031237081600,6.45308154296875,0.13852642715871333,-0.08346431901976466,-0.18686814100146293
1733698031247036700,6.46303662109375,0.1173310789167881,-0.0968758815176785,-0.15863865633904933
1733698031256990700,6.47299072265625,0.07004267351925372,-0.09547476428179069,-0.15305530324876307
1733698031266945500,6.482945556640625,0.05963584579527378,-0.08401342253619805,-0.12436433855444193
1733698031276899600,6.492899658203125,0.06140402451157569,-0.08326718901246785,-0.10312515117079019
1733698031286853600,6.502853515625,0.07894903355240822,-0.0675524458724074,-0.07091185756921768
1733698031296808400,6.512808349609375,0.06173895555436611,-0.018809549083933234,-0.0286257905036211
1733698031306762800,6.5227626953125,0.038600656551122665,-0.045968500171694904,-0.04832943888306617
1733698031316716500,6.532716552734375,0.04257482087910175,-0.042194772052951156,-0.026752105586230753
1733698031326671600,6.542671630859375,-0.0016460136413574218,0.021051738520152866,0.03679828330427408
1733698031336625700,6.552625732421875,-0.029570962399244307,0.043893502262234686,0.07104016012400388
1733698031346580500,6.56258056640625,-0.07250526424050331,0.07031515205139294,0.0984191654369235
1733698031356534500,6.572534423828125,-0.08524141169488429,0.07232455564504489,0.12720394589453934
1733698031366488600,6.582488525390625,-0.07912205203175544,0.06231275512063875,0.16253391021192073
1733698031376443600,6.592443603515625,-0.08547931210398674,0.08026395207587629,0.20600509540885686
1733698031386397700,6.602397705078125,-0.10622574753463268,0.0966868982842192,0.24019494978040457
1733698031396352500,6.6123525390625,-0.11471885059177875,0.09980630894638598,0.2417708207949996
1733698031406306600,6.622306640625,-0.10859423023164272,0.10996840466167777,0.24146979202181099
1733698031416260600,6.632260498046875,-0.08555646899342537,0.10576810342762619,0.19523323376476764
1733698031426215700,6.642215576171875,-0.056234512919187546,0.07236600190028548,0.11958967149853705
1733698031436169700,6.652169677734375,-0.0315624284774065,0.06533316238773987,0.05548661716133356
1733698031446124500,6.66212451171875,0.007771803045272827,0.01751004732530564,-0.006203823076188564
1733698031456078600,6.67207861328125,0.04175181405842304,0.0015167247058823705,-0.06732113960087299
1733698031466032400,6.682032470703125,0.051935354420542715,-0.016547522436082363,-0.10396949304044246
1733698031475987700,6.69198779296875,0.07851298022270202,-0.034458953636512156,-0.11420943976491689
1733698031485941800,6.701941650390625,0.08365385024249553,-0.05925534031139686,-0.09674334117919206
1733698031495895600,6.7118955078125,0.0839560480594635,-0.03487829329343512,-0.04855360302776098
1733698031505850600,6.7218505859375,0.10040741664469241,-0.029050646585877984,0.0018014964640140532
1733698031515804400,6.731804443359375,0.11110066009461879,-0.03643467415627092,0.01445931798517704
1733698031525759700,6.741759765625,0.07112696162462234,-0.03639046968836337,0.03596417056769132
1733698031535713800,6.7517138671875,0.04932663322687149,-0.011626998902391642,0.05852554646581411
1733698031545667600,6.76166748046875,0.022207155632972715,-0.009471483102627099,0.04773848725259304
1733698031555622700,6.77162255859375,-0.03153963212370872,0.013730035596247761,0.040996904037892815
1733698031565576400,6.781576416015625,-0.045887890949845314,0.0019470606808550655,0.02694733589738607
1733698031575531500,6.791531494140625,-0.014543489137291907,0.023750348220672457,0.045019875943660734
1733698031585485800,6.80148583984375,-0.00563888266980648,0.05463816537214443,0.07286445294171572
1733698031595439600,6.811439697265625,-0.007333996149897575,0.052200489896442735,0.11867401795834302
1733698031605394700,6.821394775390625,0.02076397108733654,0.018438615145999936,0.108558282135427
1733698031615348500,6.831348388671875,0.02666296599805355,0.018299663333036006,0.0937266237065196
1733698031625303600,6.841303466796875,0.03286649681329727,0.007720091124344616,0.037600247336924075
1733698031635257600,6.851257568359375,0.0384422511190176,-0.010689882449060677,-0.04997632930725813
1733698031645211600,6.861211669921875,0.027642040163278578,0.00175327340811491,-0.12941226959377528
1733698031655166700,6.871166748046875,0.0492868857383728,0.002592592042777687,-0.18702742321640253
1733698031665120500,6.88112060546875,0.05629588771760463,-0.008180767438653857,-0.18148323309272527
1733698031675074600,6.891074462890625,0.05359013589024544,-0.010631667722109705,-0.1459589152470231
1733698031685029600,6.901029541015625,0.05083469970226288,-0.017818017295934258,-0.08213146298080683
1733698031694983400,6.9109833984375,0.040023967352509494,-0.014202164886333047,-0.022353286105394363
1733698031704938800,6.920938720703125,0.012682371440529822,0.009650675594434142,0.04220277269631624
1733698031714892500,6.930892578125,-0.004397358176112175,0.030573307842202482,0.09385609530508518
1733698031724846600,6.9408466796875,-0.017359131079912184,0.037912016699835654,0.055553252656757826
1733698031734801400,6.950801513671875,0.01556815600991249,0.010860855101794005,0.023578736247122287
1733698031744755500,6.96075537109375,0.043455110844969745,0.02114155396176502,0.04997457574158907
1733698031754710800,6.970710693359375,0.04267418960034847,0.018351101259328425,0.09145955555737018
1733698031764664600,6.98066455078125,0.027763036194443702,0.03162254290049896,0.10416910726577043
1733698031774618600,6.99061865234375,-0.0064496145308017725,0.03013961086636409,0.09874912804365157
1733698031784573400,7.000573486328125,-0.013286767074465751,0.016125552430655807,0.06625584845691919
1733698031794527500,7.010527587890625,0.003093289840221405,0.010220200844388454,0.030882044997811317
1733698031804482800,7.02048291015625,0.009601356559991836,0.022870624510385094,0.029193945780396458
1733698031814436600,7.0304365234375,-0.000026888006925582884,0.015256825038418173,0.01833966654986143
1733698031824390700,7.040390625,-0.021869886502623555,0.027758615747652947,0.0257958277747035
1733698031834345500,7.050345458984375,-0.028116087415814398,0.03531927852658555,0.049344461144506926
1733698031844299500,7.060299560546875,0.004765606966614723,0.023751663394924252,0.08182605029344558
1733698031854254600,7.070254638671875,-0.00355447761118412,0.0012104717683047055,0.09970599037706851
1733698031864208600,7.080208740234375,-0.01540916605591774,-0.029337829496804625,0.12610270665436982
1733698031874162700,7.09016259765625,-0.016577040791511535,-0.015200765735935418,0.1254153089120984
1733698031884117500,7.100117431640625,-0.025614918249845502,0.005620890355389565,0.06877046162635088
1733698031894071600,7.110071533203125,-0.03547171087563038,0.020184125372767446,0.026024960355460643
1733698031904025600,7.120025634765625,-0.03076806322932243,0.03678741485038772,-0.01350596278309822
1733698031913980400,7.12998046875,-0.03334405119717121,0.039465529752150175,-0.0571753009006381
1733698031923934700,7.139934814453125,-0.019817045626044274,0.023254162201564756,-0.05133680400550365
1733698031933889500,7.1498896484375,0.02398819383084774,0.012149068281427025,-0.0448535794660449
1733698031943843600,7.159843505859375,0.051469490474462504,-0.00078053765213117,-0.030547406215965744
1733698031953797600,7.169797607421875,0.04827507834732532,-0.0016450455269776283,-0.015775953541696072
1733698031963752400,7.17975244140625,0.056121115672588345,0.002093026756495237,-0.01721241608560085
1733698031973706500,7.18970654296875,0.08047346664071083,-0.004788257189840078,-0.019762100568413734
1733698031983661600,7.19966162109375,0.05375555558502674,-0.0066676959945820265,-0.02893207997381687
1733698031993615600,7.20961572265625,0.06267302153408527,-0.004694697154872119,-0.03289250803738832
1733698032003569700,7.219569580078125,0.04984568866491317,0.0030392215654253957,-0.03659340838193893
1733698032013524500,7.2295244140625,0.046209962511062616,0.008103811478614806,-0.038755262590944764
1733698032023478800,7.239478759765625,0.020406828212738037,0.03423299939353019,-0.011524141316115856
1733698032033433600,7.24943359375,0.02715922508239746,-0.00869231542367488,-0.03237491390407085
1733698032043387600,7.2593876953125,0.045782677009701726,-0.002842365552764386,0.020396891340613364
1733698032053342000,7.269342041015625,0.020656419059634206,0.003069945497252047,0.07727467059940099
1733698032063296800,7.279296875,0.002299509114027023,0.0007515855522826313,0.11458441055715084
1733698032073250800,7.289250732421875,0.01189385141134262,-0.007329155577998608,0.1378673787280917
1733698032083204900,7.299204833984375,0.029607202756404875,-0.021572437926009297,0.11916297051906585
1733698032093159700,7.30915966796875,0.019555764341354368,-0.029845431959070263,0.08954203149825334
1733698032103113700,7.31911376953125,-0.002758358797430992,-0.00580596459871158,0.05062602538764476
1733698032113068800,7.32906884765625,-0.006551905861496925,-0.007692655128147452,0.006240355694293975
1733698032123022800,7.33902294921875,0.011671733093261718,0.005781980934925377,-0.021858196064829825
1733698032132977000,7.348976806640625,-0.00573649782538414,0.0240605101483874,-0.02818886039108038
1733698032142931700,7.358931640625,0.0062982233613729476,0.02141598698897287,-0.023781273081898688
1733698032152885800,7.3688857421875,0.0281464825540781,0.01816482143960893,-0.028954584066569804
1733698032162840800,7.3788408203125,0.02495674660205841,0.007131441048812121,-0.03133943337649107
1733698032172795000,7.388794921875,0.04119651826322079,-0.012584482290316373,-0.026037527576088904
1733698032182748700,7.398748779296875,0.032006665113568304,0.008523041537683457,0.00858604203760624
1733698032192703700,7.408703857421875,0.015363573348522185,0.006170669725257903,0.02744973246157169
1733698032202657800,7.41865771484375,0.016340309426188467,0.019709475332032888,0.039649288821220395
1733698032212612900,7.42861279296875,0.033086861565709114,0.014103051893413066,0.03822685480266809
1733698032222567000,7.43856689453125,0.021468319964408872,0.002343037728499621,0.0366363707408309
1733698032232520700,7.448520751953125,0.01408113232254982,0.009410638027172536,0.06321750367432832
1733698032242475800,7.458475830078125,-0.002496492990851402,0.00020116686159744857,0.04846884735375642
1733698032252429800,7.468429931640625,-0.0359065951615572,0.00506471777735278,0.032386604341864585
1733698032262384600,7.478384521484375,-0.04268880264759063,0.011886435289867221,0.03294628405123949
1733698032272339000,7.4883388671875,-0.0325426716864109,0.0012913549847900867,0.01220364801287651
1733698032282292700,7.498292724609375,-0.027752514800429343,0.014841832763049751,0.033252865782380105
1733698032292247800,7.508247802734375,0.009316109877824783,0.02258240041984245,0.07931026808023452
1733698032302201900,7.518201904296875,0.0028366847306489943,0.017200415120553224,0.11245879670530556
1733698032312155600,7.52815576171875,0.003622282150387764,0.01619936658553779,0.0994824107542634
1733698032322110700,7.53811083984375,0.02779576942026615,-0.007465148248896002,0.05544686967283487
1733698032332064800,7.548064697265625,0.03778057233989238,-0.006326937999203801,-0.029893910743296146
1733698032342019800,7.558019775390625,0.021990298011898994,0.008478599607758224,-0.10238923811167477
1733698032351974000,7.567973876953125,0.02776128262877464,0.008300941485911607,-0.1443354056984186
1733698032361927700,7.577927734375,0.048825113445520395,-0.0007081482693552971,-0.1795586947709322
1733698032371882800,7.5878828125,0.056906713092327116,-0.00602550736721605,-0.1557005570605397
1733698032381836500,7.59783642578125,0.07073416291475296,-0.030730873024091124,-0.09929244114011526
1733698032391791900,7.6077919921875,0.05353285274505615,-0.029402656627632674,-0.06488368332087993
1733698032401746000,7.617745849609375,0.03479658809304237,-0.0012333046546205877,-0.015271511150896548
1733698032411699700,7.62769970703125,0.013515315133333206,0.019846783177182078,0.03749824826717377
1733698032421654800,7.63765478515625,-0.005208674558997154,0.04003189493063837,0.0710477589085698
1733698032431608600,7.647608642578125,-0.0007294833183288574,0.0313275237429887,0.09734335289895533
1733698032441564000,7.65756396484375,-0.033739772516489026,0.05604348385911435,0.09402122273892163
1733698032451517700,7.667517578125,-0.00808627582192421,-0.004656958960369229,0.06821078191697597
1733698032461471700,7.6774716796875,0.010682722055912017,0.02080751796811819,0.09536971473842859
1733698032471426800,7.6874267578125,-0.009632920742034912,0.0408813513668254,0.10072802690118551
1733698032481380600,7.697380615234375,-0.03269756998717785,0.03548077096492052,0.09631400985121727
1733698032491336000,7.7073359375,-0.015835867035388945,0.04456164731476456,0.09822364286482334
1733698032501289700,7.717289794921875,-0.026506314131617543,0.04991294521484524,0.09159545689672231
1733698032511243800,7.727243896484375,-0.04592705391645431,0.046353608765453094,0.07029577149748802
1733698032521198800,7.73719873046875,-0.043236499658226964,0.018609606065042316,0.06312105756253003
1733698032531152600,7.747152587890625,-0.03180851219296455,0.03999938090052455,0.07513561274409293
1733698032541106700,7.757106689453125,-0.02285188327729702,0.06005173311978578,0.0982119524270296
1733698032551061800,7.767061767578125,0.00018996961414813993,0.03425718398671597,0.11494476830214262
1733698032561015800,7.777015869140625,-0.012978139516711234,0.013538074954412877,0.11748159330338238
1733698032570971000,7.786970947265625,-0.01647358041703701,0.007548479150794446,0.11867138760983943
1733698032580924700,7.796924560546875,-0.03954992009997368,0.008218889225646854,0.07723229276239872
1733698032590878700,7.806878662109375,-0.0329348858743906,0.01354234927073121,0.03890928410887718
1733698032600833500,7.81683349609375,-0.04422551069557667,0.052112391487881535,-0.00017360300123691558
1733698032610787800,7.826787841796875,-0.04603811307549476,0.053905120123550296,-0.03684007661938667
1733698032620743000,7.836742919921875,-0.038542788884043694,0.062463105110451576,-0.03528992456793785
1733698032630696700,7.84669677734375,-0.01766834315955639,0.05233187945745885,-0.02969195843040943
1733698032640650800,7.856650634765625,0.030111645147204397,0.017827990700677036,-0.03316489523798227
1733698032650605600,7.86660546875,0.052180269092321395,0.020791407083533702,-0.0212754277408123
1733698032660559600,7.8765595703125,0.06857084740102291,0.005808978539705276,-0.030946926927566527
1733698032670515000,7.886514892578125,0.07627426138520241,-0.024963322473317385,-0.04238806613534689
1733698032680468700,7.89646875,0.07848200056254863,-0.011196443731710314,-0.0646776393547654
1733698032690422800,7.9064228515625,0.08162088311016559,-0.011535393362492322,-0.056201487432420254
1733698032700377600,7.916377685546875,0.10085983658730983,-0.026111871453933417,-0.04206657909601927
1733698032710331600,7.92633154296875,0.10100830514729023,-0.027304223043657837,-0.03971563205569982
1733698032720286700,7.93628662109375,0.10430910025835037,-0.032156156586855646,-0.021060908207297325
1733698032730240800,7.94624072265625,0.1032885250389576,-0.024485220100171862,-0.015886135917901993
1733698032740194800,7.95619482421875,0.09520049565136432,-0.01506981456633657,-0.008072831818461417
1733698032750149600,7.966149658203125,0.09434534012675284,-0.000005699088424444198,-0.011424188072979449
1733698032760103700,7.976103759765625,0.09503449143469334,-0.008131758931465446,-0.009638765960931777
1733698032770057700,7.9860576171875,0.08350070550739765,0.01085110089275986,0.016445815627276896
1733698032780012800,7.9960126953125,0.07822539545297623,0.025244367904402314,0.026411621585488317
1733698032789966800,8.005966796875,0.07745558012425899,0.02960157673321664,0.028880057525634766
1733698032799921700,8.015921630859374,0.077289575907588,0.03012012071460485,0.029529461345076558
1733698032809875700,8.025875732421875,0.08007306914627552,0.043675767858326435,0.05854015951305627
1733698032819829800,8.035829833984375,0.05988134498894214,0.044335145082511004,0.048670507405698296
1733698032829784800,8.045784912109376,0.06142682086527347,0.0499214938474819,0.02106499986052513
1733698032839739000,8.05573876953125,0.05721124899685383,0.023067535321973264,-0.0071384735777974126
1733698032849693700,8.065693603515625,0.06797931124866008,0.0010595555229112505,-0.046446693876385683
1733698032859647700,8.075647705078126,0.04311784171462059,-0.016678601469844578,-0.06850976486355066
1733698032869601800,8.085601806640625,0.051048634713888166,-0.024296090736240148,-0.06516279252320528
1733698032879556600,8.095556640625,0.032487142106890673,-0.017078925899043678,-0.03576894025653601
1733698032889511000,8.105510986328126,0.021517419803142545,-0.00016249708533287046,-0.028590719190239904
1733698032899465700,8.1154658203125,0.026487024909257886,0.02717562822792679,-0.007352700850367546
1733698032909419800,8.125419677734374,0.03244388748705387,0.024484489447809753,-0.005008768072724342
1733698032919373800,8.135373779296875,0.04062894750833511,0.021511866845190523,-0.004596972401440144
1733698032929328600,8.14532861328125,0.022620997130870818,0.034854200031794604,0.009727613288164138
1733698032939282700,8.15528271484375,-0.02361468434333801,0.04542549760248512,0.027671266257762908
1733698032949237000,8.165237060546875,-0.06405833841264248,0.04507675723005086,0.01979191118478775
1733698032959191800,8.17519189453125,-0.05143325011730194,0.05346607111915946,0.015286124198138714
1733698032969145900,8.185145751953126,-0.018958967491984367,0.06224376327134668,0.031070261046290397
1733698032979100700,8.1951005859375,-0.0018605331748723982,0.04981339383050799,0.0790934104591608
1733698032989054700,8.2050546875,0.018259879311919212,0.037205731594003734,0.11777093163877725
1733698032999008800,8.2150087890625,0.012654314389824867,0.011769348248839377,0.13232961834520102
1733698033008963800,8.2249638671875,0.03537292667627334,-0.026411621585488317,0.10671586913913488
1733698033018918100,8.234918212890625,0.0568073443710804,-0.03565305879190564,0.0627460867702961
1733698033028873000,8.244873046875,0.028547464570403098,-0.021548509061150252,0.01822626930326223
1733698033038827000,8.254826904296875,0.026521511700749397,-0.031039317918755114,-0.02325929503440857
1733698033048780800,8.26478076171875,0.054932782670855516,-0.04897197457030415,-0.0722048199892044
1733698033058735900,8.27473583984375,0.06590835019350051,-0.04483443637415766,-0.07580196769833564
1733698033068690200,8.284690185546875,0.07728431521058082,-0.0596468055807054,-0.07314911510199308
1733698033078645000,8.29464501953125,0.07153963407874107,-0.03758884916007518,-0.03354571124911308
1733698033088599000,8.30459912109375,0.0465028079777956,-0.0026370339727029204,-0.016546645653247833
1733698033098552800,8.314552734375,-0.0045662850022315975,0.016382102741301058,-0.008859598281979561
1733698033108508000,8.3245078125,0.01688566834926605,0.02285137182064354,0.008790040177106856
1733698033118462000,8.3344619140625,0.012149871999025345,0.0472279073819518,0.015939619670808314
1733698033128416000,8.344416015625,0.012808043646812439,0.05436546764429658,0.036086627903580665
1733698033138371000,8.35437109375,0.012732055801153183,0.06526574144102633,0.05291530536860227
1733698033148324900,8.364324951171875,0.017097265273332597,0.05930624851472675,0.0491997919768095
1733698033158280000,8.374280029296875,-0.0018704700469970702,0.05926474746055901,0.05011310742944479
1733698033168234000,8.38423388671875,-0.01376432145833969,0.03160473324917257,0.0446510426312685
1733698033178187800,8.394187744140625,-0.0034369887113571166,0.024821904708631336,0.0065641808211803435
1733698033188143000,8.40414306640625,0.00556874004304409,0.024761954682320356,0.0035790275305509567
1733698033198097000,8.414096923828126,-0.006622633010149002,0.033512064707838,-0.010597381860017775
1733698033208052000,8.424052001953125,0.007874678897857666,0.009551343405805528,-0.018759645527601242
1733698033218006000,8.434006103515625,0.00743570295870304,0.00962250894587487,0.005779752445220947
1733698033227959800,8.443959716796876,0.023634558087587354,0.005160524568334221,0.0364028542459011
1733698033237915100,8.4539150390625,0.03344634252786636,-0.011141717869788407,0.07277005265653133
1733698033247869000,8.463868896484374,0.012970540732145309,-0.04269910484589636,0.09310615372061729
1733698033257824000,8.473823974609376,0.020121581530570982,-0.05932148261647671,0.09939648603647946
1733698033267777800,8.48377783203125,0.033270985960960384,-0.030346951740421353,0.10933043555170296
1733698033277731800,8.49373193359375,0.0063946694731712335,-0.007505041867867112,0.11691489933133124
1733698033287687200,8.503687255859376,-0.0208048876196146,0.024544987463392315,0.0820537215694785
1733698033297641000,8.513640869140625,-0.05061842660307884,0.03977086937427521,0.05656476778686046
1733698033307596000,8.523595947265624,-0.025684476354718207,0.04001987569928169,0.014622399592399596
1733698033317549800,8.5335498046875,-0.017965280279517173,0.014488872873224317,-0.005327040241658687
1733698033327504000,8.54350390625,-0.003263385710120201,0.005249700689129531,-0.002288403198122978
1733698033337459000,8.553458984375,0.009900047245621681,-0.0012215046189725399,0.0021779285609722135
1733698033347413000,8.5634130859375,0.020991934624314305,0.0023158026617020365,0.006746843911707401
1733698033357367000,8.573366943359375,0.016880992174148558,-0.0036250951619818807,0.004751286180317402
1733698033367321900,8.58332177734375,0.0063613517254590985,-0.0025398572085425257,0.016761457447707653
1733698033377276000,8.59327587890625,0.004959668233990669,0.0144563588431105,0.012178221310675143
1733698033387231000,8.60323095703125,0.025455343773961067,0.011577405873313545,0.005105214184522628
1733698033397184800,8.613184814453126,0.02070610342025757,-0.0023741452528163788,0.003937047187983989
1733698033407139000,8.62313916015625,0.008608838391304016,0.009380261155217886,0.010597381860017775
1733698033417094000,8.633093994140625,0.006001286241412163,0.01915503805335611,0.029121757327020166
1733698033427048000,8.6430478515625,0.018000936114788053,0.025001462526619434,0.02562251703441143
1733698033437003000,8.6530029296875,-0.007006079369783401,0.03157145203407854,0.045103170312941074
1733698033446956800,8.662956787109374,0.012685878571867941,0.027567038698308167,0.036215514980256554
1733698033456910800,8.672910888671876,0.005765723919868469,0.025988646933063863,0.031949966490268704
1733698033466866000,8.682865966796875,0.0020475801795721052,0.01755304621681571,0.00736819068044424
1733698033476820000,8.692820068359374,0.009859715235233307,0.02494432551190257,0.0035261282995343204
1733698033486775000,8.702775146484376,0.005319149196147919,0.01577427304126322,-0.0017602876707911491
1733698033496728800,8.712728759765625,0.004887772041559219,0.01301145726442337,0.01632891124933958
1733698033506683000,8.722682861328124,0.013535773399472236,0.017750468485057354,0.02168371628075838
1733698033516638000,8.732637939453125,0.006655950757861137,0.023404475658759475,0.04981266317814588
1733698033526592000,8.742592041015625,0.017772972577810287,0.010069777789339422,0.04164338524788618
1733698033536546000,8.752546142578124,0.008057634249329567,0.0013473594883456825,0.02995119388848543
1733698033546500900,8.7625009765625,0.020949264526367185,-0.01723528550453484,0.013332359781861305
1733698033556455000,8.772454833984375,0.02469429627358913,-0.024379385105520485,0.008623451438546181
1733698033566410000,8.782409912109374,0.03836567875146866,-0.018884477483667433,-0.0045960956186056135
1733698033576364000,8.792364013671875,0.03253039672672749,-0.005537102795764803,0.0009615385085344314
1733698033586318000,8.802318115234375,0.039464579904079436,0.011622231395728886,0.02541150463223457
1733698033596273000,8.81227294921875,0.048915129816532135,0.0003684314535930753,0.02505699210613966
1733698033606227000,8.82222705078125,0.03606558511555195,-0.002223850061930716,0.022316168965399265
1733698033616181800,8.832181640625,-0.0006622633010149001,0.01344250562544912,0.021526187631487847
1733698033626136000,8.842135986328126,-0.0059866731941699974,0.024348186249658465,0.008010287976264954
1733698033636090000,8.852090087890625,-0.04349018215835094,0.02280307569950819,-0.006848258459568024
1733698033646045000,8.862044921875,-0.04887129067480564,0.017288294333405792,-0.00874064807742834
1733698033655999000,8.8719990234375,-0.005792611926794052,0.02707826880067587,0.015334054993093012
1733698033665953800,8.881953857421875,0.012844284003973007,0.04167505902778357,0.05901391450464725
1733698033675907800,8.891907958984374,0.007835515931248664,0.03615019465908408,0.10944997027814388
1733698033685862100,8.901862060546875,-0.00032382512688636776,0.014968911475129425,0.12325053209364413
1733698033695817000,8.91181689453125,0.020020459243655205,-0.002402567629702389,0.08395692484229803
1733698033705771000,8.92177099609375,0.05498012894392013,-0.0066974883446469895,0.02504179453700781
1733698033715725000,8.93172509765625,0.039543490359187125,0.014185177218914031,-0.019267010527849196
1733698033725679900,8.941679931640625,0.02702770765721798,0.01403320152759552,-0.06123334411978721
1733698033735634000,8.951634033203124,0.02542027246057987,0.0025712752601131797,-0.08558540282696485
1733698033745589000,8.961589111328125,0.06150923845171928,-0.031375527603179215,-0.09304507118314503
1733698033755543000,8.97154296875,0.10912906776070594,-0.0486968474233523,-0.05144026437997818
1733698033765497000,8.9814970703125,0.12426818470358848,-0.07299626262784004,-0.013686287786066531
1733698033775452000,8.991451904296875,0.09228373142182826,-0.06782317083887755,0.03470131102502346
1733698033785406000,9.001406005859375,0.04356967713534832,-0.06463467699587344,0.04938566993772983
1733698033795361000,9.011361083984376,0.016847089904546735,-0.02795738972276449,0.05961597205102443
1733698033805315000,9.021315185546875,0.014388006314635276,0.00345415904186666,0.07221826399266719
1733698033815269000,9.03126904296875,0.0036596915513277053,0.017818309556879103,0.046455753965675826
1733698033825224000,9.041223876953126,-0.0034083471387624737,0.04204776479769498,0.0443438763782382
1733698033835178000,9.051177978515625,-0.011969839257001876,0.037535511537641286,0.01618804147392511
1733698033845133000,9.061133056640625,0.0005190554380416869,0.04501311740931123,0.009828735575079918
1733698033855087000,9.071087158203126,0.004726444000005722,0.03880425283182412,-0.0013785948768258094
1733698033865041000,9.081041015625,-0.012969956210255621,0.03582724631503224,-0.01668780768960714
1733698033874996000,9.090995849609374,0.00336626156270504,0.01736698559280485,-0.026013854439556595
1733698033884950000,9.100949951171875,0.008459785309433936,0.03402885512355715,-0.03323533012568951
1733698033894903800,9.11090380859375,0.0007838438540697097,0.022575623619183898,-0.02914250785410404
1733698033904859100,9.120859130859374,-0.006759995654225349,0.01264887102972716,0.0004094575837254524
1733698033914813000,9.13081298828125,-0.0028957214415073393,0.02204652171116322,0.05384060351997614
1733698033924768000,9.14076806640625,0.023498364487290382,0.010232749798707664,0.10083265631943941
1733698033934722000,9.15072216796875,0.03078384532034397,-0.008290347026661038,0.11258768378198146
1733698033944675800,9.16067578125,0.011671148571372032,-0.026292269522137937,0.11701894422769546
1733698033954631000,9.170630859375,0.005930559092760085,-0.023587138749286533,0.09893325243890284
1733698033964585000,9.1805849609375,-0.0051303486257791514,-0.017650296046212315,0.039597558633983135
1733698033974540000,9.1905400390625,-0.011344400835037231,0.002684124517440796,0.01306932493150234
1733698033984494000,9.200494140625,-0.011270751076936722,0.03340363589730114,-0.013642448644340038
1733698033994448000,9.21044775390625,-0.03440203581750393,0.03570617721863091,-0.021236849296092986
1733698034004403000,9.22040283203125,-0.029014497560262677,0.016383308317698537,-0.03818009305149316
1733698034014356700,9.230356689453124,-0.0006429740786552428,0.008337875962816179,-0.012516074962913988
1733698034024311300,9.240311279296876,0.022797522741556168,-0.005655906869843602,0.004013619555532932
1733698034034265300,9.250265380859375,0.03885784618258476,-0.00621277356762439,0.02305003619790077
1733698034044219100,9.26021923828125,0.04982172326743602,-0.013424641175195574,0.009639642743766308
1733698034054174500,9.270174560546875,0.04994622642993927,-0.010177585545368493,0.017165362073481082
1733698034064128500,9.28012841796875,0.04247369859218597,0.00150693396423012,0.009825520704686641
1733698034074082300,9.290082275390626,0.04420563695132732,0.0013652604712173341,0.012200725403428076
1733698034084037400,9.300037353515625,0.032334581893682476,0.004143200751952827,0.011411328591406344
1733698034093991200,9.3099912109375,0.023795886129140853,0.013748356704227626,0.007399754862487316
1733698034103946500,9.319946533203124,0.008624035960435867,0.02204239352531731,0.008415069384872912
1733698034113900500,9.329900634765625,-0.000993102690577507,0.018781492033228278,0.018211363995075225
1733698034123854300,9.339854248046874,0.009498480707406998,0.025869988989457488,0.004841887073218822
1733698034133809400,9.349809326171876,0.009713000240921973,0.028621991111338136,0.0005015197813510895
1733698034143763200,9.35976318359375,0.01974748752117157,0.0020879852551966903,0.014380699791014194
1733698034153718300,9.36971826171875,0.0229658650457859,0.00688530253432691,0.005830021327733993
1733698034163672300,9.37967236328125,0.005080664265155792,-0.006187821789458394,-0.0001721416965126991
1733698034173626400,9.38962646484375,0.0021697452545166016,-0.010024404277652502,0.005028641816973686
1733698034183581400,9.39958154296875,-0.011487608698010444,-0.00994392291996628,0.006119651924073695
1733698034193535200,9.40953515625,-0.01483224295079708,-0.00835833422895521,0.024730828891694544
1733698034203490300,9.419490234375,-0.017574819657206534,-0.005796557449549436,0.04141746753752231
1733698034213444400,9.4294443359375,-0.01739946309030056,0.009865341258421539,0.07547375865727662
1733698034223398400,9.4393984375,-0.008740355816483497,0.0234384144609794,0.07713000143170357
1733698034233353500,9.449353515625,-0.013943185156583784,0.012357486867718398,0.05025017781257629
1733698034243307300,9.459307373046874,0.009774375039339065,-0.009505166176520287,0.03615501696467399
1733698034253261300,9.46926123046875,0.004876081603765487,-0.027274960416555402,-0.0034355274066329
1733698034263216400,9.47921630859375,0.008909867164492607,-0.01837948710359633,0.010499474443495273
1733698034273170200,9.489170166015626,0.011140987217426299,-0.007753828997164964,0.02535188339948654
1733698034283125500,9.49912548828125,0.02906710453033447,0.009281440423242747,0.04562953227460384
1733698034293079300,9.509079345703125,0.031630233016610144,0.014654402165859937,0.06790916862189769
1733698034303033300,9.519033447265626,0.03282499575912952,-0.0036384295675903557,0.061356385977566236
1733698034312988200,9.52898828125,0.01755845304429531,0.012553119037672877,0.046430619524419306
1733698034322942200,9.538942138671874,-0.005689736074209213,0.01312770405523479,0.04792465747445822
1733698034332897500,9.5488974609375,-0.017215338695049286,0.03715465899389237,0.026098902374505996
1733698034342851300,9.558851318359375,-0.07176350596249104,0.03287464358713477,0.018329145155847073
1733698034352805400,9.568805419921874,-0.044132571715116496,0.03151577632408589,0.0013543372184038162
1733698034362760200,9.57876025390625,-0.02828676780760288,0.05214592843130231,0.019492343716323374
1733698034372714200,9.58871435546875,-0.0010883797585964203,0.059793849368579684,0.06762713681012392
1733698034382668300,9.598668212890624,-0.0004921674311161041,0.04123922489378601,0.10851795012503862
1733698034392623400,9.608623291015626,-0.014040215790271758,0.015153401196561753,0.10633476086705923
1733698034402577400,9.618577392578125,0.02272854915857315,-0.007726758327148854,0.050961540952324864
1733698034412532200,9.6285322265625,0.04055237514078617,-0.021839235636033117,-0.0010623685345053672
1733698034422486300,9.638486328125,0.04069441395998001,-0.027677513335458932,-0.0509577415600419
1733698034432440300,9.6484404296875,0.031554829692840576,-0.027287344974093138,-0.08249123620390891
1733698034442395400,9.6583955078125,0.047586511561274525,-0.027741920341178773,-0.10187105945646763
1733698034452349400,9.668349365234375,0.07729249851703643,-0.0511602783948183,-0.07994155172109603
1733698034462304300,9.67830419921875,0.11143559113740921,-0.06564418283198029,-0.05114420404285192
1733698034472258300,9.68825830078125,0.1023205567896366,-0.08023721019942313,-0.022130875526368617
1733698034482212400,9.69821240234375,0.05758534300625324,-0.07518621042016893,0.03671031275987625
1733698034492167200,9.708167236328125,0.04003624231219292,-0.04156264816187322,0.062461424610018725
1733698034502121500,9.71812158203125,-0.0029150106638669965,-0.014168518345057963,0.1112026591643691
1733698034512076300,9.728076171875,0.0005798457145690918,0.01633092054333538,0.11435703154206275
1733698034522030300,9.7380302734375,0.004585574224591255,0.028815394791588185,0.11785744087845086
1733698034531984400,9.747984375,-0.0021188918501138685,0.04189429126903414,0.10268471392691135
1733698034541939200,9.757939208984375,0.0016857611298561096,0.040789106506109236,0.0566176670178771
1733698034551893200,9.767893310546874,0.01875613839626312,0.051641339910030365,0.021431202824413777
1733698034561847600,9.77784765625,-0.0014116203635931015,0.054558688661456106,-0.003943476928770542
1733698034571802400,9.78780224609375,0.003057634004950523,0.05644947084411978,-0.031183658292889594
1733698034581756400,9.79775634765625,0.010489245310425757,0.06463865905124694,-0.03938420814424753
1733698034591711200,9.807711181640625,-0.005986088672280311,0.06690587333086878,-0.03900251535028219
1733698034601665300,9.817665283203125,0.006415712261199951,0.030855631914921102,-0.029797464631497857
1733698034611619300,9.827619384765624,0.006911386823654175,0.04890080903023481,0.016373919434845445
1733698034621574400,9.837574462890625,0.0005827683240175247,0.035766967495158314,0.05016396083384752
1733698034631528400,9.847528564453125,0.024321955829858778,0.0025528993532061574,0.08186813586950302
1733698034641483300,9.857483154296874,0.006880407163500786,-0.014766301575116813,0.10241261898726224
1733698034651437300,9.867437255859375,-0.01483224295079708,-0.0298038213070482,0.09965338340699673
1733698034661391400,9.877391357421875,0.0056231005787849425,-0.02199811599217355,0.0657104895338416
1733698034671346400,9.887346435546876,-0.004522445860505104,-0.01585789620410651,0.05572130270004272
1733698034681300500,9.897300537109375,-0.014019173002243042,0.019978738993778822,0.03604512684941292
1733698034691255300,9.90725537109375,-0.030974983978271482,0.03564995351936668,0.004618599711358547
1733698034701209300,9.917209228515626,-0.018324761241674422,0.012461641361936926,-0.015438392150402068
1733698034711163400,9.927163330078125,-0.008013210585713386,0.001968194800429046,-0.01393646315485239
1733698034721118500,9.937118408203125,0.031364860078692436,-0.02876614882238209,-0.03091156335324049
1733698034731072500,9.947072509765626,0.046893853121995926,-0.048868221934884784,-0.01183072304725647
1733698034741026300,9.9570263671875,0.040756957802176474,-0.05030011790152639,0.007210954292118549
1733698034750981400,9.9669814453125,0.04770400046110153,-0.056806613718718285,0.011776947033405304
1733698034760935400,9.976935302734375,0.03527414247691631,-0.02416453677844256,0.013499533042311667
1733698034770890200,9.98689013671875,0.03796118960380554,-0.008416640287451446,0.017319091330468654
1733698034780844500,9.996844482421874,0.038327684828639026,0.0013930617935955525,0.013208148880302905
1733698034790798300,10.00679833984375,0.036387656676769256,0.004289696550555527,-0.0022986323311924932
1733698034800753400,10.01675341796875,0.031083705049753187,0.01290573186762631,-0.011827508176863193
1733698034810707500,10.02670751953125,0.047941316348314285,0.022450645532645284,-0.005229717347025871
1733698034820662300,10.036662353515625,0.047487727361917496,0.02697864435110241,-0.007710135985910892
1733698034830616300,10.0466162109375,0.03766308344006538,0.023655125951580702,-0.010150514875352382
1733698034840570400,10.0565703125,0.03110240975022316,0.0277306317621842,0.008268938912451267
1733698034850525400,10.066525390625,0.03669043901562691,0.013082001749984919,-0.0013484919995069504
1733698034860479200,10.076479248046875,0.026766426372528074,0.009562997310981154,0.011074059461057186
1733698034870433300,10.086433349609376,-0.0002951835542917251,0.014242643027193844,0.019315818105638025
1733698034880388400,10.096388427734375,-0.001378302615880966,0.02394479308053851,0.016158230857551095
1733698034890342100,10.106342041015624,0.012425181809067725,0.021415749526955186,0.019598726700246333
1733698034900297500,10.11629736328125,0.007106032612919807,0.034347821412235496,0.03045826662778854
1733698034910251300,10.126251220703125,0.011062661284208297,0.04809018676709383,0.03950929582864046
1733698034920205300,10.136205322265624,0.011411620852351189,0.04564052859265357,0.04694470652639866
1733698034930160400,10.146160400390626,0.015032733958959578,0.05457384969796985,0.014731997446715831
1733698034940114200,10.1561142578125,0.025565233889222144,0.02376216652262956,-0.002119184111058712
1733698034950069500,10.166069580078124,0.02817746221423149,0.006033288814872503,-0.02287847902327776
1733698034960023300,10.176023193359375,0.02675005975961685,-0.010741722234152257,-0.042294542632997034
1733698034969977300,10.185977294921875,0.04201543343067169,-0.008319828849472105,-0.02312456273883581
1733698034979932400,10.195932373046874,0.035844635841250416,-0.0060993032557889815,0.009441489823162555
1733698034989886200,10.20588623046875,0.04194353723824024,-0.00902154737804085,-0.004675006073713303
1733698034999841500,10.215841552734375,0.059002808588743204,-0.006571487344801425,-0.005996902327239513
1733698035009795300,10.22579541015625,0.03892623524367809,-0.01845510962307453,0.00679740505516529
1733698035019749400,10.235749267578125,0.03604220423996448,-0.0010166296966373919,0.01617284390479326
1733698035029704700,10.24570458984375,0.028595979887247085,0.01461870979797095,0.023438450993597506
1733698035039658800,10.25565869140625,-0.03977613007128238,0.0435871031941846,-0.004137830457091331
1733698035049612800,10.26561279296875,-0.04910217682123184,0.031642544508911664,-0.011562427499890327
1733698035059567900,10.27556787109375,-0.004058920001983642,0.03928940600026399,-0.011316051523387431
1733698035069522000,10.28552197265625,0.02763502590060234,0.04441869518011808,0.0009568623334169388
1733698035079476700,10.295476806640625,0.05812953288555145,0.04574585213065147,0.06276128433942794
1733698035089430800,10.3054306640625,0.0547591796696186,0.02009666628502309,0.08065788329690694
1733698035099384800,10.315384765625,0.0686146865427494,-0.006812127700261772,0.07413257318139076
1733698035109340000,10.32533984375,0.1188210252135992,-0.0445106112472713,0.013473521818220615
1733698035119294000,10.3352939453125,0.1288461601436138,-0.05385737199168652,-0.02575578802525997
1733698035129248800,10.345248779296876,0.10865911216139792,-0.048620311588421464,-0.07008651266098022
1733698035139202800,10.355202880859375,0.07803542583882808,-0.054267267966829236,-0.10535919383317231
1733698035149156900,10.365156982421874,0.0813940886169672,-0.06112834937535226,-0.11431173109561205
1733698035159111700,10.375111572265626,0.11198854884505272,-0.050316119188256556,-0.10080050761550664
1733698035169066000,10.38506591796875,0.11328618744015694,-0.0559756793199107,-0.08119944282770157
1733698035179020800,10.395020751953124,0.07717851674854755,-0.016086371197737752,-0.019392682734131812
1733698035188974800,10.404974853515625,0.03463233744204044,0.02203753468710929,0.015492168164253233
1733698035198929000,10.414928955078125,0.008224222987890243,0.04552398954089731,0.0336363121420145
1733698035208883700,10.4248837890625,0.012046411624550819,0.04849895023107528,0.05459872841089963
1733698035218837800,10.434837646484375,0.011634323692321777,0.06210081113670021,0.06322247211039066
1733698035228792000,10.4447919921875,-0.005047931039333343,0.05487433048188686,0.05770429321080446
1733698035238747000,10.454746826171874,-0.004474515065550804,0.05075001709349453,0.025608780770003794
1733698035248701000,10.464700927734375,0.007689385458827018,0.0500929048916325,-0.004530921427905559
1733698035258655700,10.47465576171875,0.022305939832329747,0.039295543480105694,-0.024318740959465502
1733698035268609800,10.48460986328125,0.017473697370290756,0.025643121431022882,-0.056250002749264234
1733698035278563800,10.494563720703125,0.014681436303257942,0.04007788949683309,-0.04079670529067516
1733698035288519000,10.504518798828125,0.01815875702500343,0.026273930147849022,-0.009768529820442198
1733698035298473000,10.514472900390626,0.033249358651041984,0.012396686366945504,0.004162380376458168
1733698035308427800,10.524427734375,-0.0008159925580024719,0.014956965309008955,0.03500935406088829
1733698035318381800,10.5343818359375,-0.005793196448683738,0.03260536165907979,0.08401625381410122
1733698035328336000,10.5443359375,0.01508884806036949,0.016124401653185485,0.10388415284454822
1733698035338291000,10.554291015625,0.009202128109335898,0.006393573494628072,0.1108449317678809
1733698035348245000,10.564244873046874,-0.004628828844428062,-0.028825660457275807,0.09313830242455005
1733698035358198800,10.57419873046875,0.02750000134408474,-0.04219546617269516,0.04307166448533535
1733698035368153900,10.58415380859375,0.046156186497211454,-0.015458083231560884,0.026709143227338788
1733698035378108000,10.59410791015625,0.01975099465250969,-0.010478358590230346,-0.0012739654585719109
1733698035388063000,10.60406298828125,-0.015109306326508521,0.00032086598481982946,-0.039001054045557974
1733698035398017000,10.61401708984375,0.00909925225675106,0.01670391857419163,-0.048103228911757466
1733698035407970800,10.623970703125,0.009877250891923903,0.008995864947512745,-0.03564735970348119
1733698035417926000,10.63392578125,0.02954816604554653,-0.011289748038351536,-0.02027852565795183
1733698035427880000,10.6438798828125,0.02953472204208374,-0.009811199918389319,0.006933014133572578
1733698035437834800,10.653834716796876,0.038003859701752664,-0.01621394310016185,0.02436988662481308
1733698035447789000,10.6637890625,0.022694646888971326,-0.0073051719142124055,0.01723901183158159
1733698035457742800,10.673742919921875,0.033925065955519675,0.00886924289315939,0.0013183891221880911
1733698035467698000,10.683697998046876,0.031277766317129134,0.020662885333038866,-0.01978314335644245
1733698035477651700,10.693651611328125,0.03967266969680786,0.03768087482508272,-0.035592414645850654
1733698035487606800,10.703606689453125,0.06028232700526714,0.030201698050834235,-0.04949380648732185
1733698035497560800,10.713560791015626,0.04872983637750149,0.015017938248626886,-0.03814239138960838
1733698035507515000,10.723514892578125,0.029259412232041357,0.011410196080245077,-0.04014876277595758
1733698035517470000,10.733469970703124,0.021420389169454573,0.02605046012289822,-0.02280307569950819
1733698035527423700,10.743423828125,0.009615385085344314,0.022837672088854014,-0.012357085008919239
1733698035537377800,10.753377685546875,0.0021340894192457198,0.04503540230635553,0.020252222172915935
1733698035547332900,10.763332763671874,-0.0021767595171928405,0.035020496509410436,0.018372107514739035
1733698035557286700,10.77328662109375,0.012897475495934486,0.027145013893954455,0.02561199564039707
1733698035567242000,10.783241943359375,-0.016508651730418204,0.010462978358007967,0.06285802271217107
1733698035577195800,10.79319580078125,-0.01633621777296066,-0.008387414192967116,0.07971563401073217
1733698035587149800,10.80314990234375,-0.020990765580534934,-0.008249357429146766,0.07721738745421171
1733698035597105000,10.81310498046875,-0.021714988201856612,-0.02039064426291734,0.08633417536765337
1733698035607058700,10.82305859375,-0.005963876840472221,-0.0005002046070992946,0.09978840796351432
1733698035617014000,10.833013916015625,-0.01601122360229492,0.011180004053562878,0.09257745367139578
1733698035626967800,10.8429677734375,-0.0037567221850156782,0.000903707374073565,0.07203355507552624
1733698035636921900,10.852921875,0.0028366847306489943,-0.010430099001713097,0.03828004629462957
1733698035646877000,10.862876953125,0.02259820077717304,-0.014389138825796543,0.020105214917659757
1733698035656830700,10.872830810546875,0.00642272652387619,-0.007670607693120837,0.009321370574831962
1733698035666786000,10.8827861328125,0.013888824620842934,-0.0003219254307448864,-0.00010609072297811507
1733698035676739800,10.89273974609375,0.020029227072000503,0.01230071517918259,0.018713176037371156
1733698035686694000,10.90269384765625,0.025465280646085737,0.026569223299995063,0.035357436846196647
1733698035696649000,10.91264892578125,0.03539163137674332,0.031233890642784534,0.058273909792304034
1733698035706602800,10.922602783203125,0.0021662381231784818,0.017987565176561474,0.06110241121649742
1733698035716556800,10.932556884765624,0.015723054310679434,0.02004866242483258,0.06150631584227085
1733698035726511900,10.942511962890626,0.014192776003479957,0.017135405326634646,0.03672112641483545
1733698035736466000,10.9524658203125,-0.025481647258996962,0.042927835567854344,-0.0036772272080183026
1733698035746420700,10.962420654296874,-0.012874094620347023,0.047255599106475706,-0.022376959241926668
1733698035756374800,10.972374755859375,0.01213175182044506,0.05275642501246184,-0.007650807014107704
1733698035766328800,10.982328857421875,0.02801321156322956,0.0509462703179568,0.026990005995333192
1733698035776283600,10.99228369140625,0.04889642511606216,0.04482738557886332,0.053737727667391294
1733698035786238000,11.002238037109375,0.01582183851003647,0.005273337293043732,0.07452391058653593
1733698035796192800,11.01219287109375,0.03574059094488621,-0.02765172130707651,0.05321224248856306
1733698035806146800,11.022146728515626,0.048940264257788656,-0.05002736537475139,0.0007709843724966049
1733698035816100900,11.032100830078125,0.059954994747042654,-0.03602930822577327,-0.04668547106832266
1733698035826055700,11.0420556640625,0.03521276767849922,-0.03593271598350257,-0.07338847681581974
1733698035836009700,11.052009765625,0.053068157842755315,-0.0401671386828646,-0.11320873828977346
1733698035845964800,11.06196484375,0.07314590023159981,-0.043728849752433595,-0.1250344929009676
1733698035855918800,11.0719189453125,0.08877250843048096,-0.07239763914756477,-0.12318272755444049
1733698035865873000,11.081872802734376,0.1039198086798191,-0.07446889246366918,-0.07533639601320027
1733698035875827700,11.09182763671875,0.07303601011633873,-0.06407010191567242,-0.04330664228498936
1733698035885781800,11.10178173828125,0.025806641429662703,-0.03242613263465464,0.014231646709144114
1733698035895735800,11.11173583984375,0.005039747732877731,0.00857186738178134,0.05432137277424335
1733698035905691000,11.12169091796875,-0.012463175731897353,0.03507533196918666,0.0910451295375824
1733698035915645000,11.13164501953125,-0.0030669863551855085,0.03939297597259283,0.09959873061031102
1733698035925599700,11.141599853515626,-0.034003391888737675,0.07839516252931207,0.09232172534465789
1733698035935553800,11.1515537109375,-0.04284428547024727,0.06611132541969418,0.025590952852368353
1733698035945507800,11.1615078125,-0.0045341362982988355,0.03026519174110144,-0.011248246984183788
1733698035955463000,11.171462890625,-0.0032329905718564986,0.07241364043429493,0.036683424752950666
1733698035965417000,11.1814169921875,-0.02407178046107292,0.07912691086996346,0.025304244865477082
1733698035975371800,11.191371826171874,-0.03781739721894264,0.06980426165349782,0.011819909392297268
1733698035985325800,11.201325927734375,-0.030541268736124037,0.05178451124038547,0.014781389546394347
1733698035995280000,11.21127978515625,-0.03369593337476253,0.028379158798791465,0.012848375657200813
1733698036005234700,11.221234619140626,-0.02505903793275356,0.01940313106290996,0.012912380804121493
1733698036015189000,11.23118896484375,-0.0054524201869964595,0.003237557149119675,0.03473784364312887
1733698036025143300,11.241143310546875,0.005677461114525795,0.009502864621579647,0.06110737965255975
1733698036035097600,11.25109765625,0.0338280353218317,-0.007095766947232187,0.10554185692369937
1733698036045051600,11.2610517578125,0.02936462617218494,-0.03595697364192456,0.14028992969989776
1733698036055006500,11.27100634765625,0.014696633872389793,-0.048234563673846424,0.1593202088624239
1733698036064960500,11.28096044921875,0.017002572727203367,-0.03360197148099541,0.13205606210082768
1733698036074915300,11.290915283203125,0.011956395253539085,-0.021500212940014897,0.08124211292564869
1733698036084869400,11.300869384765624,0.020025135418772697,0.023790917693078516,0.0438490785986185
1733698036094823700,11.31082373046875,-0.0015939911931753157,0.03443579195663333,0.0034048400074243542
1733698036104778500,11.320778564453125,-0.004053659304976463,0.014820771708711981,-0.022747546119987964
1733698036114732500,11.330732666015624,0.011869301491975784,0.006082607849314809,-0.054573886230587954
1733698036124686600,11.3406865234375,0.046101241439580914,0.003553418165259063,-0.044622985580563546
1733698036134641400,11.350641357421875,0.0605061988890171,-0.011908574056439102,-0.05309095419645309
1733698036144595500,11.360595458984376,0.060602645000815386,-0.022276421476900576,-0.0537505871489644
1733698036154550500,11.370550537109375,0.07227204000651836,-0.022466171895340083,-0.034627076745033264
1733698036164504600,11.380504638671875,0.07960895876586437,0.0006898819603025913,-0.0430564669162035
1733698036174458600,11.390458740234376,0.05925532204508781,0.0049570013528689736,-0.023634265826642513
1733698036184413400,11.400413330078125,0.03870762405693531,-0.01996116680447012,-0.010269465079903601
1733698036194367500,11.410367431640625,0.029554011264443396,-0.00940473800934851,0.001266074413061142
1733698036204322600,11.420322509765626,0.022127076134085655,0.004538812473416328,0.01175181259214878
1733698036214276600,11.430276611328125,0.016015899777412412,0.018553309300541877,0.026188626484572885
1733698036224230400,11.44023046875,0.0029348844081163407,0.03237739812210202,0.021944705304503438
1733698036234185500,11.450185546875,-0.007575403690338134,0.037409985461831094,0.028267478585243224
1733698036244139500,11.460139404296875,-0.002026537391543388,0.03146214644070715,0.02912204958796501
1733698036254094600,11.470094482421874,0.013839140260219573,0.033869061451964076,0.04495967018902301
1733698036264048600,11.480048583984376,0.029263503885269163,0.020589308640174567,0.02845803272128105
1733698036274002400,11.49000244140625,0.03359364204406738,0.00801708304323256,0.039087271024286746
1733698036283957500,11.49995751953125,0.02063362270593643,0.010702632332779467,0.035820378182828426
1733698036293911600,11.50991162109375,-0.007611059525609016,-0.005177219974808395,0.027810382467508315
1733698036303865300,11.519865234375,-0.009997077879309653,0.0022262612147256732,0.021062661772966385
1733698036313820700,11.529820556640624,0.0012555530190467834,0.004249072279222309,0.02161620400249958
1733698036323774500,11.5397744140625,0.0038648587346076964,0.023505671010911465,0.028553602050244806
1733698036333729500,11.5497294921875,0.00047054012119770045,0.03459047106169164,0.043314825591444964
1733698036343683600,11.55968359375,0.0046831893801689145,0.008697210794501005,0.049610710865259165
1733698036353637400,11.569637451171875,-0.0036480011135339736,-0.003055843906663358,0.04905161567777395
1733698036363592400,11.579592529296875,0.005985504150390624,-0.015547040156647563,0.01078150625526905
1733698036373546500,11.58954638671875,0.04749006544947624,-0.019666312043741346,-0.0027896307185292244
1733698036383501600,11.59950146484375,0.0404465766787529,-0.01721018759589642,0.009250935687124729
1733698036393455600,11.60945556640625,0.04370937786698341,-0.010187668547965585,0.00473521182835102
1733698036403409400,11.619409423828126,0.05037877262830734,-0.0008546806005761027,0.0055199324652552605
1733698036413364500,11.629364501953125,0.06547463495135307,0.00008037175983190536,0.012765373548865318
1733698036423318300,11.639318359375,0.04952478614747524,-0.0009794760240241884,0.012654314389824867
1733698036433273600,11.649273681640626,0.02457505380809307,0.004977313488535582,-0.0007391279295086861
1733698036443227600,11.6592275390625,0.01836801586151123,0.03806037566196173,0.0022474866658449173
1733698036453181400,11.669181396484374,-0.01779810701906681,0.03888696267921477,-0.0020624854877591132
1733698036463136500,11.679136474609376,-0.054909401795268056,0.051968927896581585,-0.006614157442748546
1733698036473090300,11.68909033203125,-0.03876373815834522,0.033279351930506525,0.0012906243324279784
1733698036483044400,11.69904443359375,-0.020472294664382933,0.04601871425528079,0.01796148088723421
1733698036492999700,11.708999755859375,0.007682955718040466,0.044642092139832674,0.06643120502382517
1733698036502953500,11.718953369140625,0.0009188684105873108,0.04159512565936893,0.0895937616854906
1733698036512908500,11.728908447265624,-0.0004091653227806091,0.019752382891997693,0.10100713610351085
1733698036522862300,11.7388623046875,0.027291911551356313,-0.012882424057275056,0.0561862898632884
1733698036532816400,11.74881640625,0.0489250666886568,-0.017248108453489838,-0.002505260819196701
1733698036542771500,11.758771484375,0.05582417855262756,0.002154511152766645,-0.03773644093722105
1733698036552725500,11.7687255859375,0.02560848850905895,0.0010842150401324034,-0.07392448338866234
1733698036562680600,11.7786806640625,0.034140754532814024,0.00019314795192331075,-0.0998503672838211
1733698036572634400,11.78863427734375,0.07474339855611324,-0.02837356930822134,-0.10078034161031246
1733698036582588400,11.79858837890625,0.11511574095487594,-0.054027394796349104,-0.08061638224273919
1733698036592543500,11.80854345703125,0.08856617220342158,-0.06247179987356066,-0.036133974176645274
1733698036602497500,11.81849755859375,0.08408698096275329,-0.05484466599598527,-0.000021919570863246917
1733698036612452600,11.82845263671875,0.04908756377398967,-0.025643486757203935,0.037893677325546736
1733698036622406400,11.838406494140624,0.015754033970832824,-0.0066779799265787,0.06053688628822565
1733698036632360400,11.8483603515625,0.002778232541680336,0.015263839301094411,0.08499386667460203
1733698036642315300,11.858315185546875,0.0038660277783870694,0.03267857302576303,0.08839286146312951
1733698036652269600,11.86826953125,-0.013041267880797385,0.0337631899246946,0.07633096000850201
1733698036662223600,11.8782236328125,-0.010724223110079764,0.037806035574711856,0.04529635479748249
1733698036672178400,11.888178466796875,-0.00412438645362854,0.04323891081102192,0.013630758206546306
1733698036682132500,11.898132568359374,-0.008550970724225044,0.03741031425539404,-0.0022957097217440603
1733698036692087300,11.90808740234375,-0.0010427870512008666,0.03010978198368102,-0.017901567393541335
1733698036702041300,11.918041259765625,-0.0007154547929763794,0.040089105010591444,-0.04551730407178402
1733698036711995600,11.92799560546875,0.002008417212963104,0.03949548649899661,-0.04428893132060766
1733698036721950500,11.937950439453125,0.004845686465501785,0.02057312469035387,-0.03148439480513334
1733698036731904500,11.947904541015625,0.004636427628993987,0.003606061667948961,0.0002706336349248886
1733698036741859300,11.957859375,0.006314589974284171,0.006003441665880382,0.05039835411161184
1733698036751813400,11.9678134765625,0.025173019701242444,-0.004994922210462391,0.08923720333278179
1733698036761767400,11.977767333984374,0.03839373580217361,-0.011058350435271858,0.10899988842308521
1733698036771722500,11.987722412109376,0.0052379006534814835,-0.03132595284041017,0.1075423830911517
1733698036781676500,11.997676513671875,0.02048164701461792,-0.03510927077140659,0.09629325932413339
1733698036791631400,12.00763134765625,0.012144611302018165,-0.008477722824923694,0.06460165150910616
1733698036801585400,12.01758544921875,0.0002437456279993057,0.02291961475126445,0.030173604467511175
1733698036811539500,12.02753955078125,-0.017663666984438896,0.048012262692674994,0.015943419063091276
