time,seconds_elapsed,z,y,x
1733697986267624200,0.021624267578125,-0.04735211828351021,0.024888485405128447,-0.4354518566817045
1733697986277579300,0.031579345703125,-0.010417349117994308,0.0504240913410671,-0.2576812143713236
1733697986287533300,0.041533203125,0.09361234967708587,0.04020957131879404,-0.10418868874907493
1733697986297487400,0.0514873046875,0.21101649383008478,0.010547825363557785,-0.01885550711750984
1733697986307442200,0.061442138671875,0.31594401824772356,-0.022892050890903917,-0.03718085288107395
1733697986317396200,0.071396240234375,0.3624403964847326,-0.028950072288233784,-0.07473521524965762
1733697986327350000,0.08135009765625,0.31769583035111426,-0.016096709928661582,-0.1025824225962162
1733697986337305300,0.091305419921875,0.24063187989294527,-0.009457290180493145,-0.11606325093805789
1733697986347259400,0.10125927734375,0.14954875643253326,-0.036731355547904965,-0.11282266158163547
1733697986357213200,0.111213134765625,0.04093991315364837,-0.04160679783085361,-0.05818097081184387
1733697986367168300,0.121168212890625,0.03564356031119823,-0.018892788654286414,-0.02770516852736473
1733697986377122000,0.1311220703125,0.04681143553555012,-0.04468103591073304,0.019795418316125867
1733697986387076000,0.141076171875,0.05669219355881214,-0.054574269823078066,0.059384501382708545
1733697986397031400,0.151031494140625,0.06344751303792,-0.06062697572447359,0.09083353261351584
1733697986406985200,0.160985107421875,0.07111001048982143,-0.084946374271065,0.07954290779232978
1733697986416939300,0.170939208984375,0.09765139593482017,-0.10797436303393915,0.07170330020785332
1733697986426894000,0.18089404296875,0.060305123358964915,-0.06076011885115876,0.05763794997632503
1733697986436848000,0.19084814453125,0.010484569135308265,-0.018636530604586005,-0.03627367490828037
1733697986446802200,0.20080224609375,0.020853987458348273,0.020243929268606006,-0.1535690979897976
1733697986456757200,0.21075732421875,0.05996142448782921,0.0401529640270397,-0.24522037672698496
1733697986466711300,0.220711181640625,0.07406593768596649,0.03894000804070383,-0.3184732444643974
1733697986476665300,0.230665283203125,0.07852817779183387,0.04782601940557361,-0.37011984507143497
1733697986486619100,0.240619140625,0.0721744248509407,0.07002477253638208,-0.36971886305511
1733697986496574200,0.25057421875,0.06779518685340881,0.12132336342334747,-0.35680034477114675
1733697986506528300,0.2605283203125,0.023942601123452187,0.11466297395238652,-0.351603945171833
1733697986516482300,0.270482421875,-0.04256079235374927,0.12498040635986253,-0.2921428714215755
1733697986526437400,0.280437255859375,-0.06273907250761986,0.13177543679485096,-0.25700842967629434
1733697986536391200,0.29039111328125,-0.002895136919617653,0.059148427604511375,-0.23965689738094806
1733697986546345200,0.30034521484375,0.03558978429734707,0.004448394243605435,-0.19111118539869784
1733697986556300300,0.31030029296875,0.08475158235132693,-0.0223667118425481,-0.12975918333530426
1733697986566254000,0.320254150390625,0.09637713821530342,0.015546510433685034,-0.02361643790900707
1733697986576208400,0.33020849609375,0.05907645834684372,0.07889852720787749,0.06569266161620617
1733697986586163200,0.3401630859375,0.024913491982221602,0.15135324857123195,0.16178396862745284
1733697986596117200,0.3501171875,0.026075521498918532,0.1359176328998059,0.22950667476654052
1733697986606071300,0.3600712890625,-0.03366378467082977,0.1002675697825849,0.2693359963297844
1733697986616026000,0.370026123046875,-0.10935644677579402,0.09319755833111702,0.34244039550721644
1733697986625980200,0.379980224609375,-0.09175707719922065,0.052269372147880494,0.3148381028324365
1733697986635934500,0.3899345703125,-0.026886253359913823,-0.02323978661634028,0.28955343945026396
1733697986645888300,0.39988818359375,0.0012684125006198882,-0.06491762212309986,0.26857377978563307
1733697986655843300,0.40984326171875,0.02215513318479061,-0.051502990885265165,0.2822650360077619
1733697986665797000,0.419797119140625,-0.032681203374266624,-0.030655542765557764,0.3179775699019432
1733697986675751200,0.429751220703125,-0.05762216788530349,-0.03905808146242052,0.3491431080162525
1733697986685706200,0.439706298828125,-0.08982347878813743,-0.0723458724277094,0.3678875559747219
1733697986695660300,0.449660400390625,-0.11593465612232684,-0.12099774819817394,0.3735597563922405
1733697986705614300,0.4596142578125,-0.09815233119428157,-0.17521986184902488,0.37672377338111396
1733697986715569200,0.469569091796875,-0.040867432439327236,-0.17617193840947,0.41433074271976944
1733697986725523200,0.479523193359375,-0.043430560925602914,-0.13326956607643514,0.4390869983136654
1733697986735477200,0.489477294921875,-0.08870002771615981,-0.11027768980655818,0.4391524647653103
1733697986745432000,0.49943212890625,-0.11362930178940296,-0.08661481893993914,0.44306116264164447
1733697986755386400,0.509386474609375,-0.07507832959890365,0.00827010795623064,0.472678302270174
1733697986765340400,0.51934033203125,-0.055260699450969696,0.12004994595404714,0.4424783943176269
1733697986775295200,0.529295166015625,-0.046205286335945124,0.11869378210473805,0.33492870470285413
1733697986785249300,0.539249267578125,-0.0505897850304842,0.060942288751341396,0.17119477105140685
1733697986795203300,0.549203369140625,-0.04061667254865169,-0.003872749780118465,0.006082534784078598
1733697986805158100,0.559158203125,0.018326514807343482,-0.004921564713306725,-0.1382791743993759
1733697986815112400,0.569112548828125,0.07680383821725845,0.01968618578799069,-0.2337520572513342
1733697986825066200,0.579066162109375,0.1427402454614639,0.04999558199699968,-0.2736620428353548
1733697986835021300,0.589021240234375,0.18605682461857795,0.07041147029902786,-0.33688568398952484
1733697986844975400,0.598975341796875,0.1842512365013361,0.06295227686688304,-0.380285849776864
1733697986854929200,0.60892919921875,0.1852823331147432,0.05822323905099183,-0.4138444205075502
1733697986864883200,0.61888330078125,0.13885726654827593,0.0692593776544556,-0.4431277981370687
1733697986874838300,0.62883837890625,0.11468027214705943,0.05777133056502789,-0.46480713050365446
1733697986884792300,0.638792236328125,0.1389502055287361,0.04301233551353216,-0.4779372457116842
1733697986894746400,0.648746337890625,0.1577162807971239,0.03698321141712367,-0.42338440226912494
1733697986904701200,0.658701171875,0.16199907268285751,0.02543707746490836,-0.38683950920403004
1733697986914655200,0.6686552734375,0.1437561445057392,0.015057576139271259,-0.30710078657865525
1733697986924609300,0.678609375,0.12879472221732138,-0.009244432881101966,-0.2089817731320858
1733697986934564400,0.688564453125,0.10986439629793167,-0.022560499115288256,-0.13562544502019883
1733697986944518400,0.698518310546875,0.07562018139064311,-0.014180354913324117,-0.052339259046316144
1733697986954472200,0.70847216796875,0.0727887573570013,-0.017698372971639037,-0.020841712498664854
1733697986964427300,0.71842724609375,0.0770236184477806,-0.017858203175850212,0.011326865178346633
1733697986974381000,0.728381103515625,0.062968205088377,0.00992298972979188,0.05548223324716091
1733697986984334800,0.7383349609375,0.01833352907001972,0.050678193966299294,0.07003624377846718
1733697986994290000,0.7482900390625,-0.015054361268877983,0.03473250988088548,0.06915420024693011
1733697987004244000,0.758243896484375,-0.02266191366314888,0.0511798233455047,0.07256430095136165
1733697987014197800,0.76819775390625,-0.03729483464956283,0.027372575572133063,0.06041793608367443
1733697987024153000,0.778153076171875,-0.04074935901761055,-0.004517039033025503,0.039757425370812415
1733697987034107000,0.78810693359375,-0.04467968420386314,0.0004973550628870725,0.02979483428299427
1733697987044061000,0.79806103515625,-0.0033493104279041287,-0.0055893079070374364,0.04222703035473823
1733697987054016000,0.80801611328125,0.00931669439971447,-0.01067355236876756,0.07257774495482444
1733697987063969800,0.8179697265625,-0.005694996771216392,-0.004560074457153678,0.1086556050300598
1733697987073923800,0.827923828125,0.863341169154644,0.034300073280371726,0.5283551813066005
1733697987083878000,0.8378779296875,0.05321311927139759,0.1846759281868115,0.2761725643515587
1733697987093833000,0.8478330078125,-0.3300888634562492,0.07485043912716209,-0.8876204548865556
1733697987103787000,0.857787109375,-0.3168576259613037,0.07755509497597814,-0.908906988543272
1733697987113740800,0.86774072265625,-0.48858372741043565,-0.07902166039720177,-1.019669794985652
1733697987123695900,0.87769580078125,-0.3629050913870334,-0.12684278443194924,-0.5986725801140069
1733697987133650000,0.88764990234375,-0.05532908851206302,-0.2301283868614584,0.43792379975318907
1733697987143603700,0.897603759765625,0.3777238903343677,-0.015543204231746493,1.1905670443952083
1733697987153559000,0.90755908203125,0.3172340580582618,0.1861846157167107,1.0985609608709812
1733697987163512800,0.917512939453125,0.11091653569936752,0.13260131142605094,0.8664514101296663
1733697987173467000,0.927466796875,-0.028180969345569608,0.05587433783728629,0.467502945458889
1733697987183422000,0.937421875,-0.09311609059274197,-0.024147804839350282,0.07794014877080917
1733697987193375700,0.947375732421875,-0.16046820985376833,-0.030938560958020386,-0.1696329285621643
1733697987203329800,0.957329833984375,-0.1796229921787977,-0.03980126451253891,-0.2647428233206272
1733697987213284900,0.967284912109375,-0.08985738105773926,-0.046390725905448196,-0.1797504179507494
1733697987223239000,0.977239013671875,0.02558627667725086,-0.043252720140665765,-0.058493105500936504
1733697987233193000,0.98719287109375,0.09186755183637142,-0.05468907357547432,0.0256499895632267
1733697987243147800,0.997147705078125,0.13555121074020862,-0.04230272593945265,0.06064940675199031
1733697987253101800,1.007101806640625,0.14270108249485491,-0.0416584001539275,0.046446109354496
1733697987263056000,1.017055908203125,0.11636544875502586,-0.013671747804060578,0.015157821643352507
1733697987273011000,1.027010986328125,0.051285950601100916,0.02632920399904251,-0.025243162328004835
1733697987282965000,1.036965087890625,-0.006224573603272438,0.05164196096453815,-0.037950083687901495
1733697987292919000,1.0469189453125,-0.04893266547322273,0.06184574039708823,-0.030564065089821815
1733697987302873900,1.056873779296875,-0.04141103779673576,0.05188640071228146,-0.017312369328737257
1733697987312828000,1.066827880859375,0.017559622088074683,0.042496823739446694,0.00820610280930996
1733697987322781700,1.07678173828125,0.03904138605594635,0.04352507080864161,0.003199672824144363
1733697987332735700,1.08673583984375,0.08833996223211288,0.0278595553714782,-0.0015682722300291061
1733697987342691000,1.096691162109375,0.09918108972012996,0.014301241346634923,-0.01542611719071865
1733697987352644900,1.106644775390625,0.06603694500923156,0.01985869281068444,-0.06704582979083061
1733697987362599000,1.116598876953125,0.034842180800437925,0.01500661313701421,-0.10390402658879756
1733697987372553700,1.1265537109375,0.029266426494717595,0.012301080505363642,-0.10838789400458335
1733697987382507800,1.1365078125,-0.002472527593374252,0.023562406166829166,-0.09236264187693595
1733697987392461800,1.1464619140625,-0.010157236877083777,0.036793972455337644,-0.04069733656942844
1733697987402417000,1.1564169921875,-0.000090016371011734,0.015428382213041186,-0.005110474881529808
1733697987412371000,1.166370849609375,0.004441781839728355,0.02833612337466329,0.022118308305740356
1733697987422325000,1.176324951171875,0.03946867155730724,0.011187200979329645,-0.0005073650002479553
1733697987432279800,1.18627978515625,0.08353051612377166,-0.05609291249141097,-0.025128596037626266
1733697987442233900,1.19623388671875,0.08622399299144744,-0.08612129980195313,-0.017807459369301795
1733697987452188000,1.20618798828125,0.0433048887193203,-0.03469634258896112,0.0035831191837787627
1733697987462143000,1.21614306640625,-0.021554244682192802,0.004668503267690539,0.01640343779027462
1733697987472097000,1.226096923828125,-0.034789573830366134,0.026018384484201667,0.019983634364604947
1733697987482050800,1.23605078125,-0.019327216282486914,0.01726776300203055,0.03261807501018047
1733697987492006000,1.246005859375,-0.01483224295079708,0.015468421962484716,0.04097498446702957
1733697987501959700,1.255959716796875,-0.002145195335149765,0.0272830341251567,0.0629506694316864
1733697987511913700,1.265913818359375,-0.018874796339869496,0.0161980879439041,0.055925885361433024
1733697987521869000,1.275869140625,-0.06090951899290085,0.05294080513603985,0.0401718513906002
1733697987531822800,1.28582275390625,-0.0616653057962656,0.026632095935754475,-0.008940846824645996
1733697987541777000,1.29577685546875,-0.049908232507109636,0.062167885023541744,0.0010129764348268508
1733697987551731000,1.30573095703125,-0.051942368683218956,0.09032061465531586,0.02890110031366348
1733697987561685800,1.315685791015625,-0.024874913537502288,0.07859254826493561,0.07893909668028354
1733697987571639800,1.325639892578125,-0.04604337377250194,0.041852096095122394,0.12802023071348667
1733697987581594000,1.335593994140625,-0.015972645157575606,0.017547675921954213,0.17039397606253623
1733697987591549000,1.345548828125,0.031231589087843892,-0.016220445906184613,0.16226561466455458
1733697987601503000,1.3555029296875,0.020225626426935196,-0.019802505644038317,0.11836626718342304
1733697987611456800,1.365456787109375,0.03248012784421444,-0.02827968047969043,0.05175181454718113
1733697987621411800,1.375411865234375,0.016664719074964522,-0.020977138913981615,-0.009717676416039467
1733697987631366000,1.385365966796875,0.026034604966640472,-0.020498853877745568,-0.08788111254870891
1733697987641320000,1.39531982421875,0.06409750137925148,-0.04348272950425744,-0.12387655503749846
1733697987651275000,1.40527490234375,0.07967208712995053,-0.04684270745664835,-0.1027086793243885
1733697987661228800,1.415228759765625,0.08506956225931644,-0.05305551755689084,-0.06249649592339992
1733697987671182800,1.425182861328125,0.0808364547342062,-0.038605478856712575,-0.017671850290894506
1733697987681138000,1.435137939453125,0.06566811169683932,-0.03570869796928018,0.01288461601436138
1733697987691091700,1.445091796875,0.051229836499691005,-0.0166125870289281,0.05315758969187736
1733697987701046000,1.4550458984375,0.04412321936488151,0.005144852075167,0.057902153870463366
1733697987711000800,1.465000732421875,0.010301613783836365,0.027656507080048322,0.061226329857110975
1733697987720955000,1.474954833984375,-0.022024200281500816,0.02462393445111811,0.09152969818413258
1733697987730909000,1.484908935546875,-0.05501812286674976,0.007008271326869726,0.09602350247204303
1733697987740863700,1.49486376953125,-0.07510989378094672,0.025047712821140884,0.11130232014656066
1733697987750817800,1.50481787109375,-0.05673135652542114,0.04050857253167778,0.15163842218816279
1733697987760772000,1.514772216796875,-0.03189619047641754,0.08382474982999265,0.15085165572464465
1733697987770727000,1.524726806640625,-0.023837971705198288,0.09118366122543811,0.12717384301722048
1733697987780681000,1.534680908203125,-0.04354688078165054,0.07095010722037404,0.06937105786800384
1733697987790634800,1.544634765625,-0.033413609302043915,0.050484351894631976,-0.006547229686379432
1733697987800588800,1.5545888671875,0.03512684296071529,0.029595073927193877,-0.05316109682321548
1733697987810543900,1.5645439453125,0.10062895044088363,0.011249854419380426,-0.09037117579877375
1733697987820498000,1.574497802734375,0.07595686599910259,-0.00834518248643726,-0.10100772062540053
1733697987830452000,1.584451904296875,0.09542612110078334,-0.010756335281394422,-0.11888298453390597
1733697987840406800,1.59440673828125,0.07122516130208968,-0.004520107772946358,-0.11866671143472193
1733697987850360800,1.60436083984375,0.024683190357685087,-0.013845314272679387,-0.11444412530362605
1733697987860315000,1.61431494140625,-0.00021276596784591673,-0.0076256725728511806,-0.06115677175223827
1733697987870269700,1.624269775390625,-0.026874562922120093,0.019821100746653973,-0.030567572221159932
1733697987880224000,1.63422412109375,-0.03595803308784962,0.015972754755429922,0.009759177470207214
1733697987890178000,1.644177978515625,-0.028219547790288922,-0.000019471885450184345,0.0179945063740015
1733697987900132900,1.6541328125,-0.00635083033144474,-0.006329824076034128,0.040709027007222176
1733697987910087000,1.6640869140625,0.005098784443736076,-0.01344162884261459,0.050745267853140825
1733697987920041000,1.674041015625,0.0008013795107603073,-0.014583930745534598,0.07119593520760535
1733697987929995800,1.683995849609375,0.023806992045044897,-0.015675379244051872,0.05805880573689937
1733697987939950000,1.6939501953125,0.039864977398514745,-0.020338110358081758,0.04280161537230014
1733697987949904000,1.70390380859375,0.03171966486573219,-0.009280015651136637,0.0341547830581665
1733697987959859000,1.71385888671875,0.03930792803764343,0.005173237919434905,0.006606266397237777
1733697987969813000,1.72381298828125,0.032090836265683174,-0.002337904895655811,-0.02532265730500221
1733697987979766500,1.7337666015625,0.014624153158068656,-0.0017325594136491417,-0.042599955320358276
1733697987989721900,1.743721923828125,0.013980594557523726,-0.007644158077612519,-0.048963645133376116
1733697987999675600,1.753675537109375,0.0048643911659717555,0.02631389683205634,-0.04544949953258037
1733697988009629700,1.763629638671875,0.013092705807089804,0.04370451902877539,-0.03343056043684482
1733697988019584800,1.773584716796875,0.008247603863477707,0.04839614744372665,-0.026465397599339482
1733697988029538600,1.78353857421875,0.010053191980719566,0.047214353780634696,-0.01238660336434841
1733697988039492600,1.79349267578125,0.013152911561727524,0.055533853836543856,-0.012628595426678657
1733697988049446700,1.80344677734375,0.010839373922348022,0.03997640188373625,-0.0002916764229536056
1733697988059401700,1.813401611328125,0.03269756998717785,0.054086723768152295,-0.008075169906020164
1733697988069355800,1.823355712890625,0.01955927147269249,0.05401380466241389,-0.05530044693946838
1733697988079309800,1.833309814453125,-0.0032166239589452744,0.0437140540421009,-0.08202420321404934
1733697988089264600,1.8432646484375,0.005407412001490593,0.04135368158631027,-0.12309797188043593
1733697988099218700,1.85321875,-0.004323123896121979,0.03099427320063114,-0.14195464804172514
1733697988109172500,1.86317236328125,0.0064461073994636535,0.02334215101227164,-0.1522398952126503
1733697988119127800,1.8731279296875,-0.01123334167599678,0.02200797979906201,-0.18911621218919752
1733697988129081600,1.88308154296875,0.027331659039855002,0.05313654690384864,-0.17832886071503162
1733697988139035600,1.89303564453125,0.03640051615834236,0.06560483720228076,-0.15583002865910528
1733697988148990700,1.90299072265625,0.016701543954014776,0.08771974797453731,-0.145325001257658
1733697988158944500,1.912944580078125,0.018572014001011848,0.05125011210273951,-0.13190671675801277
1733697988168898600,1.922898681640625,0.04663315635919571,0.013195435529202222,-0.1124772091448307
1733697988178853600,1.932853515625,0.058500119763612746,-0.018043204353936016,-0.08762626100480556
1733697988188807700,1.9428076171875,0.07593348512351512,-0.029468488405458626,-0.0326952318996191
1733697988198761700,1.95276171875,0.05250993943810463,-0.027197547798790037,0.006741290953755378
1733697988208716500,1.962716552734375,0.039764439633488656,-0.0421167749132961,0.036997605268657204
1733697988218670600,1.972670654296875,0.03962649246752262,-0.020891287261433897,0.0725640086904168
1733697988228624600,1.982624755859375,0.032791678011417386,-0.014789536320231854,0.09547755902707576
1733697988238579700,1.992579833984375,0.002422258710861206,0.006293035729601979,0.11720628349334
1733697988248533800,2.00253369140625,0.013248188629746437,0.0020421002868562937,0.11522533880919217
1733697988258487800,2.01248779296875,0.013135375905036925,0.003613441256806254,0.14046557852774857
1733697988268442600,2.022442626953125,-0.06982581589818,0.028552067680284378,0.1585094770014286
1733697988278396700,2.032396728515625,-0.07769231148958206,-0.009013400604203343,0.15157938547730446
1733697988288350500,2.0423505859375,-0.04069733656942844,0.013143961070291697,0.16580606375038623
1733697988298305800,2.052305908203125,-0.01623217287659645,0.032135954049043354,0.20891016920059918
1733697988308259800,2.062259765625,-0.01915361328125,0.025520189171098173,0.2501817985266447
1733697988318213600,2.072213623046875,-0.044730537608265876,0.0179863961327821,0.25935265471488234
1733697988328167700,2.082167724609375,-0.02515139239132404,0.0021253581235185265,0.26079174760729074
1733697988338122500,2.09212255859375,0.022205402067303655,-0.01491831379905343,0.20824615233391522
1733697988348076500,2.10207666015625,0.029618893194198605,-0.03032649347428232,0.17025661341845988
1733697988358030600,2.112030517578125,0.0075333181142807,-0.03732811586465686,0.09506517883390188
1733697988367985700,2.121985595703125,0.012882277926802634,-0.03742547529190778,0.012185235573351383
1733697988377939700,2.131939697265625,0.0444984824180603,-0.047467707487195726,-0.035491584619879724
1733697988387893800,2.141893798828125,0.06196107387244701,-0.054011978031508624,-0.07063450193256139
1733697988397848600,2.1518486328125,0.07063011801838874,-0.0543034717913717,-0.06532265926003455
1733697988407802600,2.161802734375,0.06508008267581462,-0.04076905009876936,-0.042646424810588356
1733697988417756700,2.171756591796875,0.04479132788479328,-0.017145378731377423,-0.019100129528343675
1733697988427711700,2.181711669921875,0.04080664216279983,-0.019354761876538396,0.007623919007182121
1733697988437665800,2.191665771484375,0.04348550598323345,-0.00350296661965549,0.03506429911851883
1733697988447619600,2.20161962890625,-0.001637245813012123,0.01854651423357427,0.04298895463794469
1733697988457574700,2.21157470703125,-0.007774141132831573,0.013947386407665907,0.054709787569940084
1733697988467528700,2.22152880859375,-0.014725859966874122,0.03896897840686142,0.04808832360357046
1733697988477482500,2.231482421875,-0.0046831893801689145,0.03111241968758404,0.0488926257237792
1733697988487437800,2.241437744140625,-0.00865092396736145,0.040716954585351045,0.0453828640371561
1733697988497391600,2.2513916015625,-0.005292261189222335,0.0357331382907927,0.02496668347418308
1733697988507345700,2.261345703125,0.005906009173393249,0.0552830208806321,0.008922142124176025
1733697988517300500,2.271300537109375,0.006265490135550498,0.03516045296937227,-0.010984627611935138
1733697988527254500,2.281254638671875,0.013639233773946761,0.03878094502147287,-0.0234627086520195
1733697988537208600,2.29120849609375,0.022077391773462293,0.0339846141230315,-0.009679974754154682
1733697988547163600,2.30116357421875,0.023109657430648804,0.03541840978581458,-0.014328092820942401
1733697988557117700,2.31111767578125,0.0618482611477375,0.026433723819442093,0.0185109314635396
1733697988567071700,2.32107177734375,0.025794366469979284,0.029762137589789926,0.06322860959023237
1733697988577026600,2.331026611328125,0.00859773247539997,0.02269318558424711,0.0863154706671834
1733697988586980600,2.340980712890625,0.02887596587240696,0.014573190155811606,0.0968178677201271
1733697988596934700,2.3509345703125,0.0015279402196407318,0.014195662080310284,0.06658756462931632
1733697988606888700,2.360888671875,-0.02051905641555786,0.028661519404128193,0.022676818971335888
1733697988616843800,2.37084375,-0.02332417696416378,0.03410944607909769,-0.009399988768994807
1733697988626797600,2.380797607421875,-0.019769699352979658,0.02131115664131939,-0.04179916033148765
1733697988636751600,2.390751708984375,-0.0019388591080904006,0.00931716932374984,-0.05429711511582136
1733697988646706700,2.400706787109375,0.03148468706607818,0.013964374075084924,-0.03497311370372772
1733697988656660500,2.410660400390625,0.05168225644230842,-0.007089666000008582,-0.017749883963167665
1733697988666614800,2.42061474609375,0.07571838106811046,-0.0135078624792397,0.011125789648294448
1733697988676569600,2.430569580078125,0.06961421897411346,-0.012349340093880891,0.026216099013388155
1733697988686523600,2.440523681640625,0.06156885968446731,-0.027962029365263878,0.02679799055457115
1733697988696477700,2.450477783203125,0.06327975525557994,-0.008593019767664372,0.024593466247618198
1733697988706432500,2.4604326171875,0.052315293648838995,-0.002850055668875575,0.01180588086694479
1733697988716386600,2.470386474609375,0.06682371147274971,-0.005296097114123404,0.0076554831892251965
1733697988726340900,2.4803408203125,0.0671329235523939,-0.017974924890697002,0.011872808623313903
1733697988736295700,2.490295654296875,0.06001753858923912,-0.009718224405311048,0.003130406980216503
1733697988746249700,2.500249755859375,0.03966799352169036,0.0001293620007112622,0.0033832126975059506
1733697988756203800,2.510203857421875,0.02366261513829231,-0.0018554186083376406,0.0006762918263673782
1733697988766158600,2.52015869140625,0.02339256602525711,0.009668138185888528,0.006153846454620361
1733697988776112600,2.530112548828125,0.0391565368682146,0.017829999994672833,0.019484744931757447
1733697988786066700,2.540066650390625,0.033172201761603355,0.02708137407321483,0.02196779391914606
1733697988796021800,2.550021728515625,0.03469897293746471,0.009453509054519235,0.027573358841240403
1733697988805975600,2.5599755859375,0.03172551008462906,0.021502624092809855,0.05395400076657533
1733697988815929600,2.5699296875,0.012057517540454863,0.05809373091980814,0.05260433972328901
1733697988825884700,2.579884765625,-0.002574234402179718,0.06451105061620474,0.02962181580364704
1733697988835838500,2.58983837890625,0.004424246183037757,0.050186355328746136,0.005822130282223224
1733697988845792800,2.599792724609375,0.04168225595355034,0.04764160274937749,0.0006602174744009972
1733697988855747600,2.60974755859375,0.06209551390707493,0.03364095178451389,-0.012661913174390792
1733697988865701600,2.61970166015625,0.05897065988481044,0.048907056107930835,-0.025659341913461683
1733697988875655700,2.62965576171875,0.06629121203124523,0.03983202497698366,-0.05184592257142066
1733697988885610500,2.639610595703125,0.05818272437751293,-0.0021746771579608318,-0.07704729158431291
1733697988895564500,2.649564453125,0.07091828731000423,-0.01789849865362048,-0.053260173283517356
1733697988905518800,2.659518798828125,0.060952189090847965,-0.022187683747522533,-0.012234919933974742
1733697988915472600,2.66947265625,0.06005027181506157,-0.00718571025300771,0.01947860745191574
1733697988925427700,2.679427734375,0.07399462601542472,0.002078742502816021,0.0377124755397439
1733697988935381800,2.6893818359375,0.10558511154353618,0.008287168688885868,0.04598609062731266
1733697988945335600,2.69933544921875,0.09088730862736702,0.006548143001832068,0.01635375342965126
1733697988955290600,2.70929052734375,0.08387187690734862,0.003525507245026529,-0.0008636310920119285
1733697988965244700,2.71924462890625,0.0646931291848421,0.009012450756132603,-0.000041208793222904206
1733697988975198200,2.7291982421875,0.012215338450670242,0.021696868023276326,-0.042596448189020156
1733697988985153500,2.739153564453125,-0.027851298999786375,0.02830269602909684,-0.0645256636634469
1733697988995107300,2.749107421875,-0.007737316253781318,0.02770889485441148,-0.05553133308589458
1733697989005061400,2.759061279296875,0.017740823873877525,0.04639967639688402,-0.010530746364593505
1733697989015016200,2.76901611328125,0.033411855736374854,0.05887271593566984,0.043342298120260234
1733697989024970200,2.77897021484375,0.013200842356681824,0.05241071684733033,0.06953852338939905
1733697989034924300,2.78892431640625,0.017056933262944222,0.02666552328132093,0.09644874214679003
1733697989044879400,2.79887939453125,0.056899698829650874,-0.011572729698196053,0.07675824550986289
1733697989054833400,2.80883349609375,0.08074410027563571,-0.019193762628547845,0.025021044009923932
1733697989064787500,2.818787353515625,0.06801029090881347,-0.02954370906613767,-0.005535714556276798
1733697989074742300,2.8287421875,0.027561960664391517,-0.03176365013793111,-0.06075578973591327
1733697989084696300,2.8386962890625,0.039870238095521926,-0.05535897219367325,-0.09884031345844269
1733697989094650400,2.848650390625,0.05283668717443943,-0.043298751239478586,-0.08666559927910567
1733697989104605400,2.85860546875,0.05062076469063759,-0.04885963676963001,-0.08100070538520812
1733697989114559500,2.8685595703125,0.043193829560279846,-0.027798509366624057,-0.04014671694934368
1733697989124513300,2.87851318359375,0.02186579484939575,0.01916705728471279,-0.002806581853330135
1733697989134468400,2.88846826171875,-0.0035696751803159714,0.03263835061322898,0.01018061775267124
1733697989144422400,2.89842236328125,0.007422258955240249,0.037892142955586315,-0.00005611410140991211
1733697989154376200,2.908376220703125,-0.00922609350681305,0.061035081601329144,0.025129472820460796
1733697989164331500,2.91833154296875,-0.013593641066551207,0.07230762277655303,0.04134294099658727
1733697989174285300,2.928285400390625,-0.004358195209503174,0.07457947669867426,0.060626610398292535
1733697989184239400,2.9382392578125,-0.013131868773698806,0.08930263325180858,0.06722147861868143
1733697989194193400,2.948193359375,-0.00730067840218544,0.0693349636413157,0.056713820868730544
1733697989204148200,2.958148193359375,-0.012098434072732926,0.06327193727530539,0.025586861199140547
1733697989214102300,2.968102294921875,-0.0038631051689386364,0.051361280859634276,0.0025359482184052467
1733697989224056600,2.978056640625,0.03532031970620155,0.04523823140207678,-0.019992109932005404
1733697989234011400,2.988011474609375,0.04149637799263,0.023964886020496488,-0.0327498846963048
1733697989243965400,2.99796533203125,0.019258242699503898,0.013361914669908583,-0.02122574338018894
1733697989253919500,3.00791943359375,-0.018757307440042496,0.007702098809927701,-0.01726823792606592
1733697989263874300,3.017874267578125,-0.01839899552166462,0.025651122074387966,0.009453180260956286
1733697989273828400,3.027828369140625,0.02121931363940239,-0.010916823072731494,0.008295242397487163
1733697989283782400,3.037782470703125,0.024370471146702766,-0.0008722527898848056,0.0346995574593544
1733697989293737500,3.047737548828125,-0.0007312368839979171,0.013783391484990715,0.0705818949624896
1733697989303691300,3.057691162109375,0.011180734705924986,-0.028380620103515684,0.05735299555510282
1733697989313645300,3.067645263671875,0.01824117461144924,-0.017459997638501226,0.08942512712031603
1733697989323600400,3.077600341796875,-0.026701544442772864,0.029590434284694492,0.11283113714903592
1733697989333554200,3.08755419921875,-0.05632920546531677,0.035877040273509915,0.09138912066966294
1733697989343508500,3.097508544921875,-0.06839607535600661,0.02297496166769415,0.038089492158591746
1733697989353463300,3.10746337890625,-0.03355447907745838,0.015217369810864328,0.020966215661168096
1733697989363417300,3.117417236328125,-0.0033709377378225323,0.025139080899022517,0.00741875182390213
1733697989373371400,3.127371337890625,0.004691957208514213,0.017687632381916046,0.02594458859562874
1733697989383326200,3.137326171875,0.020044424641132354,0.007232654667273164,0.012976970472931861
1733697989393280300,3.1472802734375,0.00478489618897438,0.002348134028725326,0.011286825428903103
1733697989403234600,3.157234619140625,-0.004180500555038452,0.02002210321146995,0.0075213354155421255
1733697989413189400,3.167189453125,0.02602642166018486,0.013893610393814742,0.02001812115609646
1733697989423143400,3.177143310546875,0.026565935364365575,0.018430851964652537,0.003562368656694889
1733697989433097500,3.187097412109375,0.029136078113317487,0.01352905139774084,0.009401450073719024
1733697989443052300,3.19705224609375,0.046126375880837435,0.0011458090342581272,-0.00881342105269432
1733697989453006300,3.20700634765625,0.05025193137824535,0.014665800342708825,-0.008048574160039424
1733697989462960400,3.21696044921875,0.05029927765130996,0.0418825277660042,0.008346095801889896
1733697989472915500,3.22691552734375,0.03250760037302971,0.032555713831074536,-0.007838438540697098
1733697989482869500,3.236869384765625,0.03801613466143608,0.01578607307691127,-0.005654372499883174
1733697989492823300,3.2468232421875,0.034237785166502,0.02543484897520393,0.014992401948571205
1733697989502778400,3.2567783203125,0.006544307076930999,0.030986601350829004,0.00791413412541151
1733697989512732200,3.266732177734375,0.011249708288908004,0.028571393435262143,-0.014317863687872886
1733697989522686500,3.2766865234375,0.017694062122702598,0.017964001637883482,0.0015215104788541792
1733697989532641500,3.2866416015625,0.005407996523380279,0.04428122293818742,-0.0008051789030432701
1733697989542595300,3.29659521484375,0.004569207611680031,0.029895993102528152,-0.0008843816190958022
1733697989552549400,3.30654931640625,-0.0017716858476400374,0.0466047705149278,0.021068214730918407
1733697989562504200,3.316504150390625,-0.007649637970328331,0.04168397298660129,0.01933043115288019
1733697989572458200,3.326458251953125,0.011535539492964745,0.01784220188912004,0.012089666244387625
1733697989582412500,3.33641259765625,0.013607669591903685,0.005475801062583923,0.02141191360205412
1733697989592367400,3.346367431640625,0.017995675417780875,-0.011706548678316175,0.004518354207277297
1733697989602321400,3.3563212890625,0.03875321676433086,-0.03791285695005208,0.007399462601542473
1733697989612275500,3.366275390625,0.024207974061369895,-0.027449549798481163,0.0125330260977149
1733697989622230300,3.376230224609375,0.008656769186258316,-0.027647008599340914,0.026724633057415483
1733697989632184300,3.386184326171875,0.0064244800895452495,-0.019201324880495665,0.03553688506633043
1733697989642138400,3.396138427734375,0.009794833305478095,-0.009968180578388273,0.049910278333723544
1733697989652092400,3.406092529296875,0.006354921984672546,-0.019343327167071402,0.06713496937900781
1733697989662047500,3.416047607421875,-0.000754033237695694,0.00944981926009059,0.04082943851649761
1733697989672001300,3.426001220703125,0.005639467191696166,0.01586494699940085,0.038677521179616446
1733697989681955300,3.435955322265625,0.000709025052189827,0.02561597769577056,0.04825169747173786
1733697989691910100,3.44591015625,-0.055898412832617754,0.053036995519511396,0.013638649252057074
1733697989701864400,3.455864501953125,-0.0624801293104887,0.04231156683303416,0
1733697989711818500,3.465818603515625,-0.03391746717095375,0.03753386756982654,0.018523206423223016
1733697989721773300,3.475773193359375,-0.0023439327776432037,0.05059157512877136,0.07661036147177219
1733697989731727400,3.485727294921875,-0.02437865445315838,0.05866700076311827,0.12979513143151997
1733697989741681400,3.495681396484375,-0.025374679753184318,0.04046268756333738,0.1608925727456808
1733697989751636200,3.50563623046875,-0.010122165563702584,0.0184515294265002,0.15270868176817892
1733697989761590500,3.515590576171875,0.036655952224135396,0.005757029156759381,0.11456629037857055
1733697989771544600,3.525544677734375,0.027850129956007,-0.0027059344904497265,0.09199731569588183
1733697989781499400,3.53549951171875,0.008854922106862067,0.006149681736156344,0.04220481852293014
1733697989791453400,3.545453369140625,0.015872107392549514,-0.0032307620821520684,-0.014274316807091235
1733697989801407200,3.5554072265625,0.031550153517723084,-0.02138268750756979,-0.05708177739828825
1733697989811362300,3.5653623046875,0.06632336073517799,-0.041192682338319714,-0.05859013613462448
1733697989821316600,3.575316650390625,0.09566577507555485,-0.04184953881185501,-0.05052694892734289
1733697989831270400,3.5852705078125,0.07634031235873699,-0.028861900814436375,-0.020177695631980894
1733697989841225500,3.5952255859375,0.053067573320865626,-0.022880707512982188,0.008833294796943664
1733697989851179300,3.60517919921875,0.037222938457131385,-0.02314838200584054,0.019109189617633818
1733697989861133300,3.61513330078125,0.008245265775918961,0.03535765604190528,0.04577683179080486
1733697989871088400,3.62508837890625,-0.012032383099198341,0.0462975677292794,0.020443945352733132
1733697989881042400,3.63504248046875,0.014465163204073905,0.02184829572532326,0.011054770238697529
1733697989890996500,3.64499658203125,-0.006585808131098747,0.04964154439494013,0.019218202950060367
1733697989900951300,3.654951416015625,0.0032826749324798583,0.04144998156763613,0.021647475923597812
1733697989910905300,3.6649052734375,-0.0166308168053627,0.0498877011757344,0.013457739727199077
1733697989920859400,3.674859375,-0.010007014751434326,0.028588088841736314,0.01054974332600832
1733697989930814200,3.684814208984375,-0.00808101512491703,0.021520232814736664,0.00791062699407339
1733697989940768500,3.6947685546875,-0.01913081692755222,0.04144523232728243,0.029141338810324668
1733697989950722600,3.70472265625,-0.027250410497188567,0.047603316565603015,0.02131897462159395
1733697989960677400,3.714677490234375,-0.029575054052472113,0.026153299442864954,0.026292963641881942
1733697989970631400,3.72463134765625,-0.02775777549743652,0.043008864914812144,0.040815702252089976
1733697989980585500,3.73458544921875,0.024260581031441686,0.03338160672858357,0.06429536203891038
1733697989990540800,3.744540771484375,0.04525952991843223,0.02306618361510336,0.08096095789670944
1733697990000494600,3.75449462890625,0.011017068576812743,-0.0007172814238816499,0.11888590714335441
1733697990010448600,3.76444873046875,0.00753507167994976,-0.01897971801906824,0.1427455061584711
1733697990020403700,3.77440380859375,0.00132803373336792,-0.02211786991432309,0.11821458375304937
1733697990030357500,3.784357421875,-0.01421966401040554,0.0003451236432418227,0.09337620283365249
1733697990040311600,3.7943115234375,-0.02123275764286518,0.013145824233815074,0.04455693460702896
1733697990050266600,3.8042666015625,-0.048878304937481874,0.016108802225254477,-0.01239887832403183
1733697990060220700,3.814220703125,-0.03512859652638435,-0.004293167149275541,-0.03560527412742376
1733697990070174700,3.8241748046875,-0.012525135052204131,-0.015199943752028048,-0.020268296524882316
1733697990080129500,3.834129638671875,0.040372926920652384,-0.038741380196064705,-0.00386164386421442
1733697990090083600,3.84408349609375,0.04393383427262306,-0.025883542590774595,0.013378244750201702
1733697990100037600,3.85403759765625,0.05323474658131599,-0.037529300992563366,0.03336450946331024
1733697990109992700,3.86399267578125,0.04716565580070019,-0.04237728901300579,0.03458236082047224
1733697990119946800,3.87394677734375,0.0484983657091856,-0.020211926695145665,0.03358575099855661
1733697990129900800,3.88390087890625,0.03580021217763424,-0.01799436024352908,0.046454000400006766
1733697990139855600,3.893855712890625,0.030129180803894994,-0.016046879437565803,0.03255670021176338
1733697990149809700,3.9038095703125,0.029921675533056257,-0.0042912674531340594,0.032276714226603505
1733697990159763500,3.913763427734375,0.015579261925816535,0.023049049817211925,0.0403615287438035
1733697990169718800,3.92371875,0.00878244139254093,0.050808578880317506,0.030511750380694865
1733697990179672800,3.9336728515625,0.005679799202084541,0.054878422135114666,0.024188684839010238
1733697990189626600,3.943626708984375,-0.006752396869659423,0.05724880452826619,0.0406903223067522
1733697990199581700,3.953581787109375,-0.010450082343816756,0.06539440932199359,0.0292401230096817
1733697990209535500,3.963535400390625,-0.001440261936187744,0.07324592653997242,0.012873802359402178
1733697990219489500,3.973489501953125,0.007530395504832268,0.04828176381643861,0.023809330132603643
1733697990229444900,3.98344482421875,-0.006896189254522323,0.04274498981423676,0.03126724492311477
1733697990239398700,3.993398681640625,-0.0022340426623821256,0.02795278661288321,0.021346739411354065
1733697990249352700,4.003352783203125,-0.01621522174179554,0.024698680187761782,0.010244330638647079
1733697990259307500,4.0133076171875,-0.02052197902500629,0.025841493547335264,0.0086661215364933
1733697990269261600,4.023261474609375,-0.00830196439921856,0.026556254220567642,0.012773849116265773
1733697990279215600,4.033215576171875,0.005807224974036216,0.008367102057300508,0.034218203683197494
1733697990289170700,4.043170654296875,0.01459258897602558,0.026032668737880883,0.04164046263843774
1733697990299124700,4.053124755859375,0.022909166422486305,-0.003718545599095523,0.054924599364399904
1733697990309078800,4.063078857421875,0.029557518395781517,-0.027189510622806844,0.03982259956151247
1733697990319033600,4.07303369140625,0.031898528563976285,-0.04750164628941565,0.027804537248611448
1733697990328987600,4.082987548828125,0.04447627058625221,-0.060683710880391296,0.030787352451682088
1733697990338941700,4.092941650390625,0.05369944148361683,-0.039018699300102884,0.02748597281873226
1733697990348896800,4.102896728515625,0.051394671672582624,-0.027333449138142167,0.027363807743787764
1733697990358850800,4.112850830078125,0.04760638530552387,-0.011045089094899594,0.047722120639681814
1733697990368804600,4.1228046875,0.04658405652046203,0.004335106594860553,0.040408875016868115
1733697990378759700,4.132759765625,0.031028175470232962,0.011971885083615779,0.01651449694931507
1733697990388713500,4.14271337890625,0.014245382973551749,0.021421448615379632,0.003750584705173969
1733697990398667500,4.15266748046875,0.005824176108837127,0.024998978308588264,-0.017525135296583175
1733697990408622800,4.162622802734375,-0.03661445116996765,0.03781608204469084,-0.027492110298573968
1733697990418576600,4.17257666015625,-0.06552841096520423,0.04879490097034722,-0.02771773574799299
1733697990428530700,4.18253076171875,-0.05040273802578449,0.039130160317942496,-0.010386661718785762
1733697990438484700,4.192484619140625,-0.023356910189986226,0.07514839916042983,0.05641016174703836
1733697990448439600,4.202439453125,-0.006706219640374184,0.0697690442096442,0.11583353383541106
1733697990458393600,4.2123935546875,-0.021472411617636678,0.05373915243949741,0.1449982535213232
1733697990468347600,4.22234765625,-0.006738368344306946,0.04273183807171881,0.13429594998210667
1733697990478302700,4.232302734375,0.03840601076185703,0.016546536055393517,0.08148819664120674
1733697990488256800,4.2422568359375,0.03949146791100502,-0.004038352137990296,0.021796529005467892
1733697990498210600,4.25221044921875,0.0356102425634861,0.01695654162839055,-0.037976971694827076
1733697990508165600,4.26216552734375,0.03198912945687771,0.006853117297776043,-0.09365560429692268
1733697990518119700,4.27211962890625,0.04564706793129444,-0.011052322553284465,-0.11012713888734578
1733697990528073500,4.282073486328125,0.09214870686531067,-0.049161286597326395,-0.10217588762193917
1733697990538028800,4.29202880859375,0.11068564955294131,-0.06964545436259359,-0.05678454801738262
1733697990547982600,4.301982666015625,0.08912088347673415,-0.07902169692981988,0.017250994530320165
1733697990557936600,4.3119365234375,0.06379764164984225,-0.056305934187583624,0.04317220225036144
1733697990567891700,4.3218916015625,0.03585340366959572,-0.039151422301679846,0.07612550056427717
1733697990577845500,4.331845458984375,0.005291092145442962,-0.010691124558076262,0.09634966568648815
1733697990587799600,4.341799560546875,-0.006674655458331108,0.01645604476034641,0.11257365525662898
1733697990597754600,4.351754638671875,-0.013997545692324637,0.04019428241811693,0.11471066728532314
1733697990607708700,4.361708740234375,-0.03313654592633247,0.049953277225233614,0.09153349757641553
1733697990617662700,4.371662841796875,-0.015953940457105634,0.055261941559985275,0.05704729060679674
1733697990627617500,4.381617431640625,-0.014444120416045187,0.06700359808430076,0.012599077071249484
1733697990637571600,4.391571533203125,0.002159223860502243,0.033822665026970206,-0.02163753905147314
1733697990647525600,4.401525634765625,-0.0018558569997549055,0.0447421915134415,-0.03753185827583074
1733697990657480700,4.411480712890625,-0.00045008185505867004,0.0432954998364672,-0.04286766634583473
1733697990667434800,4.421434814453125,0.0093371526658535,0.04031951623298227,-0.04059329167306423
1733697990677388500,4.431388427734375,0.003953706061840057,0.03063479223847389,-0.007528641939163207
1733697990687343600,4.441343505859375,-0.005424363136291504,0.039768969678133724,0.04445084388405084
1733697990697297700,4.451297607421875,0.020589783564209936,0.03433660589847713,0.10031155505478381
1733697990707251500,4.46125146484375,0.027943653458356855,0.015553542962670325,0.13960457778424024
1733697990717206800,4.471206787109375,-0.00286649534702301,-0.014639021933637558,0.13836860624849795
1733697990727160600,4.48116064453125,-0.00739303286075592,-0.013756941869482398,0.1309624216452241
1733697990737114600,4.491114501953125,-0.008027239111065863,-0.004923902800865471,0.08138561304956674
1733697990747069700,4.501069580078125,-0.015078326666355132,0.004885616617091,0.04149316312223673
1733697990757023500,4.5110234375,-0.021522680500149726,0.05080412190090865,0.022072131076455115
1733697990766977500,4.5209775390625,-0.03412088078856468,0.038822628738731144,-0.015149053815007208
1733697990776932600,4.5309326171875,-0.03276888165771961,0.03868555835559964,-0.02911766567379236
1733697990786886700,4.54088671875,-0.02317161675095558,0.020599939632043242,-0.009610416649281977
1733697990796840700,4.5508408203125,-0.002596446233987808,0.0004211845541372895,-0.0017456746235489844
1733697990806795500,4.56079541015625,0.027341595911979672,-0.0045078328132629394,0.004916413614153862
1733697990816749600,4.57074951171875,0.04399871620237827,-0.013967844673804937,0.006422434262931346
1733697990826703600,4.58070361328125,0.03791618141829967,-0.020325141278654337,0.004632043714821338
1733697990836658700,4.59065869140625,0.032470775493979455,0.005622808317840099,0.005328501546382904
1733697990846612700,4.60061279296875,0.025731238105893135,0.004175532118976116,0.008628127613663673
1733697990856566800,4.61056689453125,0.025143209084868428,-0.004847293900698423,0.02986059299558401
1733697990866521600,4.620521484375,-0.00038344635963439937,0.008065233033895492,0.028848201082646845
1733697990876475600,4.6304755859375,0.002819733595848083,0.001715644811466336,0.06104892746359109
1733697990886429400,4.640429443359375,-0.019508418068289755,0.013400273918919264,0.0629109219431877
1733697990896384800,4.650384765625,-0.027140520381927487,0.01728018409218639,0.06169950032681226
1733697990906338800,4.6603388671875,-0.023576690420508382,0.03692479576077312,0.0858227187141776
1733697990916292600,4.670292724609375,-0.03439092990159988,0.04403992499560117,0.0806359637260437
1733697990926247700,4.68024755859375,0.0016939444363117217,0.042348830103501676,0.0678504241719842
1733697990936201500,4.690201416015625,0.010693827971816063,0.02533029262218624,0.05625643249005079
1733697990946155500,4.700155517578125,-0.0019090484917163848,0.014213745726272462,0.0338563846334815
1733697990956110600,4.710110595703125,0.004578559961915016,0.010541998410969972,0.020255144782364367
1733697990966064600,4.720064697265625,-0.029663901379704472,0.014550357269495724,0.010013736753165721
1733697990976018700,4.730018798828125,-0.02607026080191135,0.016578940487653016,0.005343114593625069
1733697990985973500,4.739973388671875,-0.021482933011651037,0.01896561642847955,-0.003266308319568634
1733697990995927600,4.749927490234375,-0.016727847439050675,0.02832180258836597,0.024139877261221406
1733697991005881600,4.759881591796875,-0.013232991060614586,0.0492376397691667,0.03444587495923042
1733697991015836700,4.769836669921875,0.002853635865449905,0.043121385378576814,0.03601297814548016
1733697991025790700,4.779790771484375,0.005019873988628387,0.01626329866722226,0.044614217752218244
1733697991035744800,4.789744873046875,0.007955342918634414,-0.01799969400577247,0.04135580047816038
1733697991045699600,4.799699462890625,0.03313829949200153,-0.05128204161096364,0.028789748893678187
1733697991055653600,4.809653564453125,0.03317278628349304,-0.04764014144465327,0.035120705480873586
1733697991065607400,4.819607421875,0.03903086466193199,-0.043719460869580506,0.05019318692833185
1733697991075562800,4.829562744140625,0.0386252064704895,-0.022523820366710422,0.06316548122614622
1733697991085516800,4.839516845703125,0.032987492844462396,-0.007916289549879729,0.06821312000453472
1733697991095470600,4.849470703125,0.04125146332085133,0.0014106705155223606,0.04006605292856693
1733697991105425700,4.85942578125,0.020500351715087888,0.010194098288752137,0.01830605654120445
1733697991115379500,4.86937939453125,0.014057751446962356,0.021083193104341626,0.014433306761085986
1733697991125333500,4.87933349609375,0.016301146459579467,0.027863939285650847,-0.0030859833166003224
1733697991135288800,4.889288818359375,-0.04822714755237102,0.04651862660143524,-0.0052644963994622224
1733697991145242600,4.89924267578125,-0.062490066182613366,0.045917299707420166,-0.007116554006934166
1733697991155196700,4.90919677734375,-0.023510639446973798,0.0655389688918367,0.019805939710140226
1733697991165151500,4.9191513671875,-0.01926291887462139,0.07063092173598706,0.05764730232656002
1733697991175105500,4.92910546875,-0.006798574098944664,0.06481547692287713,0.09232932412922382
1733697991185059600,4.9390595703125,-0.02446165656149387,0.06094053518567234,0.09548369650691747
1733697991195014700,4.9490146484375,-0.0009112696260213852,0.01675049766227603,0.06361877795159816
1733697991204968700,4.95896875,0.05054653041064739,0.0029483649441972375,0.01528846228569746
1733697991214922800,4.9689228515625,0.05478256054520607,-0.00017283581625670194,-0.019076748652756215
1733697991224877600,4.978877685546875,0.05273264227807521,-0.00491316221114248,-0.045944005051255225
1733697991234831600,4.98883154296875,0.04494914879500866,-0.015186280552856623,-0.0637257454574108
1733697991244785700,4.99878564453125,0.07317103467285632,-0.040809162913449104,-0.07358838330209255
1733697991254740700,5.00874072265625,0.07299275549650192,-0.05984218202233314,-0.060707274419069285
1733697991264694800,5.01869482421875,0.09080430651903151,-0.06691734457295388,-0.021337971583008764
1733697991274648600,5.028648681640625,0.06396423038840293,-0.04033990143388509,0.017154840679466724
1733697991284603600,5.038603759765625,0.02949555907547474,-0.03507851030696183,0.04638239646852016
1733697991294557700,5.0485576171875,0.025966800427436827,-0.00976874901615083,0.07147358310520649
1733697991304511500,5.058511474609375,0.007850713500380515,0.008709266558475792,0.08410860827267169
1733697991314466800,5.068466796875,0.0040928222715854645,0.023828254028782248,0.10794833354353904
1733697991324420600,5.078420654296875,-0.009952654215693474,0.021594320964254437,0.08994973551630973
1733697991334374700,5.088374755859375,-0.004217909955978393,0.038730822269432245,0.07742781533449888
1733697991344329500,5.09832958984375,-0.00013736264407634735,0.030334201856702565,0.04905483054816723
1733697991354283500,5.108283447265625,0.0027419921845197675,0.04807988456878811,0.008280921611189842
1733697991364237600,5.118237548828125,-0.0007493570625782013,0.043788653648272155,-0.015410335099697112
1733697991374192600,5.128192626953125,0.004999415722489357,0.04849683133922517,-0.016892974872887132
1733697991384146700,5.138146728515625,-0.01169043779373169,0.05011679722387343,-0.022885201025009155
1733697991394100700,5.148100830078125,0.00680091218650341,0.033513452947326,-0.017552023303508756
1733697991404055600,5.1580556640625,0.011281856992840766,0.038109000576660036,0.026903204494714734
1733697991414009600,5.168009521484375,0.012261515679955481,0.04602123500593006,0.0464981318026781
1733697991423963600,5.177963623046875,0.02952712325751781,0.021362667632848022,0.08794161056429148
1733697991433918700,5.187918701171875,-0.019739304214715956,0.01203088526185602,0.12849135535657405
1733697991443872800,5.197872802734375,-0.013713468053936957,-0.0014066519275307654,0.12053075174093246
1733697991453826600,5.20782666015625,0.0028396073400974273,0.00472852635923773,0.08537760529518126
1733697991463781600,5.21778173828125,-0.010794365736842155,0.004888027769885957,0.06960954279899596
1733697991473735700,5.227735595703125,-0.010412088420987129,0.015337306396104394,0.03615326339900493
1733697991483689500,5.237689453125,-0.03945522755384445,0.029946517713367937,0.004985387197136879
1733697991493644800,5.247644775390625,-0.04344342040717602,0.029283633357845246,-0.023180092318356035
1733697991503598600,5.2575986328125,-0.0031599253356456754,0.021070516285859046,-0.04652735789716243
1733697991513552600,5.267552734375,0.029233693268895147,-0.0002903612487018108,-0.026562135972082613
1733697991523507700,5.2775078125,0.05673486365675926,-0.017760734150744972,-0.015949264281988142
1733697991533461500,5.28746142578125,0.06186638132631778,-0.02124539792872965,-0.016101239973306654
1733697991543415600,5.29741552734375,0.06296119082570076,-0.023011713481508194,0.004569499872624874
1733697991553370600,5.30737060546875,0.05284136334955692,-0.004282864950969815,0.002803659243881702
1733697991563324700,5.31732470703125,0.022675942188501358,0.011189575599506497,0.006559212385118007
1733697991573278700,5.32727880859375,0.03612403730452061,-0.001442928817309439,0.013474398601055145
1733697991583233500,5.337233642578125,0.05369768791794777,-0.002367057924903929,-0.005366787730157375
1733697991593187600,5.3471875,0.04886076928079128,0.004770977261476218,0.002063362270593643
1733697991603141600,5.3571416015625,0.05147241308391094,0.00974639105387032,0.006283025792241096
1733697991613096700,5.3670966796875,0.05921031385958194,0.02186634283866733,0.014321663080155849
1733697991623050800,5.37705078125,0.04847556935548782,0.036008959557488555,0.016221651482582092
1733697991633004500,5.387004638671875,0.06338555371761322,0.03430741633661091,0.013373568575084208
1733697991642959600,5.396959716796875,0.03894201733469963,0.040149603026174006,0.026254092936217784
1733697991652913700,5.40691357421875,0.033603578916192055,0.03893284764755517,0.01825461861491203
1733697991662867500,5.416867431640625,0.026973347121477125,0.04022778282891959,0.01671440343558788
1733697991672822800,5.42682275390625,0.029964345631003378,0.031465909300372005,0.012546470101177692
1733697991682776600,5.436776611328125,0.031010639813542365,0.03373407342806458,0.021386779160797596
1733697991692730600,5.446730712890625,0.02671908009946346,0.036856187503971155,0.031184827336668965
1733697991702685700,5.456685791015625,0.02954991961121559,0.04166249180715531,0.019134908580780027
1733697991712639500,5.466639404296875,0.036437925559282304,0.04894903208613395,0.030365619908273217
1733697991722593500,5.476593505859375,0.025342531049251556,0.01282068393267691,0.016096271537244317
1733697991732548600,5.486548583984375,0.02474573419988155,0.005191942619904875,-0.008364800502359866
1733697991742502700,5.496502685546875,0.028888240832090375,-0.016412059488147498,-0.01251432139724493
1733697991752456700,5.506456787109375,0.03172960173785686,-0.04395005475506186,-0.01798719985038042
1733697991762411500,5.51641162109375,0.034597850650548934,-0.04368621618710458,0.006405483128130436
1733697991772365600,5.526365478515625,0.04398702576458454,-0.035352285747043785,0.01191606324315071
1733697991782319600,5.536319580078125,0.051067923936247824,-0.0159152158819139,0.025800796210765836
1733697991792274700,5.546274658203125,0.05073065480589866,0.00003196604084223509,0.04257102148681879
1733697991802228700,5.556228759765625,0.05092296250760555,-0.0007875701811164617,0.02879734767824411
1733697991812182800,5.566182861328125,0.05453472326397896,-0.0069669894684106105,0.009516600885987282
1733697991822137600,5.5761376953125,0.043884734433889384,0.017476802642829716,0.001966039375960827
1733697991832091600,5.586091552734375,0.031554829692840576,0.021108985132724044,0.008120470352470875
1733697991842045400,5.59604541015625,-0.04801087445318698,0.032311675942130386,-0.023741817854344843
1733697991852000800,5.606000732421875,-0.04314706780910492,0.01771408199742436,-0.03037760260701179
1733697991861954800,5.615954833984375,-0.008691840499639511,0.04950162446759641,-0.022899814072251317
1733697991871908600,5.62590869140625,0.006142740538716316,0.06308624197747557,0.014481529816985129
1733697991881863700,5.63586376953125,0.024658640438318252,0.0579840234676376,0.08618629132956265
1733697991891817500,5.6458173828125,0.01702595360279083,0.03509206390827894,0.12320756973475216
1733697991901771500,5.655771484375,0.03191197256743908,0.0015505904428660868,0.10452917274981736
1733697991911726600,5.6657265625,0.07794190233647823,-0.023012663329578936,0.060065469384193416
1733697991921680600,5.6756806640625,0.07607201681137085,-0.027071985190361737,0.016276304279267788
1733697991931634700,5.685634765625,0.047019525328278536,-0.029561098592355846,-0.03369651789665222
1733697991941589500,5.695589599609375,0.05646013836860656,-0.05362802021522075,-0.07739595889151096
1733697991951543600,5.70554345703125,0.0616653057962656,-0.061549753125198184,-0.09117226304858922
1733697991961497600,5.71549755859375,0.06568389378786087,-0.059496912248618895,-0.08382014672011137
1733697991971452700,5.72545263671875,0.060438394349813455,-0.059463813696615395,-0.051742754457890984
1733697991981406200,5.73540625,0.05567746355831623,-0.021094737411662935,-0.007446516613662243
1733697991991360300,5.7453603515625,0.011730185282230377,0.017854111522622406,0.0520621956706047
1733697992001315000,5.755315185546875,-0.015870353826880453,0.035151064086519176,0.07974106071293353
1733697992011269000,5.76526904296875,-0.01689268261194229,0.06342826034817844,0.0851738994166255
1733697992021223200,5.77522314453125,-0.0005167173504829406,0.06638385875076055,0.08494330553114414
1733697992031178200,5.78517822265625,-0.010525485667586326,0.05397705284859985,0.07894786450862884
1733697992041132300,5.79513232421875,-0.005489829587936401,0.05962123274803161,0.04315086720138788
1733697992051086000,5.805086181640625,-0.006543138033151626,0.054590618169680236,0.012215338450670242
1733697992061041200,5.815041259765625,0.017756021443009376,0.03900576675329357,-0.006857318548858165
1733697992070995200,5.8249951171875,0.01862812810242176,0.04494732216410339,-0.037709260669350625
1733697992080949000,5.834948974609375,0.025879706665873525,0.02883884873241186,-0.023852877013385294
1733697992090904300,5.844904296875,0.022758944296836853,0.010833309507742523,-0.019041969600319862
1733697992100858000,5.854858154296875,0.025189970836043355,0.0009977423330768942,0.003835632640123367
1733697992110812200,5.864812255859375,-0.0017599954098463056,0.024563144174590705,0.029990064594149587
1733697992120767200,5.874767333984375,0.0013771335721015929,0.027535218787938354,0.06105827981382608
1733697992130721000,5.884720947265625,0.014514847564697266,0.011610540957935154,0.09152940592318773
1733697992140675000,5.894675048828125,0.00045183542072772977,0.00011818301957100629,0.11219605411589145
1733697992150630100,5.904630126953125,-0.000661094257235527,-0.03131780606657267,0.10350450587719678
1733697992160584200,5.914584228515625,0.014019173002243042,-0.034243739983253176,0.09165595491230487
1733697992170538200,5.924538330078125,0.009179916277527808,-0.020598880186118183,0.06007160686403513
1733697992180493000,5.9344931640625,-0.008154080361127853,0.0030006065880879757,0.042560207831859584
1733697992190447000,5.944447021484375,-0.02253331884741783,0.02027421480901539,-0.0042108956933021545
1733697992200401200,5.954401123046875,-0.030152561679482458,0.027715214997343716,-0.033837387672066684
1733697992210356200,5.964356201171875,-0.019058336213231084,0.02230849711559713,-0.04015665382146835
1733697992220310300,5.974310302734375,0.007771803045272827,0.011700009339675306,-0.018717852212488652
1733697992230264000,5.98426416015625,0.02200958723425865,0.009466003209911287,-0.01475508606135845
1733697992240219100,5.99421923828125,0.03958031523823738,0.007498648659698665,-0.01580985581129789
1733697992250173200,6.004173095703125,0.033983518144488335,-0.0035764702472835777,0.0040492753908038135
1733697992260127000,6.014126953125,0.016758242577314376,0.0009375731110572815,0.0012429857984185219
1733697992270082300,6.024082275390625,0.025537176838517188,-0.0033733123579993843,0.01841682343930006
1733697992280036000,6.0340361328125,0.03202069363892078,0.007349814773537218,-0.0024628829821944235
1733697992289990100,6.043990234375,0.029806524720788,0.006393208168447018,-0.003394610874354839
1733697992299945200,6.0539453125,0.035491584619879724,-0.0014220321597531436,0.01564531289935112
1733697992309899000,6.06389892578125,0.02702595409154892,0.00700863665305078,0.03830956465005875
1733697992319853000,6.07385302734375,0.024172318226099013,0.043151195994950826,0.0539727054670453
1733697992329808100,6.08380810546875,-0.01236789866387844,0.05939783578831702,0.04392974261939525
1733697992339762200,6.09376220703125,0.026806173861026763,-0.02204677743948996,-0.019409926129877565
1733697992349716200,6.10371630859375,0.05094809694886207,0.020829948995634912,0.024224340674281118
1733697992359671000,6.113671142578125,0.026364275312423704,0.03748283150233328,0.03781739721894264
1733697992369625000,6.123625,0.022526889106631278,0.04052198000252247,0.05105857158601284
1733697992379579100,6.1335791015625,-0.0016734861701726913,0.036313203201070426,0.05354045152962208
1733697992389534200,6.1435341796875,-0.015404489880800246,0.03720814274679869,0.051987084607779975
1733697992399488300,6.15348828125,-0.030151977157592772,0.021366613155603408,0.03750058635473251
1733697992409442300,6.1634423828125,-0.006650690060853958,0.009377703871950506,0.024913784243166447
1733697992419397000,6.173397216796875,-0.0001572363883256912,0.02211509343534708,0.0033650925189256664
1733697992429351200,6.18335107421875,0.006537877336144447,0.020584961258620024,0.005055529823899269
1733697992439305000,6.193304931640625,0.011389409020543098,0.022939013571478425,0.02360299390554428
1733697992449260300,6.20326025390625,-0.013023732224106788,0.0038606209509074686,0.032300679624080654
1733697992459214300,6.21321435546875,-0.01203764379620552,-0.019103636659681796,0.0377712199896574
1733697992469168000,6.223168212890625,0.013628127858042717,-0.04367730222828686,0.030249007791280744
1733697992479123200,6.233123291015625,0.031445524099469185,-0.04218779432289302,0.028417700710892675
1733697992489077000,6.243076904296875,0.017219430348277092,-0.024531360796838996,0.02874561749100685
1733697992499031000,6.253031005859375,0.025043255841732025,-0.025041246547736228,0.040355099003016946
1733697992508986000,6.262986083984375,0.02003507229089737,-0.018252755451388655,0.0504109213322401
1733697992518940200,6.272940185546875,0.04460778801143169,-0.013248773151636122,0.07073416291475296
1733697992528894200,6.282894287109375,0.028221885877847668,0.00014905308187007903,0.05880085627585649
1733697992538849000,6.29284912109375,-0.0019517185896635054,-0.016388313286378978,0.03253215029239654
1733697992548803000,6.302802978515625,-0.007653729623556137,0.019166947686858473,0.03855681740939617
1733697992558757000,6.312757080078125,-0.026194179442524907,0.03476476818267256,0.005011106160283088
1733697992568712200,6.322712158203125,-0.062163902968168254,0.039811347515136,-0.06013707331568002
1733697992578666200,6.332666259765625,-0.03224690361022949,0.027197876592352985,-0.056258478316664695
1733697992588620300,6.342620361328125,-0.017963526713848113,0.07341404964849352,0.012101064421236514
1733697992598575000,6.3525751953125,0.002777063497900963,0.06409994906466454,0.07277472883164882
1733697992608529200,6.362529052734375,-0.023465046739578246,0.07034856113065034,0.1326934832215309
1733697992618483000,6.37248291015625,-0.04546352805793285,0.02696129135750234,0.16166531068384646
1733697992628438300,6.382438232421875,-0.014008067086338996,0.009818323778919875,0.1425450151503086
1733697992638392300,6.392392333984375,0.03808101659119129,0.0143409157698974,0.0850254308566451
1733697992648346000,6.40234619140625,0.026655951735377312,0.01895885789413005,0.022120354132354258
1733697992658301200,6.41230126953125,0.016044541350007057,0.01775653289966285,-0.024034371060132977
1733697992668255000,6.4222548828125,0.03274374721646309,-0.0007035816920921206,-0.07082359476387501
1733697992678209000,6.432208984375,0.0553214897274971,-0.036182051102071996,-0.09989186833798885
1733697992688164400,6.442164306640625,0.08866028022766113,-0.052487873736768956,-0.07383066762536764
1733697992698118100,6.4521181640625,0.10939794782996178,-0.06569934708531945,-0.03344809609353542
1733697992708072200,6.462072265625,0.0837684165328741,-0.06205163823273033,0.010974690739810467
1733697992718027000,6.472027099609375,0.04149520894885063,-0.04425093739777803,0.03409662313014269
1733697992727981000,6.48198095703125,0.01775192978978157,-0.0034567893903702496,0.06535159309357404
1733697992737935000,6.49193505859375,0.010092354947328568,0.007261588500812649,0.0759475136488676
1733697992747890200,6.50189013671875,-0.017315876460075378,0.02582863406576216,0.0675149086073041
1733697992757844200,6.51184423828125,-0.03221533942818641,0.05208594187237322,0.06532236699908972
1733697992767798300,6.52179833984375,-0.01961421653032303,0.03688070089071989,0.053907239015400406
1733697992777753000,6.531753173828125,-0.0003495440900325775,0.04102339018601924,0.04099631951600313
1733697992787707100,6.54170703125,-0.0005348375290632248,0.055525962791033084,0.01878361092507839
1733697992797661200,6.5516611328125,0.009562778115272522,0.033001338706724344,-0.01608311979472637
1733697992807616300,6.5616162109375,-0.00571077886223793,0.03963226462118327,-0.0279155964076519
1733697992817570300,6.5715703125,-0.0007137012273073196,0.03833345698229968,-0.03824439045935869
1733697992827524000,6.581524169921875,0.0004734627306461334,0.021120456374809145,-0.025837621089816094
1733697992837479200,6.591479248046875,-0.008314239358901977,0.0019047011101618408,0.006072305651009083
1733697992847433200,6.60143310546875,-0.009656301617622374,0.008716755745187401,0.06169657771736383
1733697992857387000,6.611386962890625,0.02586860074996948,0.01920234779380262,0.10867547877430915
1733697992867342300,6.62134228515625,0.014164134430885314,0.01863729778956622,0.1320373574003577
1733697992877296000,6.631296142578125,0.012372574838995933,-0.015928221493959425,0.11150251889377832
1733697992887250200,6.641250244140625,0.026540800923109054,-0.0156722009062767,0.10414543412923813
1733697992897205000,6.651205078125,-0.000013444003462791442,-0.010450922594033182,0.07800532296150922
1733697992907159000,6.661158935546875,-0.0297106631308794,0.013859890787303446,0.060250470562279224
1733697992917113000,6.671113037109375,-0.05019289466738701,0.029956198857165873,0.03255494664609432
1733697992927068200,6.681068115234375,-0.0670984367609024,0.041292379853129384,0.0075523150756955145
1733697992937022200,6.691022216796875,-0.02726677711009979,0.02341112459525466,-0.012435995464026928
1733697992946976300,6.700976318359375,-0.007100187394022941,0.00731715461295098,-0.007172668108344078
1733697992956931000,6.71093115234375,0.02687690100967884,0.0007023030504584312,0.0010033318236470222
1733697992966885000,6.720885009765625,0.0417447997957468,-0.010507657749950884,-0.004218786738812924
1733697992976839200,6.730839111328125,0.04085223487019539,-0.014090411607548594,0.011169044268131256
1733697992986795000,6.740794921875,0.041246202623844146,-0.011072342428006232,0.011123451560735702
1733697992996748800,6.750748779296875,0.03925999724268913,-0.004641432597674429,0.011812310607731342
1733697993006702800,6.760702880859375,0.057385436519980425,0.0097962215449661,0.014781097285449504
1733697993016658200,6.770658203125,0.044833413460850714,0.012115385207533835,0.017316460981965064
1733697993026612000,6.780612060546875,0.019946224963665007,0.02421064094249159,0.03193535344302654
1733697993036566000,6.79056591796875,0.007459083834290504,0.013111666235886513,0.019513386504352092
1733697993046520800,6.800520751953125,0.002331073296070099,0.020641477218829096,0.04010141650289297
1733697993056475000,6.810474853515625,-0.004635258585214614,0.03566365325115621,0.05731967780739069
1733697993066429000,6.820428955078125,-0.002825578814744949,0.03132876585200429,0.041267537672817704
1733697993076384000,6.830384033203125,0.015377017351984977,0.01960680040884763,0.042263855233788485
1733697993086338000,6.840338134765625,0.02690086640715599,0.016753968260996042,0.05664075563251972
1733697993096292000,6.8502919921875,0.010274141255021095,0.010827025897428393,0.030959201887249946
1733697993106247000,6.860246826171875,0.01806289543509483,0.004623604680038989,0.02109948665201664
1733697993116201000,6.870200927734375,0.01057633907198906,-0.0004889890933409333,0.01500087751597166
1733697993126155000,6.880155029296875,0.007184943068027496,0.008463950027897953,0.02241962933987379
1733697993136110000,6.890110107421875,0.0034323125362396237,0.0007093538457527757,0.01724777965992689
1733697993146064100,6.900064208984375,0.004094575837254524,0.010584047454409301,0.00998246483206749
1733697993156018000,6.910017822265625,0.0049742812812328336,0.019777663463726638,0.0016617957323789595
1733697993165973000,6.919972900390625,0.009020926323533058,0.012880195567570626,-0.003582534661889076
1733697993175927000,6.929927001953125,0.02253156528174877,0.02001530814450234,-0.004278115710616112
1733697993185880800,6.939880859375,0.025184125617146492,0.01690408078879118,0.022410569250583646
1733697993195836200,6.949836181640625,0.02386310614645481,0.02678973418287933,0.04103782057017088
1733697993205790000,6.9597900390625,0.007263269001245499,-0.002458243339695036,0.041158232079446314
1733697993215744000,6.969743896484375,0.03404255485534668,-0.02196794004961848,0.03502455163002014
1733697993225699000,6.979698974609375,0.05067863235771656,-0.03839895996656269,0.025868893010914325
1733697993235652900,6.98965283203125,0.04933598557710647,-0.03723985305931419,0.00811199478507042
1733697993245607000,6.99960693359375,0.056197688040137285,-0.02336929474752396,0.027678865042328832
1733697993255562000,7.00956201171875,0.025268881291151044,0.0037442280296236274,0.02767301982343197
1733697993265516000,7.01951611328125,0.019994155758619306,0.014434183543920516,0.03679214582443237
1733697993275470000,7.029469970703125,0.021132219877839087,0.01639561981000006,0.036976270219683645
1733697993285425000,7.0394248046875,0.02608428932726383,0.018879655178077517,0.022016016975045204
1733697993295379000,7.04937890625,-0.002090250277519226,0.010264825437404215,0.007300386141240596
1733697993305333000,7.0593330078125,-0.019040216034650802,0.01346153911948204,-0.00012099603116512298
1733697993315288000,7.0692880859375,-0.048560909551382064,0.022673786764033137,-0.01621346817612648
1733697993325242000,7.0792421875,-0.08043313463032245,0.05449563336260616,-0.0006868132203817367
1733697993335196000,7.08919580078125,-0.051012978878617284,0.046519612982124085,0.00807838477641344
1733697993345151000,7.09915087890625,-0.01736672986447811,0.045857313148491084,0.046997605757415295
1733697993355105000,7.10910498046875,-0.0000865092396736145,0.05285564760323613,0.09964140070825815
1733697993365058800,7.119058837890625,-0.013875380617380141,0.04467274300642311,0.1363119659796357
1733697993375014100,7.12901416015625,-0.0038572599500417705,0.02675652603302151,0.11084347046315669
1733697993384968000,7.138968017578125,0.038275662380456925,0.010349690709263086,0.0759387458205223
1733697993394922000,7.148921875,0.0621358459174633,-0.0019615823965519665,0.005470832626521587
1733697993404877000,7.158876953125,0.049830491095781325,0.006066935356147587,-0.04683890806436539
1733697993414830800,7.168830810546875,0.05455108987689018,0.0013286547878757118,-0.08534370302557945
1733697993424785000,7.178784912109375,0.060353054153919214,-0.02427329438254237,-0.11976707389205693
1733697993434740000,7.188739990234375,0.09287409853041172,-0.05275386772919446,-0.09404314230978489
1733697993444694000,7.198694091796875,0.12742401838600634,-0.06682151951566338,-0.06724719758182764
1733697993454648000,7.20864794921875,0.10959551622867583,-0.08376121960710733,-0.014205927745997904
1733697993464603000,7.218602783203125,0.06550503008961678,-0.06331767611317336,0.023150866223871705
1733697993474557000,7.228556884765625,0.028956629893183705,-0.037311530056037004,0.07027326740473508
1733697993484511000,7.238510986328125,0.00916939488351345,-0.010379976249672471,0.0924067732796073
1733697993494466000,7.248466064453125,-0.006302315014600753,0.023286402237042782,0.09423194288015366
1733697993504420000,7.258420166015625,-0.020488661277294158,0.02835954078286886,0.08719605289399623
1733697993514374100,7.2683740234375,-0.038894086539745326,0.04381722215563059,0.058954877793788905
1733697993524329000,7.278328857421875,-0.000768061763048172,0.06179116066563874,0.002486263857781887
1733697993534283000,7.288282958984375,-0.02830897963941097,0.04621708637159318,0.0017699322819709777
1733697993544236800,7.29823681640625,-0.019677344894409178,0.04855027855951339,-0.020287878008186815
1733697993554192100,7.308192138671875,-0.022253917384147642,0.03584116524253041,-0.027871172744035718
1733697993564146000,7.31814599609375,-0.026314006429910657,0.03380297394581139,-0.016185411125421524
1733697993574100000,7.328099853515625,-0.030296938586235046,0.030292152813263237,-0.0016664719074964522
1733697993584055000,7.338054931640625,-0.03210311122536659,0.027079876235872505,0.02330021156668663
1733697993594008800,7.3480087890625,-0.03601064005792141,0.02771941624842584,0.08301146068572998
1733697993603963000,7.357962890625,-0.021321020448207852,0.04383625564966351,0.11899696630239485
1733697993613918000,7.36791796875,0.010395721808075905,0.01101995465364307,0.15354454807043075
1733697993623872000,7.3778720703125,-0.010508534532785415,0.000529978690855205,0.164650171713531
1733697993633826000,7.387825927734375,-0.01772796439230442,-0.0020666136736050248,0.15065379506498575
1733697993643780900,7.39778076171875,-0.019511340677738187,-0.015920914970338342,0.09424071070849895
1733697993653735000,7.40773486328125,-0.005388707301020622,-0.013504172684811055,0.047482466664910315
1733697993663689000,7.41768896484375,-0.02094517287313938,0.02312273610793054,0.005453881491720676
1733697993673644000,7.42764404296875,-0.027124153769016265,0.030177805718593298,-0.012118015556037426
1733697993683598000,7.43759814453125,-0.03107844435274601,0.008024864490889013,-0.013666121780872344
1733697993693552000,7.44755224609375,-0.0038800563037395476,0.009407879814505577,-0.023966858781874177
1733697993703507000,7.4575068359375,0.019001053068041802,-0.014869798482209443,-0.005737666869163513
1733697993713461000,7.4674609375,0.0275713130146265,-0.031414434841461475,0.01343231302499771
1733697993723414800,7.477414794921875,0.03322071707844734,-0.02097670052256435,0.024387714542448518
1733697993733370000,7.4873701171875,0.04731061722934246,-0.026166743446327745,0.03089841161072254
1733697993743324200,7.49732421875,0.044239539220929144,-0.01018405181877315,0.020436054307222364
1733697993753278000,7.50727783203125,0.04423077139258384,-0.010936404556035995,0.005655541543662547
1733697993763233000,7.51723291015625,0.04247837476730346,-0.015782346749864517,-0.0035290509089827534
1733697993773186800,7.527186767578125,0.0359065951615572,-0.016780929333157838,-0.01279664546996355
1733697993783140900,7.537140869140625,0.031283027014136315,-0.008113163828849792,0.004558393956720828
1733697993793096200,7.54709619140625,0.011603928554058075,0.00899805690459907,0.0018897592693567274
1733697993803050000,7.557050048828125,0.0021358429849147797,0.032450353760458524,0.011265782640874385
1733697993813004000,7.567004150390625,-0.001880406919121742,0.031102482815459367,0.02139437794536352
1733697993822958800,7.576958740234375,-0.006848258459568024,0.030702377581968903,0.04209960458278656
1733697993832913000,7.586912841796875,0.009003975188732147,0.03804408211428672,0.05424012423157692
1733697993842867000,7.596866943359375,0.01469020413160324,0.025136998539790508,0.05438128626793623
1733697993852822000,7.606822021484375,-0.006078443130850791,0.02886401970628649,0.049071781682968135
1733697993862776000,7.616776123046875,-0.013903437668085097,0.017336590454541147,0.03434475267231464
1733697993872730000,7.626730224609375,-0.01275134502351284,0.011278532524593174,0.05194792164117098
1733697993882685000,7.636684814453125,-0.0026537293791770934,0.012490282934531569,0.04193739975839853
1733697993892639000,7.646638916015625,-0.0003355155646800995,0.007372830322943627,0.033870705419778824
1733697993902593000,7.656593017578125,0.004082300877571106,0.007532770125009119,0.0253556827917695
1733697993912548000,7.666548095703125,0.013780688071250914,0.007174202478304505,0.020512626674771307
1733697993922502100,7.676502197265625,0.007763035216927528,0.003516227960027754,0.006400222431123257
1733697993932456000,7.6864560546875,0.016393500918149947,0.0011531520904973149,0.015228548792004585
1733697993942411000,7.696410888671875,0.021873393633961676,-0.0001321750123053789,0.06458002419918775
1733697993952364800,7.70636474609375,0.03086041768789291,0.018879655178077517,0.09445990641713142
1733697993962318800,7.71631884765625,0.020569909819960593,0.017442096655629576,0.09644991119056939
1733697993972274200,7.726274169921875,0.03453179967701435,-0.011454217885062097,0.08122457726895808
1733697993982228000,7.73622802734375,0.04196107289493084,-0.04361976335477084,0.03570113571733236
1733697993992182000,7.74618212890625,0.02582242352068424,-0.04567402900345623,0.012801906166970729
1733697994002137000,7.75613720703125,0.026288287466764447,-0.045985652235895395,0.007881693160533904
1733697994012091100,7.766091064453125,-0.003995791637897491,-0.030316593134775756,-0.005415010786056518
1733697994022045200,7.776045166015625,0.004967851540446281,-0.013011347666569053,-0.0027808628901839255
1733697994032000000,7.786,0.028074001839756963,0.017397746057249603,0.008077215732634067
1733697994041954000,7.7959541015625,0.03758943368196487,0.0285353357411921,0.012586509850621222
1733697994051908000,7.805908203125,0.014233108013868331,0.023072211497090756,0.022081775687634943
1733697994061863200,7.81586328125,0.02787467987537384,0.02905088404789567,0.032519583071768283
1733697994071817200,7.825817138671875,0.005384615647792816,0.03553904049079865,0.029462241327762602
1733697994081771000,7.83577099609375,-0.06989595852494239,0.06784158327840269,0.02498889530599117
1733697994091726000,7.84572607421875,-0.08910217877626418,0.06619107612501829,0.015497428861260413
1733697994101680000,7.85568017578125,-0.028899346747994423,0.07972286746911704,0.011772855380177498
1733697994111634000,7.865634033203125,0.0008826280534267425,0.0828839983811602,0.03307107947468758
1733697994121589200,7.87558935546875,0.011908464458584785,0.06954436860829591,0.04724076686352491
1733697994131543000,7.88554296875,0.0008282675176858902,0.044037842636369166,0.05171323610246181
1733697994141497000,7.8954970703125,0.04705751925110817,0.004285751027800142,0.046745092301070684
1733697994151452200,7.9054521484375,0.0981336264938116,-0.023955351007170975,0.0036740123376250264
1733697994161406000,7.915406005859375,0.0910492211908102,-0.015763715114630757,-0.021966624875366686
1733697994171360000,7.925360107421875,0.07155483164787292,-0.03528393321856856,-0.06990940252840519
1733697994181315000,7.935315185546875,0.08181494437754154,-0.06005465572923421,-0.08005173409730196
1733697994191269000,7.94526904296875,0.0842874719709158,-0.06228752934783697,-0.10479980638474225
1733697994201223200,7.95522314453125,0.09676409170627594,-0.1016825146144256,-0.10325666859596967
1733697994211178000,7.965177978515625,0.1075099421262741,-0.08570775056499988,-0.057634442844986915
1733697994221132000,7.975132080078125,0.09181436034440994,-0.06037921150848269,-0.026126374903321266
1733697994231086000,7.985086181640625,0.05811375079452991,-0.02349869328085333,0.035838206100463864
1733697994241041200,7.995041259765625,0.023680735316872596,0.018456534395180642,0.0654296267658472
1733697994250995200,8.0049951171875,0.027066286101937294,0.029080219740234312,0.06574994476139545
1733697994260949200,8.01494921875,0.02703063026666641,0.026648426016047597,0.07423983294814825
1733697994270904000,8.024904052734374,0.02170329776406288,0.03343859761282801,0.05888941134214401
1733697994280858000,8.034858154296876,-0.001613280415534973,0.04513148309197276,0.038356618662178515
1733697994290812000,8.04481201171875,-0.0022737901508808134,0.03784026663787663,0.01336392396390438
1733697994300767200,8.054767333984374,0.007998013016581535,0.038980084322765465,-0.009847732536494732
1733697994310721300,8.06472119140625,0.0006318681627511978,0.03962525035850704,-0.027710721485316753
1733697994320675000,8.074675048828125,-0.0000263034850358963,0.03219648859724402,-0.01619768608510494
1733697994330630100,8.084630126953124,-0.008098550781607627,0.047911688395030794,0.00025046762973070144
1733697994340584000,8.094583984375,0.003904606223106384,0.03731521985046565,0.020838205367326734
1733697994350538000,8.1045380859375,-0.014345920738577841,0.03117269850745797,0.04136106117516756
1733697994360493000,8.1144931640625,-0.015597966626286507,0.030222631241008636,0.07951543526351451
1733697994370447000,8.124447021484375,-0.0033721067816019057,0.03470068997051567,0.08947831861227751
1733697994380401200,8.134401123046874,-0.019188684594631192,0.020162753791175783,0.10732055703401565
1733697994390356000,8.14435595703125,-0.01040332059264183,-0.004156535157561302,0.08925473898947238
1733697994400310000,8.15431005859375,0.002638531810045242,-0.011452464319393039,0.07403788063526154
1733697994410264000,8.16426416015625,-0.0006149170279502868,0.006952376421168446,0.05147153630107641
1733697994420219100,8.17421923828125,-0.014775544327497482,0.01744706509169191,0.016480302418768404
1733697994430173200,8.184173095703125,-0.02095043357014656,0.03235916834566742,0.0017328151419758796
1733697994440127200,8.194127197265624,-0.026710312271118163,0.03267075504548848,-0.024792788212001322
1733697994450082000,8.20408203125,0.0019961422532796856,0.008724135334044694,-0.03304302242398262
1733697994460036000,8.2140361328125,0.035523148801922796,-0.0012033844403922557,-0.02386836684346199
1733697994469990000,8.223989990234376,0.06384264983534813,0.0000034340661019086834,-0.04273965605199337
1733697994479945200,8.2339453125,0.07320435242056846,-0.003277889159508049,-0.03146042940765619
1733697994489899300,8.243899169921875,0.06884265007972717,-0.0072298416556790465,-0.021885668593645095
1733697994499853000,8.25385302734375,0.06727087071835994,-0.012889219124242663,-0.024893325977027415
1733697994509808000,8.26380810546875,0.08693886326253414,-0.00772767164260149,-0.014548749834299086
1733697994519762000,8.273761962890624,0.0881996769785881,-0.015568119477294385,-0.029628537805378434
1733697994529716000,8.283716064453126,0.0892757817775011,-0.012063070498406886,-0.01469984874278307
1733697994539671300,8.29367138671875,0.07116144841611385,-0.017167736693657933,-0.008821604359149932
1733697994549625000,8.303625,0.06871230169832707,-0.0019117519054561852,-0.0026899697363376614
1733697994559579100,8.3135791015625,0.06479191338419914,-0.00021722294725477694,0.008635141876339911
1733697994569534000,8.323533935546875,0.05872457616925239,0.013365129540301859,0.004366086255013942
1733697994579488000,8.333488037109374,0.03899345526099205,0.00783818281237036,-0.007727087120711803
1733697994589442000,8.343442138671875,0.037791093733906746,0.012633490797504782,-0.007063362514972686
1733697994599397000,8.353397216796875,0.04760755434930324,0.01557341670691967,0.018681611855328083
1733697994609351200,8.36335107421875,0.025884382840991017,0.02409231179244816,0.011278057600557804
1733697994619305200,8.37330517578125,0.010158990442752838,0.02542951521296054,0.02780979794561863
1733697994629260000,8.383260009765625,-0.010856325057148933,0.025106457271054386,0.02200608010292053
1733697994639214000,8.393214111328126,0.0015887304961681365,0.020489464994892476,0.020052900208532808
1733697994649168100,8.403168212890625,-0.009590250644087792,0.02680836581811309,-0.002307400159537792
1733697994659123200,8.413123291015625,0.020335516542196272,0.04192852233219892,-0.0028989363119006155
1733697994669077200,8.4230771484375,0.021164953103661534,0.037870954037085174,0.011293255169689655
1733697994679031000,8.433031005859375,0.009178747233748435,0.040926067291386425,0.01773965483009815
1733697994688986000,8.442986083984374,0.01530979733467102,0.019689217995293436,0.0117661333784461
1733697994698940200,8.452940185546876,0.02205634898543358,-0.005197532110475004,0.018055004389584062
1733697994708894000,8.46289404296875,0.031254969963431356,-0.02610588010456413,-0.0007432195827364921
1733697994718849300,8.472849365234374,0.03439735964238643,-0.03485759756527841,0.01712181519269943
1733697994728803000,8.482802978515625,0.03669979136586189,-0.026483444712683556,0.01811404110044241
1733697994738757000,8.492757080078125,0.029681437036395072,-0.013086787522956727,0.0358235930532217
1733697994748712000,8.5027119140625,0.0461976875513792,-0.007504676541686057,0.04164075489938259
1733697994758666000,8.512666015625,0.04345452632308006,0.013655381191149353,0.03644523208290338
1733697994768620000,8.5226201171875,0.02921615761220455,0.007942264241352677,0.021745383340120314
1733697994778575000,8.5325751953125,0.033920974302291865,0.013970073163509369,0.014622984114289283
1733697994788529200,8.542529052734375,0.007821487405896187,0.013235840604826807,0.020157529626786706
1733697994798483200,8.552483154296874,-0.03428746952712536,0.058688226214237506,0.01254910044968128
1733697994808438000,8.56243798828125,-0.06289104819893837,0.040673188508860765,-0.00037818566262722014
1733697994818392000,8.57239208984375,-0.032144027757644654,0.054978192715160544,-0.01695581097602844
1733697994828346000,8.58234619140625,-0.00869359406530857,0.06698803518898784,0.022018939584493635
1733697994838301200,8.59230126953125,0.02173077029287815,0.06305168212074785,0.05314239212274551
1733697994848255200,8.602255126953125,-0.000011105915904045104,0.049417635978572065,0.07199673019647598
1733697994858209000,8.612208984375,0.016664719074964522,0.03350004547648132,0.07338789229393004
1733697994868164000,8.6221640625,0.057339843812584876,-0.012760916569456457,0.039946518202126025
1733697994878118100,8.6321181640625,0.086788056614995,-0.0301784998383373,-0.012165069568157195
1733697994888072000,8.642072021484376,0.08296820606589317,-0.03580992985405028,-0.05561901136934757
1733697994898027300,8.65202734375,0.07465981192588805,-0.0387338910093531,-0.08768003701865673
1733697994907981000,8.66198095703125,0.08330722876191139,-0.056346412328444416,-0.11066606806963682
1733697994917935000,8.67193505859375,0.0829933405071497,-0.06518810962755232,-0.10474690715372562
1733697994927890200,8.68189013671875,0.08495441144704818,-0.08634637726210057,-0.07040916874408722
1733697994937844000,8.691843994140624,0.079529463788867,-0.047800081246718765,-0.03801730370521545
1733697994947798000,8.701798095703126,0.041754736667871474,-0.03121288438737392,0.015090309365093707
1733697994957753000,8.711753173828125,0.014526538002490997,0.011002272866480051,0.0638546325340867
1733697994967707100,8.72170703125,-0.007079144605994224,0.03568560935463756,0.0772442754611373
1733697994977661200,8.7316611328125,-0.0212841955691576,0.05426452802047133,0.07445610604733228
1733697994987615200,8.741615234375,-0.021351415586471557,0.05710669264383614,0.0752265058979392
1733697994997569300,8.7515693359375,-0.018394319346547127,0.07451949013974517,0.0528662055298686
1733697995007523300,8.7615234375,-0.004595511096715927,0.056694312450662254,0.0358998731598258
1733697995017478400,8.771478515625,0.004703063124418258,0.06389302831571549,0.004902385088801383
1733697995027432400,8.781432373046876,-0.0006114098966121674,0.04938702164459973,0.0007329904496669769
1733697995037386500,8.791386474609375,0.0010907178461551665,0.05213003674242645,-0.013127192598581314
1733697995047341300,8.80134130859375,0.010885551151633262,0.054576918437890705,-0.01265197630226612
1733697995057295400,8.81129541015625,0.006136310797929764,0.05188760628867894,-0.007948328655958176
1733697995067249400,8.82124951171875,-0.016917817053198815,0.03311360344216227,0.016737784311175345
1733697995077204500,8.83120458984375,-0.034358196675777435,0.034310923467949034,0.04860796356350183
1733697995087158500,8.841158447265625,0.004645195457339287,0.025552301342412827,0.08025514771491289
1733697995097112300,8.8511123046875,0.01903027916252613,0.00787950120344758,0.09961159009188413
1733697995107067400,8.8610673828125,-0.0065998366564512245,-0.013404730898328126,0.12161767019480466
1733697995117021400,8.871021484375,-0.005382862082123756,-0.04797554741147905,0.10865122111588715
1733697995126975200,8.880975341796875,0.01991290721595287,-0.03279642725177109,0.09408990406095981
1733697995136930600,8.8909306640625,0.015319734206795691,-0.024599238401278853,0.06481938591301441
1733697995146884400,8.90088427734375,-0.00803133076429367,0.007708674681186675,0.0332595877841115
1733697995156838400,8.91083837890625,-0.012851298266649245,0.012909969651326536,-0.005440729749202728
1733697995166793500,8.92079345703125,-0.012151041042804718,0.0183367804730311,-0.01988163529485464
1733697995176747300,8.930747314453125,0.003960135802626609,0.016208718935772776,-0.03194265996664762
1733697995186701300,8.940701416015624,0.013832125997543333,-0.0038361440967768427,-0.01883212624192238
1733697995196656400,8.950656494140626,0.03267418911159038,-0.028409663534909486,-0.013347265090048313
1733697995206610400,8.9606103515625,0.059223173341155046,-0.016310864135995508,-0.005296060581505298
1733697995216564500,8.970564453125,0.05138122766911983,0.0013707403639331458,-0.0053664954692125314
1733697995226519300,8.980519287109376,0.020261866784095764,0.008121712461486458,-0.02560731946527958
1733697995236473300,8.990473388671875,0.02849602664411068,0.005791260219924151,-0.030886136651039123
1733697995246427400,9.000427490234374,0.05457096362113952,0.013602555025368928,-0.010654372744262218
1733697995256382500,9.010382568359375,0.04830371991991996,0.00456204721853137,-0.0153542209982872
1733697995266336500,9.02033642578125,0.041459553113579746,0.0021717910811305044,-0.01364449447095394
1733697995276290300,9.030290283203126,0.030404490613937376,0.010289411889389156,0.004412263484299183
1733697995286245400,9.040245361328125,0.025358897662162778,0.020695947352424263,0.010757248596847057
1733697995296199400,9.050199462890625,0.013678981262445449,0.032315365736559035,0.03216273245811462
1733697995306153200,9.0601533203125,0.011571195328235626,0.02826791697666049,0.02648907073587179
1733697995316108500,9.070108642578125,0.021552491116523742,0.029326230390556155,0.019080255784094332
1733697995326062300,9.080062255859374,0.01246376025378704,0.020720533804409205,0.03693710725307464
1733697995336016400,9.090016357421876,0.018671967244148255,0.023178813676722348,0.027953298069536683
1733697995345971500,9.099971435546875,0.008799977049231529,0.0177068850716576,0.04454553643018007
1733697995355925200,9.10992529296875,0.0024678514182567596,0.010814129883237182,0.04957300920337438
1733697995365879300,9.11987939453125,-0.009993570747971534,0.03385375428497791,0.0468207878857851
1733697995375834400,9.12983447265625,-0.030510873597860335,0.030002631814777848,0.017075053441524504
1733697995385788400,9.139788330078124,-0.002591185536980629,-0.028059644520841538,-0.025319442434608933
1733697995395742500,9.149742431640625,0.009195698368549346,0.008356945989467204,0.010197861148416995
1733697995405697300,9.159697265625,0.006640168666839599,0.014920798017084598,0.03085048081576824
1733697995415651300,9.1696513671875,-0.024299159476161,0.012306560398079454,0.030002924075722692
1733697995425605400,9.17960546875,-0.0033808746099472046,0.02920008326023817,0.06099544371068477
1733697995435560400,9.189560546875,0.005576338827610015,0.011932977845333516,0.06173135676980018
1733697995445514500,9.199514404296876,-0.0019815292060375213,-0.0000043839141726493836,0.05975275017321109
1733697995455468500,9.209468505859375,0.019166472762823104,-0.037655082796700295,0.048558863724768156
1733697995465423400,9.21942333984375,0.02601063956916332,-0.03140150229465216,0.024373393756151197
1733697995475377400,9.22937744140625,0.033952538484334945,-0.03838547943048179,0.046669981238245964
1733697995485331200,9.239331298828125,0.029540567260980605,-0.019882256349362432,0.056285950845479965
1733697995495286500,9.24928662109375,0.02278700134754181,-0.00016337386816740035,0.048908115553855894
1733697995505240300,9.259240234375,0.01952127754986286,0.00263615718986839,0.04562544062137604
1733697995515194400,9.2691943359375,0.03181377288997173,0.005245280242338776,0.027077099756896494
1733697995525149400,9.2791494140625,0.009048983374238014,0.023510529849119482,0.01519172391295433
1733697995535103200,9.289103271484375,-0.01181844808757305,0.02066054724548012,0.014591127671301364
1733697995545057300,9.299057373046875,0.0012695815443992614,0.035816286529600616,-0.011455752255022525
1733697995555012400,9.309012451171874,-0.04120119443833828,0.06412968661580234,-0.014390344402194022
1733697995564966400,9.31896630859375,-0.05305763644874096,0.04116805935371667,-0.026186580657958983
1733697995574920400,9.32892041015625,-0.025309797823429105,0.049288748901896176,-0.0055509121254086495
1733697995584875300,9.338875244140626,-0.0016758242577314376,0.052610294540040195,0.04846007952541113
1733697995594829300,9.348829345703125,-0.004084638965129852,0.04996712308749556,0.082875267085433
1733697995604783400,9.358783447265624,-0.01826864714026451,0.03895480375103652,0.09998013114333153
1733697995614738400,9.368738525390626,0.014872574961185454,0.019681290417164564,0.08274404192119836
1733697995624692500,9.3786923828125,0.05628828893303871,0.007094999762251973,0.04330430419743061
1733697995634646500,9.388646484375,0.05983458323776722,0.006888627002574503,-0.0019373978033661841
1733697995644601300,9.398601318359376,0.032356793725490565,0.012178294375911355,-0.0466594598442316
1733697995654555400,9.408555419921875,0.02786941917836666,0.00129698100797832,-0.07979717481434345
1733697995664509200,9.41850927734375,0.060930561780929565,-0.02539648972619325,-0.08583674723953008
1733697995674464500,9.428464599609375,0.0969394482731819,-0.048021103586256504,-0.07381400875151158
1733697995684418600,9.43841845703125,0.09811842892467976,-0.05660725522171706,-0.04759703295528889
1733697995694372400,9.448372314453126,0.0915852277636528,-0.07234601855818182,-0.008319207794964313
1733697995704327400,9.458327392578125,0.06382394513487816,-0.05263838812336325,0.026464520816504952
1733697995714281200,9.46828125,0.03105915513038635,-0.028237923697195945,0.044476855108141894
1733697995724235300,9.4782353515625,0.019015081593394278,0.0037526305317878723,0.05697013371735811
1733697995734190600,9.488190673828125,0.00265606746673584,0.022867336574755606,0.06357347750514745
1733697995744144400,9.498144287109374,-0.00017886369824409484,0.0322321444325149,0.050607320687174794
1733697995754098400,9.508098388671876,-0.01249473991394043,0.04199632687140256,0.0492518144249916
1733697995764053200,9.51805322265625,-0.012523966008424758,0.05796462464742362,0.0315361249923706
1733697995774007300,9.52800732421875,-0.0010246668726205826,0.04643178856819868,0.011256722551584244
1733697995783961300,9.53796142578125,-0.005490998631715774,0.039226277636177836,-0.0004617722928524017
1733697995793916400,9.54791650390625,-0.007288987964391708,0.04240388475898653,-0.02455927171707153
1733697995803870500,9.557870361328124,-0.011577625069022178,0.04669467728808522,-0.01196311725527048
1733697995813824500,9.567824462890625,-0.031229835522174832,0.05045362796280533,-0.023118132998049257
1733697995823779300,9.577779296875,-0.014392097967863083,0.0297457709768787,-0.0038721652582287785
1733697995833733400,9.5877333984375,-0.015900748965144155,0.030196437353827058,0.03442366312742233
1733697995843687200,9.597687255859375,0.0009346505016088485,0.011297419888153672,0.059682023024559015
1733697995853642500,9.607642578125,0.03815115921795368,-0.002010791833139956,0.09025923985689878
1733697995863596500,9.617596435546876,0.016247370445728302,-0.01466306039635092,0.11175006391406059
1733697995873550300,9.62755029296875,0.013476152166724204,-0.027146292535588142,0.11401216362714767
1733697995883505400,9.63750537109375,0.01030219830572605,-0.01202832797858864,0.09167728996127843
1733697995893459200,9.647459228515626,-0.012080898416042327,0.017616064983047543,0.058684828680753705
1733697995903413200,9.657413330078125,-0.014259996020793914,0.03692117903158068,0.024340368269383905
1733697995913368600,9.66736865234375,-0.02106149272918701,0.024491722906194627,0.00338847339451313
1733697995923322400,9.677322265625,-0.013426467806100845,0.01621266445852816,-0.00981383026689291
1733697995933276400,9.6872763671875,-0.0003162263423204422,0.008586005504988134,-0.009433598777651786
1733697995943231200,9.697231201171874,0.025777415335178373,-0.014676321736723183,-0.004338029204308987
1733697995953185300,9.707185302734375,0.04163724776804447,-0.015570676760561763,-0.004647533544898033
1733697995963139300,9.717139404296875,0.03991115462779998,-0.01634436454679817,-0.011083704072237015
1733697995973094400,9.727094482421874,0.04219663521647453,-0.022797632339410484,0.008583703950047492
1733697995983048400,9.73704833984375,0.049713586717844004,-0.015353965269960463,-0.0007674772411584853
1733697995993002500,9.74700244140625,0.04496142375469207,-0.008116561362333595,0.0017266776621341704
1733697996002957300,9.756957275390626,0.024868483796715735,0.019291377784125506,0.009015665626525879
1733697996012911400,9.766911376953125,0.024714170017838478,0.019585721088200808,0.00800561180114746
1733697996022865400,9.776865478515624,0.015652911683917043,0.02396145195439458,0.006390577819943428
1733697996032820500,9.786820556640626,0.004226677784323692,0.0192521782848984,0.009651917703449725
1733697996042774500,9.7967744140625,-0.005047931039333343,0.027584903148561716,0.024310849913954734
1733697996052728300,9.806728271484374,-0.007025953114032745,0.031279410284943875,0.03050005994290113
1733697996062683400,9.816683349609375,-0.005468786799907684,0.024329773810133338,0.03634323301315307
1733697996072637400,9.826637451171875,0.03467851467132568,0.02514415893293917,0.048966860003769395
1733697996082591200,9.83659130859375,0.016198855128884315,0.017674188378453255,0.030882629519701003
1733697996092546600,9.846546630859375,0.019818214669823645,0.007551365227624773,0.032953298313915726
1733697996102500400,9.856500244140625,0.012676526221632957,0.008824052044562995,0.019746902999281883
1733697996112454400,9.866454345703126,0.004109188884496688,-0.0017166311921551823,0.0048860184758901595
1733697996122409200,9.8764091796875,-0.002506429862976074,0.01654690138157457,0.016651567332446573
1733697996132363300,9.88636328125,-0.0002601122409105301,0.024107399763725695,0.00815115775167942
1733697996142317300,9.8963173828125,0.014244798451662063,0.022147753595933316,-0.007051964338123798
1733697996152272400,9.9062724609375,0.020340777239203453,0.002459814242273569,-0.01443009189069271
1733697996162226400,9.916226318359374,0.021794483178853987,0.018959515481255948,-0.018536358165740965
1733697996172180500,9.926180419921875,0.016512158861756325,0.016521766940318046,0.0038221886366605756
1733697996182135300,9.93613525390625,0.03596270926296711,0.022263744658418,0.026688100439310074
1733697996192089300,9.94608935546875,0.022356208714842795,0.004209507453814149,0.04128419654667377
1733697996202043400,9.95604345703125,0.019554595297574997,-0.0045722032863646745,0.03654021688997745
1733697996211998500,9.96599853515625,0.02780804437994957,-0.030380379085987806,0.030662849289178847
1733697996221952500,9.975952392578124,0.04814063831269741,-0.03211677442453802,0.014127017290890217
1733697996231906300,9.98590625,0.03590074994266033,-0.026529183550551533,0.010527823755145072
1733697996241861400,9.995861328125,0.045807226929068565,-0.003034435792453587,0.007564590035378933
1733697996251815400,10.0058154296875,0.04386953686475754,0.005816686922125518,0.027528058394789695
1733697996261769200,10.015769287109375,0.03797288004159927,0.015569873042963445,0.03818184661716222
1733697996271724500,10.025724609375,0.023026655322313308,0.013725195024348795,0.02919920647740364
1733697996281678300,10.03567822265625,0.0005529577076435089,0.007255085694789886,0.019846563981473445
1733697996291632400,10.04563232421875,-0.0020095862567424774,0.022930793732404708,0.014474807815253734
1733697996301587500,10.05558740234375,-0.013462123641371726,0.02952624647468328,-0.0023167525097727774
1733697996311541200,10.065541259765626,-0.07529810982942581,0.047831901157088574,0.021053017161786557
1733697996321495300,10.075495361328125,-0.05993512100279331,0.03335928529892117,-0.004486790025234222
1733697996331450400,10.085450439453124,-0.031845921593904494,0.04764014144465327,0.0332683556124568
1733697996341404400,10.095404296875,-0.00019055413603782652,0.06185534847564995,0.07812222733944654
1733697996351358500,10.1053583984375,0.029599019449949263,0.052908583366870876,0.11578297269195317
1733697996361313300,10.115313232421874,0.006399345648288726,0.03627674364820122,0.11740618997961282
1733697996371267300,10.125267333984375,0.019919336956739423,0.008797529363818467,0.08615326584279537
1733697996381221400,10.135221435546875,0.06091068803668022,0.000023271277733147144,0.005219780474901199
1733697996391176400,10.145176513671874,0.06134966397583484,-0.007356317579559981,-0.05027823486328125
1733697996401130500,10.155130615234375,0.048094461083412164,0.0004092018553987145,-0.10072451976984739
1733697996411084300,10.165084228515624,0.06028934126794338,-0.027081812464632093,-0.12459317887425422
1733697996421039400,10.175039306640626,0.07454875276684761,-0.06823229962904005,-0.111150636716187
1733697996430993400,10.184993408203125,0.08925298542380332,-0.09950845851097255,-0.0692331107020378
1733697996440947200,10.194947265625,0.0850578718215227,-0.1042066627971828,0.0017030045256018638
1733697996450902500,10.204902587890626,0.04635375489592552,-0.08292064059711993,0.05953180089890957
1733697996460856300,10.214856201171875,0.0029641105026006697,-0.056936487176083024,0.10866349607557058
1733697996470810400,10.224810302734374,-0.012231705063581465,-0.015664382926002144,0.14108634077459573
1733697996480765400,10.234765380859375,-0.03328501448631287,0.01394146812353283,0.15097645114809274
1733697996490719200,10.24471923828125,-0.04638473455607891,0.04999207486566156,0.1340402216553688
1733697996500673300,10.25467333984375,-0.05400397738814353,0.08125015010163188,0.10120587354600429
1733697996510628400,10.26462841796875,-0.02482815178632736,0.05989672522116452,0.0624038492038846
1733697996520582400,10.27458251953125,-0.03186637986004352,0.07309928461089729,0.01414776781797409
1733697996530536400,10.284536376953126,-0.02156827320754528,0.06916136064007877,-0.0336430341437459
1733697996540491300,10.2944912109375,-0.022720365852117536,0.06425988886673004,-0.0524389200285077
1733697996550445300,10.3044453125,-0.006957564052939414,0.07150635286364704,-0.048373862546682356
1733697996560399400,10.3143994140625,-0.011906710892915725,0.06381130484901368,-0.02954115178287029
1733697996570354400,10.3243544921875,-0.01708089866042137,0.03480652496516704,-0.007587386389076709
1733697996580308500,10.33430859375,-0.009189268627762794,0.02812580509223044,0.025953064163029192
1733697996590262500,10.344262451171875,-0.022039982372522353,0.020957849691621958,0.07435176889002322
1733697996600217300,10.35421728515625,0.025441315248608588,-0.009119564392417668,0.10879296767413615
1733697996610171400,10.36417138671875,0.00806581755578518,-0.04518745106291026,0.14022650907486675
1733697996620125200,10.374125244140625,0.008021978414058686,-0.06606847265865654,0.13957768977731466
1733697996630080500,10.38408056640625,0.008783025914430618,-0.052383536579459905,0.11027443840354681
1733697996640034600,10.39403466796875,0.018923311656713484,-0.053165151943825185,0.06793254949748516
1733697996649988400,10.40398828125,0.00939677389860153,-0.027612923666648564,0.030366496691107747
1733697996659943400,10.413943359375,-0.016665888118743897,0.01272913319170475,0.011041910757124424
1733697996669897200,10.423897216796876,-0.011869301491975784,0.01661412139888853,-0.013923311412334442
1733697996679851300,10.433851318359375,0.007708090159296989,0.014127674878016113,-0.04125087879896164
1733697996689806300,10.443806396484375,0.012726210582256316,0.01250730713456869,-0.02271189028471708
1733697996699760400,10.453760498046876,0.047836686930060386,-0.004060892763361334,-0.01423047766536474
1733697996709714400,10.46371435546875,0.04884031101465225,-0.02190061043445021,-0.014433014500141143
1733697996719669200,10.473669189453124,0.054632338419556614,-0.01577087550777942,-0.0047518707022070885
1733697996729623300,10.483623291015626,0.030978491109609603,-0.005345635344274342,-0.01713145980387926
1733697996739577300,10.493577392578125,0.04039280066490173,0.00599796177316457,-0.024721184280514716
1733697996749532400,10.503532470703124,0.03859422681033611,0.026371837564371524,-0.023358371494710446
1733697996759486500,10.513486572265625,0.05561258162856102,0.021265417803451418,-0.0066661798909306525
1733697996769440500,10.5234404296875,0.038486090260744094,0.022696729248203335,0.0005079495221376419
1733697996779395300,10.533395263671874,0.029652795463800428,0.02348060963489115,0.006512450633943081
1733697996789349400,10.543349365234375,0.0015986673682928084,0.015002375353313982,0.029559856483340263
1733697996799303200,10.55330322265625,0.0008370353460311889,0.02691398161705583,0.04485650207549333
1733697996809258500,10.563258544921876,0.004082885399460792,0.016880846043676137,0.05319324552714824
1733697996819212500,10.573212646484375,0.009426584514975547,0.008233538805507123,0.06811755067557096
1733697996829166300,10.583166259765624,0.008403671208024025,0.016981493406556546,0.05403437252640724
1733697996839121400,10.593121337890626,0.003618775019049644,0.02467329001817852,0.06663111151009797
1733697996849075200,10.6030751953125,0.014687281522154807,0.005457096362113952,0.0626414573520422
1733697996859029200,10.613029296875,0.012448562684655188,0.015332374492660164,0.05115472543686628
1733697996868984600,10.622984619140626,0.000025134441256523132,0.0027239816037937996,0.05224485876113176
1733697996878938400,10.6329384765625,-0.023899346503615377,0.011968085691332817,0.034873744982481
1733697996888892400,10.642892333984374,-0.012180851659178734,0.01863656713720411,0.028344635474681853
1733697996898847200,10.65284716796875,-0.0055406829923391335,0.009557480885647236,0.003680442078411579
1733697996908801300,10.66280126953125,-0.003153495594859123,0.019639095243252813,0.00008709376156330108
1733697996918756600,10.672756591796874,0.017749591702222824,0.017009112065844236,0.012431611549854277
1733697996928710400,10.68271044921875,0.020959201398491858,0.006945362158492207,0.020341654022037983
1733697996938664400,10.69266455078125,0.02272153489589691,0.006092617786675691,0.035492753663659095
1733697996948618500,10.702618408203126,0.027657822254300114,-0.020940460165403782,0.020080080476403236
1733697996958573300,10.7125732421875,0.039682022047042846,-0.024091873401030896,0.01055792663246393
1733697996968527400,10.72252734375,0.026004794350266456,-0.03983144045509398,0.008320084577798844
1733697996978481400,10.7324814453125,0.04568506185412407,-0.035372780545800925,0.0008750292688608169
1733697996988437200,10.742437255859375,0.03504091824293137,-0.016639949959889055,0.005467033234238625
1733697996998391000,10.75239111328125,0.03655482993721962,0.0046914457518607375,0.012537117750942706
1733697997008345000,10.762344970703126,0.03901625161468982,0.02363101442363113,0.02742898193448782
1733697997018300200,10.772300048828125,0.028852000474929806,0.016256028676219284,0.012781447900831699
1733697997028254200,10.782254150390624,0.010924129596352576,0.011745273253507911,0.00016395839005708694
1733697997038208300,10.792208251953125,0.011678747355937958,0.03742437931336462,0.011055062499642372
1733697997048163000,10.8021630859375,0.028542203873395917,0.047872123569622636,0.007228489948809146
1733697997058117000,10.8121171875,-0.038923312634229656,0.05049885534401983,-0.008239712817966937
1733697997068071200,10.8220712890625,-0.05679273132383823,0.03425981433521956,-0.025630408079922198
1733697997078026000,10.83202587890625,-0.017419336834549902,0.042814657516963776,-0.009216156634688376
1733697997087980300,10.841980224609374,0.005665770676732063,0.06994001686237752,0.03510726147741079
1733697997097935000,10.85193505859375,0.008686579802632332,0.07065558125320821,0.061756491211056704
1733697997107889200,10.86188916015625,0.002773556366562843,0.04309186702314764,0.08856704898625611
1733697997117843200,10.87184326171875,0.03497311370372772,0.0183880722688511,0.09569617021381854
1733697997127798000,10.881798095703125,0.07621814728379249,-0.01149838582035154,0.06543050354868173
1733697997137752000,10.891751953125,0.08937456597685814,-0.02717482451032847,0.023275953908264636
1733697997147706400,10.901706298828126,0.0601052168726921,-0.04323686498440802,-0.022131460048258302
1733697997157660200,10.91166015625,0.046108255702257156,-0.061971047277189786,-0.05721271030157804
1733697997167615200,10.921615234375,0.044208559560775754,-0.07969323951583356,-0.08307868070304393
1733697997177569000,10.931569091796876,0.07173603343367577,-0.06525920210238546,-0.08798720327168702
1733697997187523000,10.941523193359375,0.07637947532534599,-0.06780881351996212,-0.06713175450861454
1733697997197478100,10.95147802734375,0.052368485140800475,-0.0408212917426601,-0.008079846081137657
1733697997207432200,10.96143212890625,0.031496962025761605,-0.0011730623673647641,0.03766279117912054
1733697997217387300,10.97138720703125,0.006306991189718246,0.02217504346165806,0.05818827733546495
1733697997227341000,10.981341064453124,0.011430910074710846,0.050682760543562466,0.08449176237136125
1733697997237295000,10.991295166015625,0.016186580169200895,0.057400999415293336,0.08861731786876917
1733697997247250200,11.001250244140625,0.02339081245958805,0.05630761468801647,0.06853051539063454
1733697997257204000,11.011203857421876,0.029198037433624265,0.05669796571247279,0.044802433800697324
1733697997267158300,11.021158203125,0.011354337707161903,0.05396368191037327,0.009881050284206867
1733697997277112300,11.0311123046875,0.017702829951047896,0.053908298461325464,-0.017608721926808357
1733697997287067100,11.041067138671876,0.012190788531303405,0.06577149900607765,-0.0565609683945775
1733697997297021200,11.051021240234375,0.008275660914182663,0.05334361378327012,-0.048447512304782864
1733697997306975200,11.060975341796874,0.02626958276629448,0.06003116525579243,-0.04406535169780254
1733697997316930000,11.070929931640626,0.03898410291075706,0.02938676493875682,-0.03241816852390766
1733697997326884400,11.08088427734375,0.006435586005449295,0.024120953365042806,0.0009574468553066253
1733697997336838100,11.090838134765624,0.01979483379423618,0.020506269999220967,0.03874444893598556
1733697997346793200,11.100793212890625,0.056952890321612354,-0.0026799963315948844,0.03608721242547035
1733697997356747300,11.110747314453125,0.014760931280255317,-0.0022335677383467554,0.06688362496644258
1733697997366702000,11.1207021484375,0.005196399599313736,-0.014832279483415185,0.05710866540521383
1733697997376656100,11.13065625,0.03629471769630909,-0.024824827318079768,0.0369260013371706
1733697997386610200,11.140610107421875,0.03812134860157966,-0.016131963905133308,0.030421441748738287
1733697997396565200,11.150565185546874,0.005460603493452072,0.012768551886640488,0.01764379324018955
1733697997406519300,11.160519287109375,-0.0034399113208055496,0.012157799577154219,-0.023050912980735302
1733697997416473000,11.17047314453125,0.015081833797693251,0.016432517754286526,-0.03286825037896633
1733697997426428200,11.18042822265625,0.03995674733519554,0.020560265208780765,-0.03955079688280821
1733697997436382000,11.1903818359375,0.0603974778175354,0.004272270491719246,-0.02403963175714016
1733697997446336300,11.200336181640624,0.079324296605587,-0.008885974832251668,-0.016274258452653883
1733697997456291000,11.210291015625,0.07462240252494812,-0.001340381758287549,-0.020950141309201715
1733697997466245000,11.2202451171875,0.047242812690138816,-0.006847418209351599,-0.011819617131352425
1733697997476199200,11.23019921875,0.04410977536141872,0.0024887115431949493,-0.016437924581766128
1733697997486153200,11.2401533203125,0.06272504398226737,-0.000005516425333917141,-0.016816110244393348
1733697997496108000,11.25010791015625,0.06696165863871574,-0.005397657792456448,-0.01656681165844202
1733697997506062300,11.260062255859374,0.06559387741684913,-0.0025554566364735364,-0.01885609163939953
1733697997516017200,11.27001708984375,0.044642859324812885,0.007389233468472957,-0.010703472582995891
1733697997525971200,11.27997119140625,0.04827040217220783,0.019955723444372415,0.006053600950539112
1733697997535925200,11.28992529296875,0.04203063099980354,0.0038665757676586508,0.025927637460827827
1733697997545880000,11.299880126953125,0.01683306137919426,0.03744553169924766,0.021914894688129422
1733697997555834000,11.309834228515625,0.022884616503119466,0.02957720947694033,0.02288666232973337
1733697997565788200,11.3197880859375,0.0339893633633852,0.03735482120849192,0.027810382467508315
1733697997575743200,11.3297431640625,0.010914192724227905,0.040326347832567985,0.03944119902849197
1733697997585697300,11.339697265625,0.005876198557019234,0.04401701904404908,0.026667934434115886
1733697997595651000,11.349651123046876,0.0026209961533546445,0.019105901682004333,0.039808863297104834
1733697997605605000,11.359605224609375,-0.017277298015356064,0.025499292513541875,0.03909516206979751
1733697997615560000,11.369559814453124,-0.02694002937376499,0.01725965276081115,0.02477496029436588
1733697997625514200,11.37951416015625,-0.024289807125926016,0.011901450195908546,0.016947919930517672
1733697997635468300,11.38946826171875,0.003987023809552193,0.03634151598010212,0.027138474555313586
1733697997645423000,11.399423095703124,0.015399229183793066,0.040633696748688816,0.019426000481843946
1733697997655377200,11.409377197265625,-0.005434884530305862,0.028520978422276674,0.02458382163643837
1733697997665332000,11.41933203125,0.011126958692073821,0.013630173684656618,0.018856676161289214
1733697997675286000,11.4292861328125,0.008634557354450225,-0.017273060231655837,0.008892331507802009
1733697997685240300,11.439240234375,0.048779520738124846,-0.026848113306611774,0.000173018479347229
1733697997695195100,11.449195068359375,0.0342594124764204,-0.03125844056215137,0.010716624325513839
1733697997705149200,11.459149169921876,0.03780570678114891,-0.03366228683348745,0.016856442254781723
1733697997715103200,11.469103271484375,0.03130056267082691,-0.013343721426092088,0.029198914216458795
1733697997725058000,11.47905810546875,0.025582185024023055,0.011581716722249984,0.03173310886919498
1733697997735012400,11.489012451171876,0.028161095601320265,0.02390800473410636,0.028742402620613575
1733697997744966100,11.498966064453125,0.02113689605295658,0.015492387359961866,0.0081280691370368
1733697997754921200,11.508921142578124,0.007792261311411857,0.021390213226899504,0.013010872742533684
1733697997764875300,11.518875244140625,0.022841946405172345,0.0430301634311676,0.00627893413901329
1733697997774829000,11.5288291015625,-0.03226794639825821,0.05585603499561548,-0.013513269306719302
1733697997784784100,11.5387841796875,-0.06019347967803478,0.05256762444209307,-0.021858196064829825
1733697997794738200,11.54873828125,-0.026444939333200454,0.040061449818685646,-0.01918663876801729
1733697997804692200,11.558692138671875,-0.0008913958817720412,0.04515453517399728,0.021255553996562957
1733697997814647300,11.568647216796874,0.023673721054196357,0.05865063415020704,0.05078267725408077
1733697997824601000,11.57860107421875,0.013420038065314293,0.04633483099974692,0.08901946892887354
1733697997834555100,11.58855517578125,0.013483166429400444,0.017624321354739368,0.0983712346419692
1733697997844510000,11.598510009765626,0.04189911357462406,-0.03477729887068271,0.0644689650401473
1733697997854464300,11.60846435546875,0.06859422827661037,-0.04441624749470502,0.0157768303245306
1733697997864418300,11.618418212890624,0.07169394785761833,-0.03621036388110369,-0.014428630585968494
1733697997874373000,11.628373046875,0.06489771184623241,-0.04135474103223532,-0.05818623150885105
1733697997884327200,11.6383271484375,0.06155483115911484,-0.04544179115016013,-0.08472440208345651
1733697997894281200,11.64828125,0.07990589588582515,-0.06670308076776564,-0.10329583156257867
1733697997904236000,11.658236083984375,0.09728431618809699,-0.08027169699091463,-0.06183043323010206
1733697997914190300,11.6681904296875,0.08608838391304016,-0.05111669498141855,-0.03514817800968885
1733697997924144400,11.678144287109374,0.05829962875545024,-0.021395766184851527,0.004081131833791733
1733697997934099200,11.68809912109375,0.005229132825136184,0.015229096781276166,0.053153498038649556
1733697997944053200,11.69805322265625,-0.01559913567006588,0.04787405979838222,0.056548108913004394
1733697997954007000,11.708007080078126,-0.01650806720852852,0.0702038188977167,0.06914601694047451
1733697997963962000,11.717962158203125,-0.03883212721943855,0.09426365319266915,0.05659077901095152
1733697997973916400,11.72791650390625,-0.041783378240466115,0.09217351251300424,-0.0037277883514761924
1733697997983870200,11.7378701171875,-0.010493921485543251,0.1021625897489488,-0.016892098090052602
1733697997993825300,11.7478251953125,-0.002599368843436241,0.0914948095338419,-0.0329611893594265
1733697998003779000,11.757779052734374,-0.018920973569154738,0.07577106110341847,-0.036515666970610615
1733697998013733000,11.767733154296875,0.0026952304333448408,0.05322681900318712,-0.04112462207078933
1733697998023688200,11.777688232421875,0.013123100945353508,0.030669242497347295,-0.023214286848902702
1733697998033642200,11.787642333984374,0.0016319851160049438,0.02560045133307576,0.0051566521108150475
1733697998043596300,11.79759619140625,0.0024941549032926557,0.008447656480222939,0.006265197874605655
1733697998053551000,11.807551025390625,0.0015565817922353743,-0.013331629129499195,0.04778641804754734
1733697998063505200,11.817505126953124,0.0044458734929561615,0.0003561199612915516,0.10410539437979459
1733697998073459200,11.827459228515625,0.034817046359181404,-0.0008875599568709731,0.14065028744488953
1733697998083414300,11.837414306640625,-0.017397125002741813,-0.0021214491333812475,0.1438040753006935
1733697998093368300,11.847368408203126,0.027839024040102956,-0.12196133253332227,0.09274024301767349
1733697998103322400,11.857322265625,0.054964346852898596,-0.061026058044657105,0.1511503464102745
1733697998113277200,11.867277099609375,0.02711129428744316,-0.03643478375412523,0.17112755103409288
1733697998123231200,11.877231201171876,-0.021087796214222906,-0.005001315418630838,0.12991788102835417
1733697998133185000,11.88718505859375,-0.02989069587290287,0.011158449808880685,0.08785422454178332
1733697998143140400,11.897140380859375,-0.03247603619098663,0.018025778295099736,0.04635930785387754
1733697998153094400,11.907094482421876,-0.002146364378929138,0.02538293612487614,-0.0071133391365408895
1733697998163048200,11.917048095703125,0.03224105839133262,-0.002794781817682087,-0.02202303123772144
1733697998173003300,11.927003173828124,0.04147299711704254,-0.012903064986504613,-0.036463936783373355
1733697998182957000,11.93695703125,0.06498422108590603,-0.017743308091908692,-0.03905307649374008
1733697998192911000,11.9469111328125,0.05190495928227901,-0.013629552630148827,-0.03671031275987625
1733697998202866400,11.956866455078124,0.017706921604275703,-0.015894538420066235,-0.030289632062613963
1733697998212820200,11.9668203125,0.02809036845266819,-0.01591123382654041,-0.0033376199901103973
1733697998222774300,11.976774169921875,0.029584406402707097,-0.008027458306774496,-0.008719605289399624
1733697998232729000,11.98672900390625,0.03185702750980854,-0.01173014874961227,0.0038271570727229118
