time,seconds_elapsed,z,y,x
1733860840636841500,0.019841552734375,0.004333645290136337,-0.16035466647669672,-0.027158640560507773
1733860840646792400,0.02979248046875,0.05305763644874096,-0.21026538320183752,0.001939443629980087
1733860840656742400,0.039742431640625,0.13477496567070482,-0.20811434264779088,0.014439151979982853
1733860840666693400,0.049693359375,0.15973346583843231,-0.15723858028277754,0.0399105701059103
1733860840676644400,0.059644287109375,0.07104395951628685,-0.11513678374290466,0.1029065399840474
1733860840686595300,0.06959521484375,-0.030679800423979758,-0.10802198330163955,0.15247662657797337
1733860840696545300,0.079545166015625,-0.07115443415343761,-0.12207520470395683,0.12090104635804891
1733860840706496500,0.08949658203125,-0.06217910053730011,-0.133056032923609,0.07924743197709322
1733860840716447200,0.099447265625,-0.03148468706607818,-0.09770312612205743,-0.03258826439380646
1733860840726398500,0.1093984375,0.025439561682939527,-0.08239610526636243,-0.1190323298767209
1733860840736349400,0.119349365234375,0.005448328533768654,-0.08096797215938567,-0.10082914918810129
1733860840746299400,0.12929931640625,-0.01177577798962593,-0.06270268601998687,-0.059901803255081175
1733860840756250400,0.13925048828125,0.011839490875601768,-0.034975159530341624,-0.003112579062581062
1733860840766201600,0.14920166015625,0.03164484606385231,0.028842940385639667,0.0401502240806818
1733860840776152300,0.15915234375,0.07039514021873473,0.0986817618958652,0.05718348420709371
1733860840786102500,0.1691025390625,0.09805880769193172,0.12039163553118705,0.05659019448906183
1733860840796053500,0.179053466796875,0.10836451312899589,0.12240633635446428,0.02463730538934469
1733860840806004500,0.18900439453125,0.11879355268478393,0.1032926166921854,0.04717413136810064
1733860840815955500,0.19895556640625,0.0886222863048315,0.11265402701646089,0.09813099614530801
1733860840825906400,0.208906494140625,0.07314122405648231,0.12341989731118082,0.09729600662589073
1733860840835856400,0.2188564453125,0.09675532387793064,0.10068389549851417,0.08702493411079049
1733860840845807600,0.2288076171875,-0.013587211325764655,0.09696487497538328,0.0892427562907338
1733860840855758300,0.23875830078125,-0.17817513145804403,0.08420359307974576,0.07938157975077628
1733860840865709600,0.24870947265625,-0.28608605560064315,0.10841156714111566,0.09314443990439177
1733860840875659500,0.258659423828125,-0.4259177201390266,0.16513094096779823,0.1338080203346908
1733860840885610200,0.2686103515625,-0.5112275208950042,0.27500308218076824,0.1625160822942853
1733860840895561500,0.2785615234375,-0.4938391637206077,0.4387906457155943,0.07477116334587335
1733860840905512400,0.288512451171875,-0.6170382578879594,0.5792109237968921,-0.1885489336952567
1733860840915463400,0.29846337890625,-0.8047942876398563,0.5512766226887703,-0.3863851895652711
1733860840925413400,0.308413330078125,-0.8640221371561289,0.4202686083361506,-0.5380098754890262
1733860840935364600,0.318364501953125,-0.7950561529576778,0.3252950533084571,-0.6686556324005126
1733860840945315300,0.3283154296875,-0.7108481759637594,0.3126166273906827,-0.7970876587852835
1733860840955266600,0.3382666015625,-0.570930586707592,0.350612742177397,-0.770928258395195
1733860840965216500,0.348216552734375,-0.41457507286965845,0.43125908116698264,-0.6221779588639735
1733860840975167500,0.35816748046875,-0.22904373342990875,0.708521486581862,-0.5257378384150564
1733860840985118500,0.368118408203125,-0.16576982339322566,1.058582878486812,-0.36741014772132036
1733860840995069400,0.3780693359375,-0.14927578471004962,0.7760885637678205,0.17489684043973683
1733860841005020400,0.3880205078125,-0.06950608242452144,0.49199718911573287,0.26003786050006744
1733860841014970600,0.397970703125,-0.2821364411920309,0.5005623344957828,-0.11571283006519079
1733860841024921300,0.40792138671875,-1.0272726712048053,0.9013054274983704,0.1392133865095675
1733860841034872600,0.41787255859375,-0.08887304619550704,0.8518168817080557,1.2347029771111906
1733860841044823300,0.4278232421875,0.5325619853466749,0.5337969339691102,1.3175287059664726
1733860841054773200,0.437773193359375,0.5967921731948852,0.24741233381330965,0.4105388030909002
1733860841064724500,0.447724365234375,0.3219289378762245,0.019433307005465028,-0.21139146462231873
1733860841074675200,0.45767529296875,0.035947511693835255,-0.04017112073823809,-0.4990231422297656
1733860841084626400,0.46762646484375,-0.12485621372461318,0.015759733059257267,-0.699703681614995
1733860841094577700,0.47757763671875,-0.23069325420260428,0.1623622069068253,-0.8801185548238456
1733860841104527400,0.48752734375,-0.34489188031256196,0.26935820816159245,-0.9805701028712093
1733860841114478300,0.497478271484375,-0.36508886516690253,0.3448185228154063,-0.9939296429209411
1733860841124429600,0.5074296875,-0.2874731260448694,0.41547757466733454,-0.9243654005683958
1733860841134380300,0.51738037109375,-0.22625965566933154,0.4488981982320547,-0.8023278975263237
1733860841144330500,0.52733056640625,-0.23325287555754184,0.4864873396530747,-0.6101715869888663
1733860841154281500,0.537281494140625,-0.1263058280110359,0.5192239264763892,-0.465320925244689
1733860841164232400,0.547232421875,-0.23825872102081774,0.4672317273020744,-0.2896519313886762
1733860841174183400,0.557183349609375,-0.35513504190742967,0.44855683744847774,-0.15067892950624226
1733860841184134400,0.567134521484375,-0.38961891078948974,0.46011458877325057,-0.08533332776203752
1733860841194084400,0.57708447265625,-0.48021220490634436,0.45029345198273657,-0.11400602614730596
1733860841204035600,0.58703564453125,-0.5203904860377312,0.416922951170057,-0.1773721445120871
1733860841213986300,0.596986328125,-0.5614151548653841,0.3861711084231734,-0.257315376733616
1733860841223937500,0.6069375,-0.5474462507456541,0.3963832903578877,-0.3034794542763382
1733860841233888500,0.616888427734375,-0.4670376660346985,0.44672275388911364,-0.33319786232225596
1733860841243838500,0.62683837890625,-0.4046510602265596,0.4949339732199907,-0.39735418121665717
1733860841253789400,0.63678955078125,-0.3734259008795023,0.4771266599811613,-0.5107698402553796
1733860841263740400,0.646740478515625,-0.24714812991917132,0.405957758910954,-0.6691736649252474
1733860841273691400,0.65669140625,-0.07115618771910667,0.2947146216057241,-0.7645232136584817
1733860841283641300,0.666641357421875,-0.009613046997785568,0.18153174840956926,-0.7729887711215764
1733860841293592600,0.676592529296875,-0.11203940224945544,0.1435894096367061,-0.747613726042211
1733860841303543300,0.686543212890625,-0.17794482983350754,0.22209654464051126,-0.6974819869775325
1733860841313494500,0.69649462890625,-0.24784955618679522,0.3116873837165534,-0.6381785880070179
1733860841323445200,0.7064453125,-0.2684410933166742,0.42376404923647637,-0.5369711800910533
1733860841333395500,0.7163955078125,-0.023791794475913047,0.5432898617185652,-0.45382842117585237
1733860841343346400,0.726346435546875,0.23323066372573376,0.5493795568957924,-0.3235633341450244
1733860841353297400,0.73629736328125,0.37418928646743294,0.4518028336323797,-0.1244040860429406
1733860841363248400,0.746248291015625,0.5071639247179031,0.3989883582897484,0.06372618384882807
1733860841373198600,0.756198486328125,0.6879033537060022,0.36920915996730325,0.24917758992016315
1733860841383149300,0.7661494140625,0.7926958535671234,0.2903590567447245,0.4504550722852349
1733860841393100500,0.7761005859375,0.7880792996823788,0.18034268475547433,0.6284573313944042
1733860841403051300,0.78605126953125,0.6883966901808977,0.02913812393993139,0.7209881694450974
1733860841413002500,0.79600244140625,0.5891179853051901,-0.13985241506546736,0.7378918118424713
1733860841422952400,0.805952392578125,0.49828679077923294,-0.33854134224206206,0.6608274229928851
1733860841432903400,0.8159033203125,0.3808411455720663,-0.49293330092206594,0.5347825840055942
1733860841442854400,0.8258544921875,0.2709305720448494,-0.6603197657316923,0.403929979410395
1733860841452805600,0.8358056640625,0.10927286014556885,-0.8151512848727405,0.24458156736679373
1733860841462755300,0.84575537109375,-0.0519184032857418,-0.9077988811708986,0.07782799363322555
1733860841472706300,0.855706298828125,-0.1921504653185606,-0.9125782244019209,-0.0800884128458798
1733860841482657500,0.865657470703125,-0.2589315066933632,-0.8561440972574055,-0.21808825884722172
1733860841492608500,0.8756083984375,-0.25997780087590217,-0.7690794156581163,-0.30679931941404937
1733860841502559500,0.8855595703125,-0.23665479295551775,-0.6648341744162142,-0.33138248346336185
1733860841512509400,0.895509521484375,-0.1892822164058685,-0.5419562750272453,-0.32409554132558405
1733860841522460400,0.90546044921875,-0.12583879502117634,-0.4785393032580614,-0.2442126609891653
1733860841532411400,0.915411376953125,0.029076456880569455,-0.41326472092345357,-0.11074008315391838
1733860841542362400,0.9253623046875,0.21816461201906204,-0.3630184886336326,0.08589527249373495
1733860841552312300,0.935312255859375,0.38410686936974525,-0.30473069644644857,0.35209501662440595
1733860841562263600,0.945263671875,0.5222328990340233,-0.3217291775204241,0.5572980018701404
1733860841572214300,0.95521435546875,0.616136340612173,-0.3692265494935214,0.7262459438428283
1733860841582168600,0.96516845703125,0.6351584364682435,-0.3739382343158126,0.8392546295158565
1733860841592119800,0.975119873046875,0.6023544834971427,-0.4115487107858062,0.9279843217179179
1733860841602069500,0.985069580078125,0.574089927521348,-0.44484030114337797,0.9858137026131153
1733860841612020500,0.9950205078125,0.5489046328604221,-0.45668373754173514,0.9898889161627739
1733860841621971700,1.0049716796875,0.5029501064151525,-0.49295434371009467,0.9602036066688596
1733860841631922400,1.01492236328125,0.4300485363334417,-0.5876658868007362,0.9683463619183749
1733860841641872600,1.02487255859375,0.37879473443627354,-0.6544811227060854,1.0274114220883697
1733860841651823600,1.03482373046875,0.2880219920992851,-0.7008902610510588,1.165568358347565
1733860841661774600,1.044774658203125,0.19985446382462976,-0.6806674111030996,1.3368122292377054
1733860841671725600,1.0547255859375,0.12059154201745986,-0.6548094778776169,1.4533704240858554
1733860841681676500,1.064676513671875,0.07184650807082653,-0.6476894167393445,1.524159239797294
1733860841691626500,1.07462646484375,-0.009018003714084625,-0.6068588091790675,1.5376009051725268
1733860841701577700,1.08457763671875,-0.06629764177203178,-0.5645113673150539,1.4795233947351574
1733860841711528400,1.094528564453125,-0.13583821098804474,-0.5502127928495407,1.3714958584755659
1733860841721479700,1.104479736328125,-0.17696458662450312,-0.5436769613400101,1.2654279318511485
1733860841731429600,1.1144296875,-0.19154665420651434,-0.5178869787842035,1.1446143445808439
1733860841741380600,1.124380615234375,-0.2265185988664627,-0.5016796480879188,1.046476114977151
1733860841751331600,1.13433154296875,-0.29752573350369926,-0.4561168974392116,1.015935576893389
1733860841761282600,1.144282470703125,-0.38292905776202674,-0.3623587095506489,1.0210176293980329
1733860841771233500,1.154233642578125,-0.43976796631515025,-0.2454959787979722,1.027110320249945
1733860841781183700,1.164183837890625,-0.4654927746802568,-0.1740966299727559,0.9715009534917771
1733860841791134700,1.174134765625,-0.464587934795022,-0.1390825997367501,0.8300188913978636
1733860841801085700,1.184085693359375,-0.4477659793317318,-0.14054463511332868,0.6504885459385812
1733860841811036700,1.19403662109375,-0.3975362597852945,-0.13894655226692557,0.4131085074484348
1733860841820987600,1.203987548828125,-0.39303076505959034,-0.14714081850796937,0.16374920428581535
1733860841830937600,1.2139375,-0.4377209706574678,-0.1778117049731314,-0.09043219440416432
1733860841840888600,1.223888671875,-0.4139619094073772,-0.2573999862771481,-0.3486652248388156
1733860841850839600,1.233839599609375,-0.4002145390838384,-0.2935045882288366,-0.6086274628194048
1733860841860790500,1.24379052734375,-0.33382571189701554,-0.2995456219587475,-0.8509211749773472
1733860841870740700,1.25374072265625,-0.22509937971830365,-0.26590024972744286,-1.0913700995188205
1733860841880691500,1.26369140625,-0.13802724546492098,-0.1797146890502423,-1.2807220932252705
1733860841890642700,1.273642578125,-0.12141279527246951,-0.040504079019650814,-1.4193538804545998
1733860841900593400,1.283593505859375,-0.07784487170279025,0.11046550399623811,-1.5001029491662978
1733860841910544600,1.293544677734375,-0.022146949878334998,0.25051168806813656,-1.4909129498861728
1733860841920494600,1.30349462890625,0.007649053448438644,0.38486857445724304,-1.38238447836712
1733860841930445600,1.313445556640625,0.09979191509485244,0.5562759653460234,-1.1197921110786497
1733860841940396500,1.323396484375,0.2639765151232481,0.6968322908971458,-0.7588261710606515
1733860841950347800,1.33334765625,0.45756022811532016,0.7695465947784483,-0.456861468728818
1733860841960297500,1.34329736328125,0.6265922681748867,0.7755024344429373,-0.22342848736401646
1733860841970248700,1.353248779296875,0.6997095268338919,0.7372431386753916,-0.09785356744341552
1733860841980199700,1.36319970703125,0.7328080788373946,0.6702544458992779,-0.059240161008574065
1733860841990150700,1.373150634765625,0.6875853737980127,0.591242430113256,-0.10237535571679472
1733860842000101600,1.3831015625,0.6406804147601127,0.537898889395222,-0.14006883429512382
1733860842010051600,1.393051513671875,0.6277016907215118,0.4694367995982989,-0.1517329320712015
1733860842020002600,1.40300244140625,0.6073258421689272,0.4177673661049455,-0.1150026725018397
1733860842029953800,1.412953857421875,0.547942509829998,0.360275510068424,-0.06101677875965833
1733860842039904500,1.422904541015625,0.43503275448679923,0.3231584796711802,0.014793664506077766
1733860842049854500,1.4328544921875,0.34911914261877536,0.25084435408860445,0.03877542859613895
1733860842059805700,1.4428056640625,0.2537158178716898,0.16185604748297483,-0.014852482021227478
1733860842069756400,1.45275634765625,0.12105915952920913,0.008540814656391739,-0.14067103797197342
1733860842079707600,1.462707763671875,0.03556172724664211,-0.12153116095513104,-0.34419659152477977
1733860842089658600,1.47265869140625,-0.03736030110120773,-0.1819159802204929,-0.49925556274615224
1733860842099608600,1.482608642578125,-0.09555354687273501,-0.2263073307359591,-0.5250332703422754
1733860842109559600,1.4925595703125,-0.12571604542434214,-0.26206127435276283,-0.4293401688683778
1733860842119510500,1.502510498046875,-0.10687748944163322,-0.2648504301472567,-0.2371256253376603
1733860842129461500,1.51246142578125,-0.04697685523033142,-0.23368713878896086,0.013759718348458409
1733860842139412700,1.522412841796875,0.02543605455160141,-0.23105702774738893,0.21615685239322482
1733860842149362700,1.53236279296875,0.1292985800862312,-0.2705727350505069,0.36267888141572474
1733860842159313700,1.542313720703125,0.17098258960545062,-0.253112865276169,0.4649707966327667
1733860842169264600,1.5522646484375,0.19229250413775442,-0.2315918835427612,0.4953794519651681
1733860842179215600,1.562215576171875,0.21309972984492778,-0.19126243043765426,0.547534586616233
1733860842189165600,1.57216552734375,0.1841372547328472,-0.1896807690030895,0.6309696795415133
1733860842199116800,1.58211669921875,0.11720423766672611,-0.16973125610379503,0.7081541145741939
1733860842209067500,1.592067626953125,0.07271393855512141,-0.13419407877651973,0.7650719335824251
1733860842219018800,1.602018798828125,0.06156885968446731,-0.13282165791215375,0.7838660659015179
1733860842228969500,1.611969482421875,0.02553133161962032,-0.16405288167381657,0.7304007254347205
1733860842238919400,1.62191943359375,-0.04427110340297222,-0.19371948646726087,0.6610691227942704
1733860842248870700,1.63187060546875,-0.06199380709826946,-0.20162123603513463,0.5762465940985828
1733860842258821400,1.6418212890625,-0.1127998652279377,-0.21291310296533628,0.45313561660610135
1733860842268772600,1.651772705078125,-0.16140052226781845,-0.21318439418738708,0.3070532941751182
1733860842278722600,1.66172265625,-0.1926677671909332,-0.20437908337591215,0.15878054902777075
1733860842288673500,1.671673583984375,-0.25775077247619627,-0.16575278092687948,0.026650398777425286
1733860842298624500,1.68162451171875,-0.2807932098895311,-0.1356213168343529,-0.09512173132672905
1733860842308575700,1.69157568359375,-0.26485446700155735,-0.1342090023510158,-0.22316811939477918
1733860842318526500,1.7015263671875,-0.22442893311083315,-0.1110311385223642,-0.34178032416328785
1733860842328476700,1.7114765625,-0.14794249027967452,-0.10264058252424,-0.3998683559946716
1733860842338427600,1.721427734375,-0.08387012334167956,-0.07227956572584808,-0.38782399019673464
1733860842348378600,1.731378662109375,0.007898644295334815,-0.03009235592484474,-0.3282408975020051
1733860842358329600,1.74132958984375,0.11471768154799937,-0.018925887206289915,-0.24713395526334642
1733860842368279800,1.75127978515625,0.17108721902370452,-0.028247769237775354,-0.20206205687150358
1733860842378230500,1.76123046875,0.21111878516077995,-0.019718078763596714,-0.1399634742245078
1733860842388181800,1.771181640625,0.23387656041383742,0.017883483747579157,-0.07138429738655686
1733860842398132500,1.781132568359375,0.29330490093827244,0.07831234308406711,0.019894348645955323
1733860842408083700,1.791083740234375,0.34361645354926584,0.14163613841077313,0.1321865566127002
1733860842418033700,1.80103369140625,0.3622708851367235,0.23105850731842217,0.20676862712725996
1733860842427984600,1.810984619140625,0.3100432697713375,0.3344762116950005,0.231271930873394
1733860842437935600,1.820935546875,0.22128420534431933,0.4676953627584502,0.20896058421358465
1733860842447886600,1.830886474609375,0.05164367799758911,0.6142004771787672,0.09806976747736335
1733860842457836500,1.84083642578125,-0.17129998499155044,0.7404105166651308,-0.06212590904533863
1733860842467787500,1.85078759765625,-0.38693887792527676,0.8626941764879972,-0.32804888206124305
1733860842477738500,1.860738525390625,-0.6448591617494821,0.9340616688702255,-0.6603725188322365
1733860842487689500,1.870689453125,-0.7019073291391134,0.9959852602764964,-1.030106433326006
1733860842497640700,1.880640625,-0.5294961680352688,1.0250659549407661,-1.3533186890110374
1733860842507590700,1.890590576171875,-0.23484803579449653,0.9603148850236087,-1.485735254987329
1733860842517541600,1.900541748046875,0.023052374285459518,0.851291250398755,-1.4372935879014432
1733860842527492600,1.91049267578125,0.15006313569545746,0.6674889267086982,-1.221296383049339
1733860842537443600,1.920443603515625,0.1939589760452509,0.4381865058099851,-0.8871924387328326
1733860842547394600,1.93039453125,0.18215338743925094,0.24488771070651708,-0.5601422123201191
1733860842557344800,1.9403447265625,0.12589374007880688,0.07605831707958131,-0.31777883245944977
1733860842567295500,1.95029541015625,0.09258592923879623,-0.036067137751821424,-0.08121157165691256
1733860842577246700,1.960246826171875,0.10566869817376136,-0.07542082289364188,0.1342677468009293
1733860842587193900,1.97019384765625,0.12212065128087997,-0.12582345132157205,0.25272052322402594
1733860842597143800,1.980143798828125,0.17255261540114877,-0.23164847256820648,0.2725866686888039
1733860842607095000,1.990094970703125,0.20449907476007936,-0.36804658246133476,0.26782076946124433
1733860842617045800,2.000045654296875,0.20773615698516368,-0.4727707663265988,0.308396525477618
1733860842626997000,2.0099970703125,0.18407471089065075,-0.5512195952719077,0.3505979829996824
1733860842636948000,2.019947998046875,0.17536007403731346,-0.6027419484447688,0.3907715879559517
1733860842646898000,2.02989794921875,0.09629530515074729,-0.6479995056018233,0.4270929013982415
1733860842656849000,2.039848876953125,0.026782208463549614,-0.7106668280474842,0.4570036171458661
1733860842666800000,2.049800048828125,-0.01946808605790138,-0.761846687925607,0.5009763221241533
1733860842676750800,2.059750732421875,-0.05226444024443626,-0.8066242795459926,0.5638286457478999
1733860842686701000,2.069701171875,-0.0599397971779108,-0.8213216440707445,0.5986684884607791
1733860842696652000,2.079652099609375,-0.09003799832165241,-0.8172098248377442,0.5724503436207771
1733860842706603000,2.08960302734375,-0.11591302881240845,-0.8249880576238036,0.4601353393003344
1733860842716554000,2.099553955078125,-0.11984218495488166,-0.8172107016205787,0.33885639954060315
1733860842726505000,2.1095048828125,-0.08643032921850681,-0.752667429235205,0.21838234642297027
1733860842736455000,2.119454833984375,-0.05210486576855183,-0.6502437773972749,0.09821502116695045
1733860842746406100,2.12940625,-0.025796120035648344,-0.5930955106340349,-0.015536737958341837
1733860842756356900,2.13935693359375,0.037166824355721474,-0.5288246619818732,-0.10619856726676224
1733860842766308000,2.14930810546875,0.08885551053881645,-0.4965771373171359,-0.18830621098056435
1733860842776258000,2.159258056640625,0.06983224563896656,-0.4844365446031093,-0.25571064495071766
1733860842786208800,2.169208740234375,0.029247721794247627,-0.44256731471009547,-0.3009673983901739
1733860842796160000,2.179159912109375,-0.03588555237352848,-0.3591411357436329,-0.32202465333566066
1733860842806111000,2.189111083984375,-0.07652034510076046,-0.26077180079780515,-0.3072762892760336
1733860842816062000,2.19906201171875,-0.11047346810698508,-0.11924034660421311,-0.29635771263763305
1733860842826012000,2.209011962890625,-0.1449322025477886,-0.02381970539614558,-0.27881153455302116
1733860842835963100,2.218963134765625,-0.18564415216445923,0.0338273777347058,-0.24783421248719095
1733860842845913900,2.228913818359375,-0.20220248825550077,0.10638473748862742,-0.21185995891690254
1733860842855865000,2.238864990234375,-0.20326982522606848,0.13462335530556738,-0.17423063161596655
1733860842865815800,2.24881591796875,-0.1823158845245838,0.15791691793575882,-0.17249050995036957
1733860842875766000,2.25876611328125,-0.13771978695094583,0.14867723429501056,-0.16590075629651546
1733860842885717000,2.268717041015625,-0.10255787267684936,0.17949958499483762,-0.15792670867741107
1733860842895668000,2.27866796875,-0.08131342459619045,0.2497901688605547,-0.13177286124527454
1733860842905619000,2.288618896484375,-0.06893149740695953,0.29664924293011424,-0.074579732427001
1733860842915569200,2.298569091796875,-0.06437690284252166,0.3329169995542616,0.00851341519281268
1733860842925520000,2.308519775390625,-0.03021510552167892,0.35520854553505776,0.08442439622357487
1733860842935471000,2.31847119140625,-0.005047346517443657,0.3449171608842909,0.12961217608004807
1733860842945421800,2.328421875,0.0020966800183057784,0.35843240295238793,0.16235285455659032
1733860842955373000,2.338373046875,0.0002069207489490509,0.3378801749195903,0.16490458486601708
1733860842965323000,2.348322998046875,-0.0021709142982959746,0.31187932609207925,0.15355784594342112
1733860842975274000,2.35827392578125,-0.015770400583744047,0.2789304116923362,0.1282857497818768
1733860842985225000,2.368224853515625,0.004721767824888229,0.232063154316321,0.0950194399960339
1733860842995176200,2.37817626953125,-0.01561959393620491,0.20667970673479139,0.043629152237623925
1733860843005126000,2.3881259765625,-0.04114624938070774,0.18376878674663602,-0.02135623789206147
1733860843015076900,2.398076904296875,-0.044350013858079906,0.16076785038746894,-0.08291428392156958
1733860843025028000,2.408028076171875,-0.06406067650020122,0.13984415869377553,-0.16462722922936082
1733860843034978800,2.417978759765625,-0.07259878774285317,0.12657120094895363,-0.234735223069787
1733860843044930000,2.427929931640625,-0.08383739011585711,0.09696626321487128,-0.30419015982896086
1733860843054880000,2.4378798828125,-0.09776946935653685,0.1025750430073589,-0.35670974387824533
1733860843064831000,2.4478310546875,-0.08329787641167641,0.09834186241701244,-0.3707628191500902
1733860843074782000,2.457781982421875,-0.04234510377645492,0.08537110248915851,-0.3950663625404238
1733860843084733000,2.46773291015625,0.0006692775636911391,0.08697451909780501,-0.4049498970426619
1733860843094684000,2.477683837890625,0.002554360657930374,0.09185418089814483,-0.4430513718999922
1733860843104634000,2.487634033203125,0.03104921825826168,0.0960354851707816,-0.47617739643231033
1733860843114584800,2.497584716796875,0.03985679409205913,0.10559417163282632,-0.5137430108472705
1733860843124536000,2.5075361328125,0.05005845463275909,0.07949694975875318,-0.5037605460152029
1733860843134487000,2.517487060546875,0.027875848919153214,0.057263344510272145,-0.49611441517621274
1733860843144437000,2.52743701171875,-0.015991349858045577,0.06656754475459456,-0.48157501769214867
1733860843154388000,2.537387939453125,-0.01615735407471657,0.05348229160159826,-0.4716710249237716
1733860843164339000,2.5473388671875,-0.016683423775434494,0.017969298867508768,-0.4695953876934945
1733860843174290000,2.5572900390625,-0.014750994408130646,-0.011966405190899967,-0.43963571823760866
1733860843184241200,2.5672412109375,0.004805354455113411,-0.04685651678629219,-0.42485462095215915
1733860843194191000,2.577191162109375,-0.013988777863979339,-0.064730173259601,-0.39004181237667795
1733860843204142000,2.58714208984375,-0.031007132682204244,-0.052148412649333474,-0.35113501248583195
1733860843214093000,2.597093017578125,-0.045344285592436785,-0.013525252005457877,-0.22206527271941304
1733860843224044000,2.6070439453125,-0.0574041412204504,0.02219166580289602,-0.12048004446700214
1733860843233994000,2.616993896484375,-0.06590133593082427,0.014294409747049212,-0.04075125871375203
1733860843243945000,2.626945068359375,-0.09047054452002048,0.01762684210538864,0.051217123148590324
1733860843253896000,2.63689599609375,-0.113797059571743,0.04181370031349361,0.11081599793434142
1733860843263847000,2.646846923828125,-0.10518588309288024,0.030868162602931258,0.15105521547272802
1733860843273798000,2.6567978515625,-0.09315408451557158,0.04167005405910313,0.1709822973445058
1733860843283747800,2.666747802734375,-0.09068155692219734,0.07024652552828192,0.20749226522669195
1733860843293699000,2.676698974609375,-0.06721417209506035,0.08619162509180604,0.24063144150152802
1733860843303649800,2.68664990234375,-0.06839432179033755,0.08351846035979688,0.25951734375730157
1733860843313601000,2.69660107421875,-0.05231821625828743,0.07156586449854076,0.2751836994446814
1733860843323552000,2.706552001953125,-0.020710195073485375,0.04931603876762092,0.29953181262910367
1733860843333502000,2.716501953125,0.022669512447714806,0.009902823724597692,0.2904173628032207
1733860843343453000,2.726452880859375,0.0529816486030817,-0.009077478816360235,0.27073621851652857
1733860843353404200,2.736404052734375,0.05797872623801231,-0.03171805743053555,0.24591025868728755
1733860843363355000,2.74635498046875,0.07227905426919459,-0.04523176512867212,0.24965076038986442
1733860843373305000,2.75630517578125,0.03763385734558105,-0.0435742802452296,0.19337386963367462
1733860843383256000,2.766256103515625,0.011074936243891715,-0.025860271313041448,0.15785145148411392
1733860843393207000,2.77620703125,-0.006819616886973381,-0.01080810200124979,0.07914499451592565
1733860843403158000,2.786157958984375,-0.033142391145229336,0.0052727527711540455,0.023163287314027548
1733860843413109000,2.79610888671875,0.004338321465253829,0.02262121632657945,-0.014610416893661021
1733860843423059000,2.806058837890625,0.014458148941397667,0.03393821769803762,-0.05247501425519585
1733860843433010000,2.816010009765625,0.025008184528350828,0.04176204319149256,-0.0854318197004497
1733860843442961000,2.8259609375,0.031246786656975743,0.05017966985963285,-0.1282782971277833
1733860843452912000,2.835912109375,0.01931084966957569,0.07218750352822244,-0.13641513409316539
1733860843462862000,2.845862060546875,-0.009349427625536918,0.0715513245165348,-0.16801365679726005
1733860843472812800,2.855812744140625,-0.0396317531645298,0.10094247336946427,-0.19308292386308312
1733860843482764000,2.865763916015625,-0.05555588300526142,0.10346307788826524,-0.22923355691358446
1733860843492715000,2.875715087890625,-0.07124269695878029,0.0792379334963858,-0.27659122815504666
1733860843502666000,2.885666015625,-0.06698737760186195,0.05855389577746391,-0.30814386589080095
1733860843512616000,2.895615966796875,-0.052175008395314214,0.03702273970991373,-0.32731574548110365
1733860843522567000,2.90556689453125,-0.028925065711140632,0.011269289772212504,-0.3167921595096588
1733860843532518000,2.915517822265625,-0.010369418323040008,-0.00044854748509824276,-0.2828380135901272
1733860843542469000,2.92546923828125,-0.003053542351722717,-0.014276947155594825,-0.2490282445773482
1733860843552419000,2.935419189453125,-0.011046294671297073,-0.033563758362457154,-0.19279621587619183
1733860843562370000,2.9453701171875,-0.010197568887472152,-0.07245828329361975,-0.13259776776209473
1733860843572321000,2.955321044921875,-0.02987491378188133,-0.07741612489670514,-0.11631503374204039
1733860843582272000,2.96527197265625,-0.05599836607575416,-0.08024287275522947,-0.13847089757919312
1733860843592223200,2.97522314453125,-0.11723638637065886,-0.057500075875595205,-0.15465996196642517
1733860843602173200,2.985173095703125,-0.19264555535912511,-0.002295928917452693,-0.1205756137959659
1733860843612124200,2.995124267578125,-0.1819371143400669,0.054453547786548734,-0.08363149228021502
1733860843622075100,3.0050751953125,-0.09242810832858085,0.1019647290892899,0.002068330706655979
1733860843632026000,3.015026123046875,-0.006574117693305015,0.11068681859672069,0.10341711985468864
1733860843641977000,3.02497705078125,0.06410217755436896,0.07733947946391999,0.17472572165653108
1733860843651927000,3.034927001953125,0.11884791322052478,0.029344533232226966,0.21010975424870848
1733860843661878000,3.0448779296875,0.12224807705283164,-0.014142872447147965,0.19379589443802833
1733860843671829000,3.0548291015625,0.10351356596648692,-0.007822364188730717,0.17380422289744019
1733860843681780200,3.0647802734375,0.10022387677133082,-0.007516001653298735,0.1301869072280824
1733860843691730000,3.07472998046875,0.08126841641068458,-0.014569061969965696,0.09645166475623845
1733860843701681200,3.08468115234375,0.08602467102706432,-0.008871288719773293,0.04759162612780928
1733860843711632100,3.094632080078125,0.05624211170375347,-0.0139729957729578,-0.02327346969023347
1733860843721583000,3.1045830078125,0.0647936669498682,-0.02787394922301173,-0.09454612339586019
1733860843731534000,3.1145341796875,0.06541968989372253,-0.021439751457050443,-0.14871771243587134
1733860843741484300,3.124484375,0.06684943043589592,0.0005056114345788955,-0.18919409973099827
1733860843751435000,3.13443505859375,0.05189736049771308,0.024815146174281835,-0.19807941697612402
1733860843761386200,3.14438623046875,0.03194236770570278,0.04849668520875275,-0.1754090277455747
1733860843771337000,3.1543369140625,0.017269699230790136,0.03921740020997822,-0.17168752300441265
1733860843781287200,3.164287109375,0.017303016978502273,0.029699045758321878,-0.16352233672738073
1733860843791238100,3.174238037109375,0.009932195949554443,-0.0200838798686862,-0.15767872526571153
1733860843801189000,3.184189208984375,0.01147474921643734,-0.04142901184484362,-0.16035101321488618
1733860843811140000,3.19414013671875,0.0027881694138050077,-0.04807254151254892,-0.15816285552084444
1733860843821091000,3.204091064453125,-0.02950549594759941,-0.045338951830193396,-0.14325287115871904
1733860843831041000,3.214041015625,-0.01927519383430481,-0.03753178521059453,-0.09507365440130233
1733860843840992300,3.2239921875,-0.025791443860530852,-0.014543269941583274,-0.03802621766403317
1733860843850943000,3.23394287109375,-0.05612228471636772,0.0020054946035146714,0.022241350163519382
1733860843860894200,3.243894287109375,-0.05078910699486732,0.004271320643648505,0.07793401129096746
1733860843870845200,3.25384521484375,-0.057169747942686075,0.0011392331629991531,0.08462138010039925
1733860843880795000,3.263794921875,-0.06426818177103996,-0.03413702820576727,0.07073430904522537
1733860843890746000,3.27374609375,-0.07314239310026169,-0.0629641865003854,0.04657499643117189
1733860843900697000,3.283697021484375,-0.06398176604509354,-0.10158712794855236,0.04049567651748657
1733860843910648000,3.29364794921875,-0.06257657542228698,-0.1031677482035011,0.03418634724020958
1733860843920598000,3.303597900390625,-0.05569909086823463,-0.10776676643155514,0.006240940216183662
1733860843930549200,3.31354931640625,-0.03915302973687648,-0.1161760636627674,-0.007931669782102108
1733860843940500000,3.3235,-0.044787236231565476,-0.09436550613194704,-0.006209522164613008
1733860843950451200,3.333451171875,-0.023600071296095846,-0.09126870916038751,-0.03847863760665059
1733860843960402000,3.34340185546875,-0.020526070678234098,-0.05826156176738441,-0.08591755739077925
1733860843970352000,3.35335205078125,0.009905892464518546,-0.045121144361048936,-0.1243811435587704
1733860843980303000,3.36330322265625,0.03898527195453644,-0.03212795340567827,-0.1502105813421309
1733860843990254000,3.373254150390625,0.06293605638444423,-0.022191738868132232,-0.15102788907438516
1733860844000205000,3.383205078125,0.06999708081185817,-0.005768865725025534,-0.13745572918727994
1733860844010156000,3.393156005859375,0.05507949766516685,0.014869725416973232,-0.10599266943112015
1733860844020106000,3.40310595703125,0.04806991116404533,0.04118672752156854,-0.049279433084279296
1733860844030057200,3.41305712890625,0.03756429924070835,0.08913345069736242,-0.0034641689792275425
1733860844040008200,3.42300830078125,0.03868950387835502,0.10010448817536234,0.03023600217923522
1733860844049959200,3.432959228515625,0.03409749991297722,0.11264321336150168,0.05628112853989005
1733860844059909000,3.4429091796875,0.030907179439067838,0.12889357948191463,0.07845861968696118
1733860844069860000,3.452860107421875,0.015486322945356368,0.1328945587515831,0.07641323146447539
1733860844079811000,3.46281103515625,0.014338906475901603,0.14286387184113264,0.049167204881459474
1733860844089762300,3.47276220703125,-0.01294131463766098,0.16815226155035196,0.05207900067493319
1733860844099713000,3.482713134765625,-0.02759527841210365,0.17630765708573162,0.03417494906336069
1733860844109663000,3.4926630859375,-0.04052548713386059,0.20188487367369234,0.0160623692676425
1733860844119614200,3.5026142578125,-0.07261632339954376,0.20331490647681055,-0.016118775629997254
1733860844129565000,3.51256494140625,-0.09455167635381222,0.16791494566313922,-0.04450374311506748
1733860844139516200,3.52251611328125,-0.11485445967018604,0.11698036578297615,-0.07933408734723925
1733860844149466000,3.532466064453125,-0.09278408215939998,0.07184818857125938,-0.11766454865485429
1733860844159417000,3.5424169921875,-0.0665408028781414,0.02202441947720945,-0.16620046989545226
1733860844169368000,3.5523681640625,-0.04206453326940536,-0.01673734591975808,-0.1885664693519473
1733860844179319000,3.562319091796875,-0.02557809337079525,-0.010475728241726755,-0.18631255294531582
1733860844189270000,3.57227001953125,-0.016841244685649872,0.0033086130913347004,-0.17793635426610707
1733860844199220200,3.58222021484375,-0.0503805261939764,0.01560461556278169,-0.19034750754982233
1733860844209171000,3.5921708984375,-0.03509820138812065,0.04553966203406453,-0.1696370202153921
1733860844219122200,3.6021220703125,-0.0032329905718564986,0.06239793091975152,-0.15962459863647818
1733860844229073200,3.6120732421875,0.024779051947593687,0.04899104459695518,-0.15819164322391152
1733860844239023000,3.622023193359375,0.06565992839038372,0.018262874986603856,-0.13913856770768762
1733860844248974000,3.63197412109375,0.08993161533772945,0.016834303488209842,-0.08888298306763172
1733860844258925300,3.64192529296875,0.09894260478913783,-0.007905439362302423,-0.031191110946983097
1733860844268876000,3.6518759765625,0.06558803219795227,-0.027284239701554178,-0.003919511531293392
1733860844278827300,3.6618271484375,0.04020750722587108,-0.04029788892306387,0.0182712774887681
1733860844288777200,3.671777099609375,0.0620224486708641,0.01652151121199131,0.050733723545819516
1733860844298728000,3.68172802734375,0.0906482391744852,0.04148695257715881,0.011672609876096248
1733860844308679200,3.69167919921875,0.11038812791109084,-0.012205766904726623,-0.057336044420301914
1733860844318630100,3.701630126953125,0.12235329099297523,-0.09132204678282141,-0.10453852510005235
1733860844328581000,3.7115810546875,0.07084405303001404,-0.12409940400794148,-0.15455094863399862
1733860844338531000,3.721531005859375,0.019804770666360855,-0.07411715641655027,-0.19671382771134374
1733860844348482000,3.73148193359375,-0.05642974323034286,0.017489844787493346,-0.20263547284528613
1733860844358433000,3.74143310546875,-0.08344809853732585,0.11288403638005257,-0.17590704039558766
1733860844368384000,3.751384033203125,-0.11652560775279998,0.13015161671899259,-0.14086524536982178
1733860844378334000,3.761333984375,-0.10754442891776561,0.10281557376496493,-0.04514978593364358
1733860844388285200,3.77128515625,-0.12929390391111373,0.026149828844144938,0.08900675557777285
1733860844398236200,3.781236083984375,-0.11961480593979358,-0.04670812129154801,0.22323913880437612
1733860844408187100,3.791187255859375,-0.1382791743993759,-0.06905987302698195,0.32267201132848855
1733860844418138000,3.80113818359375,-0.12883446970582008,-0.0688631083458662,0.37567923276424403
1733860844428088000,3.811088134765625,-0.10130231965780258,-0.07064779980555176,0.38498102185577154
1733860844438039000,3.8210390625,-0.09438391857147216,-0.06854753959067166,0.3217426215238869
1733860844447990300,3.830990234375,-0.07179214753508567,-0.042615372085198756,0.1800076075822115
1733860844457941000,3.84094091796875,-0.07092120991945267,-0.033913813909143206,0.03139847008734941
1733860844467891200,3.85089111328125,-0.024009821140766142,-0.030301176369935272,-0.11679945625811815
1733860844477842200,3.86084228515625,0.02504033323228359,0.005902428976818919,-0.21618556703105568
1733860844487793200,3.870793212890625,0.07520809345841407,0.04832805064357817,-0.2651433669455349
1733860844497744100,3.880744140625,0.10333353322446345,0.08653079391829668,-0.2792186540491879
1733860844507695000,3.890695068359375,0.12120178287029265,0.1061226524863392,-0.2693232829786837
1733860844517645000,3.90064501953125,0.13065642443597317,0.08881371722370386,-0.22803265669122336
1733860844527596000,3.910595947265625,0.12650398093163967,0.04639299092777073,-0.2153175520248711
1733860844537547000,3.920547119140625,0.09324000923335551,0.001324672732502222,-0.19621946832314133
1733860844547498000,3.930498046875,0.07063070254027844,-0.03313048151172698,-0.20228519810289144
1733860844557449200,3.94044921875,0.05464987407624721,-0.06530212792865932,-0.191017661896348
1733860844567399000,3.95039892578125,0.04374386465847492,-0.06556691634468734,-0.18803294699713588
1733860844577350100,3.96035009765625,0.038629882645606996,-0.06795812233015895,-0.192298933878541
1733860844587302000,3.970302001953125,0.03169862207770347,-0.07282558223605155,-0.1942886463910341
1733860844597252900,3.9802529296875,-0.007584756040573119,-0.058848275614157314,-0.20720789532735942
1733860844607203000,3.990203125,-0.015766308930516244,-0.04889898239932954,-0.20227014666423201
1733860844617153800,4.00015380859375,-0.046854105633497234,-0.020493410517647862,-0.13133943826407193
1733860844627105000,4.01010498046875,-0.08845569756627082,0.014441490067541599,-0.042613253193348646
1733860844637056000,4.020055908203125,-0.13181260873377323,0.04385675044842064,0.01192570785433054
1733860844647007000,4.030007080078125,-0.20063246245980262,0.11012363175600766,0.07266907650008797
1733860844656957000,4.03995703125,-0.24005495678782462,0.17337511076517403,0.10049129553586245
1733860844666908000,4.049907958984375,-0.22995734114348887,0.23277239856421947,0.125794663618505
1733860844676859000,4.05985888671875,-0.18861761501729488,0.2565905695904046,0.17771569725275038
1733860844686810000,4.06981005859375,-0.11128244640231132,0.22958215115554628,0.20322423251867294
1733860844696760000,4.079760009765625,-0.030632454150915145,0.17616897926740346,0.1917785632662475
1733860844706710800,4.089710693359375,0.010395137286186218,0.14208572707548736,0.15891440454050898
1733860844716662000,4.099662109375,0.02080313405394554,0.10943111944720148,0.10559767876416444
1733860844726613000,4.109613037109375,0.025905425629019735,0.09359890567362308,0.08847221030965446
1733860844736564000,4.11956396484375,0.01390460671186447,0.09081979634910821,0.06791691353693605
1733860844746514000,4.129513916015625,0.005449497577548027,0.0464683942515403,0.013987754950672388
1733860844756465000,4.13946484375,-0.020619594180583952,0.03979088924899697,-0.023969050738960503
1733860844766416000,4.149415771484375,-0.0032867665857076642,0.005450155164673924,-0.08959332329407334
1733860844776366800,4.159366943359375,0.00423895274400711,-0.027577961951121686,-0.1676117979981005
1733860844786317800,4.16931787109375,0.025130934125185012,-0.08590747438818216,-0.2051595844954252
1733860844796268000,4.17926806640625,0.07212707857787609,-0.14585508954636753,-0.2193937154226005
1733860844806218800,4.18921875,0.09842822552621364,-0.17168474652543664,-0.21917188936546445
1733860844816170000,4.199169921875,0.11343056434690951,-0.18736710349954663,-0.23122853012308478
1733860844826121000,4.209120849609375,0.11774492041468619,-0.20705153572186827,-0.2371823239609599
1733860844836071000,4.21907080078125,0.10705635313987731,-0.21225458425767718,-0.22545038511306045
1733860844846022000,4.22902197265625,0.08844985234737396,-0.2260623795315623,-0.21918474884703754
1733860844855973000,4.23897314453125,0.06709434510767459,-0.21502492575384674,-0.20992942924574015
1733860844865923800,4.248923828125,0.04779927752912044,-0.21871720440052447,-0.17789295351579784
1733860844875875000,4.258875,0.00374444722533226,-0.21775822317525742,-0.13873188660293817
1733860844885825000,4.268824951171875,-0.038922728112339974,-0.19895568835400043,-0.10528130629137157
1733860844895776000,4.27877587890625,-0.06865677211880683,-0.16681640983670948,-0.054567310359328984
1733860844905727000,4.28872705078125,-0.07865677260756491,-0.1269126347977668,-0.012627572513371705
1733860844915678000,4.298677978515625,-0.07568798592984675,-0.07569726521484553,0.03277414235472679
1733860844925629000,4.30862890625,-0.08502630763947963,-0.06945888228192926,0.08390081074088811
1733860844935579000,4.318578857421875,-0.08534837920069693,-0.03377002152428031,0.1275998133443296
1733860844945529900,4.32852978515625,-0.08667173675894736,0.01456584709957242,0.1418834825016558
1733860844955481000,4.338481201171875,-0.06940846726894379,0.03313369638212025,0.16868644149228929
1733860844965431800,4.348431884765625,-0.05799801546037197,0.058145022715628145,0.18943214627057312
1733860844975381800,4.3583818359375,-0.060765142086148256,0.06743102971613407,0.1908773766428232
1733860844985333000,4.3683330078125,-0.05775719244182109,0.08972659428492188,0.19625483189746737
1733860844995284000,4.378283935546875,-0.03977671459317207,0.12104586165621876,0.18330401877909897
1733860845005235000,4.38823486328125,-0.015965630894899368,0.12806538502946496,0.17303294626399873
1733860845015186000,4.39818603515625,-0.007515197935700416,0.0994021120596677,0.142967624476552
1733860845025135900,4.408135986328125,-0.004330722680687904,0.07809548546299337,0.1131739592373371
1733860845035086800,4.4180869140625,0.012839023306965828,0.06839585616029799,0.04656228308007121
1733860845045038000,4.4280380859375,-0.000689151307940483,0.06854819717779755,0.00923427681326866
1733860845054988800,4.43798876953125,-0.023135376393795013,0.07044073292613029,-0.023562661895155906
1733860845064939000,4.44793896484375,-0.02354454171657562,0.06989172074124217,-0.09203720931485294
1733860845074890000,4.457889892578125,-0.0037187282621860504,0.07404094937518238,-0.12932868296355007
1733860845084841000,4.467841064453125,0.012844868525862693,0.07591682624965905,-0.16949132813438772
1733860845094792000,4.4777919921875,0.026565935364365575,0.07114106321521103,-0.2082831233434379
1733860845104743000,4.487742919921875,0.009949147084355354,0.05485387221574783,-0.2507300800591707
1733860845114692900,4.49769287109375,0.01605214013457298,0.033278584745526314,-0.27772125509828327
1733860845124644000,4.50764404296875,-0.005371756166219711,0.0315016382008791,-0.28348040314689277
1733860845134594800,4.5175947265625,-0.013040098837018012,0.029470789960399268,-0.27913009898290037
1733860845144546000,4.527546142578125,-0.03731178578436375,0.02775499901846051,-0.26836437481865283
1733860845154497000,4.5374970703125,-0.04727963756918907,0.036267683558911086,-0.25308307292610405
1733860845164446700,4.54744677734375,-0.07310206108987331,0.019235738606750964,-0.24113588389232754
1733860845174398000,4.55739794921875,-0.07099661324322223,-0.01633935957811773,-0.2434106969565153
1733860845184349000,4.567348876953125,-0.0378191507846117,-0.021521146130189298,-0.19340806416422127
1733860845194300000,4.5772998046875,-0.022781156128644942,-0.04370872027985751,-0.14429741177558897
1733860845204249900,4.587249755859375,0.007833762365579604,-0.0390822295229882,-0.0982861867070198
1733860845214201000,4.597201171875,0.009088730862736701,-0.01742452446632087,-0.07230301966667174
1733860845224151800,4.60715185546875,0.0031119945406913757,-0.015602204409986734,-0.047576720819622276
1733860845234103000,4.61710302734375,0.019216157123446462,-0.008675473886728286,-0.027215485314279794
1733860845244053800,4.6270537109375,0.028242928665876386,-0.006307064254954457,-0.022212270199507472
1733860845254004000,4.63700390625,0.014538228440284727,0.006898381211608648,-0.0514971091337502
1733860845263955000,4.646954833984375,0.02556640293300152,0.017310981089249253,-0.05051292040199041
1733860845273906000,4.656906005859375,0.01196574760377407,0.022690774431452152,-0.03881795256361365
1733860845283857000,4.66685693359375,0.019941548788547515,0.001359817111119628,-0.041758536060154436
1733860845293807000,4.67680712890625,0.01341711545586586,-0.004085296552255749,-0.013602408894896506
1733860845303757800,4.6867578125,-0.013317162212729453,-0.017188012296706436,-0.00798076962083578
1733860845313709000,4.696708984375,-0.029155951857566833,-0.011297200692445039,-0.004380699302256107
1733860845323659800,4.70665966796875,-0.014477438163757324,-0.007637947532534599,-0.005078472308069467
1733860845333611000,4.716611083984375,-0.00495090040564537,-0.004819017654284835,-0.007625380311906337
1733860845343561000,4.72656103515625,-0.011195347753167151,0.006600713439285755,-0.006213759948313236
1733860845353512000,4.736511962890625,-0.01941021839082241,0.002002206667885184,0.0052110126465559
1733860845363463000,4.746462890625,-0.026001287218928335,-0.008027531372010708,0.0131898825712502
1733860845373414100,4.7564140625,-0.04531622854173183,-0.006882745251059532,0.028179069649428127
1733860845383364900,4.76636474609375,-0.026174305698275564,-0.008922069058939814,0.03840016554296016
1733860845393314800,4.776314697265625,-0.013919219759106635,-0.005426116701960563,0.03547010344043374
1733860845403266000,4.78626611328125,-0.02126490634679794,0.006864771202951669,0.03590951777100563
1733860845413216800,4.796216796875,-0.016370120042562483,0.0057682081378996365,0.02509995446503162
1733860845423168000,4.80616796875,-0.0183779527336359,-0.0013617168072611093,-0.008400164076685906
1733860845433118000,4.816117919921875,-0.02176174995303154,-0.022766543081402777,-0.029965953066200018
1733860845443069000,4.82606884765625,-0.031303485280275344,-0.013524229092150926,-0.04615282549634576
1733860845453020000,4.83602001953125,-0.016064999616146085,-0.023733123091235757,-0.027449147939682006
1733860845462971000,4.845970947265625,-0.013575520887970923,-0.016427841579169034,-0.00043181554600596424
1733860845472921900,4.855921875,0.00006897358298301697,-0.0135139268938452,0.0319917598053813
1733860845482872000,4.8658720703125,0.0069493807464838025,-0.005226283280923962,0.04287745708748698
1733860845492822800,4.87582275390625,0.0020966800183057784,-0.003322130160033703,0.049508127273619175
1733860845502774000,4.88577392578125,-0.014649287599325178,0.004456906343623996,0.01880743019208312
1733860845512725000,4.89572509765625,0.0034060090512037277,0.008234379055723547,0.002579056707769632
1733860845522676000,4.905676025390625,-0.009105681997537612,0.026046514600142835,-0.019613924269378184
1733860845532626000,4.9156259765625,-0.002316460248827934,0.022154183336719868,-0.04276376757994294
1733860845542577200,4.9255771484375,-0.01092354507446289,0.04326806384027004,-0.050900312284380196
1733860845552528000,4.93552783203125,-0.014524784436821937,0.02294255723543465,-0.07587167193368077
1733860845562479000,4.94547900390625,-0.01564882003068924,0.025689737051725385,-0.09309197906479239
1733860845572429000,4.955428955078125,-0.025523732835054398,0.028304595725238323,-0.09601210429519415
1733860845582379500,4.965379638671875,-0.032978140494227405,0.03207154704332352,-0.10564356373250484
1733860845592330800,4.975330810546875,-0.028313071292638776,0.03945800403282046,-0.10951105281561613
1733860845602281500,4.985281494140625,-0.021909633991122245,0.044514337574318046,-0.11758826854825019
1733860845612232700,4.995232666015625,-0.011804419562220572,0.04692753619588911,-0.12966507531106472
1733860845622182700,5.0051826171875,-0.017400632134079934,0.029726006830483674,-0.1322884095519781
1733860845632133400,5.01513330078125,-0.00258066414296627,0.02854417663477361,-0.15284312180280685
1733860845642084600,5.025084716796875,-0.00620353081524372,0.03203063051104545,-0.16908698511719703
1733860845652035800,5.035035888671875,0.0024169980138540265,0.026049291079118846,-0.17826091004535555
1733860845661985500,5.044985595703125,0.0028290859460830685,0.015035802698880434,-0.1821788141414523
1733860845671936500,5.0549365234375,-0.021284780091047287,0.018678981506824493,-0.1733721150904894
1733860845681887700,5.0648876953125,0.0006844751328229904,0.0039767216112464665,-0.15244506239593028
1733860845691838500,5.07483837890625,-0.007287818920612334,-0.007056932774186134,-0.11644421307966113
1733860845701789700,5.084789794921875,-0.029797172370553016,0.009913637379556894,-0.10951455994695425
1733860845711739600,5.09473974609375,-0.03726385498940944,-0.0053861500177532435,-0.10760726502090692
1733860845721690600,5.104690673828125,-0.027996844950318334,-0.017526158209890126,-0.07497749957293272
1733860845731641600,5.1146416015625,-0.029371055912971494,-0.01752813097126782,-0.0681624127306044
1733860845741592600,5.124592529296875,-0.021375380983948707,0.0004297697193920612,-0.0561829288624227
1733860845751542500,5.13454248046875,-0.00907704042494297,0.019504764806479214,-0.05136339975148439
1733860845761493800,5.14449365234375,-0.015108137282729148,0.03223360573723912,-0.0558278318144381
1733860845771444500,5.154444580078125,-0.020201076507568357,0.029325024814158676,-0.07976692580655216
1733860845781395700,5.164395751953125,-0.004042553389072418,0.026417466804385184,-0.10259688951298594
1733860845791346400,5.174346435546875,0.012646131083369254,0.04607121162749827,-0.13348229551166296
1733860845801296600,5.184296630859375,0.003125438544154167,0.0340528570536524,-0.1290183018401265
1733860845811247600,5.19424755859375,-0.006097147831320762,0.023591157337278127,-0.1265906363017857
1733860845821198600,5.204198486328125,-0.0018961890101432798,0.025985358997434375,-0.11530892543941736
1733860845831149600,5.214149658203125,-0.0018488427370786666,0.038069764544814824,-0.08296221471652387
1733860845841100800,5.224100830078125,-0.003324760508537292,0.0348831703979522,-0.05451470338925719
1733860845851050500,5.234050537109375,-0.010561726024746894,0.036040816000476476,-0.027673896606266495
1733860845861001500,5.24400146484375,-0.022388941940665243,0.030892566391825676,-0.0055818917855620384
1733860845870952700,5.25395263671875,-0.03488426637649536,-0.01350859313160181,0.009128332220762968
1733860845880903400,5.2639033203125,-0.04565642028152942,-0.044804406562075016,0.014541443310678004
1733860845890853600,5.273853515625,-0.032740824607014656,-0.045761415025964376,0.0324359964415431
1733860845900804600,5.2838046875,-0.010464695391058921,-0.03812259071059525,0.0450398958183825
1733860845910755600,5.293755615234375,-0.009096329647302627,-0.012801175514608621,0.030015637426823377
1733860845920706600,5.30370654296875,-0.015151391902565954,0.0069748805139213796,0.03262684283852577
1733860845930657500,5.313657470703125,-0.02812953141927719,0.0065257485069334506,0.026118483857810494
1733860845940607500,5.323607421875,-0.015209259569644928,0.0002078705970197916,0.03011442162618041
1733860845950558700,5.333558837890625,-0.011232172632217407,0.005012421334534883,0.008838993885368109
1733860845960509400,5.343509521484375,-0.007619242832064628,-0.004636281498521566,-0.023937194295972585
1733860845970460700,5.353460693359375,0.006074935999512672,-0.016726751460507512,-0.04778407995998859
1733860845980411600,5.36341162109375,0.00635433746278286,-0.0037594986639916893,-0.052880818577110765
1733860845990361600,5.373361572265625,0.006689853027462959,0.0046212300598621366,-0.0482823848709464
1733860846000312600,5.3833125,-0.007116554006934166,0.0015405074402689933,-0.06910422362536192
1733860846010263800,5.393263916015625,-0.014583821147680281,0.005778948727622628,-0.080789254591614
1733860846020214500,5.403214599609375,-0.008681319105625153,0.02143142202012241,-0.07946648155525327
1733860846030164700,5.413164794921875,0.0011199439406394957,0.03211472859792411,-0.07854439827427268
1733860846040115700,5.42311572265625,0.015688567519187926,0.04278429891131818,-0.07241217912957072
1733860846050066700,5.433066650390625,-0.00511865818798542,0.028236206664144992,-0.0928422420874238
1733860846060017700,5.443017578125,-0.011773439902067183,0.0035698213107883928,-0.07778773468807339
1733860846069968600,5.45296875,-0.0031762919485569,0.007774433393776417,-0.05024696294218301
1733860846079918600,5.462918701171875,0.00002396539747714996,-0.008470452833920717,-0.03023863252773881
1733860846089869600,5.47286962890625,-0.026993805387616157,-0.0013764029197394848,-0.018205518776178358
1733860846099820500,5.482820556640625,-0.015842296776175498,0.006487827649340033,-0.023387451458722352
1733860846109771500,5.492771484375,-0.005052607214450836,0.028953926479443906,-0.03717164666131138
1733860846119722500,5.502722412109375,-0.016112345889210702,0.03142923055179417,-0.060181058587878936
1733860846129672400,5.51267236328125,-0.02501519879102707,0.013115940552204847,-0.08398220541402697
1733860846139623700,5.522623779296875,-0.04036766622364521,-0.010312281308323144,-0.08412409810274839
1733860846149574400,5.532574462890625,-0.05116963074505329,-0.018595760202780365,-0.08792363651618361
1733860846159525600,5.542525634765625,-0.06769231100082397,-0.008819777728244662,-0.10418182061687112
1733860846169475600,5.5524755859375,-0.03988543566465377,-0.022326982620358465,-0.08979775982499122
1733860846179426600,5.562426513671875,-0.02019756937623024,-0.003653188745304942,-0.12092808049544691
1733860846189377500,5.57237744140625,0.007628010660409927,0.015523147824406622,-0.1105012328967452
1733860846199328800,5.582328857421875,0.03912731077373027,0.013050693296268581,-0.10631532551422715
1733860846209279500,5.592279541015625,0.03763853352069855,0.004640373151749372,-0.1159168282046914
1733860846219229700,5.602229736328125,0.023235914158821105,-0.008014160433784126,-0.10555530092716216
1733860846229180700,5.6121806640625,0.0013707038313150405,-0.010966872759535909,-0.11339841564297676
1733860846239131600,5.622131591796875,0.0013794716596603393,-0.009127090111747383,-0.09124547441527246
1733860846249082600,5.63208251953125,0.004574468308687209,-0.018240078632906078,-0.0786836606144905
1733860846259032600,5.642032470703125,0.0024526538491249084,-0.009988236985728144,-0.05528042706474662
1733860846268983600,5.651983642578125,-0.00558919830918312,-0.0080011548217386,-0.06186652745679021
1733860846278934800,5.661934814453125,-0.0269482126802206,0.007645911643281578,-0.03436331124231219
1733860846288885500,5.671885498046875,-0.033950200396776195,0.027246538039669393,-0.00468362777158618
1733860846298836700,5.681836669921875,-0.027117139506340024,0.03186944859996438,0.00009936872124671936
1733860846308786700,5.69178662109375,-0.020192893201112744,0.04201104951649904,0.01591448522955179
1733860846318737400,5.7017373046875,-0.010952186647057533,0.04429083101674914,0.008717851723730564
1733860846328688600,5.711688720703125,-0.016904957571625707,0.04223682109639049,0.024570962154865265
1733860846338639600,5.7216396484375,0.011447861209511757,0.03242226017713547,0.018302549409866333
1733860846348590600,5.731590576171875,-0.0023299042522907255,0.01613806485235691,0.0357898369140923
1733860846358540500,5.74154052734375,0.010032733714580536,0.023534385648742318,0.033694618200510736
1733860846368491800,5.75149169921875,0.01354863288104534,0.026309987841919062,0.037155280048400165
1733860846378442500,5.7614423828125,0.007714519900083541,0.028687311432510614,0.027461715160310266
1733860846388393700,5.771393798828125,-0.004569792133569717,0.0487063093714416,0.02789090035781264
1733860846398343700,5.78134375,-0.020227379992604256,0.03781491300091147,0.03994008846133947
1733860846408294700,5.791294677734375,-0.015949848803877828,0.02877316308505833,0.031045857257395983
1733860846418245600,5.80124560546875,-0.03744388773143291,0.022597762385755775,0.023299919305741785
1733860846428196600,5.811196533203125,-0.03674538407325744,0.0011024082839488983,0.0055944590061902996
1733860846438147600,5.821147705078125,-0.007020692417025565,-0.01324417004175484,-0.028831980600208043
1733860846448097800,5.831097900390625,0.00988660324215889,-0.009493658401817083,-0.059105830571800466
1733860846458048500,5.841048583984375,0.02977788314819336,-0.0121698188085109,-0.06479162112325429
1733860846467999700,5.850999755859375,0.008588380125164986,-0.012483487867563961,-0.0805104376502335
1733860846477950500,5.860950439453125,-0.011778700599074363,-0.015414792079105972,-0.0786607181303203
1733860846487901700,5.870901611328125,-0.01851122372448444,-0.007596081152185797,-0.054825230643153186
1733860846497851600,5.8808515625,-0.016264321580529213,-0.018049086105450987,-0.05679843041226267
1733860846507802400,5.89080224609375,0.00018938509225845335,-0.013676862370595335,-0.06478475299105048
1733860846517753600,5.900753662109375,-0.018189152163267136,-0.00424509022384882,-0.09165215552002191
1733860846527704800,5.910704833984375,-0.022027707412838934,-0.015846607625111937,-0.0943821650058031
1733860846537654500,5.920654541015625,-0.014969021072983741,0.00720569359511137,-0.07859685911387204
1733860846547605500,5.93060546875,-0.0012146364867687224,0.012842603503540157,-0.06279124108627439
1733860846557556700,5.940556640625,0.025514965006709096,0.008713687005266547,-0.04514847075939178
1733860846567507500,5.950507568359375,0.018712299254536626,0.007054667751863598,-0.026863018614798784
1733860846577458700,5.960458740234375,-0.011913725155591965,-0.01571662456989288,-0.010194061756134033
1733860846587408100,5.970408203125,-0.0018710545688867567,-0.023291882129758596,-0.000041062662750482553
1733860846597358800,5.98035888671875,-0.013097966504096984,-0.015868527195975184,-0.01620002417266369
1733860846607310000,5.99031005859375,-0.022317045748233795,-0.006139671798795461,-0.003191927909106016
1733860846617261000,6.000260986328125,-0.04354162008464336,0.005041939689964056,-0.014162526995688676
1733860846627211000,6.0102109375,-0.03601239362359047,0.009031009326130152,-0.03297375658005476
1733860846637162000,6.020161865234375,-0.021301731225848195,0.013480974472314118,-0.0713892658226192
1733860846647113000,6.030113037109375,-0.015489830076694487,0.03767141287699342,-0.11788038336262106
1733860846657064000,6.04006396484375,-0.004708908343315124,0.04074694786481559,-0.1307484866335988
1733860846667015200,6.05001513671875,0.005061959564685821,0.03935673561543226,-0.12411971614360809
1733860846676965000,6.059965087890625,0.00886135184764862,0.06568981207199394,-0.1130652381658554
1733860846686916000,6.069916015625,-0.03037760260701179,0.0866888340242207,-0.09159311880916357
1733860846696867000,6.0798671875,-0.05424480040669441,0.1037752856425941,-0.06268734232038259
1733860846706818000,6.089818115234375,-0.06837737065553665,0.0900265270795673,-0.07238426820933819
1733860846716769000,6.09976904296875,-0.0506289479970932,0.05840783837027847,-0.08826192855983972
1733860846726719200,6.10971923828125,-0.02188333050608635,0.024960765190050003,-0.13032076274082063
1733860846736670000,6.119669921875,0.029189854127168655,0.012907412368059158,-0.14474486328214406
1733860846746621200,6.12962109375,0.052453825336694716,0.013698343550041316,-0.15301935515254736
1733860846756572000,6.139572021484375,0.05808686278760433,-0.00029394144527614114,-0.11336904341802001
1733860846766522000,6.149522216796875,0.02983867342472076,-0.0031128713235259054,-0.05059139246568083
1733860846776473000,6.15947314453125,-0.0065390463799238204,-0.006220262754335999,0.029371640434861183
1733860846786424000,6.169424072265625,-0.04520633842647075,-0.05369980680979788,0.08793751891106366
1733860846796375000,6.179375,-0.04257949705421924,-0.07915025521293283,0.09756108730286359
1733860846806326300,6.189326171875,-0.00763093326985836,-0.08216215038001537,0.08404124212488531
1733860846816276000,6.19927587890625,0.010494506007432937,-0.05711312238462269,0.05140022463053465
1733860846826227000,6.20922705078125,0.0172843122780323,-0.04403422590717673,0.026174305698275564
1733860846836178200,6.21917822265625,-0.016719079610705373,-0.02323109185323119,0.010294014999270438
1733860846846129000,6.22912890625,-0.030626024410128593,0.002842091558128595,-0.002722264570742845
1733860846856080100,6.239080078125,-0.031115269231796264,0.013489669235423206,0.013139175297319889
1733860846866030000,6.249030029296875,-0.038131285473704334,0.011819397935643792,0.008007803758233786
1733860846875981000,6.25898095703125,-0.06277239025533199,0.014354834697395562,-0.009762830732017756
1733860846885932000,6.26893212890625,-0.03588789046108722,0.022168211862072348,0.00975347838178277
1733860846895883000,6.278883056640625,-0.027122400203347205,0.019532091204822064,-0.00934957375600934
1733860846905833000,6.2888330078125,0.005305705192685127,0.005906009173393249,-0.007660597755759954
1733860846915784200,6.2987841796875,0.026578210324048994,0.00030343992598354816,-0.036787469649314876
1733860846925735000,6.30873486328125,0.03073065382838249,-0.018855068726092578,-0.05059373055323958
1733860846935686100,6.31868603515625,0.00827098473906517,-0.00861183406598866,-0.05529007167592644
1733860846945636900,6.328636962890625,-0.0006985036581754684,0.019970701817795634,-0.046923225346952674
1733860846955587000,6.338587158203125,-0.006785714617371558,0.01952653824687004,-0.04484305807203054
1733860846965538000,6.3485380859375,-0.0022550854504108427,0.03028415216989815,-0.041894437399506566
1733860846975489000,6.358489013671875,-0.017651976546645163,0.019090557982400058,-0.05258636567518115
1733860846985440000,6.36843994140625,-0.013760814327001571,0.02820259665548801,-0.05321750318557024
1733860846995391200,6.37839111328125,-0.01229424890577793,0.001106207676231861,-0.06759440358430147
1733860847005341000,6.3883408203125,-0.015910685837268828,-0.009829977684095501,-0.0609760083578527
1733860847015292200,6.398292236328125,-0.02706511705815792,-0.013607012004777787,-0.05425108401700854
1733860847025243100,6.4082431640625,-0.02051554928421974,-0.0024546996757388116,-0.04594911961778998
1733860847035194000,6.418194091796875,-0.004912906482815742,0.005965776536613702,-0.024855332054197786
1733860847045144000,6.42814404296875,0.00045183542072772977,0.010440729993581772,-0.026953765638172623
1733860847055095000,6.438094970703125,-0.0038701194316148758,0.014204174180328846,-0.015207359873503445
1733860847065046000,6.4480458984375,0.003911035963892936,0.012947890508919953,-0.004306172761321067
1733860847074997000,6.4579970703125,-0.005250175613164902,0.0050032881800085305,-0.008924772472679615
1733860847084948000,6.467947998046875,-0.007641454663872719,0.003061433397233486,-0.029026626389473675
1733860847094898000,6.47789794921875,-0.02611000829041004,0.0055214668352156875,-0.018964812710881233
1733860847104849200,6.48784912109375,-0.03529343169927597,0.010658245201781392,-0.020871815375983715
1733860847114799900,6.4977998046875,-0.040836452779173846,0.009739011465013027,-0.0464615991845727
1733860847124751000,6.507751220703125,-0.0235322667568922,0.023259148903936145,-0.056267392275482414
1733860847134702000,6.5177021484375,-0.01852232964038849,0.021562501053884624,-0.05630655524209141
1733860847144652000,6.527652099609375,0.005938742399215698,0.021368293656036257,-0.05873670499846339
1733860847154603000,6.53760302734375,0.00737082102894783,0.03394340532980859,-0.07107756952494382
1733860847164554200,6.54755419921875,-0.004219078999757766,0.026028978943452238,-0.07397256031408905
1733860847174505000,6.5575048828125,-0.011316343784332274,0.02304733278416097,-0.0627427257694304
1733860847184455200,6.567455078125,-0.01840542526245117,0.004200301234051585,-0.05148147317320108
1733860847194406100,6.57740625,-0.021945289826393127,0.007653656558319926,-0.039982320167869324
1733860847204357000,6.587357177734375,-0.005502689069509506,0.010604396122694015,-0.029115619847178458
1733860847214308000,6.59730810546875,-0.0024281039297580718,0.00862520500421524,-0.03316197262853384
1733860847224259000,6.607259033203125,-0.010688567274808883,0.013361878137290477,-0.014302666118741035
1733860847234209000,6.617208984375,-0.016810849547386167,0.0066229983363300556,-0.022431465908139943
1733860847244160300,6.62716015625,-0.0345949280411005,0.0004805500585585832,-0.033388182599842546
1733860847254111000,6.637111083984375,-0.024416063854098318,0.005713190015032887,-0.03534603866934776
1733860847264062200,6.647062255859375,-0.024857962402701377,-0.0021593699909746647,-0.03518251867070794
1733860847274012200,6.65701220703125,-0.023118425258994102,-0.013707257508859037,-0.03695157416984439
1733860847283963000,6.666962890625,-0.020126842227578164,-0.00004288929365575313,-0.03540215277075767
1733860847293914000,6.6769140625,-0.02097965966463089,0.007398220492526889,-0.04520385420843959
1733860847303864800,6.68686474609375,-0.017230536264181136,-0.010444894712045788,-0.04591258699968457
1733860847313816000,6.696816162109375,-0.013867197310924529,0.0000694119744002819,-0.009745733466744422
1733860847323766000,6.70676611328125,-0.01614624815881252,0.0045364743858575815,-0.0062593526557087895
1733860847333717000,6.716717041015625,-0.004992985981702804,0.0004489858765155077,-0.021430033780634402
1733860847343668000,6.72666796875,-0.009970774394273758,-0.0016495938379317522,-0.024669454093277452
1733860847353619200,6.736619140625,-0.029561610049009323,-0.0037536534450948234,-0.03439180668443441
1733860847363570000,6.74656982421875,-0.014345920738577841,0.00813866359628737,-0.059844227848947044
1733860847373520100,6.75652001953125,-0.02330196513235569,0.006260960090905428,-0.06568900835439563
1733860847383471000,6.76647119140625,-0.016095979276299476,0.017129852368682624,-0.06586275748610496
1733860847393422000,6.776422119140625,-0.028886487266421318,0.013814151949435471,-0.08131050198674201
1733860847403373000,6.786373046875,-0.016191256344318387,0.015885259135067463,-0.07636720036566257
1733860847413323300,6.7963232421875,-0.018970657929778097,0.009540785479173064,-0.057216363563388585
1733860847423274000,6.80627392578125,-0.012259177592396735,0.00550035098195076,-0.03627849721387028
1733860847433225200,6.81622509765625,-0.0020645313143730164,0.009358706910535693,-0.03859232711419463
1733860847443176000,6.826176025390625,-0.013726327535510062,0.00033668460845947266,-0.031802813104540105
1733860847453127200,6.836127197265625,-0.002207154655456543,-0.00230192026682198,-0.016020283691585063
1733860847463077000,6.8460771484375,-0.021944705304503438,-0.00447860671877861,-0.008950345305353402
1733860847473027800,6.85602783203125,-0.03076338705420494,0.018183014683425425,-0.009033931935578584
1733860847482979000,6.86597900390625,-0.019676760372519492,0.011931260812282561,-0.011367635580152273
1733860847492930000,6.875929931640625,-0.025803134298324582,0.01049837846495211,-0.030528555385023352
1733860847502881000,6.885881103515625,-0.008603577694296836,0.03358575099855661,-0.056766720099747175
1733860847512831000,6.8958310546875,-0.00989654011428356,0.03839461258500814,-0.05759878700971603
1733860847522782200,6.9057822265625,-0.02186053415238857,0.04246434624195099,-0.0631802404038608
1733860847532733000,6.91573291015625,-0.023574352332949636,0.030761414292827246,-0.06577084141895174
1733860847542684200,6.92568408203125,-0.00866787510216236,0.02791369671151042,-0.04479059723243117
1733860847552634000,6.935634033203125,-0.0025800796210765837,0.04927183429971337,-0.01786021246984601
1733860847562585000,6.945585205078125,-0.02792962493300438,0.04116721910350025,0.00015489830076694487
1733860847572536000,6.9555361328125,-0.029682021558284758,0.03346723918542266,0.0035550621330738066
1733860847582487000,6.965487060546875,-0.04471709360480308,-0.007974412945285439,-0.0070446578145027154
1733860847592438300,6.975438232421875,-0.04903261871635914,-0.0410886009093374,-0.012531272532045841
1733860847602388500,6.985388427734375,-0.03348901262581348,-0.04089358979389071,-0.0175360950820148
1733860847612339200,6.995339111328125,-0.013494856867194175,-0.019541224359348415,-0.003666267422586679
1733860847622290400,7.00529052734375,-0.017061024916172028,-0.017388576370105147,0.004377776692807674
1733860847632241200,7.0152412109375,-0.0064566287934780114,0.006997896063327789,0.028780542673915624
1733860847642192400,7.0251923828125,0.01398001003563404,0.0025103753857314585,0.041365006697922944
1733860847652142300,7.035142333984375,0.010464695391058921,-0.0009144114311784505,0.028409955795854328
1733860847662093300,7.04509326171875,0.013118424770236014,-0.00812017809152603,-0.01672857809141278
1733860847672044300,7.055044189453125,0.013791209465265273,-0.020942615589872,-0.05129501069039106
1733860847681995300,7.064995361328125,0.006380640947818756,-0.02262815752401948,-0.07240297290980816
1733860847691945200,7.0749453125,0.0063923313856124875,-0.009600772038102149,-0.08145546341538429
1733860847701896200,7.084896240234375,-0.018218378257751463,0.01200213409140706,-0.09261398628950118
1733860847711847400,7.094847412109375,-0.00433481433391571,0.010724076979607342,-0.093576693841815
1733860847721798400,7.10479833984375,-0.016480010157823563,0.010490779680386185,-0.08186521326005458
1733860847731749400,7.114749267578125,-0.010676876837015152,0.018847908332943916,-0.07800269261300563
1733860847741699300,7.12469921875,-0.013294365859031676,0.018098624335601925,-0.047139790707081554
1733860847751650300,7.134650390625,-0.022145780834555626,0.013112433420866727,-0.02536401222869754
1733860847761601300,7.144601318359375,-0.03498597318530083,0.0249391378801316,-0.010559241806715726
1733860847771552300,7.15455224609375,-0.020352467676997183,0.03103000210113823,0.004145283111184835
1733860847781503200,7.164503173828125,-0.02464870356619358,0.03302351400591433,0.001035626658052206
1733860847791453400,7.174453369140625,-0.0389519542068243,0.013435747091099619,0.006731938603520393
1733860847801404200,7.184404052734375,-0.031098902618885038,0.03724610013701021,-0.006476064146310091
1733860847811355400,7.19435546875,-0.020097031611204148,0.04219422406367957,-0.03685030575245619
1733860847821306000,7.20430615234375,-0.008036006939411163,0.04993614342734217,-0.047428398390114306
1733860847831256300,7.21425634765625,0.005527238988876342,0.05501600397489965,-0.03336728594228625
1733860847841207300,7.224207275390625,-0.007073299387097358,0.04619118474535644,-0.024819676218926907
1733860847851158300,7.234158203125,-0.0036228666722774505,-0.004733531327918172,-0.03673413202688098
1733860847861109200,7.244109130859375,-0.02095394070148468,-0.026132366252690553,-0.04308744657635689
1733860847871060500,7.254060546875,-0.02217033075392246,-0.03120302058048546,-0.06610548020079732
1733860847881010200,7.26401025390625,0.0059556935340166085,-0.037030630755424496,-0.07355944946855306
1733860847890961400,7.27396142578125,0.023792378997802732,-0.03583564881719649,-0.04260317019075155
1733860847900912400,7.283912353515625,0.020076573345065116,-0.024893106781318782,-0.0238373871833086
1733860847910863400,7.29386328125,0.004117372190952301,-0.0075075991511344906,-0.017038813084363936
1733860847920813300,7.303813232421875,-0.015396306574344635,-0.038730347345396876,-0.02743453489243984
1733860847930764300,7.313764404296875,0.0005547112733125686,-0.01307363578043878,-0.03543590890988707
1733860847940715300,7.32371533203125,-0.00797989283800125,0.0007579787604510784,-0.04141103779673576
1733860847950666500,7.33366650390625,-0.024832243439555167,-0.009721037416905165,-0.04470028860047459
1733860847960617200,7.3436171875,-0.016232757398486137,0.0068434361539781085,-0.01714037376269698
1733860847970567200,7.353567138671875,-0.019891864427924157,0.019489128845930098,0.0061813189834356306
1733860847980518400,7.363518310546875,-0.019058336213231084,0.012882789383456111,0.0330382001183927
1733860847990469000,7.37346923828125,-0.025763971331715582,0.00795329709202051,0.027940292457491158
1733860848000420400,7.38342041015625,-0.022391864550113678,0.014517477913200854,0.03147460406348109
1733860848010371300,7.393371337890625,-0.015815408769249917,0.033484263385459775,0.007957973267138005
1733860848020321300,7.4033212890625,-0.03756722185015678,0.03454590126760304,-0.0010346037447452544
1733860848030272300,7.413272216796875,-0.03858838159143924,0.02399798457249999,-0.015968845765292644
1733860848040223500,7.423223388671875,-0.03481237018406391,0.02915675557516515,-0.018825842631608247
1733860848050174200,7.43317431640625,-0.029981881287693975,0.04003711909502745,-0.026828677953779696
1733860848060124400,7.44312451171875,-0.01717208407521248,0.04619914885610342,-0.042608284757286306
1733860848070075400,7.453075439453125,-0.014160042777657507,0.0365148632530123,-0.037574528373777866
1733860848080026400,7.4630263671875,-0.004366963037848472,0.027942995871230957,-0.04638035064190626
1733860848089977300,7.472977294921875,-0.012690554746985435,0.046065731734782456,-0.053508741217106574
1733860848099928300,7.48292822265625,-0.015056699356436729,0.024732071000710128,-0.05481953155472874
1733860848109878300,7.492878173828125,-0.004688450077176094,-0.0079869801659137,-0.05673588657006621
1733860848119829500,7.50282958984375,-0.022294249394536017,-0.007746960864961147,-0.06739245127141476
1733860848129780200,7.5127802734375,-0.022885201025009155,-0.005375628623738885,-0.0689211221434176
1733860848139731500,7.5227314453125,-0.01840367169678211,-0.013538257617503404,-0.07579568408802151
1733860848149682200,7.53268212890625,-0.026944121026992795,-0.001757072800397873,-0.06964987480938434
1733860848159632100,7.542632080078125,-0.0329132585644722,-0.00799406749382615,-0.07320201433300971
1733860848169583400,7.552583251953125,-0.0267260943621397,-0.008718728506565094,-0.07701908840313554
1733860848179534000,7.5625341796875,-0.01826514000892639,0.0004351034816354513,-0.07359583595618605
1733860848189485300,7.5724853515625,-0.014727613532543182,-0.008867781588435172,-0.05121346988677978
1733860848199435300,7.582435302734375,-0.006249123522639274,0.009974208460375666,-0.04747939792498946
1733860848209386200,7.59238623046875,-0.007237550038099288,0.0019202274728566406,-0.054688452520966525
1733860848219337200,7.602337158203125,-0.006644844841957092,0.016191840866208076,-0.04105696366205811
1733860848229288400,7.612288330078125,-0.03194645935893058,0.02027231511287391,-0.03082037793844938
1733860848239239200,7.6222392578125,-0.029257658666372297,0.028806553898006675,-0.025171558396518228
1733860848249189400,7.632189453125,-0.010819500178098677,0.025733064736798403,-0.03112842097431421
1733860848259140400,7.642140380859375,-0.013837386694550513,0.022059052399173378,-0.019114888706058264
1733860848269091300,7.65209130859375,-0.028483167162537574,0.01255333823338151,-0.029859131690859794
1733860848279042300,7.662042236328125,-0.04117781356275081,0.007699906852841377,-0.022014994061738253
1733860848288993300,7.6719931640625,-0.03144260149002075,-0.0006491846237331628,-0.010023673625290393
1733860848298943200,7.681943115234375,-0.023231237983703613,0.001273088675737381,-0.0023423253424465656
1733860848308894500,7.69189453125,-0.02194295173883438,0.0033167963977903127,0.016791121933609245
1733860848318845200,7.70184521484375,-0.005420856004953384,-0.00013648586124181746,0.012795184165239334
1733860848328796400,7.71179638671875,-0.015371756654977798,0.004028232602775097,0.025562457410246132
1733860848338747100,7.7217470703125,-0.011849427747726439,0.0271878666549921,0.02782704134136438
1733860848348697300,7.731697265625,-0.0098556235820055,0.008109875893220306,-0.008758768256008624
1733860848358648300,7.7416484375,0.012160977914929389,0.0037486850090324877,-0.016928776838630435
1733860848368599300,7.751599365234375,-0.0032499417066574094,0.02021094031445682,-0.007872048549354076
1733860848378550300,7.76155029296875,-0.02431143443584442,0.011615253665670752,0.002522650345414877
1733860848388500200,7.771500244140625,-0.047986909055709834,0.014272490176185964,0.0002639116331934929
1733860848398451500,7.781451416015625,-0.04879530282914638,0.0004923866268247366,-0.022501754665374754
1733860848408402200,7.791402099609375,-0.01668400829732418,-0.00527231437973678,-0.059969461663812396
1733860848418353400,7.801353515625,-0.011176058530807494,0.007173544891178608,-0.058020665683597324
1733860848428304100,7.81130419921875,-0.015053776746988295,-0.005425239919126033,-0.051562429454922676
1733860848438254300,7.82125439453125,-0.009473346266150474,-0.011662526873499154,-0.04210106588751077
1733860848448205300,7.831205322265625,-0.004912321960926056,0.011794921081513166,-0.025871961750835178
1733860848458156300,7.84115625,-0.014071195450425147,0.025388050691410896,-0.02187996950522065
1733860848468107300,7.851107177734375,0.0016904373049736023,0.032280805879831315,0.0061275429695844645
1733860848478057500,7.861057373046875,-0.018543372428417203,0.012450243185088038,0.008151596143096684
1733860848488008200,7.87100830078125,-0.03046703445613384,0.0002278904717415571,0.006534224074333906
1733860848497959400,7.88095947265625,-0.054603112325072284,-0.030485812221840023,0.012126929514855146
1733860848507910100,7.89091015625,-0.06583177782595158,-0.04535151905082166,0.012801760036498307
1733860848517861400,7.900861328125,-0.039435353809595106,-0.029111235933005807,0.009981880310177802
1733860848527811300,7.910811279296875,-0.014873744004964828,-0.015634133918210863,0.004190437427163123
1733860848537762300,7.92076220703125,-0.0006651859104633331,0.0005729775823652744,0.01813552227988839
1733860848547713300,7.93071337890625,-0.009603110125660896,0.012950520857423544,0.009779927997291087
1733860848557664500,7.94066455078125,-0.022191958063840864,0.015374094742536544,-0.0020263912610709667
1733860848567615200,7.950615234375,-0.027227029621601104,-0.001739317947998643,-0.03468699023872614
1733860848577565200,7.960565185546875,-0.021582886254787444,0.009836261294409633,-0.058939826355129475
1733860848587516700,7.9705166015625,-0.015171850168704986,0.01204122399277985,-0.08354965921565889
1733860848597467600,7.980467529296875,0.0071522098422050475,0.02206562827043235,-0.09716244337409734
1733860848607418600,7.990418701171875,-0.010409750333428383,0.02708031462728977,-0.09772066177874802
1733860848617369600,8.00036962890625,-0.013958382725715637,0.03221059018783271,-0.08614771288484334
1733860848627319600,8.010319580078125,-0.0057446811318397515,0.044667336178943515,-0.07589651411399245
1733860848637270800,8.020270751953126,-0.012885785058140755,0.033123540314286944,-0.07603738388940691
1733860848647221500,8.030221435546874,-0.02104804872572422,0.04076923276185989,-0.06804097830802201
1733860848657172700,8.0401728515625,-0.0141167881578207,0.05049319278821349,-0.028733050270378587
1733860848667122700,8.050122802734375,-0.011737199544906615,0.04991780405305326,-0.0050311260350048535
1733860848677073700,8.06007373046875,-0.013337035956978797,0.04596227136030793,-0.0015174188256263732
1733860848687024600,8.070024658203126,-0.0021603929042816163,0.028414120514318346,0.013418722891062497
1733860848696975600,8.0799755859375,0.0115635965436697,0.023306202916055917,0.020917554213851688
1733860848706926600,8.089926513671875,-0.00416881011724472,0.0010858955405652522,0.01664513759166002
1733860848716876500,8.09987646484375,-0.014813538250327109,0.0019013766419142483,0.008109948958456516
1733860848726827500,8.10982763671875,-0.011849427747726439,0.015229790901020168,0.015288754546642302
1733860848736778500,8.119778564453124,-0.009798924958705902,0.024080475224182007,0.021726824770122766
1733860848746729700,8.129729736328125,-0.019779051703214645,0.004672083464264869,0.009030424804240465
1733860848756679400,8.139679443359375,-0.025360651227831838,-0.014938479804247617,-0.008596563431620597
1733860848766630700,8.149630615234376,-0.03175239809155464,-0.03955518079698086,-0.026285218726843595
1733860848776581600,8.15958154296875,-0.03740238667726516,-0.05024842424690723,-0.03751037709638476
1733860848786532600,8.16953271484375,-0.02811784098148346,-0.052848596807941794,-0.026957418899983165
1733860848796483600,8.179483642578125,-0.015226210704445837,-0.05030373463071883,-0.018469722670316695
1733860848806433800,8.189433837890626,-0.02177402491271496,-0.03134644763916731,-0.019241291564702986
1733860848816384500,8.199384521484374,-0.017110709276795387,-0.02083857069350779,-0.02484583357349038
1733860848826335700,8.209335693359375,0.00644669192135334,-0.012691504595056175,-0.021183657804131506
1733860848836286500,8.219286376953125,0.005211597168445587,-0.011280249557644128,-0.03416632736548781
1733860848846237700,8.22923779296875,0.01227203707396984,0.0047118309527635575,-0.04911766665130853
1733860848856187600,8.239187744140626,0.023860768058896063,0.01229329905770719,-0.03314531375467777
1733860848866138600,8.249138671875,0.0069172320425510405,0.023302622719481587,-0.02724003523364663
1733860848876089600,8.259089599609375,-0.0013444003462791442,0.02904138556718826,-0.003678250121325254
1733860848886040600,8.26904052734375,-0.018860183292627335,0.03441241108104586,0.016491262204200028
1733860848895990500,8.278990478515626,-0.026802666729688642,0.02773907079696655,0.0328228038020432
1733860848905941500,8.28894140625,-0.019092823004722596,0.028239275404065844,0.03033814737945795
1733860848915892500,8.298892578125,-0.006363105291128158,0.04029774279259145,0.00592032995969057
1733860848925843700,8.30884375,-0.00848491975069046,0.044335839202255006,0.000535568181425333
1733860848935794700,8.318794677734376,-0.01865209349989891,0.04091382886432111,-0.010518617535382508
1733860848945744600,8.32874462890625,-0.018906360521912573,0.03656206339560449,-0.01825096535310149
1733860848955695600,8.338695556640625,-0.029161797076463696,0.01755932982712984,-0.010264204382896422
1733860848965646600,8.348646484375,-0.03866261587142944,0.02355973928570747,0.018779373141378165
1733860848975597600,8.35859765625,-0.020187632504105567,0.015582842122390866,0.01945727240294218
1733860848985548500,8.368548583984374,-0.032894553864002224,0.0025099369943141934,0.008938800998032093
1733860848995498800,8.378498779296875,-0.008282675176858902,0.005752791373059153,0.00011778116077184677
1733860849005449500,8.388449462890625,-0.004220248043537139,0.021452537873387335,-0.0020905425384640693
1733860849015400700,8.398400634765625,-0.019943302354216576,0.021123963506147266,-0.01839563452079892
1733860849025351400,8.408351318359376,-0.0005289923101663589,-0.005463672233372926,-0.026807489035278558
1733860849035302700,8.418302734375,-0.011938275074958801,-0.014294117486104369,-0.023975480479747055
1733860849045252600,8.428252685546875,-0.0017237550526857375,-0.023061069048568604,-0.02497252869307995
1733860849055203600,8.43820361328125,0.0016167875468730926,-0.035556028158217665,-0.03784267779067158
1733860849065154600,8.448154541015626,0.0060427872955799095,-0.03809066120237112,-0.045885260601341724
1733860849075105800,8.458105712890625,-0.00568681346476078,-0.030626024410128593,-0.05701061185821891
1733860849085055500,8.468055419921875,-0.006166121414303779,-0.0006946312006562948,-0.05699819076806306
1733860849095006700,8.4780068359375,-0.0024228432327508924,0.0064162967830896376,-0.050021337492763995
1733860849104957700,8.487957763671876,-0.010934650990366935,0.005604468943551182,-0.03811769533976912
1733860849114908700,8.49790869140625,-0.0109492640376091,0.023199235410243272,-0.025290070209652182
1733860849124859600,8.507859619140625,-0.02024900730252266,0.031370193840935826,-0.023861790972203013
1733860849134809600,8.5178095703125,-0.014323708906769752,0.010279694212973117,-0.03482698323130608
1733860849144760600,8.527760498046876,-0.027559622576832768,0.016782281040027738,-0.04196501841768622
1733860849154711600,8.537711669921874,-0.02909106992781162,-0.004841740942746401,-0.025123335340619085
1733860849164662500,8.54766259765625,-0.025631284862756728,0.0036313422396779056,-0.028495588252693414
1733860849174613800,8.55761376953125,-0.03640051615834236,0.01996266464181244,-0.03377294413372874
1733860849184563700,8.567563720703125,-0.021731354814767838,0.03085055388100445,-0.017927140226215124
1733860849194514400,8.577514404296876,-0.007497077757120132,0.03342084276042878,-0.011462620387226343
1733860849204465700,8.587465576171875,-0.01014671548306942,0.033945378091186286,0.0016413374662399291
1733860849214416400,8.59741650390625,-0.018548633125424385,0.019300766666978598,0.004888794954866171
1733860849224366600,8.60736669921875,-0.02671440392434597,0.014003610106930136,0.016764380057156084
1733860849234317600,8.617317626953126,0.0013046528577804564,0.009117153239622712,0.009734189159423113
1733860849244268500,8.6272685546875,0.004307926326990127,0.008243366079777478,0.036380350153148173
1733860849254219500,8.637219482421875,0.004483867415785789,0.014173632911592722,0.04823606151118874
1733860849264170800,8.647170654296875,-0.025844050830602646,0.0041822541207075115,0.020564210731536147
1733860849274120400,8.657120361328126,-0.018320669588446616,-0.012505626634135842,-0.022877894501388073
1733860849284071700,8.66707177734375,-0.015749357795715332,-0.0018223200563341378,-0.06100011988580226
1733860849294022700,8.677022705078125,-0.015520809736847876,-0.013317162212729453,-0.10260375764518975
1733860849303973600,8.6869736328125,-0.011872808623313903,0.0040971331205219026,-0.10302826666757464
1733860849313924600,8.696924560546876,-0.032493571847677226,-0.0020708879899233577,-0.08590484403967857
1733860849323874800,8.706874755859374,-0.02669043852686882,0.01672207528539002,-0.0459776150599122
1733860849333825500,8.716825439453125,-0.0229658650457859,0.03748619250319898,-0.0143085113376379
1733860849343776800,8.72677685546875,-0.001945288848876953,0.040514381217956544,0.008471914138644933
1733860849353727500,8.7367275390625,-0.0006131634622812271,0.02833528312444687,0.034612902089208364
1733860849363677400,8.746677490234376,-0.007491232538223266,-0.004919043962657452,0.041709874612838024
1733860849373628700,8.756628662109375,-0.028889994397759435,-0.030434520426020024,0.02126096082404256
1733860849383579400,8.766579345703125,-0.04364624950289726,-0.05579276050105691,-0.005349105942994356
1733860849393530600,8.776530517578125,-0.045731823605298996,-0.04834120238609612,-0.004032470386475325
1733860849403481600,8.786481689453124,-0.03603928163051605,-0.02334748477451503,-0.012452946598827837
1733860849413431600,8.796431640625,-0.012899813583493232,-0.017495982267335057,-0.013961597596108913
1733860849423382500,8.806382568359375,-0.008624035960435867,-0.0032545448165386915,0.005593436092883348
1733860849433333800,8.816333740234375,0.00469429529607296,0.0016030512824654578,0.014295505725592374
1733860849443284500,8.826284423828126,-0.008730418944358826,-0.007862403938174247,0.0013455693900585174
1733860849453235700,8.836235595703124,0.002629179459810257,-0.018267185835540295,-0.026391601710766554
1733860849463185700,8.846185546875,0.013342881175875662,-0.02107822466827929,-0.06985708781927824
1733860849473136600,8.85613671875,0.009921090033650397,-0.009267667626217007,-0.08516133219599724
1733860849483087600,8.866087646484376,0.012545008796453476,0.010770692600309849,-0.09398308268561958
1733860849493038600,8.87603857421875,0.007907996645569801,0.008560834531113505,-0.08242211649045347
1733860849502988500,8.885988525390625,-0.0033861353069543835,0.0193332076318562,-0.07949000856131315
1733860849512939800,8.895939697265625,-0.028139468291401862,0.03004785919599235,-0.050019583927094935
1733860849522890500,8.905890380859375,-0.03732113813459873,0.0287108384385705,-0.046814212014526124
1733860849532841700,8.915841796875,-0.05056406606733799,0.036432080340385434,-0.03665171444043517
1733860849542792400,8.92579248046875,-0.03183130854666233,0.027008053108677266,-0.030970746194571255
1733860849552742700,8.93574267578125,-0.02617547474205494,0.02988390080593526,-0.013457593596726655
1733860849562693600,8.945693603515625,-0.012753683111071586,0.020288462530076504,0.010742635549604891
1733860849572644600,8.95564453125,0.001558335357904434,0.0016104308713227509,0.01468742765262723
1733860849582595600,8.965595703125,-0.029302666851878163,-0.0012347294267266988,0.02714680399224162
1733860849592546600,8.975546630859375,-0.01693184557855129,0.02160100643336773,0.03723769763484597
1733860849602496500,8.98549658203125,-0.010599135425686836,0.02253068849891424,0.045850919940322636
1733860849612447500,8.995447509765626,-0.02068155350089073,0.05088401873670518,0.039459026946127414
1733860849622398700,9.005398681640624,-0.010929974815249443,0.05489931879267096,0.012238134804368018
1733860849632349400,9.015349365234375,-0.020220365729928014,0.02160480582565069,-0.012652414693683386
1733860849642299600,9.025299560546875,-0.03207037799954414,0.002655629075318575,-0.035575171250104905
1733860849652250600,9.035250732421876,-0.021187749457359312,-0.016550664241239427,-0.06705225953161716
1733860849662201600,9.04520166015625,-0.0189618901014328,-0.026856296613067387,-0.0847641495719552
1733860849672152600,9.055152587890625,-0.00992225907742977,-0.028656550968065856,-0.08405833939015865
1733860849682103600,9.065103515625,0.0005073650002479553,-0.008258855909854174,-0.08420943829864264
1733860849692053500,9.075053466796875,-0.0002408230185508728,-0.010285027975216507,-0.0633725481055677
1733860849702004700,9.085004638671874,-0.007805120792984962,-0.01046988302282989,-0.03649287061691284
1733860849711955500,9.09495556640625,-0.021776363000273705,-0.007342763978242873,-0.012614128509908914
1733860849721906700,9.10490673828125,-0.023204934498667715,-0.014753040234744549,-0.021630232527852056
1733860849731857700,9.114857666015626,-0.0035480478703975677,-0.008145239467546344,-0.035486908444762225
1733860849741807400,9.124807373046876,-0.0022907412856817246,-0.008533435067534446,-0.04325973440334201
1733860849751758600,9.134758544921874,-0.004469838890433312,-0.006631693099439144,-0.02878653402328491
1733860849761709600,9.14470947265625,-0.009908230552077292,-0.0012086451373994349,-0.009671206925809382
1733860849771660500,9.15466064453125,-0.009950316128134728,0.015608049628883599,-0.013512684784829615
1733860849781610500,9.164610595703126,-0.01522095000743866,0.012145707280561328,-0.007939560827612876
1733860849791561700,9.174561767578124,-0.03890986863076687,0.015696531629934906,-0.020392799687385558
1733860849801512400,9.184512451171875,-0.03450140453875065,0.025710925970226523,-0.01785495177283883
1733860849811463700,9.194463623046875,-0.04779635491967201,0.017842896008864045,-0.017340426379442213
1733860849821414400,9.204414306640626,-0.054122050809860225,0.007728475360199809,-0.016546207261830568
1733860849831364600,9.214364501953124,-0.045296939319372176,0.0113043610855937,-0.015320757120102644
1733860849841315600,9.224315673828125,-0.03671323536932468,0.010822057461366056,-0.009173632667213678
1733860849851266600,9.2342666015625,-0.026821371430158614,0.011141060282662511,0.002323912902921438
1733860849861217500,9.244217529296876,-0.013169278174638747,0.021903569576516745,0.004522884251922369
1733860849871168500,9.25416845703125,0.0037245734810829162,0.029409049835801122,-0.008510784844309092
1733860849881118500,9.264118408203124,-0.01576689345240593,0.03620492052100598,0.004152589634805918
1733860849891069700,9.274069580078125,-0.016568857485055922,0.0305417071275413,0.0044309681847691535
1733860849901020400,9.2840205078125,0.005512625941634178,0.017492621266469357,0.0009133154526352882
1733860849910971600,9.2939716796875,-0.016113514932990073,0.0008305325400084257,0.0008425883039832115
1733860849920922600,9.303922607421875,-0.008591302734613417,-0.010698284951224922,-0.00985474679917097
1733860849930872300,9.313872314453125,-0.012536240968108176,-0.0030513503946363926,-0.02879720154777169
1733860849940823600,9.323823486328125,0.0009293898046016692,-0.013894815970212221,-0.04163169481009245
1733860849950774800,9.33377490234375,-0.013574936366081237,-0.013849004067108034,-0.05870674825161695
1733860849960725500,9.3437255859375,-0.020689152285456657,-0.004186711100116372,-0.05793956327140331
1733860849970675500,9.353675537109375,-0.025859832921624182,-0.011210106930881737,-0.040432840414345264
1733860849980626700,9.363626708984375,-0.01473462779521942,0.0047004327759146685,-0.027803222074359653
1733860849990577400,9.373577392578126,-0.014573299753665923,-0.00618657968044281,-0.007385872467607259
1733860850000528600,9.383528564453124,-0.02162438730895519,0.0038189007010310887,-0.022159224838018417
1733860850010479400,9.393479248046875,-0.032467268362641334,0.010385858001187444,-0.011217997976392507
1733860850020429600,9.4034296875,-0.018255787658691406,0.007457111072912812,-0.01772168078199029
1733860850030380500,9.413380615234376,-0.010051438415050505,0.018705796448513865,-0.01294935181364417
1733860850040331500,9.42333154296875,-0.023677812707424164,0.01389839616678655,-0.027395810317248106
1733860850050282500,9.433282470703125,-0.018369184905290603,-0.002602218387648463,-0.036675241446495054
1733860850060233500,9.4432333984375,-0.027957681983709334,0.013337401283159852,-0.05108955124616622
1733860850070183400,9.453183349609375,-0.01949088241159916,0.006009177286922932,-0.05665989872440695
1733860850080134700,9.463134765625,-0.004558101695775986,-0.003598974340036511,-0.04196662585288286
1733860850090085600,9.473085693359375,-0.006667056673765182,-0.004444412188231945,-0.024559417847543952
1733860850100036600,9.48303662109375,-0.01319090548455715,0.001629354767501354,-0.01326353232935071
1733860850109986600,9.492986572265625,-0.006404021823406219,0.004082008616626262,-0.008275953175127505
1733860850119937500,9.5029375,-0.006105331137776375,-0.013203034313768148,-0.0035964170567691326
1733860850129888500,9.512888427734374,-0.015588029754161833,-0.013414046715945005,0.0011585223853588103
1733860850139839700,9.52283984375,-0.013867781832814216,-0.01494600552357733,0.008252426169067621
1733860850149790500,9.53279052734375,-0.02636310626864433,-0.006311594299599528,0.028449849414825437
1733860850159740400,9.542740478515626,-0.02971709287166595,0.01443907891474664,0.052167263480275866
1733860850169691600,9.552691650390624,-0.040673955693840975,0.03066036507114768,0.06638926557824015
1733860850179642600,9.562642578125,-0.04554068494737148,0.01564618968218565,0.04769026419669389
1733860850189593600,9.572593505859375,-0.03177811705470085,0.0019463848274201153,0.00928834508806467
1733860850199544600,9.582544677734376,-0.02300268992483616,0.011823781849816441,-0.02237345211058855
1733860850209494500,9.59249462890625,-0.0106049806445837,0.017064458982273937,-0.06094707452431321
1733860850219445500,9.602445556640625,-0.010268296036124228,0.014892814031615853,-0.06336480319052934
1733860850229396500,9.612396484375,-0.001297054073214531,0.02505165834389627,-0.06654357935711741
1733860850239347500,9.622347412109375,-0.0011994389176368714,0.03459755838960409,-0.05793591000959277
1733860850249297700,9.632297607421876,-0.014196867656707763,0.046009909894317386,-0.05545023067370057
1733860850259248400,9.642248291015624,-0.020892565903067588,0.022755802491679786,-0.008190905240178108
1733860850269199600,9.65219970703125,-0.016734861701726913,0.00910100582242012,-0.011202946537733077
1733860850279150600,9.662150634765625,-0.03228606657683849,-0.017143369437381623,-0.013842062869668006
1733860850289101600,9.6721015625,-0.04224690409898758,-0.04245777037069201,-0.008485212011635303
1733860850299051500,9.682051513671874,-0.045537177816033364,-0.03486044710949063,-0.009894055896252392
1733860850309002800,9.692002685546875,-0.012481295910477638,-0.012073299631476402,0.005871960773319006
1733860850318953500,9.701953369140625,-0.0038180969834327697,0.0057552755910903215,0.029945640930533406
1733860850328904700,9.71190478515625,0.015578677403926848,0.020549889945238826,0.04834185997322202
1733860850338855400,9.72185546875,0.0024538228929042814,0.03260821120329201,0.0448198233269155
1733860850348805600,9.7318056640625,-0.019517185896635054,0.013802753772586582,0.030411212615668773
1733860850358756600,9.741756591796875,-0.011057400587201118,-0.0044854748509824275,-0.008784341088682413
1733860850368707600,9.75170751953125,-0.008068155643343925,-0.01815590748079121,-0.049822892311215394
1733860850378658600,9.761658447265624,0.003999298769235611,-0.004334229812026024,-0.07312894909679889
1733860850388608500,9.7716083984375,0.005280570751428603,-0.0032709114294499158,-0.08370280395075679
1733860850398559500,9.7815595703125,-0.007580664387345314,-0.006083046240732073,-0.0645269788376987
1733860850408510500,9.791510498046875,-0.012938976550102232,-0.003614025778695941,-0.04159472380056977
1733860850418461400,9.80146142578125,-0.013043021446466446,-0.0019617285270243884,-0.04655658399164676
1733860850428412700,9.81141259765625,-0.009826982009410857,0.0004091653227806091,-0.042615152889490124
1733860850438362600,9.821362548828125,-0.019512509721517562,0.004227189240977168,-0.04430412888973951
1733860850448313600,9.831313720703125,-0.03629179508686065,0.027431466152518985,-0.03394610874354839
1733860850458264600,9.8412646484375,-0.0316974530339241,0.03545885139405727,-0.028803192897140978
1733860850468215600,9.851215576171874,-0.03923544732332229,0.03695815004110336,-0.030805472630262374
1733860850478166500,9.86116650390625,-0.017639117065072058,0.027671996910125014,0.004255319356918335
1733860850488116500,9.871116455078125,0.005748772785067558,-0.0064656888827681535,0.007544131769239902
1733860850498067700,9.881067626953126,-0.012488310173153877,-0.004699409862607717,0.029001930339634416
1733860850508018400,9.891018310546874,-0.03083645229041576,0.008075535232201218,0.041669980993866915
1733860850517969700,9.9009697265625,-0.026910218757390976,0.026919059650972483,0.03787862588688731
1733860850527919600,9.910919677734375,-0.028578444230556485,0.05002119136229157,0.04012552803084254
1733860850537870600,9.92087060546875,-0.02294073060452938,0.04314794459193945,0.0013953998811542987
1733860850547821600,9.930821533203124,-0.01868950290083885,0.007041296813637018,-0.022950813607126475
1733860850557772500,9.9407724609375,-0.009069441640377044,-0.024964272321388124,-0.04721548629179596
1733860850567723500,9.9507236328125,-0.00630114597082138,-0.021687880999222395,-0.06721680244356393
1733860850577673700,9.960673828125,0.006840659675002097,-0.013672989913076162,-0.06381941509023309
1733860850587624200,9.970624267578126,0.008629296657443046,-0.016396934984251856,-0.0426662985548377
1733860850597575000,9.980574951171874,0.018194997382164,-0.012908069955185055,-0.021161884363740682
1733860850607526100,9.990526123046875,-0.008615852653980254,-0.00922265944071114,-0.002889291700720787
1733860850617476900,10.000476806640625,-0.004313771545886993,-0.012353943203762173,-0.005160743764042854
1733860850627427000,10.010427001953126,-0.017383096477389334,-0.010723127131536602,-0.0008376198679208755
1733860850637378000,10.0203779296875,-0.020422610303759574,0.0039664924781769514,-0.03103782008141279
1733860850647329000,10.0303291015625,-0.037756606942415234,-0.0013322715170681475,-0.04258168901130557
1733860850657280000,10.040280029296875,-0.05721709421575069,-0.0004110650189220905,-0.04067921639084816
1733860850667231000,10.05023095703125,-0.053608256068825716,0.007190130699798464,-0.02893310288712382
1733860850677181000,10.060180908203124,-0.04119067304432392,0.028252500211820006,-0.029348113428801295
1733860850687132200,10.070132080078125,-0.0322638547450304,0.021746113992482424,-0.006129734926670789
1733860850697083000,10.080082763671875,-0.01820201164484024,0.01908354371972382,0.010188216537237166
1733860850707034000,10.0900341796875,-0.020040917509794233,0.01279847210086882,-0.0004966974757611751
1733860850716984000,10.099984130859376,-0.015036241090297699,0.01677095592841506,-0.0030025428168475627
1733860850726935000,10.10993505859375,-0.006155600020289421,0.021264394890144468,-0.021999358101189134
1733860850736886000,10.119885986328125,-0.0226566529661417,0.0261880419626832,-0.00897942526936531
1733860850746837200,10.129837158203125,-0.031055647999048232,0.01782835602685809,-0.02632116682305932
1733860850756788000,10.1397880859375,-0.024510756400227544,0.02268266419023275,-0.03773775611147284
1733860850766738200,10.14973828125,-0.016121698239445686,0.02118044293373823,-0.04317483259886503
1733860850776689200,10.159689208984375,-0.018731588476896283,0.013623670878633856,-0.04135404691249132
1733860850786640100,10.16964013671875,-0.005959785187244415,0.009658201313763857,-0.021557021161168814
1733860850796591000,10.179591064453126,-0.0035205753415822982,0.001525821327790618,0.01188771393150091
1733860850806542000,10.1895419921875,-0.0002104278802871704,-0.009790449391305446,0.0019563947647809983
1733860850816492000,10.199491943359375,-0.0031809681236743925,-0.008323810904845595,0.00886938902363181
1733860850826443000,10.209443115234375,-0.015531915652751922,-0.011485928197577594,0.002279343108832836
1733860850836394000,10.21939404296875,-0.008495441144704819,-0.012266849442198871,-0.009114157564938068
1733860850846345000,10.229344970703124,-0.0101432083517313,-0.012034794251993297,-0.013800707945972681
1733860850856295200,10.239295166015625,-0.029721769046783447,0.0010503858357667922,-0.02183116192743182
1733860850866246000,10.249245849609375,-0.01960486418008804,0.00592559065669775,-0.043329000247269864
1733860850876197000,10.259197021484376,-0.012985153779387474,0.01327069272249937,-0.032389234690368175
1733860850886148000,10.269148193359374,-0.020418518650531767,0.006302972601726651,-0.02834521999657154
1733860850896099000,10.27909912109375,-0.030664602854847907,-0.0005044423907995223,-0.011154723481833934
1733860850906049000,10.289049072265625,-0.043785950234532356,0.027560499359667298,-0.0048659986011683936
1733860850916000000,10.299,-0.021956980264186857,-0.00025755495764315126,-0.006938859352469444
1733860850925951000,10.308950927734376,-0.01094751047194004,0.00508935902826488,-0.01711377801671624
1733860850935902200,10.318902099609375,-0.014778466936945914,0.0026942805852741003,-0.025080372981727123
1733860850945853000,10.32885302734375,-0.026312837386131285,0.015068462859466671,-0.024323124873638153
1733860850955803100,10.33880322265625,-0.008801146093010902,0.0028758476972579957,-0.0304525675393641
1733860850965754000,10.348754150390626,-0.02433189270198345,-0.00100669282451272,-0.0328828634262085
1733860850975705000,10.358705078125,-0.015966215416789054,0.010361088886111975,-0.032058395300805564
1733860850985656000,10.368656005859375,-0.01585223364830017,0.010312208243086934,-0.027662206168472765
1733860850995606000,10.37860595703125,-0.020717209336161613,0.015059987292066215,-0.02182823931798339
1733860851005557000,10.388556884765626,-0.02006020673215389,0.009767068515717982,-0.022641309266537426
1733860851015508200,10.39850830078125,-0.03153787855803966,0.008536503807455301,-0.0013216039925813673
1733860851025459000,10.408458984375,-0.02031213566660881,0.010576119876280427,0.0020475801795721052
1733860851035410200,10.41841015625,-0.015037994655966757,0.008719166897982359,0.002994213379919529
1733860851045360000,10.428360107421875,-0.01802256342470646,-0.0036567689418792724,-0.004114741842448711
1733860851055310800,10.438310791015626,-0.014575053319334983,0.004841814007982611,-0.012150602651387453
1733860851065262000,10.448261962890625,-0.014402619361877441,0.0005645750802010297,-0.016587708315998314
1733860851075213000,10.458213134765625,-0.036028175714612004,-0.003772942667454481,-0.02133139571174979
1733860851085164000,10.4681640625,-0.029485622203350065,0.009938771820813416,0.00031929508224129677
1733860851095114000,10.478114013671876,-0.030486908200383186,0.008539426416903733,0.0021884499549865723
1733860851105065200,10.488065185546875,-0.0189443544447422,0.0015039748221635817,0.0048408641599118705
1733860851115016000,10.498015869140625,-0.004168225595355034,-0.0023749124377965927,0.030100100839883088
1733860851124967200,10.50796728515625,-0.007521627676486968,0.014401377252861856,0.023162995053082704
1733860851134917000,10.517917236328126,-0.012237550282478332,0.0011786153253167868,0.013425444892793893
1733860851144868000,10.5278681640625,-0.02809212201833725,-0.0050821255698800085,-0.0164282799705863
1733860851154819000,10.537819091796875,-0.01582651468515396,-0.010354659145325422,-0.07064590010941028
1733860851164770000,10.54777001953125,-0.016111176845431327,-0.0018018617901951074,-0.10382204739376902
1733860851174721000,10.557720947265626,-0.018802315625548363,0.007716054270043969,-0.0948297626428306
1733860851184671200,10.567671142578124,-0.017031798821687698,0.02206621279232204,-0.07447028070315719
1733860851194622000,10.5776220703125,-0.026199440139532088,0.02405300269536674,-0.06086012689322233
1733860851204573200,10.5875732421875,-0.02551613405048847,0.04676730413287878,-0.031292525494843716
1733860851214524000,10.59752392578125,-0.02501636783480644,0.03180727008394897,-0.018830811067670584
1733860851224475100,10.60747509765625,-0.03376666052341461,0.032537849380820986,-0.005616963098943233
1733860851234425000,10.617425048828125,-0.02946925559043884,-0.006617006986960768,-0.0056175476208329194
1733860851244376000,10.6273759765625,-0.05102934549152851,-0.04434212281256914,0.007188450199365615
1733860851254327000,10.6373271484375,-0.0379933383077383,-0.04479761149510741,0.0222111011557281
1733860851264278300,10.6472783203125,-0.013214286360144614,-0.03833111889474094,0.013092998068034649
1733860851274229000,10.65722900390625,-0.017038813084363936,0.0006548837121576071,0.03952887731194496
1733860851284179000,10.667178955078125,-0.0031119945406913757,0.020939327654242515,0.03356426981911063
1733860851294130200,10.677130126953125,0.007355623459815978,0.021091449476033447,0.023173662577569483
1733860851304081000,10.687080810546876,-0.0071317515760660165,0.013704919421300291,0.01703647499680519
1733860851314032000,10.6970322265625,-0.0004424830704927444,0.0039386546231806275,-0.01698313737437129
1733860851323982000,10.706982177734375,-0.009548749589920044,-0.005295183798670769,-0.05678790901824832
1733860851333933000,10.71693310546875,0.0017535656690597532,-0.004953019297495484,-0.053435675980895755
1733860851343884000,10.726884033203126,-0.0167746091902256,-0.00965768985711038,-0.0741186907865107
1733860851353835000,10.7368349609375,-0.012335749959945679,-0.0094580025665462,-0.06248188287615776
1733860851363786000,10.746785888671875,-0.013681903871893882,-0.005281520599499345,-0.06500950165763497
1733860851373736200,10.756736083984375,-0.016612696626782417,-0.009863806888461113,-0.05002835175544023
1733860851383687000,10.76668701171875,-0.018753800308704376,-0.0016948942843824624,-0.04786036006659269
1733860851393638100,10.77663818359375,-0.02448445291519165,0.00669525985494256,-0.04513546514734625
1733860851403589000,10.786589111328125,-0.03349953401982784,0.014202566745132207,-0.04717880754321813
1733860851413540000,10.7965400390625,-0.033275662136077876,0.012439283399656414,-0.03666778879240155
1733860851423490000,10.806489990234375,-0.03773965580761433,0.01632628090083599,-0.007682663457095623
1733860851433441300,10.816441162109374,-0.033407764083147044,0.031310499542951585,0.009345482102781534
1733860851443392000,10.82639208984375,-0.03259527865648269,0.02109882906489074,0.03251739111468196
1733860851453343200,10.83634326171875,-0.009998246923089028,0.0060761781085282565,0.0310473185621202
1733860851463293200,10.846293212890625,0.009430091646313667,0.009379603568091989,0.0640969168573618
1733860851473244000,10.856243896484376,0.013601239851117133,0.019205781859904528,0.046416444868594406
1733860851483195100,10.866195068359374,0.010322072049975395,0.03349675754085183,0.03118789607658982
1733860851493145900,10.876145751953125,0.023330022183060645,0.03361117770075798,0.012326982131600378
1733860851503097000,10.88609716796875,0.01207680676281452,0.021574922144040463,-0.001992781252413988
1733860851513047000,10.896047119140626,-0.015686813953518865,-0.013986001385003327,-0.04084785095602274
1733860851522998000,10.905998046875,-0.04001695308983326,-0.03584945814684033,-0.06278992591202259
1733860851532949000,10.915948974609375,-0.046588732695579525,-0.01706942741833627,-0.06565218347534536
1733860851542900000,10.92589990234375,-0.04174947597086429,-0.04054799122661352,-0.07423427999019622
1733860851552851000,10.935850830078126,-0.0407908600717783,-0.03302928615957498,-0.04959332133904099
1733860851562801200,10.94580126953125,-0.030693828949332234,-0.025478505453839898,-0.034302374835312364
1733860851572752000,10.955751953125,-0.014579729494452475,-0.03486066630519926,-0.015430793365836143
1733860851582703000,10.965703125,-0.006620879444479942,-0.024091215813904998,-0.043932226837426425
1733860851592653600,10.975653564453125,0.0015478139638900755,-0.01956928141005337,-0.050786915037780996
1733860851602603800,10.985603759765626,-0.007173252630233764,-0.015779899064451455,-0.048093145909160376
1733860851612554500,10.995554443359374,-0.01855097121298313,-0.000455854008719325,-0.04276742084175348
1733860851622505700,11.005505615234375,-0.02271978133022785,0.008616656371578574,-0.03146349814757705
1733860851632456400,11.01545654296875,-0.032087329134345054,0.015674977385252715,-0.019283669401705263
1733860851642407700,11.02540771484375,-0.03696691786944866,0.0078123542513698335,-0.010712094280868768
1733860851652357600,11.035357666015624,-0.03318155411183834,0.023100012819468975,0.006037234337627887
1733860851662308600,11.04530859375,-0.01163724630177021,0.026237580192834137,0.020818770014494656
1733860851672259600,11.055259521484375,-0.020528408765792844,0.0013396511059254408,0.004742956743389368
1733860851682210600,11.06521044921875,-0.02461597034037113,0.01836516631729901,0.00517374937608838
1733860851692161500,11.07516162109375,-0.028552725267410276,0.013450579334050417,0.00608984130769968
1733860851702111500,11.085111572265625,-0.019810031363368032,0.031118191841244695,-0.0030155484288930893
1733860851712062700,11.095062744140625,-0.03247486714720726,0.032240035478025675,-0.004983779761940241
1733860851722013700,11.105013671875,-0.017636778977513312,0.03194061414003372,0.005972498538345098
1733860851731964700,11.114964599609374,-0.00760346074104309,0.025463234819471835,0.01300531978458166
1733860851741914600,11.12491455078125,-0.02179740578830242,0.022606603279337285,0.01716945372670889
1733860851751865600,11.134865478515625,-0.02991466127038002,0.01448072609938681,0.009550795416533947
1733860851761816600,11.144816650390625,-0.035271804389357564,0.017298925325274467,0.006272066006809473
1733860851771767600,11.154767578125,-0.04368775055706501,0.012673019090294836,-0.02547083360403776
1733860851781718500,11.164718505859375,-0.0306125804066658,0.010488660788536072,-0.047657092579454184
1733860851791668700,11.174668701171875,-0.03952770826816559,-0.009238368466496467,-0.051907881891727445
1733860851801619500,11.184619384765625,-0.0285386967420578,-0.0008203034069389104,-0.07225786535069346
1733860851811570700,11.19457080078125,-0.035760464689135546,0.0009218640852719545,-0.08248013028800487
1733860851821521400,11.204521484375,-0.03677519468963146,0.001673997626826167,-0.08144917980507016
1733860851831472600,11.21447265625,-0.034893618726730344,-0.011017872294411063,-0.08064443929344416
1733860851841422600,11.224422607421875,-0.03826046481132507,-0.015150442054495214,-0.07410086286887527
1733860851851373600,11.23437353515625,-0.02785246804356575,-0.0324400150295347,-0.06191942668780684
1733860851861324500,11.244324462890624,-0.011760580420494078,-0.05422638796716928,-0.045607758834213016
1733860851871275800,11.25427587890625,-0.0006248539000749588,-0.05986600128933787,-0.037426205944269895
1733860851881226500,11.2642265625,0.004378068953752518,-0.06640117521174252,-0.03689502167701721
1733860851891176700,11.2741767578125,0.008326514318585396,-0.05337517796531319,-0.027628450029343363
1733860851901127700,11.284127685546874,0.021984452793002127,-0.0323022870592773,-0.05004515675976872
1733860851911078700,11.29407861328125,0.024582652592658995,-0.0055767772190272805,-0.06840498931482433
1733860851921029600,11.304029541015625,0.026815526211261747,0.010074527029693126,-0.056095396709442136
1733860851930979600,11.3139794921875,0.02453939797282219,0.03344780383259058,-0.05621405465304851
1733860851940930600,11.3239306640625,-0.011713234147429466,0.060511971042677755,-0.055728463093191384
1733860851950881800,11.3338818359375,-0.014324293428659438,0.05335545035153627,-0.047565761034190655
1733860851960832500,11.34383251953125,-0.03539689207375049,0.05637706319503486,-0.040297523596882816
1733860851970783700,11.35378369140625,-0.015316227075457572,0.042860067561268804,-0.010863777711242436
1733860851980733700,11.363733642578126,-0.036433833906054494,0.04531009106189012,0.025282909816503524
1733860851990684400,11.373684326171874,-0.03412847957313061,0.03736103175356984,0.059225511428713795
1733860852000635600,11.3836357421875,-0.024739304459095,0.03347169616483152,0.1066451419904828
1733860852010586600,11.393586669921875,-0.012869418445229529,0.014242168103158473,0.12168211373314261
1733860852020537600,11.40353759765625,-0.01875438483059406,0.005492606066912412,0.13957111390605567
1733860852030487600,11.413487548828124,-0.010803718087077141,-0.00851860282458365,0.1364468444056809
1733860852040438500,11.4234384765625,-0.015128011026978493,0.010897460785135626,0.11812938968762755
1733860852050389500,11.433389404296875,-0.0391740725249052,0.01638487922027707,0.09366218016818165
1733860852060340700,11.4433408203125,-0.04765431610047817,-0.00034786358959972854,0.06442264168038964
1733860852070290700,11.453290771484374,-0.04703939907252788,0.004211991671845316,0.028761691842973232
1733860852080241700,11.46324169921875,-0.04075754232406616,0.006704100748524069,-0.00396188936829567
1733860852090192600,11.473192626953125,-0.02369008766710758,0.008067205795273185,-0.0036446401126682755
1733860852100143600,11.4831435546875,-0.009116203391551971,0.018872019860893485,-0.006757365305721759
1733860852110094600,11.493094482421874,0.0006926584392786026,0.03450754201859236,0.0022445640563964844
1733860852120044800,11.503044921875,0.007333996149897575,0.036319998268038035,0.013584434846788644
1733860852129995500,11.51299560546875,-0.0032721535384654995,0.04860094930082559,-0.0035064006857573986
1733860852139946800,11.52294677734375,-0.01614683268070221,0.04294000092968345,-0.023989801266044376
1733860852149897500,11.5328974609375,-0.005011690682172775,0.030052243110164998,-0.04039367744773626
1733860852159848700,11.5428486328125,-0.03763794899880886,-0.005011982943117619,-0.07354469029083847
1733860852169798700,11.552798583984375,-0.05770984616875648,-0.033353257416933776,-0.10787614509016274
1733860852179749400,11.562749267578125,-0.04696107313930988,-0.04219356647655367,-0.11534794227555394
1733860852189700600,11.57270068359375,-0.03316752558648586,-0.0383200860440731,-0.11555457076355814
1733860852199651800,11.58265185546875,-0.021297055050730703,-0.040271585438027974,-0.10669336504638194
1733860852209601500,11.5926015625,-0.016259645405411718,-0.028624329198896882,-0.10095555204674601
1733860852219552500,11.602552490234375,-0.01865560063123703,-0.02234174179807305,-0.1217563480131328
1733860852229503700,11.612503662109376,-0.02562251703441143,-0.02948065376728773,-0.1462526374965906
1733860852239454500,11.622454345703124,-0.016192425388097762,-0.020844488977640865,-0.1585337346598506
1733860852249405700,11.63240576171875,-0.020079495954513547,-0.014954408025741576,-0.19743278963565825
1733860852259355600,11.642355712890625,-0.0036152678877115246,-0.01593940047509968,-0.20328049275055526
1733860852269306600,11.652306640625,0.007345686587691307,-0.007790142419561743,-0.18777721867039798
1733860852279257600,11.662257568359376,0.007849544456601142,0.008639598855748772,-0.14323811198100447
1733860852289208600,11.67220849609375,0.03239654121398926,0.02751001128144562,-0.09435966091305018
1733860852299159600,11.68215966796875,0.03706453302502632,0.03945508142337203,-0.03767185126841068
1733860852309109800,11.69210986328125,0.03210661835670471,0.04838533378876746,0.022130583265423772
1733860852319060500,11.702060546875,0.03917933322191238,0.056234001462534065,0.05243775098472833
1733860852329011700,11.71201171875,0.031904373782873155,0.05127002237960696,0.07118833642303943
1733860852338962400,11.72196240234375,-0.001536123526096344,0.0515612604111433,0.09213701642751693
1733860852348912600,11.73191259765625,-0.0024608371555805207,0.04712159746326506,0.11597294230610132
1733860852358863600,11.741863525390626,0.007296586748957634,0.03734422674924135,0.12758417738378047
1733860852368814600,11.751814697265624,0.005022212076187134,0.03662840663008392,0.10904562726095318
1733860852378765600,11.761765625,0.002142272725701332,0.05566628457717597,0.10251111092567443
1733860852388716800,11.771716796875,-0.015264204627275466,0.06916347953192889,0.11026406314000486
1733860852398666500,11.78166650390625,-0.03056640317738056,0.06903020854108036,0.10030775566250086
1733860852408617500,11.791617431640624,-0.02512567342817783,0.05599427442252636,0.09122019384354352
1733860852418568700,11.801568603515625,-0.0302682970136404,0.019123875730112195,0.06780833859592676
1733860852428519400,11.81151953125,-0.03359130395650863,-0.01117211300805211,0.06136471541449427
1733860852438470700,11.821470703125,-0.04985504101514816,-0.04327500503771007,0.048450142653286454
1733860852448420600,11.831420654296876,-0.05223696771562099,-0.04870996263325214,0.02502425888031721
1733860852458371600,11.84137158203125,-0.0387426953703165,-0.03321216844581067,0.005335808070003986
1733860852468322600,11.851322509765625,-0.016125205370783807,-0.030416984769329428,0.013574059583246707
1733860852478273500,11.8612734375,0.00004208557605743408,-0.010471928849443793,-0.014580898538231848
1733860852488223500,11.871223388671876,-0.004790156885981559,-0.003249722510948777,-0.029015082082152366
1733860852498174700,11.8811748046875,-0.006394084951281547,-0.002222790616005659,-0.04967208566367626
1733860852508125400,11.89112548828125,0.020498013627529142,-0.0007245148822665214,-0.07071472756192088
1733860852518076700,11.90107666015625,0.04924830729365349,-0.010019289711117743,-0.08604556768462061
1733860852528027600,11.911027587890626,0.04738543603122234,-0.009005947950109838,-0.0903559782296419
1733860852537977600,11.9209775390625,0.048238837990164755,-0.004461801714450121,-0.0733726947247982
1733860852547928600,11.930928466796875,0.019794249272346496,-0.011916866960749029,-0.072716568903625
1733860852557879800,11.9408798828125,0.006765840873122215,-0.037263124337047336,-0.06051891224011779
1733860852567830500,11.95083056640625,-0.0005780921489000321,-0.039018808897957204,-0.040654958732426166
1733860852577781800,11.96078173828125,-0.0002618658065795898,-0.05567804808020591,-0.042233313965052366
