time,seconds_elapsed,z,y,x
1733358706462973200,0.02097314453125,0.13357830047607422,0.17474326491355896,-0.0630355179309845
1733358706472938000,0.03093798828125,0.15611295402050018,0.21227695047855377,-0.07568272203207016
1733358706482903000,0.040903076171875,0.18054798245429993,0.2528848350048065,-0.08938228338956833
1733358706492867800,0.050867919921875,0.21716997027397156,0.306434690952301,-0.10029016435146332
1733358706502833200,0.060833251953125,0.26762357354164124,0.3720123767852783,-0.11017635464668274
1733358706512798000,0.0707978515625,0.3319820165634155,0.44600701332092285,-0.1158444881439209
1733358706522763000,0.080762939453125,0.40796947479248047,0.5358636379241943,-0.11075358837842941
1733358706532728000,0.09072802734375,0.5035585761070251,0.6545160412788391,-0.07960857450962067
1733358706542693000,0.100693115234375,0.618861198425293,0.7934882640838623,-0.04034159705042839
1733358706552658200,0.110658203125,0.7476029396057129,0.9403728246688843,0.0006657579215243459
1733358706562623000,0.120623046875,0.8871078491210938,1.0770394802093506,0.012477409094572067
1733358706572588000,0.130588134765625,1.0049726963043213,1.1596137285232544,-0.03383630886673927
1733358706582553000,0.140552978515625,1.082330584526062,1.1862828731536865,-0.1405281275510788
1733358706592518100,0.15051806640625,1.1235281229019165,1.1899194717407227,-0.2748478353023529
1733358706602483000,0.16048291015625,1.1426137685775757,1.1974791288375854,-0.4115564227104187
1733358706612448000,0.170447998046875,1.1610511541366577,1.230079174041748,-0.5351769924163818
1733358706622413000,0.1804130859375,1.1964293718338013,1.2798810005187988,-0.6299178600311279
1733358706632378000,0.190378173828125,1.241246223449707,1.3244553804397583,-0.6927996873855591
1733358706642343200,0.20034326171875,1.2834844589233398,1.3338978290557861,-0.729184091091156
1733358706652308000,0.210307861328125,1.3204997777938843,1.309370994567871,-0.7544901967048645
1733358706662273300,0.220273193359375,1.3534196615219116,1.273522973060608,-0.7679396867752075
1733358706672238000,0.230238037109375,1.388792634010315,1.2344818115234375,-0.7698057889938354
1733358706682203100,0.240203125,1.421691656112671,1.2112510204315186,-0.7727208733558655
1733358706692168000,0.25016796875,1.4461941719055176,1.2136039733886719,-0.770458459854126
1733358706702133200,0.26013330078125,1.4657270908355713,1.221311330795288,-0.7779715061187744
1733358706712098000,0.27009814453125,1.4886963367462158,1.2364901304244995,-0.8022605180740356
1733358706722063000,0.28006298828125,1.5139232873916626,1.2520416975021362,-0.835335373878479
1733358706732027100,0.290027099609375,1.52626633644104,1.2626487016677856,-0.8625810146331787
1733358706741992000,0.299991943359375,1.5199687480926514,1.2604585886001587,-0.8883655071258545
1733358706751957200,0.309957275390625,1.5044995546340942,1.2648687362670898,-0.9089042544364929
1733358706761922000,0.319922119140625,1.4757707118988037,1.2863255739212036,-0.9113849997520447
1733358706771887000,0.32988720703125,1.4545722007751465,1.2993539571762085,-0.9087613821029663
1733358706781852000,0.339851806640625,1.4453606605529785,1.3078153133392334,-0.9154258966445923
1733358706791817000,0.34981689453125,1.4450483322143555,1.297968864440918,-0.9229024052619934
1733358706801782000,0.359781982421875,1.443444848060608,1.284052848815918,-0.9355455040931702
1733358706811747000,0.3697470703125,1.4240118265151978,1.2792348861694336,-0.9599273800849915
1733358706821712100,0.379712158203125,1.4229601621627808,1.2586417198181152,-0.9757068753242493
1733358706831677000,0.389677001953125,1.4223552942276,1.2361314296722412,-0.9836820960044861
1733358706841642200,0.399642333984375,1.408463478088379,1.2305126190185547,-0.9832083582878113
1733358706851607000,0.40960693359375,1.3949264287948608,1.2161253690719604,-0.9654493927955627
1733358706861572000,0.419572021484375,1.3782840967178345,1.1982768774032593,-0.9377091526985168
1733358706871537000,0.429536865234375,1.358059048652649,1.1965947151184082,-0.9073446989059448
1733358706881502200,0.439502197265625,1.3260524272918701,1.2180970907211304,-0.892987847328186
1733358706891467000,0.449467041015625,1.2875196933746338,1.2518372535705566,-0.8742756843566895
1733358706901432000,0.45943212890625,1.2637006044387817,1.239858627319336,-0.8510918021202087
1733358706911396900,0.46939697265625,1.2482045888900757,1.1829355955123901,-0.8453809022903442
1733358706921362200,0.479362060546875,1.2160043716430664,1.1317569017410278,-0.8492550253868103
1733358706931327200,0.4893271484375,1.1703345775604248,1.0627576112747192,-0.829252302646637
1733358706941292000,0.4992919921875,1.1482594013214111,1.0066145658493042,-0.7890170216560364
1733358706951257000,0.509257080078125,1.1539926528930664,0.992513120174408,-0.7287748456001282
1733358706961222100,0.51922216796875,1.162610650062561,1.0073796510696411,-0.6792014241218567
1733358706971187200,0.529187255859375,1.1579161882400513,0.9951997399330139,-0.6342105269432068
1733358706981152000,0.539152099609375,1.1358612775802612,0.9568869471549988,-0.583379864692688
1733358706991117000,0.549116943359375,1.105670690536499,0.9051148295402527,-0.5448105335235596
1733358707001082000,0.55908203125,1.0750560760498047,0.8630861639976501,-0.5084897875785828
1733358707011047200,0.569047119140625,1.0548845529556274,0.823611319065094,-0.4693611264228821
1733358707021012000,0.579011962890625,1.0345358848571777,0.8068016767501831,-0.4230961501598358
1733358707030977000,0.58897705078125,1.0131750106811523,0.7994685769081116,-0.37340930104255676
1733358707040942000,0.598942138671875,0.9939272999763489,0.8009026646614075,-0.33596524596214294
1733358707050907100,0.6089072265625,0.974852442741394,0.8190675973892212,-0.3042721748352051
1733358707060871200,0.61887109375,0.9525172710418701,0.8461583256721497,-0.27763494849205017
1733358707070836000,0.6288359375,0.9276416897773743,0.872807502746582,-0.2582116425037384
1733358707080801000,0.638801025390625,0.9066751599311829,0.8781165480613708,-0.22875545918941498
1733358707090766000,0.64876611328125,0.9003257751464844,0.8762062788009644,-0.18609637022018433
1733358707100731100,0.658731201171875,0.9007539749145508,0.8594744205474854,-0.12643995881080627
1733358707110696200,0.6686962890625,0.9107764363288879,0.8285061717033386,-0.06546787172555923
1733358707120661000,0.678660888671875,0.913833737373352,0.7875715494155884,-0.0013706444296985865
1733358707130626000,0.6886259765625,0.9139674305915833,0.7344841957092285,0.057828109711408615
1733358707140591000,0.698591064453125,0.9039928317070007,0.6801570653915405,0.10718686878681183
1733358707150556200,0.70855615234375,0.8878532648086548,0.6316673755645752,0.1751473844051361
1733358707160521000,0.71852099609375,0.8573379516601562,0.5869611501693726,0.2679782509803772
1733358707170486000,0.728486083984375,0.8273295164108276,0.5572255849838257,0.35705289244651794
1733358707180451000,0.738451171875,0.8176729083061218,0.48612555861473083,0.43126267194747925
1733358707190416100,0.748416015625,0.7622697949409485,0.3333339989185333,0.5422688126564026
1733358707200381000,0.758380859375,0.6956111192703247,0.2349509745836258,0.6820682287216187
1733358707210346000,0.768345947265625,0.6273384094238281,0.16773615777492523,0.7831031680107117
1733358707220311000,0.77831103515625,0.6039018034934998,0.0026334901340305805,0.8395429849624634
1733358707230276000,0.788276123046875,0.6190917491912842,-0.2931661903858185,0.8889114260673523
1733358707240241200,0.7982412109375,0.6211144328117371,-0.42476657032966614,0.8533915281295776
1733358707250206000,0.8082060546875,0.5491505861282349,-0.4107406437397003,0.7639895081520081
1733358707260171300,0.818171142578125,0.43129661679267883,-0.35216280817985535,0.6981812119483948
1733358707270136000,0.828135986328125,0.2796221971511841,-0.243836909532547,0.6565860509872437
1733358707280101000,0.83810107421875,0.11664685606956482,-0.38128265738487244,0.6962019205093384
1733358707290066000,0.84806591796875,-0.0327567495405674,-0.43425771594047546,0.7263007164001465
1733358707300031000,0.858031005859375,-0.10567793250083923,-0.3953092694282532,0.6830720901489258
1733358707309996000,0.86799609375,-0.10101940482854843,-0.37801986932754517,0.6172642707824707
1733358707319961000,0.877961181640625,-0.06760632246732712,-0.3930819034576416,0.5801597833633423
1733358707329926000,0.88792578125,-0.041068751364946365,-0.40287840366363525,0.566961407661438
1733358707339891000,0.897890869140625,-0.030359650030732155,-0.39570969343185425,0.5618444085121155
1733358707349856300,0.907856201171875,-0.0480305515229702,-0.31279170513153076,0.5543636083602905
1733358707359821000,0.917821044921875,-0.09410376846790314,-0.18887855112552643,0.5161336660385132
1733358707369786000,0.9277861328125,-0.13380715250968933,-0.07297743111848831,0.4544617831707001
1733358707379750000,0.93775,-0.13049976527690887,0.02119913510978222,0.3859972357749939
1733358707389715000,0.94771484375,-0.10290877521038055,0.1001417338848114,0.34043726325035095
1733358707399680300,0.95768017578125,-0.08593485504388809,0.13589254021644592,0.3268263638019562
1733358707409645000,0.96764501953125,-0.09059436619281769,0.13077829778194427,0.3396674692630768
1733358707419610000,0.977610107421875,-0.10968710482120514,0.10645192116498947,0.3831550180912018
1733358707429575000,0.987574951171875,-0.13215745985507965,0.06999139487743378,0.44369134306907654
1733358707439540200,0.997540283203125,-0.14900487661361694,0.019912784919142723,0.5114443302154541
1733358707449505000,1.007505126953125,-0.1523101031780243,-0.04364088177680969,0.5817303657531738
1733358707459469800,1.0174697265625,-0.14691373705863953,-0.11563251912593842,0.6405673027038574
1733358707469434600,1.0274345703125,-0.1325770616531372,-0.16108007729053497,0.6825002431869507
1733358707479400000,1.03739990234375,-0.11546678841114044,-0.1783759891986847,0.7005335688591003
1733358707489364700,1.04736474609375,-0.09173452109098434,-0.16959506273269653,0.702636182308197
1733358707499329800,1.057329833984375,-0.050936758518218994,-0.16249613463878632,0.6912588477134705
1733358707509294800,1.067294921875,-0.0005530957714654505,-0.15836450457572937,0.6467229127883911
1733358707519260000,1.077260009765625,0.043154437094926834,-0.15509307384490967,0.5688286423683167
1733358707529225000,1.087224853515625,0.08758772909641266,-0.17640239000320435,0.4624774158000946
1733358707539189800,1.097189697265625,0.11701139062643051,-0.18146958947181702,0.34113261103630066
1733358707549154800,1.10715478515625,0.13892203569412231,-0.14385546743869781,0.2164572775363922
1733358707559119600,1.11711962890625,0.13754571974277496,-0.05014229565858841,0.11061235517263412
1733358707569085000,1.1270849609375,0.1104685440659523,0.06635002046823502,0.03442609682679176
1733358707579049700,1.1370498046875,0.06545419991016388,0.1584242731332779,0.0011725380318239331
1733358707589014800,1.147014892578125,0.022282395511865616,0.2112111747264862,0.0031633367761969566
1733358707598979600,1.1569794921875,-0.00970509648323059,0.22665537893772125,0.03367037698626518
1733358707608945000,1.16694482421875,-0.0317264162003994,0.1933082789182663,0.0895954817533493
1733358707618910000,1.176909912109375,-0.04595329239964485,0.11829902231693268,0.14794640243053436
1733358707628874800,1.186874755859375,-0.05832608416676521,0.045763932168483734,0.1896730661392212
1733358707638839800,1.19683984375,-0.06196742504835129,-0.010705199092626572,0.20478543639183044
1733358707648804900,1.206804931640625,-0.067256398499012,-0.05807295814156532,0.19281695783138275
1733358707658770000,1.21677001953125,-0.05853986740112305,-0.08462227880954742,0.1706024706363678
1733358707668734700,1.226734619140625,-0.042073242366313934,-0.08282383531332016,0.15013594925403595
1733358707678699800,1.23669970703125,-0.025654852390289307,-0.05313119292259216,0.13212153315544128
1733358707688664800,1.246664794921875,-0.004864409565925598,-0.008046390488743782,0.11149399727582932
1733358707698628900,1.25662890625,0.009604810737073421,0.0343247689306736,0.09133173525333405
1733358707708594000,1.266593994140625,0.01842663623392582,0.05614328011870384,0.07175422459840775
1733358707718558700,1.276558837890625,0.021835217252373695,0.05342445895075798,0.06157083436846733
1733358707728523800,1.286523681640625,0.018219316378235817,0.045137353241443634,0.06764251738786697
1733358707738488800,1.29648876953125,0.0078902468085289,0.025881901383399963,0.0899243876338005
1733358707748454000,1.306453857421875,-0.0007346108905039728,0.0037596789188683033,0.12377797812223434
1733358707758418700,1.316418701171875,-0.008267095312476158,-0.028177745640277863,0.15895061194896698
1733358707768383700,1.3263837890625,-0.020734572783112526,-0.07262317836284637,0.18441836535930634
1733358707778348800,1.336348876953125,-0.020213657990098,-0.10306763648986816,0.1981717199087143
1733358707788313900,1.34631396484375,-0.004395238123834133,-0.1115085706114769,0.20674045383930206
1733358707798279000,1.35627880859375,0.01157467346638441,-0.13464371860027313,0.20272307097911835
1733358707808243700,1.36624365234375,0.028063727542757988,-0.1478528529405594,0.19035260379314423
1733358707818209000,1.376208984375,0.041747577488422394,-0.13535037636756897,0.1760498285293579
1733358707828173800,1.386173828125,0.03468962758779526,-0.10338841378688812,0.15614454448223114
1733358707838139000,1.396138916015625,0.027335843071341515,-0.06926453113555908,0.13425283133983612
1733358707848103700,1.406103759765625,0.02427770011126995,-0.035571832209825516,0.11555222421884537
1733358707858068700,1.41606884765625,0.025446027517318726,-0.0113106993958354,0.094779834151268
1733358707868033800,1.42603369140625,0.02637229673564434,0.007272419054061174,0.08051875233650208
1733358707877998800,1.435998779296875,0.024474529549479485,0.018816158175468445,0.07093296945095062
1733358707887963600,1.445963623046875,0.017816897481679916,0.025240182876586914,0.06607390940189362
1733358707897928700,1.4559287109375,0.016430722549557686,0.018244324252009392,0.06326773017644882
1733358707907894000,1.46589404296875,0.021353865042328835,-0.0024965275079011917,0.05838949233293533
1733358707917858800,1.47585888671875,0.02740829437971115,-0.032169733196496964,0.052083127200603485
1733358707927824000,1.485823974609375,0.03210601210594177,-0.05727330222725868,0.04420971870422363
1733358707937788700,1.49578857421875,0.037763096392154694,-0.07149911671876907,0.03999233618378639
1733358707947754000,1.50575390625,0.03429172560572624,-0.07619467377662659,0.034053243696689606
1733358707957718800,1.51571875,0.03393566235899925,-0.06694498658180237,0.02559584379196167
1733358707967683800,1.525683837890625,0.03184541314840317,-0.043027114123106,0.020660238340497017
1733358707977648600,1.535648681640625,0.031898144632577896,-0.029272951185703278,0.01804261840879917
1733358707987614000,1.545614013671875,0.03142162784934044,-0.027856387197971344,0.021727466955780983
1733358707997578800,1.555578857421875,0.02553337998688221,-0.045859888195991516,0.027219437062740326
1733358708007543800,1.565543701171875,0.017782453447580338,-0.0805034264922142,0.026039233431220055
1733358708017508900,1.5755087890625,0.015711313113570213,-0.11134948581457138,0.023688459768891335
1733358708027474000,1.585473876953125,0.012489132583141327,-0.112664133310318,0.020814236253499985
1733358708037438000,1.59543798828125,0.01058337464928627,-0.08720644563436508,0.01633426547050476
1733358708047402800,1.60540283203125,0.011610359884798527,-0.054506003856658936,0.005084568168967962
1733358708057367800,1.615367919921875,0.014315598644316196,-0.02457553520798683,-0.009036842733621597
1733358708067332900,1.625332763671875,0.015617897734045982,0.0020389286801218987,-0.016234563663601875
1733358708077298000,1.6352978515625,0.020345808938145638,0.01862642727792263,-0.011832891032099724
1733358708087263000,1.645262939453125,0.023162970319390297,0.02373119257390499,0.0037977653555572033
1733358708097227800,1.655227783203125,0.023874301463365555,0.02396342158317566,0.02039378508925438
1733358708107192800,1.66519287109375,0.028099538758397102,0.028333846479654312,0.034109409898519516
1733358708117157600,1.67515771484375,0.0316239669919014,0.030208177864551544,0.04134095832705498
1733358708127123000,1.685123046875,0.03192199766635895,0.028140878304839134,0.042702239006757736
1733358708137087700,1.695087646484375,0.02633734606206417,0.02721409872174263,0.03675806522369385
1733358708147052800,1.705052734375,0.01549377478659153,0.033357322216033936,0.030552774667739868
1733358708157017600,1.715017578125,0.0002511720813345164,0.038894567638635635,0.02357635833323002
1733358708166983000,1.72498291015625,-0.011781529523432255,0.040050700306892395,0.01783338189125061
1733358708176947700,1.73494775390625,-0.01817045360803604,0.03659311681985855,0.015219221822917461
1733358708186912800,1.744912841796875,-0.019800228998064995,0.0320340171456337,0.015300348401069641
1733358708196877800,1.7548779296875,-0.0102061927318573,0.028036881238222122,0.010206785053014755
1733358708206843000,1.7648427734375,-0.0031439377926290035,0.02901533432304859,0.007533967960625887
1733358708216808000,1.774807861328125,0.007829616777598858,0.026024870574474335,0.006157912779599428
1733358708226772700,1.784772705078125,0.01681177318096161,0.026568926870822906,0.00735024968162179
1733358708236737800,1.79473779296875,0.02036789245903492,0.02628210373222828,0.011404911987483501
1733358708246702800,1.804702880859375,0.025845564901828766,0.02422339841723442,0.018808536231517792
1733358708256668000,1.81466796875,0.028487954288721085,0.023301677778363228,0.02933361381292343
1733358708266632700,1.8246328125,0.028615793213248253,0.017252255231142044,0.040476683527231216
1733358708276597800,1.83459765625,0.03168162330985069,0.0058387452736496925,0.04910213127732277
1733358708286562800,1.844562744140625,0.03525054082274437,-0.006208163686096668,0.05205398425459862
1733358708296528000,1.85452783203125,0.03604656085371971,-0.026017822325229645,0.04889068007469177
1733358708306493000,1.864492919921875,0.03886830434203148,-0.04348419979214668,0.035291723906993866
1733358708316457700,1.874457763671875,0.045521680265665054,-0.04986273869872093,0.015683399513363838
1733358708326423000,1.884423095703125,0.05508580058813095,-0.036934107542037964,-0.0033784976694732904
1733358708336387800,1.894387939453125,0.05816254764795303,-0.0036184964701533318,-0.0181912649422884
1733358708346353000,1.904352783203125,0.05734182521700859,0.02221165969967842,-0.025802534073591232
1733358708356317700,1.914317626953125,0.05119471624493599,0.037877172231674194,-0.025945279747247696
1733358708366282800,1.92428271484375,0.037851061671972275,0.040289171040058136,-0.022224534302949905
1733358708376247800,1.934247802734375,0.025712372735142708,0.03518282622098923,-0.015664635226130486
1733358708386211800,1.9442119140625,0.012434594333171844,0.02479078620672226,-0.0036274364683777094
1733358708396177000,1.954177001953125,0.006721847224980593,0.013529343530535698,0.009901155717670918
1733358708406141700,1.9641416015625,0.00005083912401460111,0.001056307926774025,0.0248182974755764
1733358708416106800,1.974106689453125,-0.0005057615344412625,-0.00604580994695425,0.03535269945859909
1733358708426071800,1.98407177734375,0.0003247454296797514,-0.006618035025894642,0.037213366478681564
1733358708436036900,1.994036865234375,0.002921327482908964,-0.0020744167268276215,0.034577105194330215
1733358708446001700,2.004001708984375,0.00504438579082489,0.0049361917190253735,0.032521139830350876
1733358708455967000,2.013967041015625,0.005541864316910505,0.00943799875676632,0.026013439521193504
1733358708465931800,2.023931884765625,0.004795624874532223,0.019172538071870804,0.022999931126832962
1733358708475897000,2.03389697265625,0.001292502973228693,0.02366289496421814,0.02521248534321785
1733358708485862100,2.043862060546875,-0.0003308824962005019,0.02160663716495037,0.02424299530684948
1733358708495827000,2.053826904296875,-0.004332282114773989,0.0076665873639285564,0.022217394784092903
1733358708505792000,2.0637919921875,-0.006529593840241432,0.0010847439989447594,0.019710611552000046
1733358708515757000,2.073757080078125,-0.008273432031273842,0.000008028000593185425,0.01847410574555397
1733358708525722000,2.08372216796875,-0.009376737289130688,0.0028953836299479008,0.020031005144119263
1733358708535687000,2.09368701171875,-0.011852678842842579,0.005627254024147987,0.022099748253822327
1733358708545652000,2.10365185546875,-0.014432461000978947,0.01209059078246355,0.024951603263616562
1733358708555617000,2.113616943359375,-0.01821228489279747,0.019484058022499084,0.028264043852686882
1733358708565582000,2.12358203125,-0.022711437195539474,0.02266792021691799,0.027835404500365257
1733358708575547000,2.133546875,-0.02749021351337433,0.025645334273576736,0.02766842395067215
1733358708585512000,2.143511962890625,-0.025884775444865227,0.02395706996321678,0.02985331416130066
1733358708595477000,2.15347705078125,-0.027615830302238464,0.018208904191851616,0.027371514588594437
1733358708605442000,2.163442138671875,-0.026371391490101814,0.014995946548879147,0.022690987214446068
1733358708615407000,2.173406982421875,-0.02104453556239605,0.018382955342531204,0.01812499761581421
1733358708625372000,2.183371826171875,-0.014594185166060925,0.0217602476477623,0.010339612141251564
1733358708635337000,2.1933369140625,-0.010967226698994637,0.029134541749954224,0.009371820837259293
1733358708645302000,2.203302001953125,-0.009065216407179832,0.040911369025707245,0.007647392340004444
1733358708655267000,2.21326708984375,-0.007022039499133825,0.044417157769203186,0.010890856385231018
1733358708665232000,2.22323193359375,-0.007317503448575735,0.045177556574344635,0.009940451942384243
1733358708675197000,2.233197021484375,-0.010032862424850464,0.046148017048835754,0.012521587312221527
1733358708685162000,2.243161865234375,-0.014203633181750774,0.04994136840105057,0.016810476779937744
1733358708695127000,2.253126953125,-0.015758652240037918,0.05297098308801651,0.02056846395134926
1733358708705091800,2.263091796875,-0.023583179339766502,0.04888705909252167,0.02763987146317959
1733358708715057000,2.273056884765625,-0.02771560661494732,0.04119957238435745,0.036222707480192184
1733358708725021000,2.28302099609375,-0.033075228333473206,0.03643949329853058,0.0436306856572628
1733358708734986000,2.292986083984375,-0.03717862442135811,0.033217865973711014,0.044248808175325394
1733358708744951000,2.302950927734375,-0.037437763065099716,0.02851216122508049,0.03933286666870117
1733358708754915800,2.312915771484375,-0.034719739109277725,0.025297461077570915,0.0326366163790226
1733358708764881000,2.322880859375,-0.028504254296422005,0.018977176398038864,0.024978535249829292
1733358708774846000,2.332845947265625,-0.02076830342411995,0.010991686955094337,0.021140387281775475
1733358708784811000,2.34281103515625,-0.012210031971335411,0.0014846650883555412,0.019506113603711128
1733358708794776000,2.352776123046875,-0.0017898816149681807,-0.004493332467973232,0.019848862662911415
1733358708804740900,2.362740966796875,0.0037792229559272528,-0.006140128709375858,0.018119746819138527
1733358708814706200,2.3727060546875,0.01570911891758442,-0.010334341786801815,0.015426493249833584
1733358708824671000,2.3826708984375,0.023766638711094856,-0.011754381470382214,0.017648834735155106
1733358708834636000,2.392635986328125,0.02800931967794895,-0.017374716699123383,0.021807095035910606
1733358708844600800,2.402600830078125,0.029257887974381447,-0.029733680188655853,0.027824675664305687
1733358708854566100,2.412566162109375,0.026914039626717567,-0.04073120281100273,0.03236350044608116
1733358708864531000,2.422531005859375,0.02276531793177128,-0.04736930504441261,0.03363313898444176
1733358708874496000,2.43249609375,0.017582539469003677,-0.053280193358659744,0.03613810986280441
1733358708884460800,2.442460693359375,0.013536982238292694,-0.05438283458352089,0.03788263723254204
1733358708894425900,2.45242578125,0.013624333776533604,-0.055735718458890915,0.0416286364197731
1733358708904391200,2.46239111328125,0.011349783279001713,-0.0548207089304924,0.046253133565187454
1733358708914356000,2.47235595703125,0.009184899739921093,-0.05277460068464279,0.05121806636452675
1733358708924321000,2.482321044921875,0.009522946551442146,-0.04517647996544838,0.05783671885728836
1733358708934285800,2.492285888671875,0.015478040091693401,-0.03841124847531319,0.05789131298661232
1733358708944251100,2.502251220703125,0.023672355338931084,-0.025926873087882996,0.05048627406358719
1733358708954216000,2.5122158203125,0.03648269549012184,-0.009322598576545715,0.03637045621871948
1733358708964181000,2.522180908203125,0.048913776874542236,0.013892864808440208,0.022319743409752846
1733358708974145800,2.532145751953125,0.05574212223291397,0.027939174324274063,0.008970114402472973
1733358708984111000,2.542111083984375,0.05828097090125084,0.0457364022731781,0.005182323511689901
1733358708994076000,2.552075927734375,0.06681480258703232,0.04446208104491234,0.010952328331768513
1733358709004041000,2.562041015625,0.06094994395971298,0.024279620498418808,0.027806125581264496
1733358709014006000,2.572006103515625,0.04902857169508934,0.007896387949585915,0.05146618187427521
1733358709023971000,2.58197119140625,0.036752283573150635,-0.012042517773807049,0.07569059729576111
1733358709033936100,2.59193603515625,0.022918226197361946,-0.03825574740767479,0.08345264941453934
1733358709043901000,2.60190087890625,0.007755196187645197,-0.05585856735706329,0.05729372054338455
1733358709053866000,2.611865966796875,-0.010115147568285465,-0.052855320274829865,0.009666814468801022
1733358709063831000,2.6218310546875,-0.023392826318740845,-0.028387032449245453,-0.04292527213692665
1733358709073796000,2.631796142578125,-0.023859411478042603,0.003434813115745783,-0.07971284538507462
1733358709083760000,2.641760009765625,-0.007082059048116207,0.04015202075242996,-0.09728066623210907
1733358709093725000,2.651724853515625,0.012765947729349136,0.07229477167129517,-0.10354868322610855
1733358709103690000,2.66168994140625,0.03070431388914585,0.09802275896072388,-0.10286472737789154
1733358709113655000,2.671655029296875,0.03828686475753784,0.11782469600439072,-0.10006148368120193
1733358709123620000,2.6816201171875,0.03804495930671692,0.11674224585294724,-0.09137922525405884
1733358709133585000,2.6915849609375,0.03310426324605942,0.09679090976715088,-0.07465564459562302
1733358709143550000,2.701550048828125,0.025611964985728264,0.051128022372722626,-0.054149579256772995
1733358709153514800,2.7115146484375,0.024591708555817604,-0.022355515509843826,-0.030193645507097244
1733358709163480000,2.72147998046875,0.03273773565888405,-0.08582014590501785,-0.0074898190796375275
1733358709173444900,2.73144482421875,0.04954920709133148,-0.11566858738660812,0.007918698713183403
1733358709183410000,2.741409912109375,0.07967176288366318,-0.11468964070081711,0.025813709944486618
1733358709193375000,2.751375,0.10734626650810242,-0.1016974151134491,0.04235034063458443
1733358709203340000,2.761340087890625,0.12463679909706116,-0.09192218631505966,0.05644949525594711
1733358709213305000,2.77130517578125,0.12909865379333496,-0.08595191687345505,0.06787604838609695
1733358709223270000,2.781269775390625,0.11630763113498688,-0.07661136239767075,0.07534895092248917
1733358709233235000,2.79123486328125,0.10135052353143692,-0.06982056796550751,0.07740224897861481
1733358709243200000,2.801199951171875,0.09289989620447159,-0.06486069411039352,0.07637593150138855
1733358709253165000,2.8111650390625,0.08449762314558029,-0.06001107394695282,0.07035105675458908
1733358709263129900,2.8211298828125,0.07467343658208847,-0.05246198549866676,0.06307221949100494
1733358709273095000,2.831094970703125,0.06532174348831177,-0.03993793576955795,0.05614374205470085
1733358709283060000,2.84106005859375,0.04991113767027855,-0.0313018336892128,0.04759727045893669
1733358709293025000,2.85102490234375,0.0344695970416069,-0.020073410123586655,0.036848753690719604
1733358709302990000,2.860989990234375,0.019659778103232384,-0.009757810272276402,0.026978688314557076
1733358709312955000,2.870954833984375,0.0012027404736727476,-0.0001406027004122734,0.01924992725253105
1733358709322920200,2.880920166015625,-0.013019387610256672,0.00932250078767538,0.010580120608210564
1733358709332885000,2.890885009765625,-0.016964061185717583,0.012280739843845367,0.004781886003911495
1733358709342850000,2.90085009765625,-0.021294360980391502,0.0075642820447683334,0.00047289172653108835
1733358709352814800,2.91081494140625,-0.017355546355247498,0.002329306211322546,0.002432445529848337
1733358709362780200,2.9207802734375,-0.012201468460261822,-0.0025798948481678963,0.012101476080715656
1733358709372745000,2.930744873046875,-0.008840292692184448,-0.007042553275823593,0.028268462046980858
1733358709382710000,2.9407099609375,-0.009388867765665054,-0.009745919145643711,0.04308643564581871
1733358709392674800,2.9506748046875,-0.006592548917979002,-0.01741715520620346,0.056485865265131
1733358709402640000,2.960639892578125,-0.005239550955593586,-0.0242219939827919,0.06168030574917793
1733358709412605000,2.97060498046875,-0.0028094169683754444,-0.030286546796560287,0.061811864376068115
1733358709422570000,2.980570068359375,0.005436087027192116,-0.029773756861686707,0.06206423044204712
1733358709432535000,2.99053515625,0.01827252469956875,-0.03503350168466568,0.060907088220119476
1733358709442499800,3.000499755859375,0.032248836010694504,-0.04008875787258148,0.059319861233234406
1733358709452465200,3.010465087890625,0.04966963827610016,-0.04982154443860054,0.05825379863381386
1733358709462429000,3.020428955078125,0.05788275599479675,-0.04991823807358742,0.05706120654940605
1733358709472394000,3.03039404296875,0.06079518795013428,-0.05456278845667839,0.06052757799625397
1733358709482359300,3.040359375,0.057187922298908234,-0.054622869938611984,0.06513110548257828
1733358709492324000,3.050323974609375,0.05596047267317772,-0.050239842385053635,0.06730211526155472
1733358709502289200,3.0602890625,0.05696205794811249,-0.04313991591334343,0.06202079355716705
1733358709512254000,3.07025390625,0.05656231567263603,-0.03699014335870743,0.06133955717086792
1733358709522219300,3.08021923828125,0.05727904289960861,-0.031759146600961685,0.06882918626070023
1733358709532184000,3.09018408203125,0.05337005481123924,-0.030771911144256592,0.08122646808624268
1733358709542149000,3.100149169921875,0.04776081070303917,-0.03251902014017105,0.1003202423453331
1733358709552114000,3.110114013671875,0.03324977681040764,-0.03634411841630936,0.11876529455184937
1733358709562079200,3.120079345703125,0.01653999835252762,-0.04537041857838631,0.12410341948270798
1733358709572044000,3.1300439453125,-0.006965062115341425,-0.057942405343055725,0.11033647507429123
1733358709582009000,3.140009033203125,-0.024625036865472794,-0.05276772379875183,0.07998961955308914
1733358709591974100,3.14997412109375,-0.0374675989151001,-0.02455180324614048,0.04957578331232071
1733358709601939200,3.159939208984375,-0.05205224081873894,0.006385575979948044,0.02529929205775261
1733358709611904300,3.169904296875,-0.06259676069021225,0.02706049382686615,0.006188981235027313
1733358709621869000,3.179869140625,-0.06120951101183891,0.04342849925160408,-0.00799780897796154
1733358709631834000,3.189834228515625,-0.046472642570734024,0.046936146914958954,-0.015722572803497314
1733358709641799200,3.199799072265625,-0.02553722634911537,0.035702627152204514,-0.020482691004872322
1733358709651764200,3.20976416015625,-0.00822907593101263,0.018182754516601562,-0.015512432903051376
1733358709661729000,3.21972900390625,-0.0033706144895404577,0.009108688682317734,-0.00454391073435545
1733358709671694000,3.229694091796875,-0.002958090743049979,0.00105262640863657,0.0070935701951384544
1733358709681659100,3.2396591796875,-0.01020012330263853,-0.0017051585018634796,0.018401574343442917
1733358709691624200,3.249624267578125,-0.0190170519053936,0.0012546787038445473,0.02823236770927906
1733358709701589000,3.259589111328125,-0.02501135692000389,0.0023710071109235287,0.035502105951309204
1733358709711554000,3.269553955078125,-0.02916562184691429,-0.002046644687652588,0.040331751108169556
1733358709721519000,3.27951904296875,-0.03919043764472008,-0.008874799124896526,0.04851928725838661
1733358709731484200,3.289484130859375,-0.049652133136987686,-0.009884136728942394,0.05530155822634697
1733358709741449200,3.29944921875,-0.05227648466825485,-0.0028515467420220375,0.05945845693349838
1733358709751414000,3.3094140625,-0.05654233694076538,0.009183278307318687,0.05672392621636391
1733358709761379000,3.319379150390625,-0.05888303741812706,0.02400093525648117,0.04894441366195679
1733358709771344100,3.32934423828125,-0.06112914904952049,0.04477199167013168,0.035565491765737534
1733358709781309200,3.33930908203125,-0.06742986291646957,0.05917981639504433,0.026728078722953796
1733358709791274000,3.34927392578125,-0.07123924791812897,0.06653093546628952,0.02289818599820137
1733358709801239000,3.359239013671875,-0.06428177654743195,0.06305710226297379,0.02192758396267891
1733358709811204000,3.3692041015625,-0.05749684199690819,0.05422233045101166,0.020933957770466805
1733358709821169200,3.379169189453125,-0.04386703670024872,0.04375440627336502,0.019943799823522568
1733358709831134200,3.38913427734375,-0.027311228215694427,0.035063181072473526,0.019156835973262787
1733358709841098000,3.399097900390625,-0.011527204886078835,0.020628316327929497,0.02212785929441452
1733358709851063000,3.40906298828125,0.006758136674761772,0.0029755202122032642,0.026719048619270325
1733358709861028000,3.419028076171875,0.022285226732492447,-0.018747452646493912,0.0366380512714386
1733358709870993200,3.4289931640625,0.03114503249526024,-0.03762393817305565,0.04240619018673897
1733358709880958200,3.438958251953125,0.031170722097158432,-0.04710332676768303,0.041592370718717575
1733358709890923000,3.448923095703125,0.028733132407069206,-0.04835394769906998,0.03518853336572647
1733358709900888300,3.458888427734375,0.0254263486713171,-0.04033723101019859,0.021301371976733208
1733358709910853000,3.46885302734375,0.018276026472449303,-0.026827014982700348,0.00587980542331934
1733358709920818200,3.478818115234375,0.0102395536378026,-0.006785050965845585,-0.008875617757439613
1733358709930783000,3.488782958984375,0.00469698291271925,0.015979383140802383,-0.017483219504356384
1733358709940748300,3.498748291015625,-0.0008439478697255254,0.03680978715419769,-0.017012091353535652
1733358709950713000,3.508713134765625,-0.009750357829034328,0.051434002816677094,-0.01056484505534172
1733358709960678100,3.51867822265625,-0.015336772426962852,0.06014208495616913,-0.0015268356073647738
1733358709970643000,3.528642822265625,-0.019206611439585686,0.06733927875757217,0.002681757789105177
1733358709980608300,3.538608154296875,-0.02624143660068512,0.07811558246612549,0.005343818571418524
1733358709990573000,3.548572998046875,-0.0315866656601429,0.09153338521718979,0.0007133804028853774
1733358710000538000,3.5585380859375,-0.035101164132356644,0.09932629019021988,-0.004673496820032597
1733358710010503200,3.568503173828125,-0.03953000158071518,0.09868180751800537,-0.004562443122267723
1733358710020468000,3.578468017578125,-0.04443133994936943,0.09294683486223221,-0.000845492584630847
1733358710030433300,3.588433349609375,-0.04894699528813362,0.084266796708107,0.0025441788602620363
1733358710040398000,3.598398193359375,-0.04968678578734398,0.07537476718425751,0.002210632199421525
1733358710050363100,3.608363037109375,-0.04819434881210327,0.07477237284183502,0.002851921133697033
1733358710060328000,3.618327880859375,-0.0456843301653862,0.06936492025852203,0.0008382994565181434
1733358710070293200,3.628293212890625,-0.03857715427875519,0.06049846112728119,0.0015549560775980353
1733358710080258000,3.638258056640625,-0.028400355949997902,0.048907119780778885,0.004047037102282047
1733358710090223000,3.64822314453125,-0.016424385830760002,0.033204857259988785,0.0026499428786337376
1733358710100188000,3.65818798828125,-0.001773937838152051,0.022325223311781883,0.0034255334176123142
1733358710110153200,3.6681533203125,0.015285473316907883,0.018221024423837662,0.002186630852520466
1733358710120118000,3.678117919921875,0.025798652321100235,0.013307941146194935,-0.0015875682001933455
1733358710130083000,3.6880830078125,0.03251194581389427,0.013600622303783894,-0.004292540717869997
1733358710140048100,3.698048095703125,0.03995143994688988,0.009984676726162434,-0.005583794787526131
1733358710150013200,3.70801318359375,0.04293444752693176,0.005017082206904888,-0.004693499766290188
1733358710159978200,3.717978271484375,0.04649810120463371,-0.0032904157415032387,-0.009100066497921944
1733358710169943000,3.727943115234375,0.049219317734241486,-0.01280988473445177,-0.010191163048148155
1733358710179908000,3.737908203125,0.0500030554831028,-0.026074886322021484,-0.010725938715040684
1733358710189873200,3.747873046875,0.047031503170728683,-0.04074038192629814,-0.008016439154744148
1733358710199838200,3.757838134765625,0.045171964913606644,-0.057657770812511444,-0.0002777376212179661
1733358710209803000,3.767802978515625,0.03704186901450157,-0.07319305092096329,0.009401521645486355
1733358710219768000,3.77776806640625,0.030411001294851303,-0.08725343644618988,0.016437646001577377
1733358710229732000,3.787732177734375,0.015342570841312408,-0.09559392929077148,0.017389461398124695
1733358710239697200,3.797697265625,-0.0018881032010540366,-0.0875270664691925,0.019246075302362442
1733358710249662200,3.807662109375,-0.018047630786895752,-0.07801344990730286,0.024368664249777794
1733358710259627000,3.817626953125,-0.03752230480313301,-0.0710417851805687,0.03511583432555199
1733358710269592000,3.827592041015625,-0.05637349188327789,-0.07462985813617706,0.04517592489719391
1733358710279556900,3.837556884765625,-0.06724376976490021,-0.07364115118980408,0.0502348430454731
1733358710289522200,3.847522216796875,-0.08046530187129974,-0.06750895828008652,0.048896607011556625
1733358710299487200,3.8574873046875,-0.08532336354255676,-0.055409714579582214,0.04198400303721428
1733358710309452000,3.8674521484375,-0.08798225969076157,-0.04300657659769058,0.03385283797979355
1733358710319417000,3.8774169921875,-0.08597613126039505,-0.02948976308107376,0.02981654182076454
1733358710329382100,3.887382080078125,-0.07638795673847198,-0.02160227671265602,0.027352051809430122
1733358710339347200,3.89734716796875,-0.06742392480373383,-0.020100923255085945,0.028512828052043915
1733358710349312000,3.90731201171875,-0.05320557579398155,-0.017091551795601845,0.025799600407481194
1733358710359277000,3.917277099609375,-0.03803037479519844,-0.013995474204421043,0.019663799554109573
1733358710369242000,3.9272421875,-0.0265183262526989,-0.007097620517015457,0.01113156508654356
1733358710379207200,3.937207275390625,-0.013600202277302742,0.0013078311458230019,0.0016711888602003455
1733358710389172000,3.947171875,-0.001220231526531279,0.0019880030304193497,-0.0019195512868463993
1733358710399137000,3.957136962890625,0.009376962669193745,-0.0035789236426353455,-0.003230912145227194
1733358710409102000,3.96710205078125,0.01960510015487671,-0.01067438442260027,0.0025731809437274933
1733358710419067100,3.977067138671875,0.022861458361148834,-0.01353517733514309,0.0028656399808824062
1733358710429032200,3.9870322265625,0.022741615772247314,-0.009551353752613068,0.0038848314434289932
1733358710438997000,3.9969970703125,0.020559176802635193,-0.00012418441474437714,0.005199510604143143
1733358710448962300,4.00696240234375,0.01741824485361576,0.01285659521818161,0.010228890925645828
1733358710458927600,4.016927734375,0.014270626939833164,0.024834634736180305,0.015317645855247974
1733358710468892700,4.026892578125,0.010609312914311886,0.03687798231840134,0.01603643223643303
1733358710478857500,4.036857421875,0.008063387125730515,0.044157855212688446,0.010131165385246277
1733358710488822500,4.046822509765625,0.010547317564487457,0.04510487616062164,0.003727860515937209
1733358710498787600,4.05678759765625,0.01212406251579523,0.041614025831222534,-0.005260089877992868
1733358710508752600,4.066752685546875,0.011852952651679516,0.030653785914182663,-0.011374441906809807
1733358710518717400,4.076717529296875,0.009840689599514008,0.025416258722543716,-0.016384238377213478
1733358710528682500,4.0866826171875,0.004805450327694416,0.022081449627876282,-0.012143686413764954
1733358710538647600,4.0966474609375,0.0010905934032052755,0.01363081019371748,-0.00351079017855227
1733358710548612600,4.106612548828125,-0.002255402272567153,0.0030173142440617085,0.002469604602083564
1733358710558577700,4.11657763671875,-0.0040506464429199696,-0.007384941913187504,0.006411479786038399
1733358710568542500,4.12654248046875,-0.005776640959084034,-0.015202119015157223,0.011885607615113258
1733358710578507800,4.1365078125,-0.003037810791283846,-0.02626035362482071,0.015010973438620567
1733358710588472600,4.14647265625,-0.0008944988367147744,-0.03737771883606911,0.015730027109384537
1733358710598437600,4.156437744140625,0.0018712502205744386,-0.04573566094040871,0.01520567573606968
1733358710608401700,4.166401611328125,0.004322423599660397,-0.047644615173339844,0.008989857509732246
1733358710618366500,4.176366455078125,0.006786954589188099,-0.05039534345269203,0.00599291967228055
1733358710628331800,4.186331787109375,0.010704997926950455,-0.049862977117300034,0.0029739602468907833
1733358710638296600,4.196296630859375,0.012627414427697659,-0.04682166874408722,0.0008747734245844185
1733358710648261600,4.20626171875,0.01401891652494669,-0.04435265064239502,0.0018534851260483265
1733358710658226400,4.216226318359375,0.016558310016989708,-0.04773883894085884,0.0021983941551297903
1733358710668191700,4.226191650390625,0.015360686928033829,-0.048915423452854156,0.008944714441895485
1733358710678156500,4.236156494140625,0.017987355589866638,-0.04790230840444565,0.016119400039315224
1733358710688121600,4.24612158203125,0.018439559265971184,-0.04376748204231262,0.019187893718481064
1733358710698086400,4.25608642578125,0.019207019358873367,-0.031090376898646355,0.0208229161798954
1733358710708051700,4.2660517578125,0.016467425972223282,-0.019249960780143738,0.016206325963139534
1733358710718016500,4.2760166015625,0.010512365959584713,-0.011035963892936707,0.013047165237367153
1733358710727981600,4.285981689453125,0.00018649219418875873,-0.0020105112344026566,0.0073112486861646175
1733358710737946600,4.295946533203125,-0.009958988055586815,0.009042315185070038,0.0023510511964559555
1733358710747911400,4.305911376953125,-0.021673966199159622,0.021229472011327744,-0.004873838275671005
1733358710757876700,4.315876708984375,-0.032052453607320786,0.02763136476278305,-0.009988000616431236
1733358710767841500,4.325841552734375,-0.03846028447151184,0.02919703722000122,-0.011743022128939629
1733358710777806600,4.335806640625,-0.044161614030599594,0.025478988885879517,-0.006206457037478685
1733358710787771400,4.345771484375,-0.04219620302319527,0.024703742936253548,-0.0051180231384932995
1733358710797736700,4.35573681640625,-0.03756621107459068,0.02817588672041893,-0.003105705603957176
1733358710807701500,4.365701416015625,-0.03326334431767464,0.03351445868611336,-0.005241827107965946
1733358710817666600,4.37566650390625,-0.02576414681971073,0.03597734868526459,-0.00782749056816101
1733358710827631400,4.38563134765625,-0.020852480083703995,0.034092895686626434,-0.009249085560441017
1733358710837596700,4.3955966796875,-0.01580021157860756,0.03090093657374382,-0.007549462374299765
1733358710847561500,4.4055615234375,-0.012776458635926247,0.024508550763130188,-0.0043648541904985905
1733358710857526500,4.415526611328125,-0.011083528399467468,0.019527683034539223,-0.000917941564694047
1733358710867491600,4.42549169921875,-0.005840030964463949,0.016576634719967842,0.0006764928693883121
1733358710877456600,4.43545654296875,-0.005077056586742401,0.014853725209832191,0.0013216360239312053
1733358710887421700,4.445421630859375,0.0007930831052362919,0.012400420382618904,0.0004190907347947359
1733358710897386500,4.455386474609375,0.0030285685788840055,0.011343738064169884,-0.0032046623528003693
1733358710907351600,4.4653515625,0.004301559645682573,0.008559935726225376,-0.005545048043131828
1733358710917316600,4.475316650390625,0.0017480155220255256,0.00480858376249671,-0.003438656684011221
1733358710927281700,4.48528173828125,-0.0008496317313984036,0.000437004491686821,0.0009350526961497962
1733358710937246500,4.49524658203125,-0.005298028700053692,-0.005554061383008957,0.0038106534630060196
1733358710947211500,4.50521142578125,-0.00811804924160242,-0.011503295972943306,0.0073332167230546474
1733358710957176300,4.51517626953125,-0.010170849971473217,-0.01576969027519226,0.007212428376078606
1733358710967141600,4.5251416015625,-0.012773822993040085,-0.016682621091604233,0.008914187550544739
1733358710977106700,4.535106689453125,-0.016328133642673492,-0.01733575016260147,0.00892828218638897
1733358710987071500,4.545071533203125,-0.018999550491571426,-0.01205549854785204,0.007279253099113703
1733358710997035500,4.555035400390625,-0.01993270218372345,-0.008157852105796337,0.0017157838447019458
1733358711007000300,4.565000244140625,-0.01758192852139473,-0.003731144592165947,-0.003549818182364106
1733358711016965600,4.574965576171875,-0.015634877607226372,0.0027460912242531776,-0.00598980113863945
1733358711026930700,4.5849306640625,-0.017805088311433792,0.0072731985710561275,-0.006386877968907356
1733358711036895500,4.5948955078125,-0.015900906175374985,0.010743144899606705,-0.0020199522841721773
1733358711046860500,4.604860595703125,-0.013481957837939262,0.013724819757044315,0.0018935627304017544
1733358711056825600,4.61482568359375,-0.006645826157182455,0.011471589095890522,0.0033635208383202553
1733358711066790700,4.624790771484375,-0.0010270890779793262,0.01453076209872961,0.0026077155489474535
1733358711076755500,4.63475537109375,0.0024324969854205847,0.014296265318989754,-0.0008776123868301511
1733358711086720500,4.644720458984375,0.006981442682445049,0.01438920944929123,-0.005804194137454033
1733358711096685600,4.654685546875,0.009806524030864239,0.013617691583931446,-0.007078516762703657
1733358711106650600,4.664650634765625,0.01610410027205944,0.011544421315193176,-0.008581072092056274
1733358711116615400,4.674615478515625,0.0190805122256279,0.00761552806943655,-0.005621344782412052
1733358711126580500,4.68458056640625,0.024634534493088722,-0.0008285567164421082,-0.004447423852980137
1733358711136545500,4.694545654296875,0.029413366690278053,-0.009128177538514137,-0.0023237960413098335
1733358711146510600,4.704510498046875,0.03179050609469414,-0.014962097629904747,-0.0018697268096730113
1733358711156475600,4.7144755859375,0.03397531434893608,-0.023440444841980934,-0.0017875888152047992
1733358711166440400,4.7244404296875,0.034485843032598495,-0.024880414828658104,-0.0017082263948395848
1733358711176405800,4.73440576171875,0.03144824132323265,-0.01968485489487648,-0.0015529642114415765
1733358711186370600,4.74437060546875,0.03299953043460846,-0.013563845306634903,0.001378909801132977
1733358711196335600,4.754335693359375,0.0363226979970932,-0.008479902520775795,0.005711239762604237
1733358711206300400,4.764300537109375,0.03777998313307762,-0.0042547984048724174,0.009581612423062325
1733358711216265700,4.774265625,0.03601962700486183,-0.007428702898323536,0.01216847077012062
1733358711226230500,4.78423046875,0.028288470581173897,-0.00991875771433115,0.00969545915722847
1733358711236195600,4.794195556640625,0.014548568986356258,-0.01283297874033451,0.005098128691315651
1733358711246160400,4.804160400390625,-0.003036549547687173,-0.01361728087067604,-0.006418711040169001
1733358711256125400,4.81412548828125,-0.016871986910700798,-0.015631068497896194,-0.013300735503435135
1733358711266090800,4.8240908203125,-0.023667041212320328,-0.018837247043848038,-0.01290765218436718
1733358711276055600,4.8340556640625,-0.02275112457573414,-0.013899094425141811,-0.005878486670553684
1733358711286020600,4.8440205078125,-0.013803436420857906,-0.0045061251148581505,0.001449201488867402
1733358711295985400,4.8539853515625,-0.007702912203967571,0.015062361024320126,0.004205980338156223
1733358711305950700,4.86395068359375,0.0003496877907309681,0.03659774735569954,0.002368665300309658
1733358711315915500,4.87391552734375,0.0005296615418046713,0.05423228070139885,-0.004371549002826214
1733358711325880600,4.883880615234375,-0.007117072585970163,0.06825835257768631,-0.009779363870620728
1733358711335845400,4.893845458984375,-0.01445559598505497,0.07262798398733139,-0.01121530868113041
1733358711345810700,4.903810791015625,-0.023999564349651337,0.07468047738075256,-0.010327678173780441
1733358711355775500,4.913775390625,-0.03403507545590401,0.07885521650314331,-0.006169251631945372
1733358711365740500,4.923740478515625,-0.04799643158912659,0.08228909969329834,-0.005033147055655718
1733358711375705600,4.93370556640625,-0.055471472442150116,0.09043813496828079,-0.006385933142155409
1733358711385670700,4.943670654296875,-0.06658004969358444,0.09609708935022354,-0.007332420442253351
1733358711395635700,4.9536357421875,-0.07759165018796921,0.08880668878555298,-0.005075510125607252
1733358711405600500,4.9636005859375,-0.0843917652964592,0.0732564926147461,0.0015001007122918963
1733358711415564500,4.973564453125,-0.08975648134946823,0.06141931563615799,0.00544182863086462
1733358711425529600,4.983529541015625,-0.08886831998825073,0.06043581664562225,-0.000864270725287497
1733358711435494700,4.99349462890625,-0.08148815482854843,0.06951181590557098,-0.008206203579902649
1733358711445459700,5.003459716796875,-0.07268907129764557,0.08656004071235657,-0.017190909013152122
1733358711455424500,5.013424560546875,-0.06346609443426132,0.10324877500534058,-0.021449465304613113
1733358711465389800,5.023389892578125,-0.05472319945693016,0.11277250200510025,-0.02667059376835823
1733358711475354600,5.033354736328125,-0.04518987610936165,0.11875497549772263,-0.028998326510190964
1733358711485319700,5.043319580078125,-0.03276196867227554,0.11720342189073563,-0.03246123716235161
1733358711495284700,5.05328466796875,-0.018440406769514084,0.10390277951955795,-0.03540783002972603
1733358711505249800,5.063249755859375,-0.0030302908271551132,0.08078973740339279,-0.03817378729581833
1733358711515214600,5.073214599609375,0.015100929886102676,0.05701598897576332,-0.045492202043533325
1733358711525179600,5.0831796875,0.03798174485564232,0.034722667187452316,-0.04985472559928894
1733358711535144700,5.093144775390625,0.053216490894556046,0.012033956125378609,-0.05478325113654137
1733358711545109800,5.10310986328125,0.07058988511562347,-0.0015332512557506561,-0.051466815173625946
1733358711555074800,5.11307470703125,0.0844302847981453,-0.016748281195759773,-0.037374190986156464
1733358711565039600,5.12303955078125,0.10059753060340881,-0.028971657156944275,-0.02303946018218994
1733358711575004700,5.133004638671875,0.11937806755304337,-0.04036915302276611,-0.0064507946372032166
1733358711584969700,5.1429697265625,0.1384822577238083,-0.06123821809887886,0.01440708339214325
1733358711594934800,5.152934814453125,0.15520626306533813,-0.09186853468418121,0.035116054117679596
1733358711604899600,5.162899658203125,0.17183183133602142,-0.12722545862197876,0.05133896693587303
1733358711614864600,5.17286474609375,0.18702903389930725,-0.15477795898914337,0.06143079698085785
1733358711624829700,5.18282958984375,0.19512398540973663,-0.1705702394247055,0.06520316004753113
1733358711634794800,5.192794677734375,0.20138424634933472,-0.174899160861969,0.05992875620722771
1733358711644759600,5.202759521484375,0.19910883903503418,-0.1696426123380661,0.049023110419511795
1733358711654724600,5.212724609375,0.18497809767723083,-0.15062999725341797,0.03693435341119766
1733358711664689700,5.222689697265625,0.1605028510093689,-0.12820884585380554,0.026050282642245293
1733358711674654700,5.23265478515625,0.12820512056350708,-0.1035047173500061,0.018358681350946426
1733358711684619800,5.242619873046875,0.08611278980970383,-0.08288092911243439,0.013824117369949818
1733358711694584600,5.25258447265625,0.045692864805459976,-0.06636087596416473,0.010128825902938843
1733358711704550000,5.2625498046875,0.00798143818974495,-0.05800680071115494,0.006466713268309832
1733358711714514700,5.2725146484375,-0.027797885239124298,-0.056345902383327484,-0.0012504685437306762
1733358711724479700,5.282479736328125,-0.05812755972146988,-0.060151293873786926,-0.010303085669875145
1733358711734444500,5.292444580078125,-0.08129409700632095,-0.05969353765249252,-0.018343953415751457
1733358711744409900,5.302409912109375,-0.0942397192120552,-0.0521719753742218,-0.02902030013501644
1733358711754374700,5.312374755859375,-0.10145846009254456,-0.04044463485479355,-0.030574116855859756
1733358711764339700,5.322339599609375,-0.10111118853092194,-0.03124927170574665,-0.02805423177778721
1733358711774304500,5.332304443359375,-0.09073754400014877,-0.028494365513324738,-0.017209138721227646
1733358711784269600,5.34226953125,-0.07582037895917892,-0.03962371498346329,-0.004853668622672558
1733358711794235000,5.35223486328125,-0.06188470870256424,-0.04552232846617699,0.008162487298250198
1733358711804199700,5.36219970703125,-0.04462476074695587,-0.04330497980117798,0.018187159672379494
1733358711814164700,5.372164794921875,-0.03586598113179207,-0.03338945284485817,0.025928108021616936
1733358711824128500,5.38212841796875,-0.025557948276400566,-0.0231594517827034,0.027413086965680122
1733358711834093600,5.392093505859375,-0.01755526289343834,-0.015792325139045715,0.02823195978999138
1733358711844059000,5.402058837890625,-0.00982597004622221,-0.014063135720789433,0.021051011979579926
1733358711854023700,5.412023681640625,-0.0005791385192424059,-0.017327619716525078,0.016924206167459488
1733358711863988700,5.42198876953125,0.013530288822948933,-0.02468833141028881,0.01615428738296032
1733358711873953500,5.43195361328125,0.023745881393551826,-0.035634249448776245,0.0211812574416399
1733358711883918800,5.4419189453125,0.0318211168050766,-0.0466056764125824,0.027526771649718285
1733358711893883600,5.451883544921875,0.03350931033492088,-0.05237844958901405,0.027413327246904373
1733358711903848700,5.4618486328125,0.03114575333893299,-0.047206055372953415,0.021718157455325127
1733358711913813500,5.4718134765625,0.021474961191415787,-0.03651225194334984,0.01957934908568859
1733358711923778800,5.48177880859375,0.012019140645861626,-0.023790329694747925,0.017662405967712402
1733358711933743600,5.49174365234375,0.004377719014883041,-0.015677709132432938,0.015496451407670975
1733358711943708700,5.501708740234375,-0.004004580434411764,-0.006433609873056412,0.010845772922039032
1733358711953673700,5.511673828125,-0.007050409913063049,-0.004782123491168022,0.011655118316411972
1733358711963638800,5.521638671875,-0.008783594705164433,-0.007427708245813847,0.011951262131333351
1733358711973603800,5.531603759765625,-0.013214386999607086,-0.007799079641699791,0.011548958718776703
1733358711983568600,5.541568603515625,-0.02095060423016548,-0.0007571494206786156,0.0083771338686347
1733358711993533700,5.55153369140625,-0.023747531697154045,0.003504384309053421,0.0003005086909979582
1733358712003498800,5.561498779296875,-0.028130562976002693,0.010700778104364872,-0.006241812836378813
1733358712013463800,5.5714638671875,-0.03197344392538071,0.010199198499321938,-0.006928589660674334
1733358712023428600,5.5814287109375,-0.035443007946014404,0.002439280040562153,-0.004096584394574165
1733358712033393700,5.5913935546875,-0.036952123045921326,-0.00872967578470707,0.0010324325412511826
1733358712043358700,5.601358642578125,-0.03403995558619499,-0.02467508800327778,0.008928438648581505
1733358712053323800,5.61132373046875,-0.030246928334236145,-0.038489408791065216,0.011404872871935368
1733358712063288600,5.62128857421875,-0.02282310090959072,-0.04638967663049698,0.012572403065860271
1733358712073253600,5.631253662109375,-0.01641411893069744,-0.04708750918507576,0.013710932806134224
1733358712083218700,5.64121875,-0.009402548894286156,-0.0449196957051754,0.010842442512512207
1733358712093183700,5.651183837890625,0.0014623496681451797,-0.042607009410858154,0.0065531544387340546
1733358712103148800,5.661148681640625,0.010436935350298882,-0.038456737995147705,0.002183173783123493
1733358712113113600,5.671113525390625,0.01831752434372902,-0.03534823656082153,-0.0011668057413771749
1733358712123078700,5.68107861328125,0.024976758286356926,-0.03063364140689373,-0.005479262676090002
1733358712133043700,5.691043701171875,0.03124655969440937,-0.03287279233336449,-0.007830728776752949
1733358712143008800,5.7010087890625,0.037181682884693146,-0.030877821147441864,-0.007135909982025623
1733358712152973600,5.7109736328125,0.037409279495477676,-0.03175811469554901,-0.006713867653161287
1733358712162938600,5.720938720703125,0.04123677313327789,-0.03308036923408508,-0.007765284273773432
1733358712172903700,5.730903564453125,0.03950989618897438,-0.03695971518754959,-0.006620693486183882
1733358712182868700,5.74086865234375,0.03569651395082474,-0.03978239744901657,-0.004635306540876627
1733358712192833500,5.75083349609375,0.027493909001350403,-0.03982236608862877,-0.004509897902607918
1733358712202798600,5.760798583984375,0.019677530974149704,-0.03592908754944801,-0.004378870129585266
1733358712212764000,5.770763916015625,0.007544182240962982,-0.03153923898935318,-0.0015420662239193916
1733358712222728700,5.780728759765625,-0.00448611518368125,-0.023549219593405724,-0.00019077816978096962
1733358712232692700,5.790692626953125,-0.01721549965441227,-0.016050241887569427,0.004317817743867636
1733358712242657500,5.800657470703125,-0.02773818001151085,-0.008859173394739628,0.004850449971854687
1733358712252622600,5.81062255859375,-0.035757701843976974,-0.004364968277513981,0.003978018648922443
1733358712262588000,5.820587890625,-0.043524544686079025,-0.007835066877305508,0.002249094657599926
1733358712272552700,5.830552734375,-0.046522464603185654,-0.01721392199397087,0.00007755320984870195
1733358712282517800,5.840517822265625,-0.04645801708102226,-0.02401243895292282,-0.004057004116475582
1733358712292482600,5.850482666015625,-0.044185977429151535,-0.023721277713775635,-0.01061952393501997
1733358712302447900,5.86044775390625,-0.04088365659117699,-0.016279608011245728,-0.01440573949366808
1733358712312412700,5.87041259765625,-0.035966526716947556,-0.008817783556878567,-0.021362904459238052
1733358712322377700,5.880377685546875,-0.03239975497126579,0.0054016332142055035,-0.01990855112671852
1733358712332342500,5.890342529296875,-0.026830336079001427,0.011682527139782906,-0.013620978221297264
1733358712342307800,5.900307861328125,-0.018572939559817314,0.009226027876138687,-0.00326074892655015
1733358712352272600,5.910272705078125,-0.01336831133812666,0.006092715077102184,0.006984969135373831
1733358712362237700,5.92023779296875,-0.006224647630006075,0.009446700103580952,0.012089449912309647
1733358712372202800,5.93020263671875,-0.002817791886627674,0.01520848460495472,0.01025431975722313
1733358712382167600,5.94016748046875,-0.0004563668044283986,0.017824508249759674,0.0009846552275121212
1733358712392132900,5.9501328125,-0.0019589222501963377,0.01280791126191616,-0.0008388110436499119
1733358712402097700,5.96009765625,-0.011333880014717579,0.0030095307156443596,0.000043187872506678104
1733358712412062700,5.970062744140625,-0.018283188343048096,-0.013398590497672558,0.001939339330419898
1733358712422027500,5.980027587890625,-0.024070236831903458,-0.027834519743919373,0.005295188631862402
1733358712431992800,5.989992919921875,-0.025267476215958595,-0.03700040280818939,0.007815515622496605
1733358712441957600,5.99995751953125,-0.02602194994688034,-0.038100019097328186,0.008159861899912357
1733358712451922700,6.009922607421875,-0.02188262529671192,-0.0379357635974884,0.011110899038612843
1733358712461887200,6.01988720703125,-0.009959653951227665,-0.03645238280296326,0.012207322753965855
1733358712471852000,6.02985205078125,-0.0029302823822945356,-0.03435270115733147,0.008068754337728024
1733358712481817000,6.039817138671875,0.004536954686045647,-0.028263650834560394,0.004477215465158224
1733358712491782100,6.0497822265625,0.010542908683419228,-0.021992122754454613,0.0022751782089471817
1733358712501747200,6.059747314453125,0.016047928482294083,-0.01120445691049099,0.0007539805956184864
1733358712511712000,6.0697119140625,0.01584559865295887,-0.0028295964002609253,0.0026099644601345062
1733358712521677000,6.079677001953125,0.014388050884008408,0.0013995040208101273,0.009047357365489006
1733358712531642000,6.08964208984375,0.012337885797023773,0.0026926659047603607,0.013297072611749172
1733358712541607200,6.099607177734375,0.008696545846760273,0.002124081365764141,0.013724509626626968
1733358712551572000,6.109572021484375,0.004691159352660179,0.0035464242100715637,0.0058914897963404655
1733358712561537000,6.119537109375,0.005486911162734032,0.004556028172373772,-0.000945377629250288
1733358712571502300,6.12950244140625,0.004850184544920921,0.003916344605386257,-0.008088627830147743
1733358712581467100,6.139467041015625,-0.0011595044052228332,-0.00041635241359472275,-0.013900711201131344
1733358712591432200,6.14943212890625,-0.003296950599178672,-0.007996824570000172,-0.010846195742487907
1733358712601397000,6.15939697265625,-0.006041870918124914,-0.014055781997740269,-0.010837672278285027
1733358712611362300,6.1693623046875,-0.0027625523507595062,-0.01546174194663763,-0.01163665670901537
1733358712621327000,6.1793271484375,-0.0006895477417856455,-0.01250776369124651,-0.010911477729678154
1733358712631291100,6.189291015625,-0.003059249371290207,-0.005900837481021881,-0.008757119998335838
1733358712641256200,6.199256103515625,0.005495356395840645,-0.001718609593808651,-0.004755455069243908
1733358712651221000,6.209220947265625,0.007573302369564772,0.0005714232102036476,0.000024573528207838535
1733358712661186300,6.219186279296875,0.010123278014361858,0.004560572560876608,0.0024222175125032663
1733358712671151000,6.229151123046875,0.013129777275025845,0.008548512123525143,0.0018722997047007084
1733358712681116200,6.2391162109375,0.01632983237504959,0.009629755280911922,-0.0005748789990320802
1733358712691081000,6.2490810546875,0.01274082250893116,0.013295242562890053,-0.0027596584986895323
1733358712701046000,6.2590458984375,0.007669631391763687,0.016913414001464844,-0.009080938063561916
1733358712711011000,6.269010986328125,-0.001684735994786024,0.024324294179677963,-0.01417237427085638
1733358712720976100,6.27897607421875,-0.008827067911624908,0.024760786443948746,-0.016815295442938805
1733358712730941200,6.288941162109375,-0.016898304224014282,0.022526608780026436,-0.015941375866532326
1733358712740906000,6.298906005859375,-0.02337271347641945,0.015222091227769852,-0.013567434623837471
1733358712750871300,6.308871337890625,-0.02606428600847721,0.0036175469867885113,-0.008666385896503925
1733358712760836000,6.318836181640625,-0.027159377932548523,-0.006210848689079285,-0.006678869016468525
1733358712770801200,6.32880126953125,-0.0238342322409153,-0.014920416288077831,-0.00440629106014967
1733358712780766000,6.338765869140625,-0.021835530176758766,-0.021299485117197037,-0.00186616787686944
1733358712790731300,6.348731201171875,-0.015853559598326683,-0.027696244418621063,0.0031545490492135286
1733358712800696000,6.358696044921875,-0.0076315817423164845,-0.03652861714363098,0.008408432826399803
1733358712810661000,6.3686611328125,-0.0005006383289583027,-0.036441996693611145,0.011145786382257938
1733358712820626000,6.3786259765625,0.00526297464966774,-0.03326378017663956,0.012383357621729374
1733358712830591200,6.38859130859375,0.010343767702579498,-0.02769974246621132,0.014130396768450737
1733358712840556000,6.39855615234375,0.009855077601969242,-0.021839190274477005,0.01481349766254425
1733358712850521000,6.40852099609375,0.01130352821201086,-0.015211070887744427,0.014670469798147678
1733358712860486100,6.418486083984375,0.010858247987926006,-0.013833151198923588,0.013935437425971031
1733358712870451200,6.428451171875,0.01538032479584217,-0.01180056668817997,0.00925707258284092
1733358712880416300,6.438416259765625,0.01917426288127899,-0.014236293733119965,0.0052796415984630585
1733358712890381000,6.448381103515625,0.021309809759259224,-0.01352811511605978,-0.00029650062788277864
1733358712900346000,6.45834619140625,0.02117079310119152,-0.01479311753064394,-0.0000964972423389554
1733358712910311200,6.468311279296875,0.017941400408744812,-0.020567871630191803,-0.00011781731154769659
1733358712920276200,6.478276123046875,0.017670556902885437,-0.02898133173584938,0.0016433311393484473
1733358712930241000,6.488240966796875,0.017863715067505836,-0.033533770591020584,0.0008328257245011628
1733358712940206000,6.4982060546875,0.01747222989797592,-0.038123197853565216,0.0004503958625718951
1733358712950171000,6.5081708984375,0.015911875292658806,-0.03873461112380028,0.003910771571099758
1733358712960136200,6.51813623046875,0.0096491863951087,-0.03338298946619034,0.003428473137319088
1733358712970101000,6.52810107421875,0.0008195044938474894,-0.022544927895069122,0.007669301703572273
1733358712980066000,6.538066162109375,-0.0062413341365754604,-0.012373514473438263,0.01147336047142744
1733358712990031000,6.548031005859375,-0.018346775323152542,-0.010508994571864605,0.015582069754600525
1733358712999996200,6.55799609375,-0.029676927253603935,-0.007763541303575039,0.014535713940858841
1733358713009961200,6.567961181640625,-0.039995260536670685,-0.00523761659860611,0.009746585041284561
1733358713019926000,6.577926025390625,-0.046919744461774826,-0.0009286217391490936,0.0013232729397714138
1733358713029891000,6.58789111328125,-0.0575045645236969,0.012755049392580986,-0.005474746227264404
1733358713039856000,6.597856201171875,-0.06458830088376999,0.02651160955429077,0.0018526754574850202
1733358713049821200,6.6078212890625,-0.07764196395874023,0.041654154658317566,0.012503761798143387
1733358713059785200,6.61778515625,-0.08610601723194122,0.046767693012952805,0.024171603843569756
1733358713069750000,6.62775,-0.08930625766515732,0.04506519436836243,0.03192093223333359
1733358713079715000,6.637715087890625,-0.08737067878246307,0.029405007138848305,0.03198191896080971
1733358713089680100,6.64768017578125,-0.09282052516937256,0.002258777618408203,0.02767200767993927
1733358713099645200,6.657645263671875,-0.09554014354944229,-0.023421287536621094,0.017830029129981995
1733358713109610000,6.66760986328125,-0.09321289509534836,-0.029671411961317062,0.00898108258843422
1733358713119575000,6.677574951171875,-0.07514361292123795,-0.022730417549610138,0.001338076195679605
1733358713129540000,6.6875400390625,-0.052921682596206665,-0.008132411167025566,0.00021088344510644674
1733358713139505200,6.697505126953125,-0.03277566656470299,0.002254982478916645,0.0003320572432130575
1733358713149470200,6.70747021484375,-0.012477771379053593,0.0003399103879928589,-0.0030211997218430042
1733358713159435000,6.71743505859375,0.005826667882502079,0.003183100838214159,-0.01249246671795845
1733358713169400300,6.727400390625,0.020723894238471985,0.005273423623293638,-0.017687350511550903
1733358713179365000,6.737365234375,0.034682318568229675,0.0023490064777433872,-0.015354420058429241
1733358713189330200,6.747330078125,0.040077775716781616,-0.005632338114082813,-0.006829176563769579
1733358713199295000,6.757294921875,0.03861410543322563,-0.020176924765110016,0.006418984849005938
1733358713209260300,6.76726025390625,0.034254588186740875,-0.02408239245414734,0.021027013659477234
1733358713219225000,6.77722509765625,0.025597184896469116,-0.025278151035308838,0.0309281125664711
1733358713229190100,6.787190185546875,0.02556418813765049,-0.01548698265105486,0.027673207223415375
1733358713239155000,6.797155029296875,0.02802415005862713,-0.004565092734992504,0.023022528737783432
1733358713249120000,6.8071201171875,0.03410337120294571,0.005864757113158703,0.014653686434030533
1733358713259085000,6.8170849609375,0.038596123456954956,0.011631299741566181,0.00534034613519907
1733358713269050000,6.827050048828125,0.044754959642887115,0.013309253379702568,-0.00249147298745811
1733358713279015200,6.83701513671875,0.051437363028526306,0.008019682951271534,-0.005410564132034779
1733358713288980000,6.84697998046875,0.05597275123000145,0.002038336358964443,-0.006144655868411064
1733358713298945300,6.8569453125,0.06175127997994423,-0.005726908333599567,-0.009892789646983147
1733358713308910000,6.86691015625,0.06176256015896797,-0.006665327586233616,-0.01728248782455921
1733358713318875100,6.876875244140625,0.05999235808849335,-0.005137206986546516,-0.021203724667429924
1733358713328840000,6.88683984375,0.05270985886454582,-0.011712201870977879,-0.020144354552030563
1733358713338805200,6.89680517578125,0.043277475982904434,-0.01153856236487627,-0.017381059005856514
1733358713348770000,6.90677001953125,0.03255314379930496,-0.012094269506633282,-0.0129808709025383
1733358713358735000,6.916735107421875,0.024400940164923668,-0.006815086118876934,-0.011540367268025875
1733358713368700000,6.926699951171875,0.017962384968996048,0.0013471627607941628,-0.011513766832649708
1733358713378665200,6.936665283203125,0.015017461031675339,0.014261363074183464,-0.010753700509667397
1733358713388630300,6.94663037109375,0.014253400266170502,0.024874325841665268,-0.013923927210271358
1733358713398595000,6.956594970703125,0.015698431059718132,0.030931685119867325,-0.019575687125325203
1733358713408560000,6.96656005859375,0.020619306713342667,0.03278917074203491,-0.02405906654894352
1733358713418525200,6.976525146484375,0.021560734137892723,0.029182983562350273,-0.024945098906755447
1733358713428490200,6.986490234375,0.01912418194115162,0.027472641319036484,-0.022714713588356972
1733358713438455000,6.996455078125,0.011397551745176315,0.02949238196015358,-0.019981244578957558
1733358713448420000,7.006420166015625,0.0007170640747062862,0.03401844576001167,-0.013623395934700966
1733358713458385000,7.016385009765625,-0.011935347691178322,0.037769243121147156,-0.0056839799508452415
1733358713468350500,7.0263505859375,-0.02263817936182022,0.036808084696531296,0.00101831229403615
1733358713478315300,7.036315185546875,-0.03145803511142731,0.03128655254840851,0.005927583668380976
1733358713488279300,7.046279296875,-0.03611809015274048,0.02553480491042137,0.009367301128804684
1733358713498244400,7.056244384765625,-0.0385919027030468,0.013694390654563904,0.01006425078958273
1733358713508209200,7.066209228515625,-0.03891012817621231,-0.00004421360790729523,0.010643362998962402
1733358713518174500,7.076174560546875,-0.04159406200051308,-0.016093220561742783,0.013285750523209572
1733358713528139300,7.08613916015625,-0.043937359005212784,-0.031593773514032364,0.015564492903649807
1733358713538104300,7.096104248046875,-0.0396355539560318,-0.03771797567605972,0.015157029032707214
1733358713548069000,7.106069091796875,-0.031787194311618805,-0.03921802341938019,0.013536636717617512
1733358713558034400,7.116034423828125,-0.019741185009479523,-0.035111162811517715,0.011601850390434265
1733358713567999500,7.12599951171875,-0.004358073230832815,-0.03181792050600052,0.008261277340352535
1733358713577964300,7.13596435546875,0.014035048894584179,-0.028780056163668633,0.010112441144883633
1733358713587929300,7.145929443359375,0.02780538611114025,-0.027380408719182014,0.00754629448056221
1733358713597894400,7.155894287109375,0.04068043828010559,-0.024325495585799217,0.004486588761210442
1733358713607859500,7.165859375,0.04609089344739914,-0.021045926958322525,0.003192682284861803
1733358713617824300,7.17582421875,0.05192295089364052,-0.013123555108904839,0.0022323462180793285
1733358713627789300,7.185789306640625,0.049057867377996445,-0.0033432170748710632,0.00030552560929208994
1733358713637754000,7.195754150390625,0.04415791481733322,0.008663644082844257,-0.002630076836794615
1733358713647719400,7.205719482421875,0.03756231814622879,0.0184165108948946,-0.009358293376863003
1733358713657684200,7.215684326171875,0.027598898857831955,0.027879785746335983,-0.013196706771850586
1733358713667649300,7.225649169921875,0.016345642507076263,0.03826875984668732,-0.018074044957756996
1733358713677614300,7.2356142578125,0.010694414377212524,0.043733302503824234,-0.020159833133220673
1733358713687579400,7.245579345703125,0.004018192179501057,0.04850500449538231,-0.020111342892050743
1733358713697544400,7.25554443359375,0.0015206796815618873,0.04790126904845238,-0.0176836047321558
1733358713707509200,7.26550927734375,0.0028202743269503117,0.04672195762395859,-0.017208509147167206
1733358713717474300,7.275474365234375,0.0034226812422275543,0.042440660297870636,-0.015090763568878174
1733358713727439400,7.285439453125,0.007348419167101383,0.03305349498987198,-0.011844645254313946
1733358713737404400,7.295404296875,0.010295206680893898,0.019168037921190262,-0.007756958715617657
1733358713747369200,7.305369140625,0.012080386281013489,0.007434217259287834,-0.003948483150452375
1733358713757334300,7.315334228515625,0.00847846083343029,-0.0072432616725564,0.003182130865752697
1733358713767299300,7.32529931640625,0.0009460399160161614,-0.016932837665081024,0.008684912696480751
1733358713777264400,7.335264404296875,-0.009602741338312626,-0.025253619998693466,0.017733534798026085
1733358713787229200,7.345229248046875,-0.015547225251793861,-0.030681628733873367,0.020510395988821983
1733358713797194200,7.3551943359375,-0.022834165021777153,-0.03087177872657776,0.020752478390932083
1733358713807159300,7.3651591796875,-0.025775669142603874,-0.03476447984576225,0.016403784975409508
1733358713817124400,7.375124267578125,-0.022412896156311035,-0.03786439821124077,0.01308415550738573
1733358713827089400,7.38508935546875,-0.015036633238196373,-0.03793121501803398,0.009310099296271801
1733358713837054200,7.39505419921875,-0.010476503521203995,-0.032422468066215515,0.01131945475935936
1733358713847019300,7.405019287109375,-0.003130117431282997,-0.023234881460666656,0.014236337505280972
1733358713856984300,7.414984375,0.004586125258356333,-0.021769076585769653,0.013776675797998905
1733358713866949400,7.424949462890625,0.01108189020305872,-0.022804610431194305,0.012706233188509941
1733358713876914200,7.4349140625,0.017545383423566818,-0.021596331149339676,0.008677402511239052
1733358713886879200,7.444879150390625,0.02201922796666622,-0.02024078369140625,0.003447487484663725
1733358713896844300,7.45484423828125,0.020058074966073036,-0.016495581716299057,-0.001158183324150741
1733358713906808300,7.464808349609375,0.013635421171784401,-0.011280983686447144,-0.003803601488471031
1733358713916773400,7.4747734375,0.002191284904256463,-0.012875152751803398,-0.0008722603088244796
1733358713926738200,7.48473828125,-0.009544957429170609,-0.015106122940778732,0.006543062627315521
1733358713936703200,7.494703125,-0.02152172476053238,-0.018660644069314003,0.012286702170968056
1733358713946668300,7.504668212890625,-0.034965671598911285,-0.015578793361783028,0.008487419225275517
1733358713956633300,7.51463330078125,-0.041751936078071594,-0.0091515202075243,0.0009016713593155146
1733358713966598400,7.524598388671875,-0.04546375572681427,-0.0014095334336161613,-0.007211970631033182
1733358713976563200,7.534563232421875,-0.04217208921909332,0.0031873490661382675,-0.012113252654671669
1733358713986528500,7.544528564453125,-0.03377610072493553,0.004875547252595425,-0.01541194412857294
1733358713996493300,7.554493408203125,-0.02413758635520935,0.004027596674859524,-0.011326655745506287
1733358714006458400,7.564458251953125,-0.01645033247768879,-0.0009064851328730583,-0.004007208626717329
1733358714016423200,7.574423095703125,-0.006417670752853155,-0.004997367039322853,0.0025468310341238976
1733358714026388500,7.584388427734375,-0.001146216643974185,-0.007601355202496052,0.007656768895685673
1733358714036353300,7.594353271484375,-0.0008679163292981684,-0.0064423466101288795,0.011557234451174736
1733358714046318300,7.604318359375,0.0005104236770421267,-0.0053770532831549644,0.011701008304953575
1733358714056283100,7.614283203125,0.0009634274174459279,-0.00170881487429142,0.010266363620758057
1733358714066248400,7.62424853515625,0.0017909837188199162,-0.004209819249808788,0.00793586764484644
1733358714076213200,7.634213134765625,0.0055495030246675014,-0.010212051682174206,0.004838877823203802
1733358714086178300,7.64417822265625,0.008629749529063702,-0.012971344403922558,0.006763691082596779
1733358714096143400,7.654143310546875,0.01851407252252102,-0.014956197701394558,0.00917678140103817
1733358714106108400,7.6641083984375,0.025717971846461296,-0.017600009217858315,0.011513592675328255
1733358714116073500,7.674073486328125,0.03532079979777336,-0.017473509535193443,0.01286701112985611
1733358714126038300,7.684038330078125,0.044445425271987915,-0.014668547548353672,0.014744878746569157
1733358714136003300,7.69400341796875,0.04911048337817192,-0.017415065318346024,0.014601067639887333
1733358714145968000,7.703968017578125,0.04813211038708687,-0.020656917244195938,0.015055960044264793
1733358714155933400,7.713933349609375,0.04153066501021385,-0.02848368138074875,0.01781179942190647
1733358714165898200,7.723898193359375,0.03065059520304203,-0.036711301654577255,0.016053715720772743
1733358714175863300,7.73386328125,0.020209671929478645,-0.040018949657678604,0.009338821284472942
1733358714185828000,7.743828125,0.004701790399849415,-0.03509322553873062,0.004230601713061333
1733358714195793400,7.75379345703125,-0.00977169070392847,-0.025176146999001503,-0.004948515444993973
1733358714205758200,7.76375830078125,-0.02287428081035614,-0.010652181692421436,-0.011192629113793373
1733358714215723300,7.77372314453125,-0.02956307679414749,0.007866108790040016,-0.01364034041762352
1733358714225688300,7.783688232421875,-0.029622115194797516,0.02915009669959545,-0.013956265524029732
1733358714235653400,7.7936533203125,-0.01888451725244522,0.04829529672861099,-0.012122679501771927
1733358714245618400,7.803618408203125,-0.004257216118276119,0.06238345056772232,-0.014394122175872326
1733358714255583200,7.813583251953125,0.010219726711511612,0.0706043615937233,-0.017641581594944
1733358714265548300,7.82354833984375,0.03059445135295391,0.07125049084424973,-0.025001689791679382
1733358714275513300,7.833513427734375,0.048616860061883926,0.06569380313158035,-0.033323269337415695
1733358714285478400,7.843478515625,0.067203588783741,0.05454985797405243,-0.037567418068647385
1733358714295443200,7.853443115234375,0.07820510864257812,0.036053139716386795,-0.036790572106838226
1733358714305408300,7.863408203125,0.08351261913776398,0.01215384155511856,-0.024429569020867348
1733358714315373300,7.873373291015625,0.07937353104352951,-0.020741522312164307,-0.009366996586322784
1733358714325338400,7.88333837890625,0.07200872153043747,-0.05559230595827103,0.007350385654717684
1733358714335303400,7.893303466796875,0.058017536997795105,-0.08288145065307617,0.020582834258675575
1733358714345267200,7.90326708984375,0.04196535050868988,-0.09715956449508667,0.02977687120437622
1733358714355232300,7.913232177734375,0.02690996788442135,-0.09823361039161682,0.03640041872859001
1733358714365197300,7.923197265625,0.008933006785809994,-0.0878830999135971,0.03873051702976227
1733358714375162400,7.933162353515625,-0.004206230863928795,-0.06528857350349426,0.03492698818445206
1733358714385127400,7.94312744140625,-0.014833259396255016,-0.04160251468420029,0.028504395857453346
1733358714395092200,7.95309228515625,-0.026297103613615036,-0.019504403695464134,0.020624103024601936
1733358714405057500,7.9630576171875,-0.031788211315870285,-0.011951874941587448,0.011207855306565762
1733358714415022300,7.973022216796875,-0.02892477996647358,-0.01858847215771675,-0.002421670127660036
1733358714424987400,7.9829873046875,-0.019447466358542442,-0.03186935558915138,-0.01638292334973812
1733358714434952200,7.9929521484375,-0.005990779958665371,-0.04291375353932381,-0.02551357075572014
1733358714444917200,8.002917236328125,0.00542358448728919,-0.04809188470244408,-0.021892182528972626
1733358714454882300,8.01288232421875,0.01597209833562374,-0.04691157117486,-0.012745289131999016
1733358714464846800,8.022846923828125,0.02223946340382099,-0.031693123281002045,0.0035663952585309744
1733358714474812000,8.03281201171875,0.023448538035154343,-0.0071702031418681145,0.015298685058951378
1733358714484776700,8.042776611328126,0.025600021705031395,0.023030035197734833,0.011914144270122051
1733358714494742000,8.052741943359376,0.027154242619872093,0.05431818217039108,-0.0021409541368484497
1733358714504706800,8.062706787109375,0.02737373672425747,0.0756329670548439,-0.01891471818089485
1733358714514671900,8.072671875,0.023859696462750435,0.08132839947938919,-0.025145981460809708
1733358714524636700,8.08263671875,0.021279696375131607,0.06944522261619568,-0.02620360627770424
1733358714534602000,8.09260205078125,0.01205743383616209,0.0467447005212307,-0.019724402576684952
1733358714544566800,8.10256689453125,0.0032115699723362923,0.01916966214776039,-0.0127651272341609
1733358714554531800,8.11253173828125,-0.0027232845313847065,-0.009853469207882881,-0.005596164148300886
1733358714564496600,8.12249658203125,-0.007504338398575783,-0.03904329240322113,0.002951864618808031
1733358714574461700,8.132461669921875,-0.009784004651010036,-0.05908810347318649,0.011174906976521015
1733358714584426800,8.1424267578125,-0.013240794651210308,-0.07109171897172928,0.013987601734697819
1733358714594391800,8.152391845703125,-0.01208231970667839,-0.06524128466844559,0.015879245474934578
1733358714604356900,8.16235693359375,-0.00471898028627038,-0.05049004778265953,0.019977174699306488
1733358714614321700,8.17232177734375,0.008154474198818207,-0.038125257939100266,0.020557478070259094
1733358714624287000,8.182286865234374,0.02374587394297123,-0.02807694859802723,0.023345205932855606
1733358714634251800,8.192251708984376,0.03161871060729027,-0.020403847098350525,0.02342962846159935
1733358714644216800,8.202216796875,0.03269346430897713,-0.013502874411642551,0.014650480821728706
1733358714654181600,8.212181640625,0.03181248903274536,-0.00766416173428297,0.00596271688118577
1733358714664147000,8.22214697265625,0.029515337198972702,-0.0060898372903466225,-0.0011400326620787382
1733358714674111700,8.23211181640625,0.023159438744187355,-0.010074193589389324,-0.0003719769883900881
1733358714684076800,8.242076904296875,0.008828098885715008,-0.013840187340974808,0.006729048676788807
1733358714694041900,8.252041748046874,-0.0011843210086226463,-0.016712140291929245,0.017686624079942703
1733358714704007000,8.2620068359375,-0.01012506429105997,-0.016508564352989197,0.020710784941911697
1733358714713972000,8.271971923828126,-0.018483661115169525,-0.010928441770374775,0.016112305223941803
1733358714723936800,8.281936767578125,-0.024002032354474068,0.0015601776540279388,0.006169247440993786
1733358714733901800,8.29190185546875,-0.022888565436005592,0.01914156973361969,0.001304717268794775
1733358714743867000,8.301866943359375,-0.01605197787284851,0.035246074199676514,-0.0008047772571444511
1733358714753832000,8.31183203125,-0.014832517132163048,0.05231640115380287,-0.0036090859211981297
1733358714763796700,8.321796630859374,-0.010843451134860516,0.0746079534292221,-0.013746433891355991
1733358714773760800,8.3317607421875,-0.004674505442380905,0.09541390091180801,-0.028856944292783737
1733358714783725800,8.341725830078126,0.010777091607451439,0.11108429729938507,-0.0455118827521801
1733358714793691000,8.35169091796875,0.025610633194446564,0.11295171082019806,-0.055723242461681366
1733358714803656000,8.361656005859375,0.031142698600888252,0.1038440391421318,-0.05813624709844589
1733358714813620700,8.371620849609375,0.0237223319709301,0.08191344141960144,-0.05159338563680649
1733358714823585800,8.381585693359375,0.0048869154416024685,0.053471267223358154,-0.03671721741557121
1733358714833550800,8.39155078125,-0.01873532496392727,0.022058751434087753,-0.013929614797234535
1733358714843516000,8.401515869140624,-0.03656723350286484,-0.0076057519763708115,0.0051743402145802975
1733358714853480700,8.411480712890626,-0.043841660022735596,-0.02901570312678814,0.022626034915447235
1733358714863445800,8.42144580078125,-0.04639117792248726,-0.04163532704114914,0.03162974864244461
1733358714873410800,8.431410888671875,-0.04344039782881737,-0.04647136107087135,0.033943504095077515
1733358714883375900,8.4413759765625,-0.03782246261835098,-0.05167485773563385,0.029985379427671432
1733358714893341000,8.4513408203125,-0.025642232969403267,-0.05397583171725273,0.02438528463244438
1733358714903305700,8.4613056640625,-0.015487941913306713,-0.057735376060009,0.01662999950349331
1733358714913270800,8.471270751953124,-0.010211687535047531,-0.06327927857637405,0.01410612091422081
1733358714923235800,8.48123583984375,-0.010860629379749298,-0.06548543274402618,0.01645798236131668
1733358714933201000,8.491200927734376,-0.016069239005446434,-0.06724950671195984,0.01946176216006279
1733358714943165700,8.501165771484375,-0.017512405291199684,-0.06860052794218063,0.024503393098711967
1733358714953130800,8.511130859375,-0.018091944977641106,-0.07264401018619537,0.03315958380699158
1733358714963095800,8.521095703125,-0.0154563058167696,-0.07169099152088165,0.038287870585918427
1733358714973060900,8.531060791015625,-0.011524415574967861,-0.06538781523704529,0.03712806478142738
1733358714983025700,8.541025634765624,-0.006476162001490593,-0.058897003531455994,0.03607233986258507
1733358714992990700,8.55099072265625,-0.007976586930453777,-0.046694133430719376,0.02844238467514515
1733358715002956000,8.5609560546875,-0.006265891715884209,-0.03273296728730202,0.021392015740275383
1733358715012920800,8.5709208984375,-0.010118686594069004,-0.025179710239171982,0.013662990182638168
1733358715022886000,8.580885986328125,-0.012971730902791023,-0.022497374564409256,0.008547591045498848
1733358715032850700,8.5908505859375,-0.012733911164104939,-0.02012396603822708,0.006647159345448017
1733358715042816000,8.60081591796875,-0.011639653705060482,-0.01581498049199581,0.006556466221809387
1733358715052780800,8.61078076171875,-0.011036180891096592,-0.013311609625816345,0.0034339099656790495
1733358715062745900,8.620745849609374,-0.0029638311825692654,-0.010640768334269524,0.0007036518072709441
1733358715072710700,8.630710693359376,0.0018093525432050228,-0.00718691386282444,-0.0006172761786729097
1733358715082675700,8.64067578125,0.006734371185302734,-0.007760284468531609,-0.002741000149399042
1733358715092640800,8.650640869140625,0.009336812421679497,-0.011943312361836433,0.0006843574228696525
1733358715102605800,8.660605712890625,0.013135215267539024,-0.01410773117095232,0.003132444806396961
1733358715112571000,8.67057080078125,0.012594860047101974,-0.01943778246641159,0.005235543008893728
1733358715122535700,8.68053564453125,0.014477322809398174,-0.023812953382730484,0.0058190044946968555
1733358715132501000,8.6905009765625,0.01427412312477827,-0.025203656405210495,0.007430483121424913
1733358715142465800,8.7004658203125,0.010578161105513573,-0.025723665952682495,0.008208739571273327
1733358715152430800,8.710430908203126,0.008411945775151253,-0.026506900787353516,0.0073559959419071674
1733358715162395600,8.720395751953125,0.006727173458784819,-0.028189338743686676,0.004808392375707626
1733358715172361000,8.73036083984375,0.004287451971322298,-0.02785111963748932,0.002086375607177615
1733358715182325800,8.74032568359375,0.0018698131898418069,-0.021684151142835617,0.0005706296651624143
1733358715192290800,8.750290771484375,-0.0007621888071298599,-0.01916799694299698,-0.0007116824854165316
1733358715202255600,8.760255615234374,-0.00492768082767725,-0.018247827887535095,0.001086202566511929
1733358715212219600,8.7702197265625,-0.006990831810981035,-0.016753263771533966,0.0018904771422967315
1733358715222185000,8.78018505859375,-0.005473075434565544,-0.014415696263313293,0.0020280368626117706
1733358715232149800,8.790149658203125,-0.0009313207701779902,-0.012834044173359871,0.0010669019538909197
1733358715242114800,8.80011474609375,0.0014074953505769372,-0.00847039557993412,0.0025849142111837864
1733358715252079600,8.81007958984375,0.008378852158784866,-0.004840507172048092,0.001063183881342411
1733358715262045000,8.820044921875,0.014997424557805061,-0.0014722244814038277,0.0019487196113914251
1733358715272009700,8.830009765625,0.01884169690310955,-0.002294076606631279,0.006070760078728199
1733358715281974800,8.839974853515624,0.02066979557275772,-0.002427114173769951,0.009287131950259209
1733358715291939800,8.84993994140625,0.023386487737298012,-0.006345423869788647,0.011018719524145126
1733358715301905000,8.85990478515625,0.028631364926695824,-0.008697357028722763,0.010859877802431583
1733358715311870000,8.869869873046875,0.03415875509381294,-0.014250580221414566,0.012327012605965137
1733358715321834800,8.879834716796875,0.04008039832115173,-0.020112169906497,0.01142490841448307
1733358715331799800,8.8897998046875,0.04494306445121765,-0.02484886907041073,0.014985555782914162
1733358715341764900,8.899764892578125,0.04557251185178757,-0.028370771557092667,0.015106679871678352
1733358715351730000,8.90972998046875,0.043267544358968735,-0.030636854469776154,0.01972753182053566
1733358715361694700,8.91969482421875,0.03920756280422211,-0.03392111882567406,0.021643809974193573
1733358715371659800,8.92965966796875,0.03260904550552368,-0.037625573575496674,0.019976940006017685
1733358715381624600,8.93962451171875,0.02603043057024479,-0.034366361796855927,0.018334409222006798
1733358715391590000,8.94958984375,0.01940794847905636,-0.03211119771003723,0.01501557882875204
1733358715401555000,8.959554931640625,0.015918569639325142,-0.028775442391633987,0.011259378865361214
1733358715411519700,8.969519775390625,0.008301129564642906,-0.030080925673246384,0.008371979929506779
1733358715421484800,8.97948486328125,-0.003649819642305374,-0.02938440442085266,0.008626040071249008
1733358715431449900,8.989449951171874,-0.010765786282718182,-0.024230387061834335,0.004857134073972702
1733358715441415000,8.999414794921876,-0.014814617112278938,-0.019800014793872833,0.0013641210971400142
1733358715451379700,9.009379638671875,-0.017871394753456116,-0.013483263552188873,-0.0006937035359442234
1733358715461344800,9.0193447265625,-0.014874516986310482,-0.011028250679373741,-0.00013376562856137753
1733358715471310300,9.029310302734375,-0.012467551976442337,-0.011299360543489456,0.0007354901172220707
1733358715481275400,9.039275390625,-0.012302247807383537,-0.011868974193930626,0.0019960692152380943
1733358715491240200,9.049240234375,-0.01267748698592186,-0.011843940243124962,0.002152396831661463
1733358715501205500,9.05920556640625,-0.008115722797811031,-0.014165676198899746,0.002272384474053979
1733358715511170300,9.06917041015625,-0.0009012200171127915,-0.016130555421113968,0.004548321943730116
1733358715521135400,9.07913525390625,0.008100579492747784,-0.01661268249154091,0.004612389951944351
1733358715531100200,9.08910009765625,0.014625856652855873,-0.0111177833750844,0.006711226888000965
1733358715541065500,9.0990654296875,0.021673914045095444,-0.005708904005587101,0.004961263854056597
1733358715551030300,9.1090302734375,0.023363422602415085,-0.005492654629051685,0.003302647266536951
1733358715560995300,9.118995361328125,0.024813996627926826,-0.008982100524008274,0.0052141123451292515
1733358715570960400,9.12896044921875,0.02688540332019329,-0.011037527583539486,0.00907010305672884
1733358715580925400,9.138925537109374,0.02523525431752205,-0.011325267143547535,0.011452015489339828
1733358715590890500,9.148890380859376,0.023206191137433052,-0.009931636042892933,0.013590799644589424
1733358715600855300,9.158855224609376,0.021210459992289543,-0.010025156661868095,0.012232336215674877
1733358715610820400,9.1688203125,0.021117782220244408,-0.011278439313173294,0.008533204905688763
1733358715620785400,9.178785400390625,0.017671743407845497,-0.012013876810669899,0.0032467320561408997
1733358715630750500,9.18875048828125,0.013716948218643665,-0.013326015323400497,0.0013452351558953524
1733358715640715300,9.19871533203125,0.009054034017026424,-0.012670714408159256,-0.000774368760176003
1733358715650680300,9.208680419921874,0.006406319327652454,-0.01264195330440998,-0.001158662955276668
1733358715660644400,9.218644287109376,0.0030316312331706285,-0.014156910590827465,0.00017151597421616316
1733358715670609400,9.228609375,-0.00025897062732838094,-0.011203198693692684,-0.0009584631770849228
1733358715680574500,9.238574462890625,-0.0027204742655158043,-0.011776193045079708,0.0003635468892753124
1733358715690539300,9.248539306640625,-0.003008628264069557,-0.011330646462738514,0.002048528753221035
1733358715700504300,9.25850439453125,-0.0034269129391759634,-0.011318053118884563,0.002489317674189806
1733358715710469000,9.26846923828125,-0.00482640415430069,-0.006495068781077862,0.002384655410423875
1733358715720434400,9.278434326171874,-0.0037716450169682503,-0.0043713850900530815,0.001439057756215334
1733358715730399500,9.2883994140625,-0.007131222635507584,0.0038777566514909267,-0.0009210355347022414
1733358715740364300,9.2983642578125,-0.00945178885012865,0.008985139429569244,-0.0024437913671135902
1733358715750329300,9.308329345703125,-0.009445929899811745,0.013662182725965977,-0.004910944029688835
1733358715760294400,9.31829443359375,-0.01283915527164936,0.01929543912410736,-0.0073465704917907715
1733358715770259500,9.328259521484375,-0.01406527403742075,0.02819465845823288,-0.010480845347046852
1733358715780224300,9.338224365234375,-0.012679912149906158,0.027115914970636368,-0.012529086321592331
1733358715790189300,9.348189208984374,-0.010513696819543839,0.028720472007989883,-0.009622512385249138
1733358715800154400,9.358154296875,-0.0081298453733325,0.024607069790363312,-0.008604368194937706
1733358715810119400,9.368119384765626,-0.007094674278050661,0.02334286831319332,-0.008060816675424576
1733358715820084200,9.378084228515625,-0.006170487031340599,0.023948222398757935,-0.006931342650204897
1733358715830049300,9.38804931640625,-0.002389597473666072,0.024556221440434456,-0.007008574437350035
1733358715840014300,9.398014404296875,-0.001019289018586278,0.023588500916957855,-0.006399563513696194
1733358715849979400,9.4079794921875,0.0007615669164806604,0.022275295108556747,-0.003142517525702715
1733358715859944400,9.4179443359375,-0.00064418266993016,0.0207509845495224,-0.0020890585146844387
1733358715869909200,9.4279091796875,-0.0022396824788302183,0.01588299311697483,0.0006667805137112737
1733358715879874600,9.43787451171875,-0.004995850846171379,0.013893276453018188,0.0011814129538834095
1733358715889839400,9.44783935546875,-0.008005755953490734,0.012151835486292839,-0.0008838684298098087
1733358715899804400,9.457804443359375,-0.009055020287632942,0.011542350053787231,-0.001860308926552534
1733358715909769200,9.467769287109375,-0.01084519736468792,0.008659211918711662,-0.004055552184581757
1733358715919734300,9.477734375,-0.009195039980113506,0.007421709597110748,-0.003944341093301773
1733358715929699300,9.48769921875,-0.008936713449656963,0.00649945717304945,-0.003750196658074856
1733358715939664400,9.497664306640624,-0.01047325786203146,0.0085300263017416,-0.004053588956594467
1733358715949629200,9.507629150390626,-0.010047418996691704,0.01024110708385706,-0.00394945964217186
1733358715959594200,9.51759423828125,-0.00968773104250431,0.011584548279643059,-0.004017181694507599
1733358715969559600,9.5275595703125,-0.01019719336181879,0.012980842962861061,-0.002796654822304845
1733358715979524400,9.5375244140625,-0.011816647835075855,0.010666187852621078,-0.0031388653442263603
1733358715989489400,9.547489501953125,-0.012084029614925385,0.011802825145423412,-0.0014102073619142175
1733358715999454200,9.5574541015625,-0.013602739199995995,0.013530643656849861,-0.0031025740318000317
1733358716009419500,9.56741943359375,-0.014791307970881462,0.020413585007190704,-0.0055849067866802216
1733358716019384300,9.57738427734375,-0.013571579940617085,0.02153051272034645,-0.006198232527822256
1733358716029349400,9.587349365234376,-0.008830354548990726,0.02423788234591484,-0.009592963382601738
1733358716039314200,9.597314208984375,-0.005163650959730148,0.02625715732574463,-0.01081759948283434
1733358716049279500,9.607279541015625,-0.00048021620023064315,0.025562338531017303,-0.009940087795257568
1733358716059244300,9.617244384765625,0.0031962497159838676,0.02027111127972603,-0.007251369301229715
1733358716069209300,9.627209228515625,0.003584005869925022,0.015297391451895237,-0.004457447212189436
1733358716079174400,9.63717431640625,0.006473920773714781,0.007949916645884514,-0.00480987410992384
1733358716089139500,9.647139404296874,0.007093372289091349,0.00457329535856843,-0.003303323872387409
1733358716099104500,9.6571044921875,0.008259289897978306,0.0021975934505462646,-0.0016654855571687222
1733358716109068300,9.667068359375,0.010572511702775955,-0.00037155766040086746,0.00227332953363657
1733358716119033300,9.677033447265625,0.012273711152374744,-0.0020627258345484734,0.00474260188639164
1733358716128998400,9.686998291015625,0.008652078919112682,-0.002590297721326351,0.0037428513169288635
1733358716138963500,9.69696337890625,0.009533009491860867,-0.000013113953173160553,0.0034954289440065622
1733358716148928500,9.706928466796874,0.0062440065667033195,0.00005719345062971115,0.0024815634824335575
1733358716158893300,9.716893310546874,0.003947079181671143,-0.0016771536320447922,0.001750676310621202
1733358716168858400,9.7268583984375,0.0020346627570688725,-0.004178926348686218,0.002827658783644438
1733358716178823400,9.736823486328126,-0.000006208603736013174,-0.007476843893527985,0.0019047096138820052
1733358716188788500,9.74678857421875,-0.00030608056113123894,-0.00513219740241766,0.0019768814090639353
1733358716198753300,9.756753173828125,-0.0007176649523898959,-0.004610718227922916,0.0012802481651306152
1733358716208718300,9.76671826171875,-0.00018183693464379758,0.001931869424879551,0.0009337708470411599
1733358716218683100,9.77668310546875,0.00048686182708479464,0.010256798006594181,-0.001033647800795734
1733358716228648400,9.7866484375,-0.00132861512247473,0.017171429470181465,0.0006606552633456886
1733358716238613200,9.79661328125,-0.0025464296340942383,0.02371365949511528,-0.0030002384446561337
1733358716248578300,9.806578369140626,-0.004762711934745312,0.02569212019443512,-0.00374459195882082
1733358716258543400,9.81654345703125,-0.006511413957923651,0.02643459104001522,-0.008928995579481125
1733358716268508400,9.82650830078125,-0.009884839877486229,0.020736757665872574,-0.007554272655397654
1733358716278473500,9.836473388671875,-0.014721428044140339,0.01748226396739483,-0.005900857038795948
1733358716288438300,9.846438232421875,-0.017600039020180702,0.01623004674911499,-0.006358121521770954
1733358716298403300,9.8564033203125,-0.021862784400582314,0.01953037641942501,-0.005836038384586573
1733358716308368400,9.866368408203124,-0.023254020139575005,0.019479775801301003,-0.008356453850865364
1733358716318333400,9.87633349609375,-0.02162829414010048,0.017993547022342682,-0.007965057156980038
1733358716328298200,9.88629833984375,-0.019674332812428474,0.012919426895678043,-0.004042487125843763
1733358716338263300,9.89626318359375,-0.01660943403840065,0.007682505063712597,-0.00278219161555171
1733358716348228400,9.906228271484375,-0.010423443280160427,0.010338209569454193,-0.0015515451086685061
1733358716358193400,9.916193359375,-0.007915684953331947,0.010417972691357136,-0.003780568251386285
1733358716368158500,9.926158447265625,-0.004793128464370966,0.01191679947078228,-0.0029904081020504236
1733358716378123300,9.936123291015624,-0.003897016867995262,0.009685911238193512,-0.004216542933136225
1733358716388088600,9.946088623046874,-0.0023158981930464506,0.010794052854180336,-0.00400508800521493
1733358716398053400,9.956053466796876,-0.0032311773393303156,0.010734569281339645,-0.0021159565076231956
1733358716408018400,9.966018310546875,-0.006040546111762524,0.006504937075078487,0.001245219144038856
1733358716417983200,9.975983154296875,-0.0044754487462341785,0.0040625957772135735,0.002210865495726466
1733358716427948500,9.985948486328125,-0.005396369844675064,0.0037422175519168377,0.0043435245752334595
1733358716437913300,9.995913330078125,-0.002229891950264573,0.0029221186414361,0.005485081113874912
1733358716447878400,10.00587841796875,-0.0019193673506379128,0.0002570934593677521,0.0031449617817997932
1733358716457843200,10.01584326171875,-0.0017869450384750962,0.0006856638938188553,0.0007416153675876558
1733358716467807700,10.025807861328126,0.0001499719510320574,0.0029525463469326496,0.000012441887520253658
1733358716477772800,10.035772705078125,0.0006298032822087407,0.004605554975569248,0.0018699708161875606
1733358716487737600,10.045737548828125,0.00028678812668658793,0.003529903944581747,0.002097937511280179
1733358716497702700,10.05570263671875,0.0013249795883893967,0.004711410962045193,0.0016134096076712012
1733358716507667700,10.065667724609375,-0.0011232643155381083,0.005273870192468166,0.0036395424976944923
1733358716517632800,10.0756328125,-0.005442140623927116,0.004476460162550211,0.0015454876702278852
1733358716527597600,10.08559765625,-0.00979987159371376,0.0056687574833631516,0.0012445504544302821
1733358716537562600,10.095562744140626,-0.012947635725140572,0.006233478896319866,-0.0005638300208374858
1733358716547527700,10.105527587890625,-0.01315296534448862,0.00839410163462162,-0.00104106857907027
1733358716557491700,10.11549169921875,-0.013115066103637218,0.009937942959368229,-0.004718964919447899
1733358716567456800,10.125456787109375,-0.01264182198792696,0.013442129828035831,-0.004637205973267555
1733358716577421600,10.135421630859375,-0.01286819763481617,0.012598758563399315,-0.004064762033522129
1733358716587386600,10.14538671875,-0.009014070965349674,0.012237368151545525,-0.002224783878773451
1733358716597351700,10.1553515625,-0.008434664458036423,0.011451562866568565,-0.001493948744609952
1733358716607316700,10.165316650390626,-0.006599746644496918,0.00979587621986866,-0.002612209878861904
1733358716617281800,10.17528173828125,-0.005472283810377121,0.008716839365661144,-0.0009697529021650553
1733358716627246600,10.18524658203125,-0.004499430768191814,0.007536526769399643,-0.0005487070884555578
1733358716637212000,10.1952119140625,-0.0029800692573189735,0.005029219202697277,-0.0008067572489380836
1733358716647176700,10.2051767578125,-0.0029864609241485596,0.0027628690004348755,-0.0028837567660957575
1733358716657141800,10.215141845703124,-0.00008014641935005784,0.0035700220614671707,-0.0012710767332464457
1733358716667106600,10.2251064453125,-0.00003487267531454563,0.003528210334479809,-0.0019323397427797318
1733358716677071600,10.235071533203126,0.001975596882402897,-0.000168616883456707,-0.0005867580184713006
1733358716687036700,10.24503662109375,0.0041724382899701595,-0.002490093931555748,0.0014681370230391622
1733358716697001700,10.255001708984375,0.0027991861570626497,-0.007823477499186993,0.0005772633594460785
1733358716706966500,10.264966552734375,0.005918014328926802,-0.00877262745052576,-0.000011827913112938404
1733358716716931600,10.274931640625,0.005677222274243832,-0.008144876919686794,0.0005556790856644511
1733358716726896600,10.284896728515625,0.006081490311771631,-0.012199006043374538,0.002027608221396804
1733358716736861700,10.29486181640625,0.008637620136141777,-0.01179494522511959,0.004452424589544535
1733358716746826800,10.30482666015625,0.006780864670872688,-0.011714251711964607,0.005680141504853964
1733358716756791600,10.31479150390625,0.006794047076255083,-0.01401540543884039,0.005131179001182318
1733358716766756900,10.3247568359375,0.004953003954142332,-0.01287237647920847,0.0029529796447604895
1733358716776721700,10.3347216796875,0.002956670243293047,-0.012874034233391285,0.003175075864419341
1733358716786686700,10.344686767578125,0.003736443817615509,-0.018064800649881363,0.00392688624560833
1733358716796651500,10.354651611328125,0.0034743535798043013,-0.015608045272529125,0.004339796490967274
1733358716806616800,10.364616943359374,0.005719398148357868,-0.015798192471265793,0.005314513109624386
1733358716816581600,10.37458154296875,0.008244124241173267,-0.016534388065338135,0.005212666466832161
1733358716826546700,10.384546630859376,0.008541598916053772,-0.012932728044688702,0.005656082648783922
1733358716836511500,10.394511474609375,0.008314341306686401,-0.008504817262291908,0.006218375638127327
1733358716846476800,10.404476806640625,0.007740163244307041,-0.0013089561834931374,0.005075613036751747
1733358716856441900,10.41444189453125,0.005357418674975634,0.004071531351655722,0.002192204352468252
1733358716866406700,10.42440673828125,0.0056732697412371635,0.008039641194045544,-0.0009306184947490692
1733358716876371700,10.434371826171875,0.003441625041887164,0.0025811390951275826,-0.0021242178045213223
1733358716886336800,10.444336669921874,-0.0006684316322207451,-0.004575573839247227,-0.0023207589983940125
1733358716896301800,10.4543017578125,-0.004886717535555363,-0.008368737995624542,-0.0017198525601997972
1733358716906266600,10.4642666015625,-0.0064489278011024,-0.006370300427079201,-0.0015781723195686936
1733358716916231700,10.474231689453125,-0.010902357287704945,-0.0014644498005509377,-0.0039529819041490555
1733358716926196500,10.484196533203125,-0.013952208682894707,0.0025891480036079884,-0.002751629799604416
1733358716936161800,10.494161865234375,-0.012607907876372337,0.00008677225559949875,-0.0011517619714140892
1733358716946126600,10.504126708984375,-0.010769261978566647,-0.0001031113788485527,0.0008607889176346362
1733358716956091600,10.514091552734374,-0.009004980325698853,0.006023688241839409,-0.001996139995753765
1733358716966056700,10.524056640625,-0.003511412302032113,0.012599831447005272,-0.01030333898961544
1733358716976021800,10.534021728515626,-0.00356122013181448,0.016551747918128967,-0.013730961829423904
1733358716985986800,10.54398681640625,-0.0044041103683412075,0.019364578649401665,-0.014688635244965553
1733358716995951600,10.55395166015625,-0.005224132910370827,0.02341603860259056,-0.01054463442414999
1733358717005915600,10.56391552734375,-0.006294723600149155,0.024956941604614258,-0.008415436372160912
1733358717015880700,10.573880615234375,-0.006472664885222912,0.03127134218811989,-0.007029806729406118
1733358717025845800,10.583845703125,-0.00928629469126463,0.03837718814611435,-0.01045543048530817
1733358717035810800,10.593810791015626,-0.009094133973121643,0.04704362899065018,-0.015211653895676136
1733358717045775600,10.603775634765626,-0.008118350990116596,0.05319925770163536,-0.018976565450429916
1733358717055740700,10.61374072265625,-0.008612402714788914,0.05177685618400574,-0.01821611262857914
1733358717065705700,10.623705810546875,-0.009884594939649105,0.0520748645067215,-0.018623841926455498
1733358717075670800,10.6336708984375,-0.013523712754249573,0.05247766152024269,-0.015653450042009354
1733358717085635600,10.643635498046875,-0.016968779265880585,0.05019400268793106,-0.016028156504034996
1733358717095600600,10.6536005859375,-0.018801692873239517,0.04943619295954704,-0.01635657250881195
1733358717105565700,10.663565673828124,-0.02260308898985386,0.049525145441293716,-0.014196217060089111
1733358717115530800,10.67353076171875,-0.02344714291393757,0.0455058291554451,-0.013705424964427948
1733358717125495600,10.68349560546875,-0.02639952301979065,0.04513644799590111,-0.012709667906165123
1733358717135460600,10.693460693359375,-0.027537589892745018,0.04966631159186363,-0.015102465637028217
1733358717145426000,10.703426025390625,-0.025537023320794106,0.05339020863175392,-0.016143759712576866
1733358717155390700,10.713390625,-0.01622902788221836,0.05734808370471001,-0.013862371444702148
1733358717165355800,10.723355712890625,0.0007299802964553237,0.06410052627325058,-0.011409067548811436
1733358717175320600,10.733320556640624,0.018870079889893532,0.07997632026672363,-0.01560528576374054
1733358717185286000,10.743285888671876,0.03581151366233826,0.11039068549871445,-0.023320728912949562
1733358717195250700,10.753250732421876,0.048811446875333786,0.14888231456279755,-0.030891170725226402
1733358717205215700,10.7632158203125,0.0524357445538044,0.18305572867393494,-0.035176731646060944
1733358717215180500,10.7731806640625,0.05023342743515968,0.21278931200504303,-0.0330023467540741
1733358717225145600,10.7831455078125,0.04764590039849281,0.22241424024105072,-0.025544961914420128
1733358717235110700,10.793110595703125,0.03953135386109352,0.20597359538078308,-0.02093016356229782
1733358717245075700,10.80307568359375,0.022155292332172394,0.17351391911506653,-0.018786851316690445
1733358717255040800,10.813040771484374,0.0018682855879887938,0.13974763453006744,-0.01596677303314209
1733358717265005600,10.823005615234376,-0.02585388906300068,0.1139296293258667,-0.013609343208372593
1733358717274971000,10.832970947265625,-0.056004129350185394,0.09536279737949371,-0.013641992583870888
1733358717284935700,10.842935791015625,-0.07915712147951126,0.0837375670671463,-0.017548849806189537
1733358717294900700,10.852900634765625,-0.08976422250270844,0.08408376574516296,-0.02611171081662178
1733358717304865500,10.862865478515625,-0.08814555406570435,0.08701510727405548,-0.03952205926179886
1733358717314830800,10.872830810546875,-0.07375119626522064,0.08470582216978073,-0.04950572922825813
1733358717324795600,10.882795654296874,-0.05322861298918724,0.07685589045286179,-0.05582248046994209
1733358717334760700,10.8927607421875,-0.032125670462846756,0.06995788961648941,-0.05538782849907875
1733358717344725500,10.9027255859375,-0.0035142647102475166,0.054886266589164734,-0.045551177114248276
1733358717354690800,10.91269091796875,0.02630649507045746,0.03948590159416199,-0.027077089995145798
1733358717364655600,10.922655517578125,0.06692875921726227,0.02296418324112892,-0.013025453314185143
1733358717374620700,10.93262060546875,0.11682956665754318,0.0014755791053175926,-0.0017353072762489319
1733358717384585700,10.942585693359375,0.17057296633720398,-0.014836282469332218,-0.0022631457541137934
1733358717394550800,10.95255078125,0.21463316679000854,-0.019366571679711342,-0.005379821639508009
1733358717404515800,10.962515869140624,0.23708096146583557,-0.023653194308280945,0.0005598265561275184
1733358717414480600,10.972480712890626,0.22769968211650848,-0.04922790825366974,0.02482081763446331
1733358717424445700,10.98244580078125,0.19432148337364197,-0.08607673645019531,0.050793830305337906
1733358717434410500,10.992410400390625,0.15359526872634888,-0.10833411663770676,0.06619122624397278
1733358717444375800,11.002375732421875,0.11164329200983047,-0.11918968707323074,0.07329627871513367
1733358717454339800,11.01233984375,0.07340898364782333,-0.1271509826183319,0.07081243395805359
1733358717464304600,11.0223046875,0.042130690068006516,-0.13402432203292847,0.061056748032569885
1733358717474270500,11.0322705078125,0.013243627734482288,-0.13979816436767578,0.04845106601715088
1733358717484235500,11.042235595703126,-0.021221404895186424,-0.14336466789245605,0.02722194232046604
1733358717494200600,11.05220068359375,-0.05867370218038559,-0.13718001544475555,0.007822412066161633
1733358717504165400,11.062165283203125,-0.09365091472864151,-0.123293936252594,-0.008192656561732292
1733358717514130400,11.07213037109375,-0.11829828470945358,-0.10545853525400162,-0.016657838597893715
1733358717524095500,11.082095458984375,-0.13183832168579102,-0.08192098885774612,-0.021346066147089005
1733358717534060500,11.092060546875,-0.13113224506378174,-0.05995863676071167,-0.024651791900396347
1733358717544025300,11.102025390625,-0.1201445683836937,-0.04412001743912697,-0.02587684616446495
1733358717553990400,11.111990478515626,-0.10477117449045181,-0.03731638193130493,-0.021801400929689407
1733358717563955500,11.12195556640625,-0.09420987963676453,-0.04331754893064499,-0.010022771544754505
1733358717573920500,11.13192041015625,-0.08975373953580856,-0.0659138485789299,0.013448829762637615
1733358717583885300,11.14188525390625,-0.08867036551237106,-0.08891157805919647,0.04442352056503296
1733358717593850400,11.151850341796875,-0.0877382904291153,-0.09307655692100525,0.07357615977525711
1733358717603815700,11.161815673828125,-0.07687579095363617,-0.0779239684343338,0.08468553423881531
1733358717613780500,11.171780517578124,-0.06368260085582733,-0.05053897574543953,0.08499296009540558
1733358717623745500,11.18174560546875,-0.04725835472345352,-0.011309548281133175,0.06685470044612885
1733358717633710300,11.19171044921875,-0.026709992438554764,0.037224315106868744,0.03903769701719284
1733358717643675400,11.20167529296875,-0.0024414032232016325,0.08146661520004272,0.008440906181931496
1733358717653640400,11.211640380859375,0.02038734033703804,0.11380816996097565,-0.01934727095067501
1733358717663605500,11.22160546875,0.03967900946736336,0.12912161648273468,-0.043085090816020966
1733358717673570300,11.2315703125,0.044917866587638855,0.12836375832557678,-0.05497441813349724
1733358717683535400,11.241535400390624,0.035952333360910416,0.10279368609189987,-0.053381580859422684
1733358717693500400,11.25150048828125,0.01730094663798809,0.05654209852218628,-0.0415617860853672
1733358717703465500,11.261465576171876,0.0005994642269797623,0.0024485052563250065,-0.01723460666835308
1733358717713430500,11.271430419921876,-0.00965639017522335,-0.05503220856189728,0.008608301170170307
1733358717723395300,11.281395263671875,-0.016222147271037102,-0.10058131814002991,0.0323791429400444
1733358717733360600,11.291360595703125,-0.022497937083244324,-0.13092021644115448,0.047964077442884445
1733358717743325400,11.301325439453125,-0.03558870404958725,-0.14368954300880432,0.0526144914329052
1733358717753290500,11.31129052734375,-0.04657009243965149,-0.14127066731452942,0.04992848262190819
1733358717763255300,11.32125537109375,-0.05255261808633804,-0.12800198793411255,0.04193447157740593
1733358717773220600,11.331220703125,-0.05343538522720337,-0.10838956385850906,0.03267672657966614
1733358717783185400,11.341185302734376,-0.0451393723487854,-0.08278832584619522,0.023707197979092598
1733358717793150500,11.351150390625,-0.0327397957444191,-0.06329869478940964,0.01850184053182602
1733358717803115300,11.361115234375,-0.01998484879732132,-0.04755648225545883,0.01562615856528282
1733358717813080600,11.37108056640625,-0.0055883415043354034,-0.0372510626912117,0.016202863305807114
1733358717823045400,11.38104541015625,0.0035018266644328833,-0.033558860421180725,0.01798851415514946
1733358717833010400,11.391010498046874,0.009046009741723537,-0.029654767364263535,0.021508151665329933
1733358717842975500,11.4009755859375,0.012499596923589706,-0.028987910598516464,0.024474380537867546
1733358717852940300,11.410940185546876,0.011828121729195118,-0.024385299533605576,0.026594888418912888
1733358717862905600,11.420905517578126,0.011956220492720604,-0.019200390204787254,0.024659303948283195
1733358717872870400,11.430870361328125,0.011002310551702976,-0.01473585981875658,0.01992781087756157
1733358717882835500,11.44083544921875,0.011132539249956608,-0.011956051923334599,0.01681484282016754
1733358717892800300,11.45080029296875,0.01295117661356926,-0.007013499736785889,0.010647348128259182
1733358717902764300,11.460764404296874,0.010209452360868454,-0.0031306101009249687,0.004841390531510115
1733358717912729600,11.4707294921875,0.00756901316344738,-0.0006004283204674721,-0.0018207421526312828
1733358717922694400,11.4806943359375,0.0036640195176005363,0.004745868034660816,-0.006638134364038706
1733358717932659500,11.490659423828125,-0.0008035310311242938,0.007263810373842716,-0.009056586772203445
1733358717942624300,11.500624267578125,-0.005282701924443245,0.009220701642334461,-0.00872635468840599
1733358717952589600,11.510589599609375,-0.008329399861395359,0.0056089679710567,-0.008091735653579235
1733358717962554400,11.520554443359375,-0.009489472955465317,0.00608966825529933,-0.00557877728715539
1733358717972519400,11.53051953125,-0.012790657579898834,0.004224670585244894,-0.003908420447260141
1733358717982484200,11.540484130859374,-0.012066277675330639,0.0025692498311400414,-0.002927045803517103
1733358717992449500,11.550449462890626,-0.013569694943726063,0.0006170859560370445,0.0011074901558458805
1733358718002414600,11.56041455078125,-0.016505563631653786,-0.003707621246576309,0.0034963455982506275
1733358718012379400,11.57037939453125,-0.017217174172401428,-0.007763245142996311,0.007958468049764633
1733358718022344400,11.580344482421875,-0.01766005903482437,-0.007860983721911907,0.010117758996784687
1733358718032309500,11.5903095703125,-0.015079931356012821,-0.010210039094090462,0.0091254822909832
1733358718042274600,11.600274658203125,-0.012143796309828758,-0.008716272190213203,0.0055906688794493675
1733358718052239400,11.6102392578125,-0.0015634149312973022,-0.00319486390799284,-0.0000332884956151247
1733358718062204400,11.620204345703126,0.006761893164366484,-0.0007668603211641312,-0.006401438731700182
1733358718072169500,11.63016943359375,0.010718880221247673,0.005874062422662973,-0.009175236336886883
1733358718082134500,11.640134521484375,0.011505311354994774,0.010598775930702686,-0.012332946993410587
1733358718092099300,11.650099365234375,0.0018783072009682655,0.009004993364214897,-0.010505466721951962
1733358718102064400,11.660064453125,-0.008979933336377144,0.004210238344967365,-0.006746415048837662
1733358718112029400,11.670029541015625,-0.02532210573554039,-0.0014938144013285637,-0.003688156371936202
1733358718121994500,11.679994384765624,-0.04173729568719864,0.002129683271050453,-0.0056682163849473
1733358718131959600,11.68995947265625,-0.052050523459911346,0.007814116775989532,-0.010142505168914795
1733358718141924400,11.69992431640625,-0.05899684503674507,0.014922359958291054,-0.011223481968045235
1733358718151889400,11.709889404296876,-0.06134451925754547,0.02396388351917267,-0.010591721162199974
1733358718161854500,11.7198544921875,-0.05936019495129585,0.036158762872219086,-0.011714509688317776
1733358718171819500,11.729819580078125,-0.056959379464387894,0.045808348804712296,-0.008727651089429855
1733358718181784300,11.739784423828125,-0.05345146358013153,0.04919589310884476,-0.0051166703924536705
1733358718191749400,11.749749267578125,-0.0476364865899086,0.050045695155858994,-0.001146842958405614
1733358718201714400,11.75971435546875,-0.04349713772535324,0.04642219841480255,0.0032487045973539352
1733358718211679500,11.769679443359376,-0.04693417623639107,0.046779338270425797,0.0034581758081912994
1733358718221644300,11.779644287109376,-0.04807161167263985,0.053675327450037,0.00027623085770756006
1733358718231609300,11.789609375,-0.04713025689125061,0.062068529427051544,-0.004011484794318676
1733358718241574400,11.799574462890625,-0.04292193055152893,0.0644371435046196,-0.00899479165673256
1733358718251539500,11.80953955078125,-0.04004012793302536,0.07076806575059891,-0.011159278452396393
1733358718261504500,11.81950439453125,-0.03557373955845833,0.06880984455347061,-0.015016068704426289
1733358718271469300,11.82946923828125,-0.028972990810871124,0.05672444403171539,-0.009689039550721645
1733358718281434600,11.8394345703125,-0.02153611369431019,0.045826785266399384,-0.008311120793223381
1733358718291399400,11.8493994140625,-0.011186747811734676,0.03683155030012131,-0.008084193803369999
1733358718301364500,11.859364501953126,-0.0021855290979146957,0.030257001519203186,-0.009293535724282265
1733358718311329300,11.869329345703125,0.0035239728167653084,0.026408296078443527,-0.009247618727385998
1733358718321294600,11.879294677734375,0.013753440231084824,0.02402982860803604,-0.007477148436009884
1733358718331259400,11.88925927734375,0.02026529051363468,0.019887039437890053,-0.009462312795221806
1733358718341224400,11.899224365234375,0.0271729975938797,0.007990432903170586,-0.008481736294925213
1733358718351188500,11.9091884765625,0.03128416836261749,-0.008093558251857758,-0.0028591197915375233
1733358718361153300,11.9191533203125,0.03451777994632721,-0.0207371823489666,0.00232685380615294
1733358718371118600,11.92911865234375,0.030899373814463615,-0.03064493089914322,0.006310557015240192
