time,seconds_elapsed,z,y,x
1733358931091131400,0.03813134765625,-0.03422843281626701,-0.1518349676735699,0.05950564354434609
1733358931101097500,0.048097412109375,-0.01980360162258148,-0.12361118209958076,0.09598302433118223
1733358931111063600,0.0580634765625,-0.021745383340120314,-0.07396598444283008,0.15606361821927128
1733358931121029600,0.068029541015625,-0.020123335096240043,-0.058621554186195135,0.24128639827892182
1733358931130995500,0.077995361328125,0.012593524113297462,-0.03140957600325346,0.3013175270020962
1733358931140962600,0.087962646484375,0.0548813447445631,0.011032704537361859,0.2905942537400871
1733358931150928400,0.097928466796875,0.0639005175024271,0.04070215887501836,0.2231478072591126
1733358931160894500,0.10789453125,0.05313070168495178,0.05600640325173735,0.13898893010392785
1733358931170860500,0.117860595703125,-0.0029079964011907576,0.062442719909548756,0.045962636686488985
1733358931180826400,0.127826416015625,-0.09362053298354148,0.07191299743577838,0.015314108183607459
1733358931190792400,0.13779248046875,-0.1300315705358982,0.0663916036657989,-0.11286460102722048
1733358931200758500,0.147758544921875,-0.10985504394769668,-0.032924949002265926,-0.29240714838095005
1733358931210724600,0.157724609375,-0.1353945588737726,-0.21566344285309313,-0.391879330002144
1733358931220690400,0.1676904296875,-0.14997896454334259,-0.35171164333000776,-0.486159934329614
1733358931230656500,0.177656494140625,-0.10830898354947566,-0.4994761466942727,-0.6268847483154386
1733358931240622600,0.18762255859375,-0.07475976516902447,-0.6406449050553142,-0.7955612529356032
1733358931250588400,0.19758837890625,-0.02947451628744602,-0.7364538879938424,-0.9425892587188631
1733358931260555500,0.207555419921875,0.01342705232799053,-0.8276632681824266,-1.0488033888809383
1733358931270521300,0.217521240234375,0.13341945940852165,-0.8864249614916742,-1.069805187312141
1733358931280487400,0.2274873046875,0.22720190495550632,-0.922826354432851,-0.9248066415298729
1733358931290453500,0.23745361328125,0.2935866404891014,-0.9573737900704145,-0.7951153357990086
1733358931300419600,0.247419677734375,0.3747235394746065,-0.945040889654681,-0.6698966454375535
1733358931310385400,0.257385498046875,0.4008306251555681,-0.8763420319598167,-0.5490175186503679
1733358931320351500,0.2673515625,0.39046237587630744,-0.8461160397179425,-0.5624604626672343
1733358931330317600,0.277317626953125,0.4164198239535093,-0.7894102560251951,-0.666155924539268
1733358931340283400,0.287283447265625,0.43596272881329057,-0.7648269458454102,-0.7206478315748274
1733358931350249500,0.29724951171875,0.44395489661097526,-0.7137230007477104,-0.7543509253427386
1733358931360215600,0.307215576171875,0.4912450555741787,-0.6770364341896027,-0.8039888164758682
1733358931370181600,0.317181640625,0.5668494548738002,-0.5863399719592184,-0.8088685513414442
1733358931380147500,0.3271474609375,0.5637053116291761,-0.5306218475969507,-0.7672048539578914
1733358931390114600,0.337114501953125,0.585436666443944,-0.49606999151259656,-0.7180220131158829
1733358931400080400,0.347080322265625,0.6106330670207738,-0.48641463974304494,-0.6111533645678311
1733358931410046500,0.35704638671875,0.5436036038428544,-0.49126639062315225,-0.45474557255338877
1733358931420012500,0.367012451171875,0.48124680865108965,-0.44599429348409175,-0.2988553016070276
1733358931429978600,0.376978515625,0.39703357096016406,-0.38509485749378797,-0.0044365742291818605
1733358931439944400,0.3869443359375,0.2755056248754263,-0.2963846189108677,0.33871227836217727
1733358931449910500,0.39691064453125,0.2401128244549036,-0.11235257811816408,0.6189995480235666
1733358931459876600,0.406876708984375,0.25318682556152344,0.10911972454362548,0.8098066359091549
1733358931469842400,0.416842529296875,0.24867490109503268,0.3062750032790005,0.8673335997916758
1733358931479808500,0.42680859375,0.1738414861679077,0.38694223892614243,1.041170044458285
1733358931489774600,0.436774658203125,0.028800562548637387,0.3621292116437107,1.2404190166704356
1733358931499740700,0.44674072265625,-0.055234980487823486,0.3834103750055656,1.3244303020484745
1733358931509706500,0.45670654296875,-0.027859482306241988,0.4195493541508913,1.413086929014325
1733358931519672300,0.46667236328125,0.055576341271400445,0.44533751007579264,1.313760585604608
1733358931529639400,0.476639404296875,0.15078385118544102,0.3854555440323427,0.9479528315786272
1733358931539605500,0.48660546875,0.2225929498553276,0.31639410010278224,0.6951739292308687
1733358931549571600,0.496571533203125,0.4216489567786455,0.24586444678418337,0.40956389364413914
1733358931559537400,0.506537353515625,0.5903600943207741,0.1610820857021026,0.26593466345369815
1733358931569503500,0.51650341796875,0.7184820318430661,0.08762699165716767,0.17022081145271659
1733358931579469600,0.526469482421875,0.7115653843224048,0.032265754441171884,0.18050123631805182
1733358931589435600,0.536435546875,0.6296306129574776,-0.012663648473750799,0.27279512380771337
1733358931599401500,0.5464013671875,0.5814332760214805,-0.06387620504507795,0.3820342278141528
1733358931609367600,0.556367431640625,0.5415653760135174,-0.06968478172598407,0.5047693577315658
1733358931619333600,0.566333740234375,0.5012175835341215,-0.07436022619111463,0.6588870295148342
1733358931629299500,0.576299560546875,0.5152051923543215,0.03212397135030478,0.7436325474515557
1733358931639265500,0.586265625,0.5599409906595945,0.11087401173189282,0.7376529615852981
1733358931649231400,0.5962314453125,0.5394552519917488,0.09926937079178169,0.6567689413823187
1733358931659201300,0.606201171875,0.5084095408648253,0.13964021535320206,0.6954908862255513
1733358931669167400,0.61616748046875,0.35310967355966566,0.1580076466928236,0.8591006089754402
1733358931679133400,0.626133544921875,0.10462708016633987,0.20299330983962863,0.9212370394147932
1733358931689099300,0.636099365234375,-0.23866847086548804,0.37854360921941693,0.8543466924466192
1733358931699065000,0.646065185546875,-0.49018181025683877,0.5351828719021752,0.8899092964760958
1733358931709031400,0.656031494140625,-0.5798609121382237,0.5809319754358381,0.9499991696491837
1733358931718997200,0.665997314453125,-0.6119523329257964,0.5764333853749558,1.0295569827497004
1733358931728963300,0.67596337890625,-0.5890957734733819,0.4750753534745425,1.1103538361258805
1733358931738929200,0.68592919921875,-0.5711755013793707,0.37692207243219017,1.1824497889131307
1733358931748895500,0.6958955078125,-0.6964525708645581,0.3425942708946764,1.2348349329277872
1733358931758861300,0.705861328125,-0.9326198725640773,0.42858635482639074,1.185592616983503
1733358931768827100,0.7158271484375,-0.9216191706001758,0.4611419590596109,1.010934553735703
1733358931778793200,0.725793212890625,-0.6489969922065735,0.4054609883699566,0.8030255244016646
1733358931788759300,0.73575927734375,-0.3517261102467775,0.2998915858522057,0.6582099339708686
1733358931798725400,0.745725341796875,-0.12495499792397022,0.20983086424209177,0.6553419773191214
1733358931808692200,0.755692138671875,0.0711766459852457,0.17938489084029569,0.7233560676202178
1733358931818658300,0.765658203125,0.28495325217843054,0.17586086316630242,0.8217511215291917
1733358931828624100,0.7756240234375,0.47192602259814737,0.16899046594016254,0.9173920544244348
1733358931838590500,0.785590576171875,0.610785627233982,0.17525818456541745,0.8730402870006859
1733358931848556300,0.795556396484375,0.7446984231173992,0.19516424191547557,0.7253031100347638
1733358931858522400,0.8055224609375,0.7804501199781895,0.17809576434521004,0.5674415755480527
1733358931868488200,0.81548828125,0.778031952920556,0.1073180454165209,0.4132366638727486
1733358931878454300,0.825454345703125,0.7943143946796655,-0.0036160967214847912,0.23812457324713468
1733358931888420400,0.83542041015625,0.7113906122773885,-0.09835103210415691,0.04302227238565683
1733358931898386200,0.84538623046875,0.5837941599339247,-0.07451510622557252,-0.12969459366649388
1733358931908352300,0.855352294921875,0.4339256700277328,-0.018315682886075227,-0.29428675158247347
1733358931918318300,0.865318359375,0.2560562435179949,0.05884752669548615,-0.39896833841502666
1733358931928284400,0.875284423828125,0.08387889117002487,0.17148189916340634,-0.4467081408418715
1733358931938250200,0.885250244140625,-0.09652852938473223,0.2599853083289228,-0.397235961664468
1733358931948216300,0.89521630859375,-0.20287410390675067,0.2868129999020137,-0.2710470380313694
1733358931958182400,0.905182373046875,-0.2149421428412199,0.2588463674268685,-0.1900894411355257
1733358931968149200,0.915149169921875,-0.19488485871851444,0.24538815277563406,-0.14241189028993248
1733358931978115300,0.925115234375,-0.1490934138804674,0.17652754691410807,-0.22233283761441705
1733358931988081200,0.9350810546875,-0.13996902718245982,0.14708192792758346,-0.36068332368433476
1733358931998047200,0.945047119140625,-0.1863116761624813,0.16422144317375495,-0.4905830845341086
1733358932008013300,0.955013427734375,-0.2636661339998245,0.20172486080639063,-0.6423926255054772
1733358932017979400,0.9649794921875,-0.3608393910288811,0.2322616360304877,-0.7326102181777358
1733358932027945200,0.9749453125,-0.4666770160287618,0.22612386392783373,-0.7377249308429658
1733358932037911300,0.984911376953125,-0.4930909757018089,0.15060648532453924,-0.7372337863251567
1733358932047877400,0.99487744140625,-0.4609954632610082,0.05598557965941727,-0.7336363463550806
1733358932057843200,1.00484326171875,-0.3881009074419737,-0.025459398894570766,-0.6968823405839503
1733358932067809300,1.014809326171875,-0.3248006939202547,-0.08751479998696594,-0.5380329641036689
1733358932077775400,1.024775390625,-0.24121640178263187,-0.1450375991510227,-0.28410730287358166
1733358932087741400,1.034741455078125,-0.19119418750703335,-0.21314130396433173,-0.008707914851605892
1733358932097707300,1.044707275390625,-0.125251935043931,-0.30422055496722455,0.2322210482917726
1733358932107673300,1.05467333984375,-0.14223346498310566,-0.37548546375781294,0.4348704035319388
1733358932117639400,1.064639404296875,-0.12101999656260012,-0.3480260136198252,0.561878826854378
1733358932127605200,1.074605224609375,-0.05581599524617195,-0.36142749311514194,0.49181481828615065
1733358932137572400,1.084572265625,-0.00950140331685543,-0.36958639578185976,0.38826267387494445
1733358932147538200,1.0945380859375,0.03201952459514141,-0.2692517886450514,0.276535552445054
1733358932157504300,1.104504150390625,0.046861119896173475,-0.09068718294538557,0.21912688117995857
1733358932167470300,1.11447021484375,0.056908466657996176,0.09458864736333489,0.2558364632874727
1733358932177436400,1.1244365234375,0.09920856224894523,0.21443441251479087,0.37441725000441073
1733358932187402200,1.13440234375,0.16796645665466783,0.3180398214831948,0.5614411660894751
1733358932197368300,1.144368408203125,0.2503051326453686,0.3506152994606644,0.7066242746584117
1733358932207334400,1.15433447265625,0.3341565512865782,0.34897071059141305,0.7504511414252221
1733358932217300500,1.164300537109375,0.3808487443566322,0.3253999749876559,0.6369220851399005
1733358932227266300,1.174266357421875,0.3151625124812126,0.30095760764852164,0.4619518872030079
1733358932237232000,1.184232177734375,0.18334113591909407,0.2816552335463464,0.32211408518478274
1733358932247198500,1.194198486328125,0.09209493085145949,0.23308771159108727,0.18244842486307025
1733358932257164300,1.204164306640625,0.08312427341043949,0.18682561703398823,0.01491027662307024
1733358932267130400,1.21413037109375,0.14642507145404815,0.13256627664528786,-0.15266367358267308
1733358932277096200,1.22409619140625,0.18606033174991607,0.07352306298092007,-0.1967553287655115
1733358932287062500,1.2340625,0.22687340365350245,0.024558066140674052,-0.13623378617689014
1733358932297028400,1.2440283203125,0.20505787768661973,-0.020664565833471715,-0.06517214487344027
1733358932306995500,1.253995361328125,0.15182897632420062,-0.04321026923842728,-0.01256415188834071
1733358932316961300,1.263961181640625,0.087101360347867,-0.04032583637591451,0.006695552115887403
1733358932326927000,1.273927001953125,0.04992693720757961,0.011651201761886477,-0.006267535962164401
1733358932336893400,1.2838935546875,0.026090134546160697,0.03578654897846281,-0.00691810882538557
1733358932346859300,1.293859375,0.030730069306492802,0.04816109657883644,-0.03312470935806632
1733358932356825300,1.303825439453125,0.05931552779972553,0.02218943731319159,-0.07214666006118059
1733358932366791200,1.313791259765625,0.07766776157021522,-0.03025558366253972,-0.08506810095459222
1733358932376757500,1.323757568359375,0.06967033307552337,-0.09222020119894295,-0.10018164506480097
1733358932386723300,1.333723388671875,0.016272504886984823,-0.14873999733291565,-0.09058116528764366
1733358932396689400,1.343689453125,-0.0452870024472475,-0.1851874944381416,-0.11694164120778441
1733358932406655200,1.3536552734375,-0.08260346440672874,-0.21635748953185974,-0.12590922990888356
1733358932416621300,1.363621337890625,-0.09992986226081847,-0.2019231598574668,-0.10867489425241947
1733358932426587400,1.37358740234375,-0.09528817393481731,-0.17689042540974914,-0.08010083393603563
1733358932436553200,1.38355322265625,-0.10431786808669566,-0.14628558991812168,-0.05712254780009388
1733358932446519300,1.393519287109375,-0.10340835202634334,-0.16010105704180896,-0.007231558688730001
1733358932456485400,1.4034853515625,-0.0915501564502716,-0.16390863263122737,-0.005452274056524038
1733358932466451500,1.413451416015625,-0.06259703368842602,-0.19980492559447882,0.010774053601175546
1733358932476417300,1.423417236328125,-0.04042845650017261,-0.19810995824486016,0.026358137832581997
1733358932486383000,1.433383056640625,-0.038697687184810634,-0.19140534603968262,0.028561346965283153
1733358932496350200,1.44335009765625,-0.011373042407631873,-0.14479754331745207,0.009156389271467924
1733358932506316300,1.45331640625,0.030934651967883108,-0.07502133871465921,-0.0029253859274089335
1733358932516282400,1.463282470703125,0.06902969708442687,0.024344679118320344,0.0037618367515504358
1733358932526248200,1.473248291015625,0.09349076912403106,0.08365421556867658,0.051783524859696624
1733358932536214300,1.48321435546875,0.15240823751688,0.09415091353319585,0.11695859234258532
1733358932546180400,1.493180419921875,0.1531722076267004,0.10149937659986316,0.15254793824851512
1733358932556146400,1.503146484375,0.16197452276349067,0.10676292315125464,0.18130670748203992
1733358932566112300,1.5131123046875,0.14376023615896702,0.10048683855645359,0.18777970288842916
1733358932576078300,1.523078369140625,0.10122750085592269,0.09241013428047298,0.17028963890522716
1733358932586044400,1.53304443359375,0.06740005005598068,0.07025806983560323,0.12339257091283798
1733358932596010200,1.54301025390625,0.034299744486808774,0.05398066957779228,0.06952274129837752
1733358932605976300,1.552976318359375,0.008598316997289657,0.02542735978849232,0.02362082182317972
1733358932615942100,1.562942138671875,0.0018237082958221435,0.009361775650456547,0.005850771854817867
1733358932625908500,1.572908447265625,-0.022439795345067976,0.025311624454334377,0.012492547956854104
1733358932635874300,1.582874267578125,-0.03126666040122509,0.015736206053197383,0.009121171827614306
1733358932645840400,1.59284033203125,-0.0609638795286417,0.007026464570686221,0.0047295127399265766
1733358932655806200,1.60280615234375,-0.10681845273077488,-0.030789836669713258,0.02122311303168535
1733358932665769200,1.612769287109375,-0.1246808571577072,-0.043117403323203324,0.03439282959774136
1733358932675735300,1.6227353515625,-0.11221242072880268,-0.034158728580921886,0.024868337666243315
1733358932685701000,1.632701171875,-0.06254033506512642,0.007969517574459314,0.03215206493362784
1733358932695668200,1.642668212890625,-0.005940495964884758,0.03873911517374217,0.021988544446229934
1733358932705634000,1.652634033203125,0.08929039482474327,0.08201426634192466,-0.011544307321310043
1733358932715600100,1.66260009765625,0.17723814286887646,0.09918459685146808,-0.06132087627276778
1733358932725566200,1.672566162109375,0.2515162620007992,0.0971054524898529,-0.05828764605671167
1733358932735532000,1.682531982421875,0.29626901144087314,0.06826455793082714,-0.05875014900192618
1733358932745498000,1.692498046875,0.3040753012776375,0.02461312079615891,-0.06398410413265228
1733358932755464200,1.702464111328125,0.2834609677940607,-0.011833280330523848,-0.05350611086860299
1733358932765430300,1.71243017578125,0.2385088963896036,-0.0324062588904053,-0.06819821469634771
1733358932775396000,1.72239599609375,0.16353227359950542,-0.02200710301622748,-0.06931260567903519
1733358932785362200,1.732362060546875,0.06298632526695729,-0.0426865376252681,-0.06045797583311796
1733358932795328300,1.742328369140625,-0.005176525855064392,-0.07622406556792556,-0.0278251416452229
1733358932805294000,1.752294189453125,-0.0447989266693592,-0.10307941233292221,0.021148878751695153
1733358932815260200,1.76226025390625,-0.06326221959888935,-0.13792984950505197,0.047644379228353496
1733358932825226000,1.77222607421875,-0.053341714087128636,-0.13529760130532084,0.07830985886603593
1733358932835192300,1.7821923828125,-0.016667641684412954,-0.09684950496740638,0.10805515491887926
1733358932845158100,1.792158203125,-0.01312602355480194,-0.06375453316047787,0.1396555773191154
1733358932855124200,1.802124267578125,-0.0025058453410863875,-0.02250380049198866,0.16515899801850317
1733358932865090000,1.812090087890625,0.003098550537228584,0.03365516297295689,0.18406082849577068
1733358932875056000,1.82205615234375,0.01494505567550659,0.05258972667604685,0.18239874050244687
1733358932885022200,1.832022216796875,0.024824060133099554,0.06104841600693762,0.21647812023684382
1733358932894988000,1.841988037109375,0.0270616099268198,0.05702917042821645,0.27751564952358604
1733358932904954000,1.8519541015625,0.040434301719069476,0.043825259331613776,0.3621954818129539
1733358932914921000,1.8619208984375,0.0558919830918312,-0.023225465830042955,0.4259054451793432
1733358932924887300,1.87188720703125,0.0690285280406475,-0.07359232882484794,0.4603964744545519
1733358932934853000,1.88185302734375,0.07721709519326686,-0.11173311277925968,0.49819049079790706
1733358932944819200,1.891819091796875,0.06560030715763568,-0.15856507964618502,0.5150559931419789
1733358932954785000,1.901784912109375,0.05461889441609382,-0.18226641935966909,0.5455712506540119
1733358932964751400,1.91175146484375,0.048345220974087715,-0.1895393329720944,0.556001313123107
1733358932974717200,1.92171728515625,0.027862989437580105,-0.2330691895537078,0.4959188926041126
1733358932984683000,1.93168310546875,0.04037351144254207,-0.23504947665072976,0.4543436041563749
1733358932994649000,1.941649169921875,0.04573649978041649,-0.22355193108059465,0.44837358983606096
1733358933004615200,1.951615234375,-0.014025602743029594,-0.2705222835049033,0.408495022303611
1733358933014581200,1.961581298828125,-0.01983107415139675,-0.2698235606510192,0.41284152707532046
1733358933024547000,1.971547119140625,-0.025319150173664092,-0.24483459227979182,0.35849633503407236
1733358933034513200,1.98151318359375,-0.00480886158645153,-0.184111535769701,0.303210793402791
1733358933044479200,1.991479248046875,0.0021101240217685697,-0.13365041862018406,0.2540449036955833
1733358933054445000,2.001445068359375,0.013377952489256857,-0.11324315201602876,0.2298744851656258
1733358933064411100,2.0114111328125,0.035361236238479615,-0.12423895860910415,0.24750074274912476
1733358933074377000,2.021376953125,0.06122925246655941,-0.1323633014190942,0.2618361420936882
1733358933084343300,2.03134326171875,0.06994388931989669,-0.18133783327266573,0.26308029693588614
1733358933094309000,2.04130908203125,0.08248889811635017,-0.24654227298051118,0.268878754081577
1733358933104275200,2.051275146484375,0.10410802472829818,-0.3081489804573357,0.22956658826023338
1733358933114241000,2.061240966796875,0.10370119749307632,-0.3283990837384015,0.17713848188668488
1733358933124207000,2.07120703125,0.08837678711116313,-0.3273573196005076,0.12374503761231899
1733358933134173200,2.081173095703125,0.06680851390361786,-0.3013156638385728,0.05527955028191209
1733358933144140300,2.091140380859375,0.03551555001735687,-0.3136340242723003,0.012739362324774265
1733358933154106000,2.101106201171875,0.08174947792589664,-0.35158907639626413,-0.04699862867072224
1733358933164072000,2.111072021484375,0.1591711557805538,-0.40668954378422345,-0.0881456087037921
1733358933174038300,2.121038330078125,0.23521453101933001,-0.4854395841658115,-0.14850290064141153
1733358933184004000,2.131004150390625,0.31369068636298175,-0.5507557771524414,-0.19364194598533213
1733358933193970200,2.14097021484375,0.3605167349457741,-0.5917644812259822,-0.18833843274973333
1733358933203936000,2.15093603515625,0.37974341346323487,-0.6830824363555759,-0.15716244630664586
1733358933213902300,2.16090234375,0.3676923256635666,-0.7645530242748558,-0.0989248499367386
1733358933223868200,2.1708681640625,0.3181692930817604,-0.809201874949038,-0.017030775908380747
1733358933233834000,2.180833984375,0.25633915211260316,-0.8124101694710553,0.0486854127138853
1733358933243800000,2.190800048828125,0.21215864960253236,-0.7618725530192255,0.08892660301364957
1733358933253766100,2.20076611328125,0.18644377810955046,-0.6526195666179061,0.08852569406256079
1733358933263732200,2.210732177734375,0.11511866356432437,-0.4932182188106701,0.0722729898545891
1733358933273698000,2.220697998046875,-0.045566988432407377,-0.3246939456101507,0.12143391112573444
1733358933283664100,2.2306640625,-0.23709143080711365,-0.16328863756936043,0.20503588505052028
1733358933293630200,2.240630126953125,-0.39634909582734107,-0.04473046454302966,0.3201668235745281
1733358933303596000,2.250595947265625,-0.4606920964002609,0.02829846737855114,0.4355081169135868
1733358933313562000,2.26056201171875,-0.48982116025090217,0.03588307728865184,0.5706271467816084
1733358933323528000,2.27052783203125,-0.5503343734025955,-0.02399768774497788,0.6920845118481666
1733358933333494300,2.280494384765625,-0.6318260771751404,-0.08014152213945053,0.8160494758214801
1733358933343460000,2.290460205078125,-0.681040482199192,-0.137668549954053,0.9185502845488488
1733358933353426200,2.30042626953125,-0.6569628565192223,-0.17973182284813374,1.008089831829071
1733358933363392000,2.31039208984375,-0.564738746330142,-0.2334687102653086,1.0489644246615468
1733358933373358300,2.3203583984375,-0.5687088190048932,-0.25171693567205217,1.0987306914146988
1733358933383324200,2.33032421875,-0.5777876129955053,-0.19426015094891189,1.1513210026126355
1733358933393290000,2.3402900390625,-0.5443599751681089,-0.14383911008145658,1.1648540725983678
1733358933403256000,2.350256103515625,-0.5378747048020363,-0.07494465674925595,1.1496619102939962
1733358933413223000,2.360222900390625,-0.5717524244844913,-0.022648725388012825,1.0485526289902627
1733358933423189200,2.370189208984375,-0.5165361486971378,0.038112763436324894,0.9293151319302618
1733358933433155000,2.380155029296875,-0.48176469504535196,0.11254735177159308,0.7093442011415958
1733358933443121200,2.39012109375,-0.4535200128138065,0.26180881569534536,0.45080242441818114
1733358933453087000,2.4000869140625,-0.32491526021063327,0.5416559038411826,0.1438633038077969
1733358933463053300,2.41005322265625,-0.09673720369935035,0.8277544535972178,-0.20612389948293566
1733358933473019100,2.42001904296875,0.14263386247754095,1.1124436480119824,-0.5267998781559988
1733358933482985000,2.42998486328125,0.3767395554721355,1.4268020045034586,-0.7840895724590867
1733358933492951000,2.439950927734375,0.6427396853774786,1.7384812049135565,-1.037055594876781
1733358933502917000,2.449917236328125,0.8633002526223659,2.015304488258809,-1.25178738290295
1733358933512883200,2.45988330078125,1.0255664518088101,2.2482124959014356,-1.4095952875062823
1733358933522849000,2.46984912109375,1.1202151587963103,2.385401975367963,-1.5634684830091892
1733358933532815000,2.479815185546875,1.1625479876130818,2.4161690156839786,-1.5957855292461811
1733358933542781200,2.48978125,1.1482593500196934,2.3037135799795387,-1.4929007627025246
1733358933552747300,2.499747314453125,1.0766712006241081,2.0926494476154445,-1.268065879139304
1733358933562713000,2.509713134765625,1.065256072640419,1.8535285568073392,-1.003777083196491
1733358933572679200,2.51967919921875,1.1116466524153947,1.5998633000791072,-0.7062009346798062
1733358933582645200,2.529645263671875,1.2103361592262982,1.4232462117180227,-0.4485599792536348
1733358933592611000,2.539611083984375,1.3393249427109957,1.3034531266018747,-0.27242862858287986
1733358933602577200,2.5495771484375,1.4264415006279945,1.1647399446994064,-0.2087711991213262
1733358933612543200,2.559543212890625,1.4459212771236896,1.0237453738614917,-0.1697329548705369
1733358933622509300,2.56950927734375,1.3465724296212196,0.8237196451231836,-0.18581870501376688
1733358933632475100,2.57947509765625,1.2500246110141278,0.6839758780639619,-0.21564846447966993
1733358933642441000,2.58944091796875,1.1140461147725582,0.6120468793414533,-0.27640746908597646
1733358933652407300,2.5994072265625,0.9186714267104864,0.560797899749875,-0.2922559764072299
1733358933662373400,2.609373291015625,0.7135434063971042,0.5086015563055872,-0.23637323606777935
1733358933672339500,2.61933935546875,0.5244324549049139,0.46011875349171455,-0.12852401551716028
1733358933682305300,2.62930517578125,0.32382045071125026,0.3869857858069241,-0.03037603170443326
1733358933692271400,2.639271240234375,0.10892916127443313,0.3233649985613301,0.03170289639402181
1733358933702237400,2.649237548828125,-0.09081658147871494,0.1958855053947307,0.07537877385020256
1733358933712203500,2.65920361328125,-0.2754717226058245,-0.009407896939170313,0.16319566205628216
1733358933722170400,2.66917041015625,-0.4610796344131231,-0.25920590318795295,0.2782445483200252
1733358933732136400,2.679136474609375,-0.6627110447824001,-0.5079821092329919,0.41803686722870914
1733358933742102300,2.689102294921875,-0.8622218097358941,-0.7285918493818492,0.5422575595287605
1733358933752068400,2.699068359375,-1.0046423217236995,-0.9137041596919298,0.6185299577504396
1733358933762034400,2.709034423828125,-1.05163963522017,-1.0531803618561475,0.6749946261636912
1733358933772000300,2.719000244140625,-1.0811503918647765,-1.0824101096022873,0.6733857296623289
1733358933781966300,2.72896630859375,-1.0291226829856635,-1.0313519033424556,0.6299051190499216
1733358933791932400,2.738932373046875,-0.9382429731428623,-0.9607482349395752,0.5260356888504698
1733358933801898500,2.7488984375,-0.8182879754632711,-0.8966104015499353,0.4062631350656971
1733358933811864300,2.7588642578125,-0.6359229910999536,-0.8495786012619734,0.303856799688749
1733358933821830400,2.768830322265625,-0.41112522467672824,-0.8015886965315788,0.1792665799565613
1733358933831796500,2.77879638671875,-0.24608897625505924,-0.8749595646254718,0.03374338924568146
1733358933841762300,2.78876220703125,-0.03450491167008877,-0.9428007095124572,-0.190135983690992
1733358933851728400,2.798728271484375,0.168665544834733,-1.0276090635523198,-0.4170462852887809
1733358933861694200,2.808694091796875,0.3637333589047193,-1.1534505619872362,-0.6459552864231168
1733358933871660500,2.81866064453125,0.5086509484052658,-1.2660343733116983,-0.8913196016654372
1733358933881626400,2.82862646484375,0.6672258918583392,-1.3256328097060321,-1.0562586733229458
1733358933891592400,2.838592529296875,0.848268103185296,-1.3819830579593777,-1.2240740310691296
1733358933901558300,2.848558349609375,1.026178446227312,-1.4461317050039768,-1.373223559051007
1733358933911524400,2.8585244140625,1.2283084537684916,-1.4981592677526174,-1.4402964229792357
1733358933921490400,2.868490478515625,1.4002344617038964,-1.5881912747249007,-1.4648656315684319
1733358933931456300,2.878456298828125,1.5614882689774034,-1.6908007314585147,-1.4946172112315892
1733358933941422300,2.88842236328125,1.6841238840430974,-1.7618129806622862,-1.4847674328684806
1733358933951388400,2.898388427734375,1.7091823374539612,-1.8575395460143684,-1.3909393946141004
1733358933961354500,2.9083544921875,1.6277572691768407,-1.9898247406959533,-1.2895455972805618
1733358933971320300,2.9183203125,1.508105638357997,-2.056878315401822,-1.2425140892535447
1733358933981286400,2.928286376953125,1.3528490256726742,-2.028484726218879,-1.1826081943452358
1733358933991252500,2.93825244140625,1.1673796455532313,-1.8794550252243876,-1.0912341251142323
1733358934001218300,2.94821826171875,0.9986240843474864,-1.6384315156653522,-0.958353010366112
1733358934011184400,2.958184326171875,0.8432447220653295,-1.3239762746706605,-0.7585818409107625
1733358934021150500,2.968150390625,0.7058575280696153,-1.0004825716957448,-0.5450547890318558
1733358934031116500,2.978116455078125,0.596160305032134,-0.7113938271477818,-0.33239969768188893
1733358934041082400,2.988082275390625,0.4192354658961296,-0.4394160110723227,-0.12508646055022254
1733358934051048200,2.998048095703125,0.1997322987496853,-0.21721973238438366,0.07890039037140086
1733358934061014500,3.0080146484375,-0.03423193994760513,0.0005266176899895072,0.2685684094907716
1733358934070980400,3.01798046875,-0.3314087138831615,0.25261698978431524,0.44892746085915713
1733358934080946400,3.027946533203125,-0.6041659168332815,0.5103545009201392,0.5944940888529643
1733358934090912300,3.037912353515625,-0.836471866929531,0.7715341153338551,0.6825877847064286
1733358934100878600,3.047878662109375,-1.0243325260996818,1.0432448779709635,0.762746047918126
1733358934110844400,3.057844482421875,-1.1758365082532167,1.2318443728096782,0.8271278461314737
1733358934120810200,3.067810302734375,-1.2290373525649307,1.3643854419484733,0.858770938629657
1733358934130776300,3.0777763671875,-1.248725803375244,1.477162364692241,0.8874925176579505
1733358934140743400,3.087743408203125,-1.191181376901269,1.5169478471137583,0.9565187076110392
1733358934150709500,3.09770947265625,-1.0719453411459923,1.4988637627601622,1.0221650458674878
1733358934160675300,3.10767529296875,-0.9649778353333472,1.4791963547378777,1.1553104375749825
1733358934170641400,3.117641357421875,-0.8107844679653644,1.4251535066440701,1.2705273008167743
1733358934180607200,3.127607177734375,-0.6585439882308244,1.3390585468597709,1.4051841930657625
1733358934190573600,3.137573486328125,-0.5402507862836122,1.2535123069994152,1.5730536190867423
1733358934200539400,3.147539306640625,-0.4030518083363771,1.1396388211905955,1.6940698162570595
1733358934210505500,3.15750537109375,-0.25558687244057654,0.99934479983747,1.771031767645478
1733358934220471300,3.16747119140625,-0.089145433396101,0.8382266016423702,1.7481231857448816
1733358934230437400,3.177437255859375,0.05931961945295334,0.6924425315055995,1.6350255066141486
1733358934240403500,3.187403564453125,0.17613456554114817,0.5807744102539494,1.4704511766158044
1733358934250369300,3.197369384765625,0.23321546615660188,0.5272807204755022,1.2933290613420307
1733358934260335400,3.20733544921875,0.28992811798155305,0.4869354487467557,1.1114536140613258
1733358934270301400,3.217301513671875,0.3106225309640169,0.438104343951866,0.9321595615759491
1733358934280267500,3.227267578125,0.29030864173173904,0.36426187629085033,0.7894768915206194
1733358934290233300,3.2372333984375,0.3126952455848455,0.29327289836481213,0.6404308969784528
1733358934300199200,3.24719921875,0.3533358835309744,0.2360548177683726,0.4859767232498154
1733358934310165500,3.25716552734375,0.3734381758391857,0.1525963074348867,0.31905162887424227
1733358934320131300,3.26713134765625,0.37429742301702495,0.1138891765682958,0.17680398923531174
1733358934330097400,3.277097412109375,0.3541314178228378,0.032111486328067256,0.05337952534686774
1733358934340063200,3.287063232421875,0.29977146660387516,-0.044441929925233124,-0.06429715213719756
1733358934350029600,3.297029541015625,0.2116828487843275,-0.10785489223957992,-0.17821235819589346
1733358934359995400,3.306995361328125,0.10648059907853603,-0.18410196422375738,-0.28966694629471745
1733358934369961500,3.31696142578125,0.02051204215288162,-0.2522543670170009,-0.37898112385384736
1733358934379927300,3.32692724609375,-0.038300212299823756,-0.2928312190119177,-0.47051169882081445
1733358934389893400,3.336893310546875,-0.0962818611472845,-0.32042178471628574,-0.5460105553867295
1733358934399859500,3.346859375,-0.13457330561876296,-0.36870471757650375,-0.6021509237490594
1733358934409825300,3.3568251953125,-0.17622165930271147,-0.42561811613794415,-0.6394141942165792
1733358934419791400,3.366791259765625,-0.19294658413231372,-0.44338721625823524,-0.6396677305862307
1733358934429757400,3.37675732421875,-0.1855149728268385,-0.4438898320181295,-0.6301596052676439
1733358934439723500,3.3867236328125,-0.1453945593625307,-0.4015340972498059,-0.5897284818863496
1733358934449689300,3.396689453125,-0.06974222926795483,-0.3570496433570981,-0.580948926570639
1733358934459655200,3.4066552734375,-0.012870587489008902,-0.34619061488620934,-0.5449813219368458
1733358934469621500,3.41662158203125,0.04319792121350765,-0.3418456444844603,-0.4821444150779396
1733358934479587300,3.42658740234375,0.09981938762366771,-0.3499375828621909,-0.40049938390720635
1733358934489553400,3.436553466796875,0.15281506475210188,-0.32872225127816196,-0.2906578935608268
1733358934499519200,3.446519287109375,0.2014268277078867,-0.2805773569154553,-0.1687656076757237
1733358934509485600,3.456485595703125,0.2595832486003637,-0.19364327942589296,-0.035957338968105615
1733358934519451400,3.466451416015625,0.3150356712311506,-0.09807089998852461,0.058516888235323125
1733358934529417200,3.476417236328125,0.3257505419909954,-0.049772860890720035,0.10622220387067645
1733358934539383300,3.48638330078125,0.3120814976006746,-0.01607380397710949,0.12829422534927726
1733358934549349400,3.496349365234375,0.28780279639065265,0.0008349529867991805,0.13367679517045616
1733358934559315500,3.5063154296875,0.2517167530089617,0.013202157530933617,0.11201638670004904
1733358934569281300,3.51628125,0.20756021589636803,0.016561313499417155,0.08864701888728886
1733358934579247400,3.526247314453125,0.18825521144568919,0.012490958787966518,0.09174545982666313
1733358934589213400,3.53621337890625,0.1813707126289606,-0.025852818658947944,0.1092928434876725
1733358934599179300,3.54617919921875,0.16684534367024897,-0.06348329673735424,0.10641334252860396
1733358934609145300,3.556145263671875,0.16981354582607744,-0.06307420447980985,0.08706935777440666
1733358934619111400,3.566111328125,0.18159399999082088,-0.07444353882670401,0.026552491360902784
1733358934629077500,3.576077392578125,0.1701560756534338,-0.05808958446765318,-0.02759082143269479
1733358934639043300,3.586043212890625,0.1307113694936037,-0.05632529647517949,-0.0720583607232198
1733358934649009400,3.596009521484375,0.1093447563380003,-0.06111729825837537,-0.09731500358730553
1733358934658975200,3.605975341796875,0.1006610991448164,-0.0670005293443799,-0.12368271296583115
1733358934668941300,3.61594140625,0.0747235248118639,-0.06299291940452531,-0.15217698604427277
1733358934678907100,3.6259072265625,0.09437515074312687,-0.0538221545478329,-0.18439480969049035
1733358934688873200,3.635873291015625,0.08629881179332732,-0.04642566935466602,-0.20432335286699235
1733358934698839300,3.64583935546875,0.07158990296125411,-0.044203974717203526,-0.24549901100527494
1733358934708805000,3.65580517578125,0.04546411257982254,-0.0023427454675547777,-0.2753695408729836
1733358934718771200,3.665771240234375,0.01721592321693897,-0.016744177519343793,-0.2829116998808458
1733358934728737000,3.675737060546875,-0.015984920117259025,-0.039868959453888235,-0.26753607076834884
1733358934738703400,3.685703369140625,-0.06356383289396762,-0.07355384171167388,-0.261514435858652
1733358934748669200,3.695669189453125,-0.1104208611369133,-0.08050207168068736,-0.22180406449995935
1733358934758635300,3.70563525390625,-0.14504092361927032,-0.06987550025880336,-0.16578575161471962
1733358934768601000,3.71560107421875,-0.11848024895191192,-0.04812251813411712,-0.08410484541300683
1733358934778567200,3.725567138671875,-0.09522095391750335,-0.04222686595795676,-0.0038140783954411744
1733358934788533200,3.735533203125,-0.06656418375372886,-0.028711075900588183,0.05632493114899843
1733358934798499000,3.7454990234375,-0.02649988439083099,-0.02282967144548893,0.09836907921750097
1733358934808465200,3.755465087890625,-0.011237433329224587,-0.016085037757176904,0.11662957958392799
1733358934818431200,3.76543115234375,0.010510288098454475,-0.004116678071208298,0.1307821331748739
1733358934828397300,3.775397216796875,0.0385901351571083,-0.014936653173342347,0.14985716479457914
1733358934838364200,3.7853642578125,0.01869534811973572,-0.024658476041536776,0.19668281151857225
1733358934848330200,3.795330322265625,0.0006347907721996307,-0.0091299031233415,0.2237272145822644
1733358934858296000,3.805296142578125,0.028247020319104192,0.019908212774526327,0.26772501746919003
1733358934868262400,3.815262451171875,0.057389528173208235,0.06887151084803045,0.2916881864566356
1733358934878228200,3.825228271484375,0.07025485496520996,0.12085180038884281,0.339795214760676
1733358934888194000,3.835194091796875,0.09005261136889457,0.17001982725420967,0.37170853903498496
1733358934898160000,3.84516015625,0.07591419590115547,0.19886298683555795,0.3816859623657539
1733358934908126200,3.855126220703125,0.05194295320510864,0.21576573418378828,0.38187900071982295
1733358934918092300,3.86509228515625,0.023808161088824272,0.2445311888864264,0.353686487066932
1733358934928058000,3.87505810546875,0.0009492635488510131,0.25539158733049405,0.3295242518434301
1733358934938024200,3.885024169921875,0.003880640825629234,0.2386483961918391,0.31637017123792316
1733358934947990300,3.894990234375,0.01690612661540508,0.18892350262869148,0.25152017099093643
1733358934957956000,3.9049560546875,-0.005638298147916793,0.113745073656179,0.20763934554718433
1733358934967922200,3.914922119140625,-0.015731237617135047,0.08804165513897313,0.17202862805966287
1733358934977888000,3.924887939453125,-0.014268179327249527,0.05043090467434376,0.12799527893532067
1733358934987854300,3.934854248046875,-0.012505261307954787,0.03076663845721632,0.08026029881406575
1733358934997820200,3.944820068359375,0.010637129348516464,0.026579251503665,0.0445018799515441
1733358935007786200,3.9547861328125,0.039130817905068394,0.008640475638583302,-0.005176745050773025
1733358935017752000,3.964751953125,0.05261982955336571,-0.00470293526025489,-0.03080605715215206
1733358935027718100,3.97471826171875,0.06503215188086033,0.008215583023708313,-0.042336957002617415
1733358935037684200,3.984684326171875,0.056035775476694104,-0.014254917986877261,-0.025437808117270467
1733358935047650000,3.994650146484375,0.0524240147203207,-0.04149767490057275,-0.027756862181983886
1733358935057616100,4.0046162109375,0.05928513266146183,-0.0639660570193082,-0.020111096669174728
1733358935067582200,4.014582275390625,0.07782850508987903,-0.06393494949499144,-0.03305661255791783
1733358935077548300,4.02454833984375,0.0863525878071785,-0.07367834487417713,-0.03273209331128746
1733358935087514000,4.03451416015625,0.06898878055214881,-0.1025561191111803,-0.06468469015005976
1733358935097480000,4.04447998046875,0.042488896161317825,-0.1378754159040749,-0.08201043041702359
1733358935107446300,4.0544462890625,0.02855214074552059,-0.1462783564597368,-0.11102525677084922
1733358935117412000,4.064412109375,0.04616495432555675,-0.1615591286293231,-0.13230280340351164
1733358935127378200,4.074378173828125,0.06899637933671474,-0.14696246626637874,-0.16304785108342765
1733358935137344000,4.084343994140625,0.10946984402239322,-0.1304412838479504,-0.17660013722628354
1733358935147310300,4.094310302734375,0.1342231770068407,-0.13173724194262176,-0.17062442381754517
1733358935157276200,4.104276123046875,0.13276888654530047,-0.14634427956910803,-0.1497888122661039
1733358935167242200,4.1142421875,0.13832067545354365,-0.1500743146765977,-0.11185688528940081
1733358935177208000,4.1242080078125,0.12858254077136516,-0.12713820544825866,-0.08613887199126183
1733358935187174100,4.134174072265625,0.12944880221188068,-0.11795039812522008,-0.07866188717409968
1733358935197140200,4.14414013671875,0.10710954463183879,-0.10924573467662557,-0.05292882243730127
1733358935207106000,4.15410595703125,0.07294014852643013,-0.09900748671889305,-0.029112222313694654
1733358935217072000,4.164072021484375,0.046994390887022015,-0.09256143411835654,0.004811199674010277
1733358935227038200,4.1740380859375,0.028826866033673286,-0.03963001786516979,0.027901531349681315
1733358935237004300,4.18400439453125,0.011848258703947066,0.0013634886392392218,0.026857575254701078
1733358935246970000,4.19397021484375,0.026585224586725232,0.03366077072983607,0.040992045199684794
1733358935256936200,4.203936279296875,0.03248948019444942,0.03550906547764316,0.06620981735810637
1733358935266902300,4.21390234375,0.03255728473365307,0.03273423046944663,0.08852931079175323
1733358935276868000,4.2238681640625,0.029485622203350065,0.030817363997455684,0.09531820374689996
1733358935286834200,4.233834228515625,0.010709025540947914,0.03683934596702456,0.11013543179165572
1733358935296800300,4.24380029296875,0.0019534721553325653,0.04698533079773187,0.0905712649481371
1733358935306766300,4.253766357421875,0.012644377517700195,0.06997032066909596,0.08431326399929821
1733358935316732200,4.263732177734375,0.017345687076449394,0.07351548246266319,0.08838701624423265
1733358935326698000,4.273697998046875,0.01979191118478775,0.06928021951308473,0.07952730836439877
1733358935336664300,4.283664306640625,0.029557518395781517,0.05826302307210862,0.07121135197244584
1733358935346630100,4.293630126953125,0.054283378851413724,0.03868740325281396,0.06454937333259732
1733358935356596200,4.30359619140625,0.05807224974036217,0.035338567748945206,0.0510252538383007
1733358935366562000,4.31356201171875,0.04674889169335365,0.024131219030730424,0.017151808472163976
1733358935376528400,4.3235283203125,0.06325169820487499,0.03121794415498152,0.004497457549721002
1733358935386494200,4.333494140625,0.043244682964682576,0.016555285617429763,0.02927705748658627
1733358935396460000,4.3434599609375,0.053012628263235086,0.028603085481468588,0.049639936959743496
1733358935406426000,4.353426025390625,0.06218903740942478,0.010465553907584399,0.059731049798056476
1733358935416392200,4.36339208984375,0.034273441001772875,0.013155541910231112,0.07389624367486686
1733358935426358300,4.373358154296875,0.050515550750494,0.015400160765554755,0.07049907551724463
1733358935436324000,4.383323974609375,0.048668461579084395,0.015407905680593102,0.07896967448163777
1733358935446290200,4.393290283203125,0.055658758857846255,0.002424925591982901,0.05069689866676926
1733358935456256300,4.40325634765625,0.05261924503147602,0.009658018650673329,0.025267383453808724
1733358935466222300,4.413222412109375,0.04970131175816059,-0.006138356624543666,0.011110847807489334
1733358935476188200,4.423188232421875,0.05544248575866222,-0.011010602303408086,0.017270101089589297
1733358935486154000,4.433154052734375,0.04081833260059357,-0.025837712421361354,0.015092830115742981
1733358935496120300,4.443120361328125,0.037703999972343444,-0.046960945275146514,0.003842025848291814
1733358935506086100,4.453086181640625,0.040566988188028334,-0.04000118926512077,-0.0019782778030261396
1733358935516052200,4.46305224609375,0.04791793547272682,-0.05609333261651918,0.006099778179824352
1733358935526018000,4.47301806640625,0.051392918106913564,-0.06331464390587062,0.0005860562596470117
1733358935535984400,4.482984375,0.04844985039234161,-0.06416353408647701,0.0123048433650285
1733358935545949200,4.49294921875,0.04671206681430339,-0.05241279920656234,0.01814260960780084
1733358935555915000,4.5029150390625,0.06201952606141567,-0.041673999581858516,0.000059913493692874905
1733358935565881300,4.51288134765625,0.0767231741964817,-0.03466876046229154,-0.014009820652008056
1733358935575847200,4.52284716796875,0.06209434486329555,-0.020937026099301873,-0.011650946033559739
1733358935585814300,4.532814208984375,0.058097968703508376,-0.004988200208730995,-0.015017938248626886
1733358935595779000,4.542779052734375,0.042107203367352485,0.003757781630940735,-0.03528276417478919
1733358935605745200,4.5527451171875,0.03043956192731857,0.01400748256444931,-0.04098444641511887
1733358935615711200,4.562711181640625,0.025491584131121636,-0.005188070162385702,-0.03859371535368263
1733358935625677000,4.572677001953125,0.050177697098255154,-0.009011245179735124,-0.023804727022722363
1733358935635643100,4.58264306640625,0.04136778317689895,-0.041936102850455785,0.033165589357726274
1733358935645609200,4.592609130859375,0.02838087583184242,-0.024929803796205668,0.03912902780678123
1733358935655575300,4.6025751953125,0.013613514810800552,-0.026198124965280293,0.028175781713798642
1733358935665541000,4.612541015625,-0.0165524908721447,-0.022710556844156234,0.01193772708568722
1733358935675507200,4.622507080078125,-0.07017477546632289,-0.03889171191956848,0.008762677246145904
1733358935685473300,4.632473388671875,-0.08169745547771454,-0.04082958464697003,-0.020883359683305024
1733358935695439400,4.642439453125,-0.05213993708193302,-0.04319956518132239,-0.07035192213151603
1733358935705405200,4.6524052734375,-0.0470125110656023,-0.07062398053854703,-0.06620912323836237
1733358935715371300,4.662371337890625,-0.0052735564887523645,-0.10869695995375514,-0.024776677327416837
1733358935725337300,4.67233740234375,0.021423896300792694,-0.1207703509167768,0.06288027107659727
1733358935735303200,4.68230322265625,0.07446458161473274,-0.11925998288644477,0.16101258239615707
1733358935745269200,4.692269287109375,0.10711422080695629,-0.0941983420046512,0.2408858546540141
1733358935755235000,4.702235107421875,0.1120329725086689,-0.046331506531499325,0.30853005219679325
1733358935765201400,4.712201416015625,0.1151215861737728,-0.030687846733117474,0.3553612884113565
1733358935775167200,4.722167236328125,0.08288929561078548,0.014385083705186843,0.37926545722056176
1733358935785133300,4.73213330078125,0.08539338738620281,0.05966035004886798,0.4121620203785598
1733358935795099100,4.74209912109375,0.12055647070407867,0.1320350649785716,0.4076505343034863
1733358935805065200,4.752065185546875,0.11431436144411564,0.22476015609288588,0.371704739642702
1733358935815031300,4.76203125,0.10556348423361778,0.3232424681602046,0.3078910236408934
1733358935824997000,4.7719970703125,0.08156886066198349,0.38695531760342416,0.20995759589429944
1733358935834963200,4.781963134765625,0.03513210365772247,0.40834151224233206,0.06275412394627929
1733358935844929300,4.79192919921875,-0.007281973701715469,0.37077242722865195,-0.06804777337498963
1733358935854895400,4.801895263671875,-0.029101006799936293,0.3194874264756217,-0.14562694334629922
1733358935864861200,4.811861083984375,-0.0012917933762073516,0.28882744499696417,-0.1595627123814076
1733358935874827300,4.8218271484375,0.08126549380123614,0.2553355097617023,-0.16735775017179547
1733358935884793300,4.83179345703125,0.15514263091683386,0.2127467151561752,-0.1557146951837465
1733358935894759200,4.84175927734375,0.2426215924054384,0.16709033140726387,-0.15914898048136383
1733358935904725200,4.851725341796875,0.32333120588958264,0.08830679061487316,-0.1588753511717543
1733358935914691300,4.86169140625,0.3839414496749639,-0.016292652625869958,-0.19902440620865672
1733358935924657400,4.871657470703125,0.40468028632104397,-0.131253166486416,-0.24248729850128292
1733358935934623200,4.881623291015625,0.39722178700864313,-0.26481618081778285,-0.2982077244184911
1733358935944589300,4.89158935546875,0.34362054520249363,-0.3972532415928319,-0.31449118909090756
1733358935954555400,4.901555419921875,0.2720306422412395,-0.5058974484460428,-0.3107217535547912
1733358935964521200,4.911521240234375,0.21628303605616092,-0.583910406724736,-0.2543621894838288
1733358935974487300,4.9214873046875,0.15424889694750307,-0.6070015421180054,-0.18512948064059018
1733358935984453000,4.931453125,0.10135960280299186,-0.6166765849687159,-0.11256916174460202
1733358935994419500,4.94141943359375,0.0523760839253664,-0.5900359038677067,-0.02202989936992526
1733358936004385300,4.95138525390625,0.019414310044050215,-0.51983073326312,0.03678604487720877
1733358936014351400,4.961351318359375,-0.0036649522483348843,-0.43033341768942773,0.09064400139078498
1733358936024317200,4.971317138671875,-0.02793956180512905,-0.3315340938284993,0.11262428946532309
1733358936034283300,4.981283203125,-0.04951660284101963,-0.2520554286451079,0.13074866929668932
1733358936044249300,4.991249267578125,-0.06406652171909809,-0.15721713563594966,0.1484540930636227
1733358936054215200,5.001215087890625,-0.06602525457143783,-0.059616172980424015,0.15756814103070646
1733358936064181200,5.01118115234375,-0.07753741318881512,0.01123158811032772,0.12997896356582642
1733358936074147300,5.021147216796875,-0.06808510971069336,0.08062155160820111,0.052641055004484946
1733358936084113400,5.031113525390625,-0.061037529286742206,0.1700784073073417,-0.019624189935065806
1733358936094079200,5.041079345703125,-0.035759295645356175,0.23602504368461666,-0.13059775305129587
1733358936104045000,5.051045166015625,-0.001228080490231514,0.2742748957703821,-0.22854634183440356
1733358936114011400,5.061011474609375,0.026548399707674978,0.2703058460089378,-0.2768689856505021
1733358936123977200,5.070977294921875,0.018245850786566733,0.23087273895535618,-0.2812117640951648
1733358936133943300,5.080943359375,0.010354220753908157,0.18124058344326913,-0.288132503269054
1733358936143909000,5.0909091796875,-0.0017635025411844253,0.14548758967453612,-0.26860534396767616
1733358936153875500,5.10087548828125,-0.0043324762463569635,0.11251211606143041,-0.21904256389737128
1733358936163841300,5.11084130859375,-0.015306874725222587,0.0724401083161123,-0.17334983019344508
1733358936173807000,5.12080712890625,0.009008651363849639,0.06289413520516828,-0.11400558775588869
1733358936183773200,5.130773193359375,0.04334054455459117,0.07891776163130998,-0.02011116973441094
1733358936193739300,5.1407392578125,0.04338905987143516,0.08924242749717086,0.06506112224701792
1733358936203705300,5.150705322265625,0.06048749418854713,0.09526024474827573,0.13060648434702307
1733358936213671200,5.160671142578125,0.06741466310322285,0.08669707212960347,0.21434114474076776
1733358936223637200,5.17063720703125,0.08842822503745555,0.07167867722325026,0.30549762569833544
1733358936233603300,5.180603271484375,0.08389175065159797,0.04967592158857733,0.36056130473986264
1733358936243569400,5.1905693359375,0.07327157243788242,0.022101028377376496,0.39589605483021584
1733358936253535200,5.20053515625,0.08110533480346202,0.03850964466626756,0.39213173386063427
1733358936263500300,5.210500244140625,0.05724632031023502,0.06010999351250939,0.36792164090741425
1733358936273466400,5.22046630859375,0.02068155350089073,0.06321765893795527,0.3140422397470102
1733358936283432200,5.23043212890625,-0.008386135551333426,0.08681139182480983,0.23662297304514796
1733358936293398000,5.24039794921875,-0.049267596516013146,0.058998908731760454,0.1850568903284147
1733358936303364400,5.2503642578125,-0.08384908055365085,0.03989086075844243,0.12488522062338887
1733358936313330200,5.260330078125,-0.11331950518786907,0.021669148899288847,0.09073270258754491
1733358936323296300,5.270296142578125,-0.1311205348163843,-0.017228928828984497,0.07427837486024945
1733358936333262000,5.280261962890625,-0.09651508538126945,-0.04940900514754466,0.08188570805881172
1733358936343228400,5.290228515625,-0.03704524380266666,-0.07207751294826156,0.08667184635680168
1733358936353194200,5.3001943359375,0.025589783808588982,-0.08286586906942539,0.06811265530474483
1733358936363160300,5.310160400390625,0.10080956770479678,-0.08231344108474441,0.051699171044491225
1733358936373126100,5.320126220703125,0.1544832902252674,-0.053448544595623385,0.014679390476644039
1733358936383092200,5.33009228515625,0.17704174351394175,-0.05955879850368946,-0.004752089897915721
1733358936393058300,5.340058349609375,0.15843641176521778,-0.048450033055432135,-0.02286605793312192
1733358936403024100,5.350024169921875,0.14416764791607856,-0.039039413294568656,-0.05671393046658486
1733358936412990200,5.359990234375,0.13530045084953307,-0.04064596257521771,-0.10048523112125694
1733358936422956300,5.369956298828125,0.09861001183390616,-0.0319129498149734,-0.12064027653001248
1733358936432922400,5.37992236328125,0.10381401021778583,-0.027097256628936157,-0.1499141922114417
1733358936442888200,5.38988818359375,0.12337328169047831,-0.020841511569265274,-0.16697152733318507
1733358936452854300,5.399854248046875,0.15412731639444827,-0.024382846571085973,-0.16521555051133036
1733358936462820400,5.4098203125,0.2039882026284933,-0.035727393536595625,-0.1581173358786851
1733358936472786200,5.4197861328125,0.24616671766638754,-0.03835470069972798,-0.12428550116457045
1733358936482752300,5.429752197265625,0.24655250211358068,-0.041994080115389076,-0.08961144347265362
1733358936492718300,5.43971826171875,0.21847791575193404,-0.03740207615001127,-0.060192310634255404
1733358936502684400,5.449684326171875,0.18847323811054228,-0.03287759359604679,-0.03509524224605411
1733358936512650200,5.459650146484375,0.15954466526806355,-0.04705665160142816,0.005627046101540327
1733358936522616000,5.469615966796875,0.12555179477334022,-0.0686131247733254,0.004546447790600359
1733358936532582400,5.47958251953125,0.10774024375081062,-0.08909018694437108,0.008442468848451972
1733358936542548200,5.48954833984375,0.0779693748652935,-0.09258102473481558,0.011516432933695614
1733358936552514300,5.499514404296875,0.02649988439083099,-0.10070249060112982,-0.009739742117375135
1733358936562480000,5.509480224609375,-0.01644143171310425,-0.09581296499390154,-0.009573043780960142
1733358936572446500,5.519446533203125,-0.04413549432456493,-0.0851599348233547,-0.007930792999267577
1733358936582412300,5.529412353515625,-0.06257306829094886,-0.08243759718737564,0.005532791946828365
1733358936592378000,5.539378173828125,-0.054233694490790366,-0.05333392350631766,0.023932554653473197
1733358936602344200,5.54934423828125,-0.05546586663424968,-0.008213181004067883,0.03798690856695175
1733358936612310300,5.559310302734375,-0.02691664849817753,0.004221910277660936,0.06380114878118037
1733358936622276400,5.5692763671875,-0.016165537381172178,0.03583695485829375,0.09504139609951526
1733358936632242200,5.5792421875,-0.006297638839483261,0.07567583883432671,0.12746782099511475
1733358936642208300,5.589208251953125,-0.000748188018798828,0.1096376474705059,0.13203841684628279
1733358936652174300,5.59917431640625,0.02336976967155933,0.12015904148486442,0.14720274129565805
1733358936662139600,5.6091396484375,0.03552431784570217,0.13662164385016076,0.11718345060702412
1733358936672104700,5.619104736328125,0.02584814248383045,0.12952521018264815,0.07504548677522689
1733358936682070800,5.62907080078125,0.06181903505325317,0.10847549922280013,0.03710797030795365
1733358936692036600,5.63903662109375,0.07609072151184082,0.07832252655136399,0.0028800124157220123
1733358936702002400,5.64900244140625,0.097841950070858,0.05566684169960208,-0.0023160583900287746
1733358936711968800,5.65896875,0.1088040735900402,0.06871731580016203,-0.005061265444941818
1733358936721934600,5.6689345703125,0.111087216091156,0.05420824952227994,-0.005187412575259805
1733358936731900700,5.678900634765625,0.10768588321506976,0.039098121211864054,0.022748386370204387
1733358936741866500,5.688866455078125,0.09396890802979468,0.04083768575503491,0.05410013123899698
1733358936751832800,5.698832763671875,0.07697627217471599,0.045877068161731586,0.06582987812981009
1733358936761798700,5.708798583984375,0.10160159486532211,0.03428751519289799,0.08969755085352808
1733358936771764500,5.718764404296875,0.09511223284602165,0.020598852786654607,0.10915314275603741
1733358936781730600,5.72873046875,0.09985270537137984,0.0156335585294757,0.121544312697649
1733358936791696600,5.738696533203125,0.09577800327837467,0.016770088278735055,0.1545048810025677
1733358936801662700,5.748662841796875,0.09949790058434009,-0.005244385193195194,0.18560750994849948
1733358936811628500,5.758628662109375,0.11384908201992511,-0.010976453438634052,0.1974467085631564
1733358936821594600,5.7685947265625,0.09588613982796669,-0.03591943637682125,0.1974202589476481
1733358936831560700,5.778560791015625,0.07015840885341167,-0.029375165832508352,0.18725520409028976
1733358936841526800,5.78852685546875,0.02200140392780304,-0.04004060796005651,0.1815840631186962
1733358936851492600,5.79849267578125,0.00289221431016922,-0.039436760315392165,0.1681451011572033
1733358936861458400,5.80845849609375,-0.025037995144724844,-0.025842114601843057,0.14355072159413249
1733358936871424800,5.8184248046875,-0.04862286887168884,-0.04439244649400934,0.13612411525733767
1733358936881390600,5.828390625,-0.05348842908143997,-0.043460097547341134,0.10246263214144855
1733358936891356700,5.838356689453125,-0.03513327270150184,-0.03888944689724594,0.034669600712507964
1733358936901322500,5.848322509765625,-0.02709901932775974,-0.040169641167204825,-0.03401519192438573
1733358936911288800,5.858288818359375,-0.012783493727445602,-0.037172158117964864,-0.11501655489671975
1733358936921254700,5.868254638671875,0.027249825975298878,-0.03631882922425866,-0.19958920048456638
1733358936931220500,5.878220458984375,0.05932078849673271,-0.047302744450140745,-0.29382541768103837
1733358936941186600,5.8881865234375,0.09328969359397887,-0.06423354884907603,-0.3721834265377372
1733358936951152600,5.898152587890625,0.1382797589212656,-0.09112371119912713,-0.4511483883116394
1733358936961118700,5.90811865234375,0.18439970506131648,-0.137391632708814,-0.4596064931206405
1733358936971083500,5.91808349609375,0.2090542538464069,-0.17304228034792468,-0.43378889190554615
1733358936981049600,5.928049560546875,0.22871640117168426,-0.21027800522139295,-0.38765415005516257
1733358936991015700,5.938015625,0.2248322532147169,-0.2199280597613193,-0.34088184095360335
1733358937000981500,5.9479814453125,0.2116343334674835,-0.2099128434371203,-0.2899999411087483
1733358937010947600,5.957947509765625,0.16982114461064338,-0.20133673827163873,-0.23717530969828365
1733358937020913700,5.96791357421875,0.15192308434844015,-0.17180340446904302,-0.14251553332749753
1733358937030879700,5.977879638671875,0.0946650736004114,-0.14576099978843704,-0.04590170027948916
1733358937040845600,5.987845458984375,0.057309448674321174,-0.12368037487827241,0.02810158396642655
1733358937050811600,5.997811767578125,0.06336334188580513,-0.08187511359956115,0.08984594634827225
1733358937060777700,6.00777783203125,0.04070844248533249,-0.030953685461916028,0.1498744812555611
1733358937070743600,6.01774365234375,0.026463059511780736,0.009152370683476328,0.1850345323661342
1733358937080709600,6.027709716796875,0.02406710428595543,0.0599745579640381,0.2009117177926004
1733358937090675700,6.03767578125,-0.0028472061246633527,0.10806098187146708,0.21525299888867883
1733358937100641800,6.047641845703125,0.03162029614448547,0.13056582354307175,0.20377375616021454
1733358937110607600,6.057607666015625,0.02990063274502754,0.14066469956273212,0.19799593994375317
1733358937120573400,6.067573486328125,0.024009236618876457,0.16077691047675907,0.1521089623093605
1733358937130539800,6.077539794921875,0.015732991182804107,0.1428052552553825,0.13696798220295459
1733358937140505600,6.087505615234375,0.01030921256840229,0.13124443519068882,0.13508969417568295
1733358937150471700,6.0974716796875,0.01925415104627609,0.13179518267493695,0.1404712410835549
1733358937160437500,6.1074375,-0.01818155337870121,0.11268858687318861,0.1600074604742229
1733358937170403800,6.11740380859375,-0.027628596159815787,0.10801706966450438,0.17070943521987647
1733358937180369700,6.12736962890625,-0.03017418898940086,0.09812759861182421,0.17931414542533455
1733358937190335700,6.137335693359375,-0.059034372770786284,0.09372660544021054,0.14475231593623755
1733358937200301600,6.147301513671875,-0.0604886632323265,0.08291371766598894,0.11678732742890714
1733358937210267600,6.157267578125,-0.07854045275151729,0.0678973503199406,0.09403210945911705
1733358937220233700,6.167233642578125,-0.0789279907643795,0.04561349445525557,0.07189469459410756
1733358937230199600,6.177199462890625,-0.06973872213661671,0.026000538300257173,0.0462901881404221
1733358937240164600,6.18716455078125,-0.05024900876879692,0.008709723216202109,-0.012952091760002076
1733358937250130700,6.197130615234375,-0.035140286964178084,-0.010258888886962086,-0.04366064335443079
1733358937260096500,6.207096435546875,-0.0030196400821208952,-0.04458002322167158,-0.08855824462529271
1733358937270062600,6.2170625,0.02275777525305748,-0.09036686494983732,-0.09558025221657007
1733358937280028700,6.227028564453125,0.01689969687461853,-0.09920669908542186,-0.10542634078525007
1733358937289994800,6.236994873046875,0.01248246495425701,-0.12300338893216102,-0.11872479829750954
1733358937299960600,6.246960693359375,-0.009040800067782401,-0.11330545839620754,-0.0918565920509398
1733358937309926700,6.2569267578125,-0.016678747600317,-0.09943614219343289,-0.04593362978771329
1733358937319892700,6.266892822265625,-0.038242344632744785,-0.06555416646096855,-0.01144639990478754
1733358937329858600,6.276858642578125,-0.006834229934215545,-0.04090447651408612,-0.008480097445100546
1733358937339824600,6.28682470703125,0.03402268111109733,-0.02140274391490966,0.01799523702636361
1733358937349790500,6.29679052734375,0.08388648995459079,-0.023380126668792217,0.008049743203818797
1733358937359756800,6.3067568359375,0.1534025092512369,-0.025434063523914665,0.014207900507375597
1733358937369722600,6.31672265625,0.1586176135510206,-0.04311672746976837,0.026537622585333882
1733358937379688700,6.326688720703125,0.19171499651074408,-0.04856244392134249,0.04208378595914691
1733358937389654500,6.336654541015625,0.17757248938977718,-0.040032442919909955,0.06144227416273206
1733358937399620600,6.34662060546875,0.1793237169712782,-0.027332481023762373,0.0576728386266157
1733358937409586700,6.356586669921875,0.15715689334869384,-0.004859861121326685,0.061598378039896484
1733358937419552500,6.366552490234375,0.12813070535063742,0.03335650881994515,0.07139755872692913
1733358937429518600,6.3765185546875,0.1109521915346384,0.05269994558487087,0.09453048743531108
1733358937439484700,6.386484619140625,0.08106617183685302,0.06674628058867528,0.12444496604260057
1733358937449450800,6.39645068359375,0.05403554157018661,0.06690496914857066,0.16083068649061022
1733358937459416600,6.40641650390625,0.049318449920415876,0.07913387946686706,0.16602010835986583
1733358937469382400,6.41638232421875,0.03177753253281116,0.07156548090605065,0.17124894892405718
1733358937479348700,6.4263486328125,0.03840016554296016,0.05443688891269266,0.17397523208279161
1733358937489313500,6.4363134765625,0.04211655571758747,0.04387768363859504,0.16109295415598898
1733358937499279600,6.446279541015625,0.0857072756409645,0.04479019537363201,0.08541519735921174
1733358937509245700,6.45624560546875,0.1136100125670433,0.05070534683470614,0.007401691091246903
1733358937519211500,6.46621142578125,0.15199322697520254,0.04419612020431086,-0.08840604973826557
1733358937529177600,6.476177490234375,0.1728390311270952,0.02798826891821809,-0.1753368392921984
1733358937539143700,6.486143798828125,0.16683832940757273,-0.01759391708332114,-0.23960414428040383
1733358937549109800,6.49610986328125,0.16838906598091125,-0.07747106082118116,-0.2752800359586254
1733358937559075600,6.50607568359375,0.1644645860135555,-0.15587465325212105,-0.2623957122052088
1733358937569041700,6.516041748046875,0.14504443075060844,-0.2242790580450557,-0.24546050562579183
1733358937579007700,6.5260078125,0.12974690837562083,-0.25964842279106376,-0.20996870181020347
1733358937588973600,6.5359736328125,0.10825403849184513,-0.29006900602327657,-0.16465736863929778
1733358937598939600,6.545939697265625,0.1072094978749752,-0.2892398434564471,-0.10893935387488454
1733358937608905500,6.555905517578125,0.08757833020985126,-0.25221861985018473,-0.03586144084557891
1733358937618871800,6.565871826171875,0.038898178192973136,-0.17939617941929026,0.03916450097896158
1733358937628837600,6.575837646484375,-0.018175708159804342,-0.11542292547421529,0.07036565839592367
1733358937638803700,6.5858037109375,-0.01717676025032997,-0.04544293279447593,0.11951054184772074
1733358937648769500,6.59576953125,-0.024078210201859473,-0.0030141327899415042,0.14198179177697748
1733358937658735900,6.60573583984375,-0.008329436928033828,0.013476006036251783,0.17593210177160798
1733358937668702500,6.615702392578125,0.01271685823202133,0.0443901084064506,0.17066895707901567
1733358937678668500,6.62566845703125,0.0029892449438571928,0.053784188024466856,0.13656184908747673
1733358937688634400,6.63563427734375,0.027706922093033787,0.08846554310685023,0.08059340322595089
1733358937698599400,6.645599365234375,0.047796939441561694,0.08651219881568104,0.009663790804333985
1733358937708565500,6.6555654296875,0.06010170974135399,0.08937873069532215,-0.04947535751517862
1733358937718531300,6.66553125,0.07702303392589092,0.0907184548664838,-0.09687836573570967
1733358937728497200,6.6754970703125,0.06787175922095776,0.07590282512377015,-0.1335698276646435
1733358937738463500,6.68546337890625,0.07455635155141353,0.04127864358872175,-0.13717088436391203
1733358937748429300,6.69542919921875,0.07523498146533966,0.04112365395640954,-0.12295414296295493
1733358937758395400,6.7053955078125,0.08832359561920165,0.04784077858328819,-0.11008578396365046
1733358937768361200,6.715361328125,0.09406593866348266,0.03308403942096047,-0.08674571531061083
1733358937778327600,6.72532763671875,0.06509937189817429,0.03019559710361063,-0.06523008560575544
1733358937788293400,6.73529345703125,0.0523018496453762,0.029500052587501702,-0.03531969865169376
1733358937798259500,6.745259521484375,0.05192015685141086,0.018673839540826156,-0.011071904036588967
1733358937808225300,6.755225341796875,0.045849312505126,0.024052107646223155,0.0018043094756081699
1733358937818191400,6.76519140625,0.03019815438687801,0.015551999459555372,0.011183328521810471
1733358937828157400,6.775157470703125,0.029813538983464238,-0.01853784686992876,0.049624995118938385
1733358937838123300,6.785123291015625,0.027038813573122024,-0.034214066364197056,0.07644603775553405
1733358937848089300,6.79508935546875,0.027105449068546294,-0.054888852197583764,0.08345701249614357
1733358937858055400,6.805055419921875,0.035253099688887596,-0.07283798505989834,0.10269435853809118
1733358937868021500,6.815021484375,0.04386018451452255,-0.09631908788513392,0.1154691940350458
1733358937877987300,6.8249873046875,0.05218319170176983,-0.11116136817275546,0.10425053847152739
1733358937887953400,6.834953369140625,0.04345043466985225,-0.10431630631727166,0.10222882338557392
1733358937897918500,6.84491845703125,0.064200961753726,-0.0800734436056111,0.09033453358281403
1733358937907884300,6.85488427734375,0.0488946715503931,-0.05428930626870133,0.06646459583677351
1733358937917850400,6.864850341796875,0.02910860558450222,-0.045794778439449145,0.07720631807092576
1733358937927816400,6.87481640625,0.04613806631863117,-0.024402747714798896,0.07611717112734913
1733358937937782300,6.8847822265625,0.058977089625596994,-0.0099670115346089,0.06470960539560765
1733358937947748400,6.894748291015625,0.054901218488812444,0.016344044886389745,0.04732285565640777
1733358937957714400,6.90471435546875,0.03901332900524139,0.036706641231756654,0.017224617980048058
1733358937967680500,6.914680419921875,0.0425812506198883,0.05170938191125169,0.009008797494322061
1733358937977646300,6.924646240234375,0.037321722656488414,0.05639095472306944,-0.009480250930972397
1733358937987612400,6.9346123046875,0.04150222321152687,0.06006595344138331,-0.012710172762908041
1733358937997578500,6.94457861328125,0.03925590558946133,0.07789627309646457,-0.01827182547803968
1733358938007544300,6.95454443359375,0.044946226185560226,0.06692368298219517,-0.029207024457678196
1733358938017510400,6.964510498046875,0.07622574606835841,0.04964685989087447,-0.0496521388541907
1733358938027476200,6.974476318359375,0.08356558743715285,0.027339385688584298,-0.04595617041308433
1733358938037442600,6.984442626953125,0.07534720966815948,0.009342248966079205,-0.04277984193190932
1733358938047408400,6.994408447265625,0.061140405139327045,-0.013433902193885296,-0.04612787371817976
1733358938057374500,7.00437451171875,0.047511692759394646,-0.029229857343994078,-0.07225965544898062
1733358938067340300,7.01434033203125,0.0491126982152462,-0.026885641438560558,-0.0730682684181258
1733358938077306400,7.024306396484375,0.031256723529100416,-0.041953866836009546,-0.03977613007128238
1733358938087271400,7.034271484375,0.038997546914219854,-0.061080656042415644,-0.006759447664953768
1733358938097237200,7.0442373046875,0.05588087717592716,-0.07551283942549489,0.04899301735833287
1733358938107203600,7.05420361328125,0.05272796610295772,-0.08301219133809208,0.06715528151467443
1733358938117169400,7.06416943359375,0.062298927524685854,-0.056576458224654194,0.06849336171802133
1733358938127135200,7.07413525390625,0.06289747793972492,-0.04159257750925608,0.07078275129683316
1733358938137101300,7.084101318359375,0.05033434896469116,-0.01490937244077213,0.05908391100093722
1733358938147067400,7.0940673828125,0.018768997877836226,-0.00005205898080021143,0.03561659923903644
1733358938157033500,7.104033447265625,0.006820201408863067,0.00895410816501826,0.010979257317073643
1733358938166999300,7.113999267578125,-0.00018470891714096068,0.0405981687775813,0.005773249639198183
1733358938176965400,7.12396533203125,0.020350714111328123,0.02836600705627352,-0.021275720001757144
1733358938186931500,7.133931396484375,0.052281975901126855,-0.011127634545508771,-0.0576856250429526
1733358938196897300,7.143897216796875,0.110412093308568,-0.03241653368924744,-0.05597078394908458
1733358938206863400,7.15386328125,0.12932780618071554,-0.060824197063315655,-0.03504026065580547
1733358938216829200,7.1638291015625,0.15016308893859387,-0.05977928198711015,-0.013964154879376292
1733358938226795500,7.17379541015625,0.13101181374490262,-0.062230346667347475,-0.020293211770430208
1733358938236761300,7.18376123046875,0.10674129584133625,-0.059931266811583186,-0.02835804294552654
1733358938246727400,7.1937275390625,0.08395020284056663,-0.049375166810024525,-0.00880322845224291
1733358938256693200,7.203693359375,0.04289338530898094,-0.025373528975713995,0.01333948364239186
1733358938266658300,7.213658203125,0.03804945240914821,0.0034240013656206426,0.04769537876322865
1733358938276624400,7.223624267578125,0.03576397182047367,0.03142159523461014,0.0710416214287281
1733358938286590500,7.233590576171875,0.03813011642992496,0.0596758490120992,0.08767616456113755
1733358938296556500,7.243556640625,0.050095279511809344,0.0680075966282282,0.10464826908484101
1733358938306522400,7.2535224609375,0.04577098657190799,0.06583224361683242,0.09062467563580721
1733358938316488200,7.26348828125,0.04011398372352123,0.05860576296201907,0.06478851585071534
1733358938326454500,7.27345458984375,0.029234277790784833,0.051077541147964076,0.0604900149391964
1733358938336420400,7.28342041015625,0.0364554612159729,0.037567468445328996,0.03035725393872708
1733358938346386400,7.293386474609375,0.01793663870692253,0.010762710223253816,0.017466938835941255
1733358938356352300,7.303352294921875,0.02754384048581123,-0.006417502359487116,-0.011450783818960189
1733358938366318600,7.313318603515625,0.0396884517878294,-0.01979320809273049,-0.015074746469780801
1733358938376284400,7.323284423828125,0.045243747827410696,-0.0250770028477069,-0.023597952404245733
1733358938386250500,7.33325048828125,0.056338557815551756,-0.04326300407266244,-0.029029366335831582
1733358938396216300,7.34321630859375,0.057256257182359695,-0.04958260814878158,-0.03163863551877439
1733358938406182400,7.353182373046875,0.06550269200205802,-0.06304559943983332,-0.034266463271714745
1733358938416148500,7.3631484375,0.05698971520066261,-0.0641285632377956,-0.03600340659953653
1733358938426114300,7.3731142578125,0.04922083476483822,-0.04229514542119577,-0.05342193971648812
1733358938436079600,7.38307958984375,0.055065469139814374,-0.034342725112009795,-0.03864197494219988
1733358938446045400,7.39304541015625,0.06673427962362766,-0.03172971133571118,-0.025029921436123547
1733358938456011300,7.40301123046875,0.07285597737431526,-0.041294553543906654,-0.014207681311666965
1733358938465977300,7.412977294921875,0.07658639607429504,-0.056454466679645696,0.011907733806222677
1733358938475943400,7.422943359375,0.07673311106860638,-0.05147004759688861,0.03158292327616363
1733358938485909500,7.432909423828125,0.08976035042405128,-0.06084063674146309,0.036509967882186176
1733358938495875300,7.442875244140625,0.0778039551705122,-0.04493651764229871,0.025587445721030232
1733358938505841400,7.45284130859375,0.06570610561966896,-0.03488879642114043,0.016747136661410332
1733358938515807500,7.462807373046875,0.06303074893057346,-0.01832737332386896,0.009600443244539202
1733358938525773300,7.472773193359375,0.05974339782297611,0.0024039924018085003,-0.00020706687942147255
1733358938535739400,7.482739501953125,0.044916415569186206,0.02295931657399051,-0.0041312180532142515
1733358938545705200,7.492705322265625,0.04877893621623516,0.02556944427345879,-0.007422003226913511
1733358938555671600,7.502671630859375,0.05428571693897247,0.026843099204776805,-0.007140592469647526
1733358938565637400,7.512637451171875,0.05769640216529369,0.025483409957820547,0.020206373737193643
1733358938575603500,7.522603515625,0.047506432062387464,0.03723356944900006,0.01354950966387987
1733358938585569300,7.5325693359375,0.03539046233296394,0.0268195995981805,0.01126939937006682
1733358938595534300,7.542534423828125,0.0164303257972002,0.026812621868122367,0.028268647629022595
1733358938605500400,7.55250048828125,-0.025974399212002754,0.0008965104483067989,0.048938218431174754
1733358938615466200,7.56246630859375,-0.05069032279551029,-0.000677607000619173,0.06780490452982485
1733358938625432600,7.5724326171875,-0.04634323350191116,-0.012244546278845518,0.0431300801416859
1733358938635398400,7.5823984375,-0.0018763152658939361,-0.018720847887173295,-0.017538250506483017
1733358938645364200,7.5923642578125,0.029875498303771016,-0.00847688257470727,-0.05317256806530058
1733358938655330300,7.602330322265625,0.05278700281381607,0.015619100745860487,-0.04398461461178958
1733358938665296000,7.6122958984375,0.09916706119477749,0.03185015937760472,-0.039033275814726945
1733358938675261700,7.62226171875,0.15239011733829974,0.02544150704485364,-0.0077001625811681145
1733358938685227800,7.632227783203125,0.15408990699350833,-0.002820537313446402,-0.008889628094062208
1733358938695193900,7.64219384765625,0.16593524308800697,-0.0187767519260291,0.014175751803442835
1733358938705159700,7.65215966796875,0.13960077839195728,-0.02970035179941915,0.019234058106318116
1733358938715125800,7.662125732421875,0.1220885025769472,-0.04910128177208826,0.019037220359966158
1733358938725091600,7.672091552734375,0.10142156212329864,-0.04717513601509854,0.023965068683587012
1733358938735058000,7.682057861328125,0.08777765217423439,-0.033144829697487874,0.03187083683945238
1733358938745022700,7.692022705078125,0.05573357765972614,-0.015574540084926411,0.04336049136407673
1733358938754988500,7.701988525390625,0.03849661165475845,0.016975328527251258,0.03136507927440107
1733358938764955000,7.711954833984375,0.011835983744263649,0.016609600487397982,0.021739355458132922
1733358938774920700,7.721920654296875,-0.022305939832329747,0.05249620317369699,0.016264540776237846
1733358938784886800,7.73188671875,-0.03909223946034908,0.041443807555176314,0.006784070649556815
1733358938794852600,7.7418525390625,-0.04166530481874942,0.030891242084419353,-0.01419880388546735
1733358938804819000,7.75181884765625,-0.006984452059864998,0.010897981374943628,-0.06297949366737157
1733358938814784800,7.76178466796875,-0.0188572606831789,-0.019722188683133572,-0.08992712182570248
1733358938824750600,7.77175048828125,-0.0065115738511085505,-0.03483844534023665,-0.0823784600118175
1733358938834716700,7.781716552734375,0.0040104046851396555,-0.05578924423656426,-0.04462009950373322
1733358938844682800,7.791682861328125,-0.009742226335406303,-0.08085178016750141,-0.03446403167042881
1733358938854648800,7.80164892578125,0.041136312508583066,-0.0896138637586031,-0.026060287397168574
1733358938864614700,7.81161474609375,0.0664186378031969,-0.1321889038334135,0.004649542838893831
1733358938874580700,7.821580810546875,0.08916939879357814,-0.1324220093363896,0.036213980610296126
1733358938884546800,7.831546875,0.10490063641071319,-0.13416312651582993,0.06856774212848395
1733358938894511600,7.84151171875,0.12199030289947986,-0.11176654012482613,0.0873780949300155
1733358938904478000,7.85147802734375,0.14208148929178713,-0.0824400448727887,0.08813347987458109
1733358938914443800,7.86144384765625,0.13957447490692138,-0.049157012281008064,0.09053166359011083
1733358938924409900,7.871409912109375,0.11761164942383766,-0.015360248880274593,0.0768001118902117
1733358938934375700,7.881375732421875,0.08008417506217956,0.015971439581178127,0.04247147010248154
1733358938944341800,7.891341796875,0.03446107252836227,0.05498952695992775,0.04958155783601105
1733358938954307800,7.901307861328125,0.002598199799656868,0.06327984658712521,0.05021992880478501
1733358938964273700,7.911273681640625,-0.023102058646082876,0.06215429488960653,0.052811698863655325
1733358938974239700,7.92123974609375,-0.031219898650050162,0.04805393727677874,0.086877123137936
1733358938984205800,7.931205810546875,-0.03982172277867794,0.02459694597949274,0.08861680641211568
1733358938994172000,7.941171875,-0.024216157367825508,0.01480387993941549,0.07604816101174801
1733358939004137700,7.9511376953125,0.014824644166231155,0.04147519820728339,0.043980924817360934
1733358939014103600,7.961103515625,0.060496846538782116,0.052946855850913556,-0.012564371084049343
1733358939024070000,7.97106982421875,0.11216448993384838,0.07505636892884504,-0.0808181884251535
1733358939034034700,7.98103466796875,0.1802501841664314,0.07561184282056055,-0.17000000830888748
1733358939044000800,7.991000732421875,0.21819266906976698,0.08227641527629458,-0.2222858932001516
1733358939053966800,8.000966796875,0.23643209011554717,0.04983636828071903,-0.23127211353648452
1733358939063932700,8.0109326171875,0.2512678401976824,0.005396470482368022,-0.21758429138045757
1733358939073898800,8.020898681640626,0.2335252627581358,-0.03719621484698728,-0.1894320001401007
1733358939083864600,8.030864501953126,0.2112164003163576,-0.08363647898258642,-0.11964604132827371
1733358939093831000,8.040830810546876,0.1605839451879263,-0.10447526887180283,-0.07107680233996361
1733358939103796700,8.050796630859375,0.1186252103805542,-0.09455130189447664,-0.010374459824338555
1733358939113762800,8.0607626953125,0.05722586204409599,-0.08167359054493717,0.05492478202749043
1733358939123728600,8.070728759765625,0.013061726146936415,-0.04548623308008536,0.102107206299901
1733358939133694700,8.08069482421875,-0.010249591335654258,-0.032619865108467636,0.13492405528519302
1733358939143660800,8.090660888671875,-0.017052841609716415,-0.04059392186072655,0.16390563695654273
1733358939153626600,8.100626708984375,-0.021408114209771154,-0.04273269658824429,0.19497776116635648
1733358939163592700,8.1105927734375,-0.005375263297557831,-0.051583307846169914,0.1827795565135777
1733358939173557800,8.120557861328125,-0.012354454660415648,-0.034452870955597605,0.13508958457782863
1733358939183523600,8.130523681640625,0.005521393769979476,-0.01058890629261732,0.08254888467527925
1733358939193489700,8.14048974609375,0.02369534836411476,0.011668344692932441,0.03653689242172986
1733358939203455700,8.150455810546875,0.024203297886252403,0.03816852134470828,-0.015676475222595035
1733358939213421800,8.160421875,0.02275017646849155,0.046652043722756206,-0.05950823736023157
1733358939223387600,8.1703876953125,0.027868250134587286,0.029163833769923073,-0.08203169240076094
1733358939233353700,8.180353759765625,0.03251403011381626,0.019376316121220587,-0.10868030107989907
1733358939243319800,8.19031982421875,0.05689034647941589,0.003613468656269833,-0.11481719639971852
1733358939253285600,8.20028564453125,0.06270400119423866,0.005400973127549514,-0.09105276485476642
1733358939263251700,8.210251708984375,0.07540390829145908,-0.010320391549542545,-0.08481745066177099
1733358939273217800,8.2202177734375,0.06909867066740989,-0.006947252721479162,-0.07312339613884687
1733358939283183900,8.230183837890625,0.06758768158257007,0.0019065094747580586,-0.05238854154814034
1733358939293149700,8.240149658203125,0.07491641703546047,0.01705295120757073,-0.02559694420173764
1733358939303114800,8.25011474609375,0.0756686967074871,0.025902201625471934,-0.0077586513027548785
1733358939313080800,8.260080810546874,0.08150807038545609,0.004655497655645013,0.027424378824606535
1733358939323046700,8.270046630859374,0.09288052827119826,0.024574405354121698,0.027039909551665187
1733358939333012700,8.2800126953125,0.09599953707456588,0.022364099760353563,0.03258914117664099
1733358939342978800,8.289978759765624,0.08145078724026679,0.015928203227650373,0.05686484671197831
1733358939352945000,8.29994482421875,0.05224398197829723,0.015865376257663592,0.08215758380275219
1733358939362910700,8.30991064453125,0.028587212058901783,-0.00017855317099019883,0.0936368630638346
1733358939372876500,8.31987646484375,0.013609423157572745,-0.010203185777505858,0.09872417626548557
1733358939382843000,8.3298427734375,0.009867314019799232,-0.013371751077333464,0.10755199116971344
1733358939392808700,8.33980859375,0.0017915595918893813,-0.0009551635666750371,0.10157470685839652
1733358939402774800,8.34977490234375,-0.0025280571728944776,0.009837256808253005,0.08051138749830425
1733358939412740600,8.35974072265625,0.0015595044016838073,0.0023969598728232084,0.06164718561768531
1733358939422707000,8.36970703125,-0.0030126258194446563,-0.010305148314638062,0.03816942552700638
1733358939432672800,8.3796728515625,-0.008762567648291588,-0.015362906628241762,0.007651208872906864
1733358939442637600,8.389637451171875,0.0045054947257041926,-0.011187246645102277,-0.04889799601864069
1733358939452604000,8.39960400390625,0.029906477963924406,-0.007428122440446168,-0.06883322466425597
1733358939462569700,8.40956982421875,0.06083002401590347,-0.03045827576094307,-0.09637198711615055
1733358939472535800,8.419535888671875,0.07915595430135726,-0.04827404630086384,-0.10333291216995566
1733358939482501600,8.429501708984375,0.08712532574534415,-0.06582147562764584,-0.09944777783229947
1733358939492467700,8.4394677734375,0.0896814399689436,-0.0814407042376697,-0.11250906558781862
1733358939502433800,8.449433837890625,0.09745032040476799,-0.09864038870586082,-0.1150283183997497
1733358939512399600,8.459399658203125,0.09607552492022514,-0.08278260209960862,-0.09009228579215704
1733358939522365700,8.46936572265625,0.0866091929167509,-0.09075614739521407,-0.05850812040697783
1733358939532331800,8.479331787109375,0.0943476782143116,-0.04874382837023586,-0.012120792035013437
1733358939542297900,8.4892978515625,0.09191080645620822,-0.036292498339759185,0.024993133089691397
1733358939552263700,8.499263671875,0.07840835080444812,-0.013021695530647411,0.040113399201631546
1733358939562229800,8.509229736328125,0.06431202091276646,0.014290537289530038,0.04306969172395766
1733358939572194800,8.51919482421875,0.04722001633644104,0.039671774647664276,0.05419581016581505
1733358939582160600,8.52916064453125,0.035519641670584676,0.07426503132148646,0.056872920420579606
1733358939592126700,8.539126708984375,0.01648176372349262,0.07775038921921514,0.056874966247193515
1733358939602092800,8.5490927734375,-0.016180150428414343,0.0520998334004078,0.031350685422867536
1733358939612058600,8.55905859375,-0.01443359902203083,0.04753493663766421,0.029101445191353558
1733358939622024700,8.569024658203125,0.0009323124140501022,0.041914904798800126,0.035359007748775186
1733358939631990800,8.57899072265625,0.014511340433359145,0.016944504130724816,0.03307853212878108
1733358939641956900,8.588956787109375,0.010164251139760017,0.0026006200856063515,0.028536577850207686
1733358939651922700,8.598922607421875,0.03637012102007866,0.009127217975910753,0.03368227017559111
1733358939661889000,8.608888916015625,0.046292964619398115,0.006225386454025283,0.025540464774146676
1733358939671855000,8.618855224609375,0.07299918523728847,-0.007469961421331391,0.007926774411275983
1733358939681821200,8.6288212890625,0.11692951237857341,-0.024153558726701885,-0.024691885120794177
1733358939691786000,8.638785888671874,0.14978139614462851,-0.028056612313538787,-0.0274369460452348
1733358939701752000,8.648751953125,0.17528525523543356,-0.0338054033649154,-0.03202715991232544
1733358939711718100,8.65871826171875,0.16664309909641742,-0.050387202529935164,-0.023583375889621675
1733358939721684200,8.668684326171874,0.14300854100883006,-0.06022052294858731,-0.008916516100987792
1733358939731650000,8.678650146484374,0.12234744577407836,-0.08302326985453255,0.013231566288508474
1733358939741616000,8.6886162109375,0.06801087543070317,-0.06956215086015873,0.0417731491073966
1733358939751582200,8.698582275390624,0.04929506904482841,-0.05460112129738554,0.05968132890481501
1733358939761548000,8.708548095703126,0.026852351090312,-0.034851094759255644,0.05683247881233692
1733358939771514000,8.71851416015625,0.034200960287451745,0.004420465057063848,0.057038522778451436
1733358939781480200,8.728480224609376,0.04606090942919254,0.026742360510351136,0.06032766398433596
1733358939791446300,8.7384462890625,0.0419236634939909,0.04623266753321513,0.036010822721011936
1733358939801412000,8.748412109375,0.04558101695775985,0.0325578509892337,0.033270511036925014
1733358939811378200,8.758378173828126,0.03772387371659278,0.028194148487551137,0.0031079028874635693
1733358939821343200,8.76834326171875,0.035541853502392765,0.029629451120831072,-0.017479652187041936
1733358939831309000,8.77830908203125,0.0168880064368248,0.018113639241643248,-0.03303641002010554
1733358939841275100,8.788275146484375,0.027990415209531782,0.010062242936855181,-0.03467139081079513
1733358939851241200,8.7982412109375,0.0420627797037363,-0.018602719666529446,-0.034866548056714235
1733358939861207300,8.808207275390625,0.024991233393549916,-0.018318075772561133,-0.027996004700101912
1733358939871173000,8.818173095703125,0.034991233882308,-0.024919876057235522,-0.007387370304949581
1733358939881139000,8.828138916015625,0.02853518961071968,-0.03527280903635546,-0.008881517852842807
1733358939891105300,8.838105224609375,0.03764788587093353,-0.020299367516580968,0.014897526739351451
1733358939901071000,8.848071044921875,0.03479834165871143,-0.01597841731123626,0.02048106249272823
1733358939911037200,8.858037109375,0.03931026612520218,0.006502851688535883,0.02649648685734719
1733358939921003000,8.8680029296875,0.05969955868124961,0.007041232881555334,0.03212086607776582
1733358939930969300,8.87796923828125,0.07141922256946563,0.005053785391384735,0.01973060945160687
1733358939940934100,8.88793408203125,0.07281389179825783,0.011882617631275206,0.01302300157174468
1733358939950900000,8.89789990234375,0.07942132723927497,-0.009379557902319357,0.00552742165196687
1733358939960866300,8.9078662109375,0.09513210659027099,-0.019442449293145907,-0.01848521250039339
1733358939970832100,8.91783203125,0.07863397625386714,-0.017228417372331023,-0.025717465308867392
1733358939980798200,8.927798095703125,0.06720891139805317,-0.03966806658692658,-0.03962817296795547
1733358939990764000,8.937763916015625,0.07031096906661986,-0.06192713507022708,-0.03150711809359491
1733358940000730000,8.947730224609375,0.06308803207576275,-0.08943755734362639,-0.029979250939190388
1733358940010696200,8.9576962890625,0.0772720402508974,-0.0799458351705689,-0.029415698772296307
1733358940020662000,8.967662109375,0.084274027967453,-0.05196606008606031,-0.04378978615943342
1733358940030628000,8.977628173828125,0.11012626210451125,-0.024541242870036513,-0.054344534454122184
1733358940040594200,8.98759423828125,0.07432020470798015,0.031173438292974604,-0.08255746984053403
1733358940050559000,8.99755908203125,0.016795651978254316,0.06899422391224652,-0.09211659469399601
1733358940060525000,9.007525146484374,-0.03896013751327991,0.08050565187726169,-0.06662497403025627
1733358940070491100,9.0174912109375,-0.05627192232012748,0.0936324243507348,-0.06098806412182748
1733358940080457200,9.027457275390624,-0.055633624416589735,0.08146370152076705,-0.07333663703072815
1733358940090423000,9.037423095703126,-0.05678337897360324,0.02481433332352899,-0.05798840738181024
1733358940100389000,9.04738916015625,-0.03264437849521637,-0.028697074774699283,-0.03625712563227862
1733358940110355200,9.057355224609376,0.028622867894172666,-0.102925116820354,0.023777473689615726
1733358940120321000,9.067321044921876,0.07314531570971011,-0.16648719614865257,0.06948332260344177
1733358940130287000,9.077287109375,0.07756956189274787,-0.17407500266283749,0.09511489972714335
1733358940140253200,9.087253173828126,0.09935060106813907,-0.1350835110300686,0.07848232935611159
1733358940150219300,9.09721923828125,0.10930325528383254,-0.09679004813143983,0.06889584157168865
1733358940160185000,9.10718505859375,0.07525251712203025,-0.03070551025397144,0.05215882444549352
1733358940170150100,9.117150146484375,0.06080021339952946,0.03693344485810958,0.06465097054354846
1733358940180116200,9.1271162109375,0.04530395358204841,0.0881543126000557,0.07321640818454325
1733358940190082000,9.13708203125,0.01693885984122753,0.12029294266337529,0.06040960664674639
1733358940200048000,9.147048095703125,-0.02891512883901596,0.11652788190827704,0.057818567240238185
1733358940210014200,9.15701416015625,-0.05051321266293526,0.10655629466325044,0.04398779294956475
1733358940219980300,9.166980224609375,-0.08750760306119919,0.07786193243544548,0.04255900225546211
1733358940229946000,9.176946044921875,-0.07616144866049289,0.05255583353959955,0.024483393469266593
1733358940239912000,9.186911865234375,-0.05314122307896614,0.029331792481662705,0.029917510814592242
1733358940249878300,9.196878173828125,-0.01814531302154064,-0.002353805717686191,0.023164492890425024
1733358940259844000,9.206843994140625,0.03946691799163818,-0.026384158189827575,0.03956953811589628
1733358940269810200,9.21681005859375,0.07691665094196797,-0.04421390702275094,0.07938227387052028
1733358940279775200,9.226775146484375,0.12159341253638267,-0.028055233207205307,0.09873268836550414
1733358940289741000,9.236740966796875,0.14118074105978012,-0.0084948109570425,0.12604962476026266
1733358940299707100,9.24670703125,0.15317805284559727,0.016633552185143344,0.08067940100897103
1733358940309673000,9.2566728515625,0.18122925833165646,0.027170372097496873,0.004668247539363801
1733358940319639300,9.266639404296875,0.16649404601454734,0.04250807578582316,-0.10092961388789116
1733358940329605000,9.276605224609375,0.15713409699499606,0.029411223526578396,-0.15903090705964712
1733358940339571200,9.2865712890625,0.16883856331408023,-0.002464440185041167,-0.17402217649705706
1733358940349537000,9.296537109375,0.1667272702485323,-0.03806924852158408,-0.14576189483758062
1733358940359503000,9.306503173828125,0.15708967333137988,-0.08491753176907077,-0.09320307475645094
1733358940369469200,9.31646923828125,0.16311726305782795,-0.09074607352577149,-0.07507642990276217
1733358940379435000,9.32643505859375,0.16536065807044506,-0.09289342428538948,-0.05257368885669857
1733358940389400300,9.336400390625,0.15964403398931026,-0.08800738754319026,-0.028850466104969382
1733358940399366100,9.3463662109375,0.16108897210061549,-0.09246411122372374,-0.013922251966409385
1733358940409332000,9.35633203125,0.1469634161144495,-0.09015278380773961,-0.013334843999892472
1733358940419298000,9.366298095703126,0.1286415774822235,-0.10192386735593899,-0.0029628318609669804
1733358940429264100,9.37626416015625,0.11196750605702399,-0.09072451014793477,0.007614164798147976
1733358940439230200,9.386230224609376,0.07014262676239014,-0.09309112054826692,0.00030292846933007236
1733358940449196000,9.396196044921876,0.036976270219683645,-0.07756143338521942,-0.0009905454073101281
1733358940459162000,9.406162109375,-0.01445405728816986,-0.0729235216186149,-0.012033552142977714
1733358940469128200,9.416128173828126,-0.03701426414251327,-0.06482827703894581,-0.014171477487124502
1733358940479094000,9.426093994140626,-0.0481891536295414,-0.069722711716732,0.0038271570727229118
1733358940489060000,9.43606005859375,-0.04930266782939434,-0.06016674236815888,0.050934652945399284
1733358940499025200,9.446025146484375,-0.011918401330709457,-0.01853974199949298,0.07766440056934952
1733358940508991200,9.4559912109375,0.02760930693745613,0.008852163894195108,0.10241696636881678
1733358940518957000,9.46595703125,0.05580898098349571,0.02302776500058826,0.0798319173341617
1733358940528923100,9.475923095703125,0.058767246267199515,0.050525227327714674,0.05860683154109865
1733358940538889200,9.48588916015625,0.04138590335547924,0.09882884221635758,0.008031367296911776
1733358940548855000,9.49585498046875,0.025642975300550458,0.1186788950628601,-0.029826179269328713
1733358940558821000,9.505821044921875,0.03262216666340828,0.11874359432952478,-0.04930149878561496
1733358940568787200,9.515787109375,0.04182137216329574,0.11407878085626288,-0.02453125119898468
1733358940578753300,9.525753173828125,0.04741583116948604,0.12053109880080445,-0.008022489870712161
1733358940588719000,9.535718994140625,0.07021919912993907,0.11579311049347743,0.010480367884226143
1733358940598685000,9.545684814453125,0.0680313336968422,0.11221882307012565,0.006000153730250895
1733358940608650200,9.555650146484375,0.08752747680544852,0.10506347142276354,0.018392419650405643
1733358940618616000,9.565615966796875,0.09669336455762385,0.07882133378582075,0.01966426621712744
1733358940628582100,9.57558203125,0.0995715503424406,0.04246488509806804,0.02631963245309889
1733358940638548200,9.58554833984375,0.09975625925958156,-0.024124104303354398,0.011192388611100614
1733358940648514000,9.59551416015625,0.07493804434537887,-0.07361352687650359,0.011738258990831672
1733358940658480000,9.605480224609375,0.08197159624397754,-0.0988338745845016,-0.0010500205095857382
1733358940668446000,9.615446044921875,0.06758885062634945,-0.10213495282335207,-0.010798165129125117
1733358940678411800,9.625411865234375,0.056795069411396976,-0.1285673797348514,0.0056126887826249
1733358940688377900,9.6353779296875,0.027907997623085976,-0.11747941961260512,0.01869461746737361
1733358940698343700,9.64534375,-0.0015694412738084791,-0.0981161913018208,0.029005510536208746
1733358940708310000,9.65531005859375,-0.009327215793728827,-0.08236073255888186,0.04580503497198224
1733358940718274800,9.66527490234375,-0.01662087993323803,-0.07059817937701009,0.02013378342501819
1733358940728240600,9.67524072265625,-0.00803133076429367,-0.046327076951554046,-0.01587415321916342
1733358940738207000,9.68520703125,0.003112579062581062,-0.027790453924331812,-0.057679962487146255
1733358940748172800,9.6951728515625,0.0048024318456649775,-0.017702930415747685,-0.07743833672851323
1733358940758139000,9.705138916015626,0.01812485475540161,0.0031281419578939674,-0.08649148482121527
1733358940768104700,9.715104736328126,0.03469721937179565,0.015509767753025516,-0.08773100002091377
1733358940778070800,9.72507080078125,0.05139700976014137,0.03637070554196834,-0.054554414345137775
1733358940788036900,9.735036865234376,0.059406713214516634,0.03538616061718203,-0.021608751348406074
1733358940798002700,9.745002685546876,0.07744272064268588,0.03895839308076538,0.015242540784738957
1733358940807968800,9.75496875,0.09563654898107052,0.04580890742950141,0.03938471960090101
1733358940817933800,9.764933837890625,0.10517711526453494,0.02167971595907584,0.04950955204572528
1733358940827899600,9.774899658203125,0.11834113274216651,0.015153446862334385,0.046053968231752514
1733358940837865700,9.78486572265625,0.13003741575479508,0.012026044689957051,0.03047412178404629
1733358940847831800,9.794831787109375,0.10988368552029132,0.006289884791290387,0.016558737949840724
1733358940857798000,9.8047978515625,0.07627309234142303,0.030768154560867695,-0.013982348123192786
1733358940867763700,9.814763671875,0.038621114817261694,0.02908205550429411,-0.028881701493449506
1733358940877729800,9.824729736328125,-0.007124737313389778,0.04688566068238578,-0.022269736007787286
1733358940887696000,9.83469580078125,-0.031178397595882413,0.050488945871358736,-0.01701579753495753
1733358940897661700,9.84466162109375,-0.01633329516351223,0.04630422579892911,0.02497040980122983
1733358940907627800,9.854627685546875,0.005251344656944275,0.03132353255446069,0.06275978650208562
1733358940917592800,9.8645927734375,0.0694990681618452,-0.0015703271897975354,0.06852328193224966
1733358940927559000,9.874558837890625,0.12613982379436492,-0.021533019231073557,0.056616644104570145
1733358940937524700,9.884524658203125,0.11441957538425922,-0.0436823071969673,0.0616680457426235
1733358940947490800,9.89449072265625,0.09882453136742114,-0.04761549106058664,0.042496458413265645
1733358940957457000,9.904456787109375,0.07994213624298573,-0.052754662313638255,0.04076349714081734
1733358940967422700,9.914422607421875,0.07182429623901844,-0.05371758906166069,-0.004489566504210234
1733358940977388800,9.924388916015625,0.05381517681777477,-0.08389177805106154,-0.057506396018527445
1733358940987355000,9.93435498046875,0.05283727169632911,-0.10463845094372518,-0.06601458704695105
1733358940997321000,9.944321044921875,0.037762452161312104,-0.11084030125853606,-0.061282042099721726
1733358941007286800,9.954286865234375,0.02688040814101696,-0.11631957291983999,-0.0456407112557441
1733358941017251800,9.964251953125,0.00016191256344318388,-0.08675409954646601,-0.007480747676827013
1733358941027218000,9.974218017578124,-0.00978372738957405,-0.03606899178219028,0.03489456857480108
1733358941037183700,9.984183837890624,0.007056348252296447,0.013079398800944908,0.047080206006951626
1733358941047149800,9.99414990234375,0.06401975996792315,0.025870774440746754,0.051739576120115816
1733358941057116000,10.004115966796874,0.09780804780125617,0.03245194292934611,0.0786364239392802
1733358941067081700,10.014081787109374,0.09510638762712478,0.042370722274901344,0.05528024440165609
1733358941077047800,10.0240478515625,0.07774959463477134,0.055218202882958575,0.027555750119313598
1733358941087013600,10.034013671875,0.06082768592834472,0.07688535162140615,0.007704765691049396
1733358941096980000,10.04397998046875,0.04536240577101707,0.0922740046122577,-0.02587495742551982
1733358941106945800,10.05394580078125,0.028359833043813704,0.09920499118552542,-0.06099661275446414
1733358941116910600,10.06391064453125,0.04139876283705234,0.07211449309093877,-0.06471998065914958
1733358941126877000,10.073876953125,0.052775312376022336,0.06184922926211729,-0.0419054702501744
1733358941136842800,10.0838427734375,0.05846504845023155,0.031014238276425746,-0.0208474115870893
1733358941146808800,10.093808837890625,0.0610205781519413,0.0248847956106998,0.0037692894056439398
1733358941156774700,10.103774658203125,0.09397007707357406,0.02280252771023661,0.025844525754638015
1733358941166741000,10.113740966796875,0.09147884477972984,-0.003051003334764391,0.008414484862983226
1733358941176706800,10.123706787109375,0.08810907608568667,-0.016902729081921277,0.0005218684496358036
1733358941186672600,10.133672607421875,0.07442951030135155,-0.031588183973170814,-0.03244304723683745
1733358941196638700,10.143638671875,0.08110007410645484,-0.05155022756047547,-0.028714528232999144
1733358941206604800,10.153604736328125,0.09165303230285644,-0.04822652649786323,-0.028689686052687464
1733358941216569900,10.16356982421875,0.08424012569785118,-0.048671621650550514,-0.025637422342598436
1733358941226535700,10.17353564453125,0.06364975761175155,-0.028332835439033803,-0.01208502660188824
1733358941236501800,10.183501708984375,0.04514262554049492,-0.018242160992138087,-0.01087784276921302
1733358941246467800,10.1934677734375,0.06058744743168354,-0.03566283126724884,-0.018330679525807497
1733358941256433700,10.20343359375,0.06195932030677795,-0.014740153353707864,-0.015946853129193184
1733358941266399700,10.213399658203125,0.0788800599694252,-0.03042982598459348,-0.013843560707010328
1733358941276365800,10.22336572265625,0.08755144220292568,-0.01684650538265705,-0.008734729793295263
1733358941286332000,10.233331787109375,0.08318857081830501,-0.016961756659625096,-0.011342428073659538
1733358941296297700,10.243297607421875,0.08584522280693054,-0.02219001270192675,-0.017943579904362558
1733358941306263800,10.253263916015625,0.0790583391457796,-0.019335984110832212,-0.022354674344882367
1733358941316228900,10.263228759765624,0.07211947979331017,-0.024435754935257136,-0.02647840321138501
1733358941326194700,10.273194580078124,0.06368658249080181,-0.037416963191889224,-0.025256204472668468
1733358941336161000,10.2831611328125,0.05211655620634555,-0.032187236711708825,-0.026285912846587597
1733358941346126800,10.293126953125,0.04949439100921154,-0.02498962595835328,-0.027538579788804054
1733358941356092700,10.3030927734375,0.03517360471189022,-0.025219297395227474,-0.03174450704604387
1733358941366058800,10.313058837890624,0.026374796706438063,-0.018783820987632496,-0.032351094637066126
1733358941376024800,10.32302490234375,0.006935936743021011,0.0025815226594917474,-0.019872830933891236
1733358941385991000,10.332990966796874,-0.008466215050220488,0.016939426096808163,-0.019466478622704744
1733358941395956700,10.342956787109374,-0.021615034958720206,0.01927554089417681,-0.020950689298473296
1733358941405921800,10.352921875,-0.020670447584986686,-0.007965973910503089,-0.01565557856503874
1733358941415888000,10.362887939453126,-0.02028992383480072,-0.01590935239670798,-0.0265465365441516
1733358941425853700,10.372853759765626,0.0024117373168468475,-0.01747844661064446,-0.026947262832149863
1733358941435819800,10.38281982421875,0.05534662416875362,-0.050078931165207174,-0.023477139036171137
1733358941445785900,10.392785888671876,0.0799953277349472,-0.05533663249770179,-0.035813290854915976
1733358941455752000,10.402751953125,0.11929624150991439,-0.06531966358534991,-0.030567170362360774
1733358941465717800,10.4127177734375,0.16621464455127716,-0.05880246371105313,-0.03611874007489532
1733358941475683600,10.42268359375,0.1523831030756235,-0.06599728885227814,-0.038550643396936354
1733358941485650000,10.43264990234375,0.13076222289800643,-0.05883384523000568,-0.0050291898062452675
1733358941495615700,10.44261572265625,0.10032383001446724,-0.03514401329122484,0.009441635953634977
1733358941505580800,10.452580810546875,0.10864449911415576,-0.009010441462136804,0.004777881926298141
1733358941515547000,10.462546875,0.09139467362761497,0.03510793733084574,0.015570274901762604
1733358941525512700,10.4725126953125,0.06263911926448344,0.07075248402273282,0.028436843802779912
1733358941535478800,10.482478759765625,0.055746437141299246,0.09574278583452105,0.046589244152233
1733358941545444600,10.492444580078125,0.0228396083176136,0.10974575662063434,0.07180694324541836
1733358941555411000,10.502410888671875,0.011948796468973158,0.12229107594434172,0.08040902310237288
1733358941565376800,10.512376708984375,0.0068967737764120095,0.12072181733362376,0.09596399083714932
1733358941575342800,10.5223427734375,0.008731003466248511,0.10140364287411793,0.10065854186154902
1733358941585308700,10.53230859375,0.0069815294504165645,0.07941179222594946,0.09076715284641831
1733358941595273700,10.542273681640625,0.009724690678715705,0.049665235797781496,0.08846947036329657
1733358941605239800,10.55223974609375,0.019657471150159835,0.03828450327403843,0.0786863274956122
1733358941615206000,10.562205810546875,0.008790040177106856,0.01854771980997175,0.07683704636711627
1733358941625172000,10.572171875,0.028005612778663633,0.023195289887487886,0.05613408475201576
1733358941635137800,10.5821376953125,0.015940496453642844,0.014780476230941713,0.040728023968636985
1733358941645103600,10.592103515625,0.0324514862716198,-0.0037537265103310346,0.00026961072161793705
1733358941655070000,10.602070068359374,0.05569266112744808,-0.02207393944105133,-0.011107632937096058
1733358941665036300,10.612036376953125,0.060816580012440676,-0.041692759081255644,-0.017746632560156284
1733358941675002000,10.622002197265624,0.06534311752617358,-0.05242617014478892,-0.023124818467162547
1733358941684967200,10.63196728515625,0.07644727986454963,-0.05974023775150999,-0.024507833790779112
1733358941694933200,10.641933349609374,0.05896539918780327,-0.07816783831315115,-0.01907207247763872
1733358941704899000,10.651899169921874,0.06811901198029517,-0.06833932193377987,-0.025365765794366595
1733358941714865200,10.661865234375,0.06395195542871952,-0.08209874802129342,-0.03079228435512632
1733358941724831200,10.671831298828126,0.08506956225931644,-0.08011400394486264,-0.0261110677363351
1733358941734797300,10.68179736328125,0.0861345611423254,-0.06042221039999276,-0.03936630716137588
1733358941744763100,10.69176318359375,0.0973667337745428,-0.05255317579163238,-0.03598115823511034
1733358941754729200,10.701729248046876,0.09692074357271194,-0.019229381931200624,-0.05029770674873143
1733358941764695000,10.711695068359376,0.08000468008518219,0.007714081508666277,-0.02695979352016002
1733358941774660000,10.72166015625,0.053802317336201666,0.022855956664215773,-0.031721783757582306
1733358941784626200,10.731626220703125,0.05138648836612701,0.0242501875015907,-0.05412895547468215
1733358941794592300,10.74159228515625,0.06453063209950924,0.026181338227260858,-0.05096026231069117
1733358941804558300,10.751558349609375,0.04655132329463958,0.018405644458159804,-0.03428173390608281
1733358941814524200,10.761524169921875,0.04323357704877853,0.016741547170840202,-0.01828019144758582
1733358941824490000,10.771489990234375,0.05383621960580349,0.01950744995390996,-0.009706753163225949
1733358941834456300,10.781456298828125,0.04139934735894203,0.028842593325767666,-0.006919533597491681
1733358941844422100,10.791422119140625,0.0325514395147562,0.017985409752093253,0.006131196231395006
1733358941854388200,10.80138818359375,0.04660100765526294,0.008414466596674174,-0.008911584197543562
1733358941864353300,10.811353271484375,0.04119885635077953,0.010272807814460248,-0.009981880310177802
1733358941874319000,10.821319091796875,0.009902969855070113,0.01669737923555076,-0.0009886091785505414
1733358941884285200,10.83128515625,0.015722469788789748,0.008774568613339214,0.007169343640096485
1733358941894251000,10.8412509765625,0.034708325287699696,-0.010931143859028816,0.0031840003309771417
1733358941904217300,10.85121728515625,0.05174772289395332,-0.02833975837016478,0.009296966785937548
1733358941914183200,10.86118310546875,0.05442483314871788,-0.023135467725340277,0.01805310469344258
1733358941924149200,10.871149169921875,0.05993804361224174,-0.03143794358121231,0.01704250287879258
1733358941934115000,10.881114990234375,0.045101709008216855,-0.02270619119629264,0.005419760026410222
1733358941944081200,10.8910810546875,0.052255087894201274,-0.01679298509713262,0.010131444848701357
1733358941954046200,10.901046142578124,0.04412731101810932,-0.004386909847334027,-0.0016761530512943864
1733358941964012000,10.911011962890624,0.037488895916938776,-0.011524287446588278,0.010765176174975931
1733358941973978400,10.920978271484374,0.04641688326001167,-0.0296185096017085,0.031818449065089224
1733358941983944200,10.930944091796874,0.03753390410244465,-0.025049977843463418,0.035145109269768
1733358941993910000,10.940909912109374,0.028490181425213812,-0.0223261971690692,0.026455679922923445
1733358942003876000,10.9508759765625,0.057902738392353055,-0.006712192723434418,0.034800643213652074
1733358942013842200,10.96084228515625,0.0749146634697914,0.016351871999818832,0.02802124873921275
1733358942023808300,10.970808349609374,0.07082710189521313,0.029728125722333788,0.0007533391179516911
1733358942033774000,10.980774169921874,0.042353871604800225,0.03786883514523506,-0.002276420499384403
1733358942043739100,10.9907392578125,0.023297288957238194,0.04581095325611532,-0.01755001400951296
1733358942053705200,11.000705322265626,0.025188801792263984,0.056583965677674854,-0.01866403966601938
1733358942063671000,11.010671142578126,0.021536709025502202,0.043230234314221884,-0.047760370290838176
1733358942073637000,11.02063720703125,0.04706745612323284,0.03301635361276567,-0.0711138464147225
1733358942083603200,11.030603271484376,0.03624269524812698,0.0066638235370628535,-0.07664009902291
1733358942093569300,11.0405693359375,0.05489595779180526,-0.019596242482215163,-0.06265289206150919
1733358942103535000,11.05053515625,0.05872516069114208,-0.04884685035329312,-0.04090707032997161
1733358942113501200,11.060501220703125,0.07211012744307517,-0.04518060119701549,-0.007221256490424275
1733358942123467300,11.07046728515625,0.06049275488555431,-0.050012898457981646,0.007608684905432164
1733358942133432000,11.08043212890625,0.05575520496964454,-0.036003735393099486,0.01446768395472318
1733358942143398400,11.0903984375,0.04308803109824657,-0.03846157687399536,0.04191555325277149
1733358942153364200,11.1003642578125,0.05467676208317279,-0.025453718072455375,0.05303410944268107
1733358942163330000,11.110330078125,0.05071428819298744,-0.006186853675078601,0.06441270480826497
1733358942173296000,11.120296142578125,0.049156537356972695,0.0018767353910021482,0.05244085625726729
1733358942183262200,11.13026220703125,0.06616787791252136,0.017344207505416123,0.04895436584837735
1733358942193228300,11.140228271484375,0.06957505600750447,0.022973938754387198,0.0392982468938455
1733358942203194000,11.150194091796875,0.07148351997733116,0.030809381620399652,0.012587496231310068
1733358942213160200,11.16016015625,0.0659264703720808,0.02546522584715858,-0.001138612108491361
1733358942223125200,11.170125244140625,0.058577276653051374,0.012319657341670244,-0.012750870099477469
1733358942233091000,11.180091064453125,0.05464870503246784,0.006674217066913843,-0.024632556148990986
1733358942243057200,11.19005712890625,0.058635144320130346,0.01274338091276586,-0.04900339262187481
1733358942253023200,11.200023193359375,0.07203355507552624,0.008667254047654569,-0.03810311882514506
1733358942262989300,11.2099892578125,0.06553250261843205,0.018002233022730796,-0.03225201817676425
1733358942272955100,11.219955078125,0.05154197118878364,0.018223839884158224,-0.030582696725055574
1733358942282921000,11.2299208984375,0.04742167638838291,0.003965560896415263,-0.01957790310792625
1733358942292887300,11.23988720703125,0.013372107270359992,-0.008013922971766441,-0.007931304455921053
1733358942302852000,11.24985205078125,0.01748304972052574,-0.01128951057633385,-0.01536751887127757
1733358942312818200,11.259818115234374,0.003941431102156639,-0.018810060540586707,-0.009488288106955588
1733358942322784300,11.2697841796875,0.01750000085532665,-0.017603369898255915,0.0012541282469406723
1733358942332750000,11.27975,0.034656302839517594,-0.0170324929414317,0.015482231292128562
1733358942342716200,11.289716064453126,0.05316226586699486,-0.02486528719263151,0.01612436512056738
1733358942352682200,11.29968212890625,0.07136427751183509,-0.0234019549081102,0.03315612740963697
1733358942362648300,11.3096484375,0.08118190717101097,-0.02525264254240319,0.03422620432656258
1733358942372614100,11.3196142578125,0.10266834731400012,-0.02621377919213846,0.019576624466292557
1733358942382580200,11.329580322265626,0.11037819103896618,-0.02754829746522009,0.01632755954246968
1733358942392545300,11.339545166015625,0.0877069250255823,-0.031684776215441524,-0.006389883700199425
1733358942402511000,11.349510986328125,0.08432838850319385,-0.01996975196972489,-0.039983233483321966
1733358942412477200,11.359477294921875,0.057308864152431485,-0.016800474283844232,-0.03926613472253084
1733358942422443300,11.369443359375,0.03507657407820224,0.002789411522820592,-0.03791811764705926
1733358942432409300,11.379409423828125,0.034991233882308,0.006836494956538081,-0.01899254096802324
1733358942442375200,11.389375244140625,0.034304420661926266,0.008157733622938394,-0.021910693437047303
1733358942452341000,11.399341064453125,0.04649228658378124,0.019559034010674804,-0.004194565613009035
1733358942462307300,11.409307373046875,0.0651116468578577,0.025908750097267327,-0.009116422587260604
1733358942472272100,11.419272216796875,0.05141512993872165,0.015647906715236602,0.020507000651583073
1733358942482238200,11.42923828125,0.05164660060703754,0.03220874529061839,0.009058189594000577
1733358942492204300,11.439204345703125,0.04903963297903537,0.021767375976219774,0.020184636829420923
1733358942502170000,11.449170166015625,0.03731003221869469,0.03375233973711729,0.007212415596842765
1733358942512136200,11.45913623046875,0.060897244033217425,0.01679992629457265,0.0001873027330264449
1733358942522102000,11.46910205078125,0.04422667973935604,0.03328134295819327,0.013305690970644353
1733358942532068400,11.479068359375,0.06256780759394169,0.022898663294780998,0.01928600748926401
1733358942542034200,11.4890341796875,0.06775017866790295,-0.0018480207531712948,0.02634878548234701
1733358942551999000,11.4989990234375,0.057521045598387714,-0.031218967068288472,0.027565321665257214
1733358942561965300,11.50896533203125,0.057633858323097226,-0.03530462894672528,0.019620207879692316
1733358942571931100,11.51893115234375,0.06582534808516502,-0.026780820224061606,-0.0017018354818224906
1733358942581897200,11.528897216796874,0.061308747443556785,-0.015930376918427646,-0.022033662229590117
1733358942591863000,11.538863037109374,0.03821604114770889,-0.016909451083652674,-0.012329795143194495
1733358942601829400,11.548829345703124,0.042645548027753825,-0.013761691109836102,-0.013947094146721064
1733358942611795200,11.558795166015624,0.05140986924171447,-0.009129592596087603,0.0038843306200578805
1733358942621761000,11.568760986328124,0.06047405018508434,-0.020903717484744264,0.021236666633002457
1733358942631726300,11.578726318359376,0.08960369855761527,-0.020287403084151445,0.012965462698228656
1733358942641692200,11.588692138671876,0.08163900328874588,-0.007767930587753653,0.008340396713465452
1733358942651658000,11.598657958984376,0.09748597624003887,0.0006851509862579405,0.013638320458494125
1733358942661624300,11.608624267578126,0.08805822268128395,0.028794781261822208,-0.0038905411651358004
1733358942671590100,11.618590087890626,0.07921265292465686,0.02779418938453309,-0.01614643082190305
1733358942681556000,11.628555908203126,0.049561026504635806,0.03661392144700512,-0.011296725768409668
1733358942691522000,11.63852197265625,0.04158756340742111,0.04239761941498145,-0.02067136090043932
1733358942701488000,11.648488037109376,0.048425884994864464,0.026492011611629274,-0.01168112197611481
1733358942711453000,11.658452880859375,0.034034956070780754,-0.018252992913406343,-0.03989135394878685
1733358942721419000,11.6684189453125,0.041216392007470126,-0.05084428951451555,-0.04738737225998193
1733358942731385000,11.678385009765625,0.06652151365578174,-0.06798756762035191,-0.03772774617411196
1733358942741351200,11.68835107421875,0.08643617443740367,-0.07284158352278172,-0.03708685445468873
1733358942751317000,11.69831689453125,0.10289864893853663,-0.06491018773531541,0.005161657079495489
1733358942761282800,11.70828271484375,0.11098024858534336,-0.04187469151942059,0.03162895437497645
1733358942771249200,11.718249267578125,0.09107786276340483,-0.02038573062578216,0.04527648105323315
1733358942781215000,11.728215087890625,0.07747370030283927,0.010294051531888544,0.04433547387607396
1733358942791181000,11.73818115234375,0.06568389378786087,0.040637751869298515,0.03938840939532965
1733358942801146000,11.74814599609375,0.06572481032013892,0.051979650219995524,0.0392422058576718
1733358942811112000,11.75811181640625,0.04842997664809227,0.061066938044317065,0.05587934280596673
1733358942821078000,11.768078125,0.06331482656896115,0.057794254782889035,0.03335296515598893
1733358942831043800,11.7780439453125,0.06353460679948329,0.05208352158642374,0.029679537340253588
1733358942841010200,11.78801025390625,0.06196516552567482,0.03956583005515858,0.005451105012744665
1733358942850976000,11.79797607421875,0.03286415872573852,0.02979207607032731,-0.0037574893699958917
1733358942860942000,11.807942138671875,0.03548106322586536,0.014707575391512363,-0.012428981201350688
1733358942870907100,11.8179072265625,0.04049392295181751,-0.0011099705358967183,-0.013328158530779182
1733358942880873000,11.827873046875,0.04908873281776905,-0.012450224918778985,-0.01813647212795913
1733358942890839000,11.837839111328124,0.06306231311261654,-0.025561452763248234,-0.02656783506050706
1733358942900805000,11.84780517578125,0.07418576467335224,-0.017107384808547794,-0.01660860497355461
1733358942910771000,11.85777099609375,0.08320552195310592,-0.03250946353655308,-0.018200221546553073
1733358942920737000,11.867737060546874,0.06828735428452491,-0.03142820763848722,-0.007095913077704608
1733358942930702800,11.877702880859376,0.07461363469660282,-0.029039230142720043,-0.007797339345328509
1733358942940669200,11.887669189453124,0.058193245771527284,-0.026110994671098887,-0.0038653336586430666
1733358942950635000,11.897635009765626,0.044020343512296674,-0.02898183739967644,-0.004797499942220747
1733358942960599800,11.907599853515626,0.05049684605002403,-0.02834719275794923,-0.02053377906065434
1733358942970566100,11.917566162109376,0.04814356092214584,-0.02053949641538784,-0.017774032023735342
1733358942980532000,11.927531982421876,0.04534077846109867,-0.017866843140032142,0.002757299351505935
1733358942990498000,11.937498046875,0.03805120597481727,-0.012869528043083845,0.022869674662314356
1733358943000464000,11.9474638671875,0.05694470701515674,-0.020969174803234635,0.03053264703825116
1733358943010430200,11.95743017578125,0.06011456922292709,-0.024867552214954045,0.012236856162734329
1733358943020396000,11.96739599609375,0.08093056275844573,-0.017867537259776144,0.010091624294966458
1733358943030360800,11.97736083984375,0.07884557317793368,-0.013744721708726136,-0.006701543465256691
1733358943040327200,11.9873271484375,0.07141454639434815,-0.013269852472282946,-0.015443360586464405
1733358943050293000,11.99729296875,0.054259413453936575,0.0234782350147143,-0.00941796281710267
1733358943060259000,12.007259033203125,0.01897708767056465,0.04319306237529963,-0.004568769220262766
1733358943070225000,12.017224853515625,0.021846505627036092,0.05351454990338534,-0.0024707740277051925
1733358943080191000,12.02719091796875,0.03325520386993885,0.058858979671262204,0.010243746116757392
1733358943090157000,12.037156982421875,0.021775778478384016,0.04427183405533433,0.016393099059350786
1733358943100123000,12.047122802734375,0.05504617991745472,0.03722056383695453,0.02586772396713495
1733358943110088200,12.057088134765625,0.05137129079699516,0.03691257560001686,0.024369521298632024
1733358943120054000,12.067053955078125,0.05024140998423099,0.03114482411984354,0.012595095015875994
1733358943130019800,12.077019775390625,0.06258183611929416,0.014605850316397846,0.008017448369413614
1733358943139986000,12.08698583984375,0.03542319555878639,0.0038836547666229303,0.02175480875559151
1733358943149952000,12.096951904296875,0.045077743610739705,-0.003709302846714854,0.009798998023942112
1733358943159918000,12.10691796875,0.030043840608000753,-0.0039276765714399515,0.02004526489134878
1733358943169884000,12.1168837890625,0.0302770648419857,-0.0077213697659783065,0.018265761063434183
1733358943179850000,12.12685009765625,0.04323240800499916,-0.016028193003404884,0.009358597312681377
1733358943189815000,12.13681494140625,0.04257365183532238,-0.015163429400231689,0.014107143546640872
1733358943199780900,12.14678076171875,0.03264145588576794,-0.013508830593619495,0.00548084256388247
1733358943209747200,12.156747314453124,0.026748890715837477,-0.007130655597522855,0.023715550901927052
