time,seconds_elapsed,z,y,x
1733359278253801200,0.02380126953125,0.13989011672735213,0.03893880246430635,-0.095547993914783
1733359278263766300,0.033766357421875,0.13904314450919628,-0.01657850209623575,-0.054633799724280833
1733359278273731300,0.0437314453125,0.16065408781468868,-0.07386720024347306,-0.06281330678761005
1733359278283697200,0.053697265625,0.1653583199828863,-0.11339023233652114,-0.10658464397490024
1733359278293662200,0.063662109375,0.14856734417974948,-0.1408417183637619,-0.15770634392499921
1733359278303627300,0.073627197265625,0.1339525433719158,-0.11894172898381948,-0.16352233672738073
1733359278313593000,0.083593017578125,0.1095183593392372,-0.06329319925904274,-0.10135346532315015
1733359278323558400,0.093558349609375,0.09067746526896953,-0.03581131809353828,-0.0727846657037735
1733359278333523200,0.103523193359375,0.07887538379430771,-0.0185500944301486,-0.032008710940182206
1733359278343489300,0.1134892578125,0.09444938502311706,-0.013656184908747673,-0.013901099580526351
1733359278353454000,0.1234541015625,0.1212391922712326,-0.02538227853775024,-0.00030687399208545685
1733359278363420200,0.133420166015625,0.15283026232123373,-0.02568301504999399,-0.04421002086549997
1733359278373385200,0.14338525390625,0.16600421667098997,-0.04885375501811504,-0.07724456772208213
1733359278383350000,0.15335009765625,0.19345044200122355,-0.06829524533003568,-0.10714052429199218
1733359278393316400,0.16331640625,0.19354688811302184,-0.06753945852667093,-0.1783227232351899
1733359278403281200,0.17328125,0.1695809061139822,-0.07804828532040119,-0.225740307970345
1733359278413246200,0.18324609375,0.18527590337395666,-0.08867401649206877,-0.2427060558184981
1733359278423212300,0.19321240234375,0.21235037278234958,-0.10337532653957605,-0.3138081752628088
1733359278433177300,0.20317724609375,0.23884324291050432,-0.1408282743602991,-0.4262552815303206
1733359278443143200,0.21314306640625,0.2616033562511206,-0.21577771688252687,-0.5553732443526387
1733359278453108200,0.223108154296875,0.2711649653226137,-0.2567956637084484,-0.6462669827207923
1733359278463073300,0.2330732421875,0.28120120616853234,-0.27723580966889855,-0.6729585902914405
1733359278473039000,0.2430390625,0.2752951969951391,-0.25702158141881226,-0.6494347991019487
1733359278483004400,0.25300439453125,0.22619477373957633,-0.2629538940772414,-0.6171121999070048
1733359278492969200,0.26296923828125,0.15170038150846957,-0.23833295530080795,-0.5173851667419076
1733359278502935300,0.272935302734375,0.08872925381064414,-0.15048165336847305,-0.36823768458664413
1733359278512900000,0.282900146484375,0.1054711297750473,-0.06148176592290401,-0.18711071758568285
1733359278522865400,0.292865478515625,0.1311515144765377,0.006977145536243915,-0.08310030801296234
1733359278532831200,0.302831298828125,0.16190028848350047,0.02377250525355339,-0.08202011156082153
1733359278542796000,0.312796142578125,0.18267887261807916,0.011787468427419661,-0.16241203739792107
1733359278552762400,0.322762451171875,0.16938684484660624,0.012614859162271022,-0.2310755315184593
1733359278562727200,0.33272705078125,0.1318868430137634,0.05459054510444403,-0.20372312195152043
1733359278572692200,0.342692138671875,0.01823591391444206,0.14768150125592946,-0.09008476007282733
1733359278582658300,0.352658203125,-0.05229483538269997,0.24112726219445466,0.049019466973841186
1733359278592623400,0.362623291015625,-0.02960311110317707,0.27143063052147626,0.16691197916567324
1733359278602588200,0.372588134765625,0.031713819646835326,0.2703074717104435,0.2654237913221121
1733359278612554200,0.38255419921875,0.051346740877628326,0.23098989906162024,0.3807426536336541
1733359278622519300,0.392519287109375,0.11218494819998741,0.1965095373108983,0.4448565216258168
1733359278632485000,0.402485107421875,0.17074293563067913,0.15664046825915573,0.4473018689513206
1733359278642450400,0.412450439453125,0.18982465271949767,0.10417290665805339,0.4035714482963085
1733359278652415200,0.422415283203125,0.13593348805606364,0.05027765034139156,0.3409615551263094
1733359278662381000,0.432381103515625,0.04235679421424866,0.02288403198122978,0.26255203527808185
1733359278672346000,0.44234619140625,-0.020944588351249693,0.0009413725033402443,0.19122867429852486
1733359278682311400,0.4523115234375,-0.07913315794765949,-0.018654139326512813,0.11941752980202436
1733359278692277200,0.46227734375,-0.09069324735999107,-0.01844283466339111,0.06480506512671709
1733359278702242000,0.472241943359375,-0.07385550980567931,-0.043807577544450756,0.0320242007702589
1733359278712207400,0.482207275390625,-0.06673895579874516,-0.07553601023852825,-0.01540302857607603
1733359278722173200,0.492173095703125,-0.05103343714475631,-0.11594488525539635,-0.08097323285639285
1733359278732138200,0.50213818359375,-0.0299982479006052,-0.15647767891287803,-0.1787748509168625
1733359278742104300,0.512104248046875,-0.07194120061695575,-0.19355711724609134,-0.258970961920917
1733359278752069000,0.522069091796875,-0.0878992327272892,-0.18164631469994783,-0.2512698860242963
1733359278762034200,0.5320341796875,-0.09570961421728133,-0.10879676706641912,-0.15880495281666515
1733359278772000300,0.542000244140625,-0.06357727689743041,-0.01583265216499567,-0.0670478756174445
1733359278781965300,0.55196533203125,0.02196516357064247,0.04595101931393146,-0.004659516243636608
1733359278791930000,0.56193017578125,0.06947627180814743,0.07641308533400297,0.004115326364338398
1733359278801896400,0.571896484375,0.10528758990168571,0.049017421147227284,-0.001172258649766445
1733359278811861200,0.581861328125,0.11304828703105449,0.03497574405223131,-0.019976327840983868
1733359278821827000,0.5918271484375,0.062381345111131664,0.009234861335158348,0.008521452368795871
1733359278831792000,0.601792236328125,-0.0003004442512989044,0.04451864842325449,0.06534604013562202
1733359278841757200,0.611757080078125,-0.036218145328760144,0.07064502332657575,0.14395985038429499
1733359278851723300,0.62172314453125,-0.049607788255810734,0.12481997336745261,0.2582505386918783
1733359278861688000,0.63168798828125,-0.02554711371064186,0.18987609064579009,0.3563137302979827
1733359278871653400,0.6416533203125,-0.009880758023262024,0.23735563470125198,0.41740445107668633
1733359278881619200,0.651619140625,0.005442483314871788,0.2387923895061016,0.4266048256203532
1733359278891584300,0.661584228515625,-0.0018406594306230545,0.22368746709376572,0.4064554793000221
1733359278901550300,0.67155029296875,-0.02114215674996376,0.2075380040645599,0.39009091221541164
1733359278911515100,0.68151513671875,-0.027301848423480986,0.20055852044075725,0.33774931508153677
1733359278921480200,0.691480224609375,-0.030517303338646887,0.19880670833736658,0.2695864639595151
1733359278931446300,0.7014462890625,-0.017757190486788747,0.1834863896086812,0.21181056681722402
1733359278941411300,0.711411376953125,-0.014052490749955177,0.15113982501626014,0.18219898014664648
1733359278951376100,0.721376220703125,0.007063362514972686,0.12208265735805034,0.164068280172348
1733359278961342200,0.73134228515625,-0.00822305394411087,0.11406535511910915,0.1447296657130122
1733359278971307300,0.741307373046875,0.0016238018095493317,0.08392945231348276,0.13247837916612623
1733359278981272600,0.7512724609375,0.006018237376213074,0.05691022022366524,0.09102642483711242
1733359278991238400,0.76123828125,-0.009154197314381598,0.010891980892419814,0.0477314729899168
1733359279001203500,0.771203369140625,-0.004063596177101135,-0.02179477543979883,0.020588906781375406
1733359279011169500,0.78116943359375,0.016167875468730927,-0.02871463783085346,-0.011591653594374656
1733359279021134300,0.79113427734375,0.020564649122953412,-0.05379501081258058,-0.07478051569610834
1733359279031099400,0.801099365234375,0.04844634326100349,-0.09099719874262809,-0.12151976277828216
1733359279041065500,0.8110654296875,0.09494622862935066,-0.11799188091307877,-0.15120821407735346
1733359279051030300,0.8210302734375,0.09875789587199688,-0.11674392667859793,-0.15024959817826747
1733359279060995300,0.830995361328125,0.12326280705332755,-0.10988280873745679,-0.16194149727672338
1733359279070961400,0.84096142578125,0.12046937694251536,-0.1212830314129591,-0.1440066121354699
1733359279080926500,0.850926513671875,0.1334656366378069,-0.11338964781463146,-0.13949877932220697
1733359279090892300,0.860892333984375,0.136540806299448,-0.11940174771100281,-0.17577216196954248
1733359279100857600,0.870857666015625,0.13877309539616106,-0.1184118598908186,-0.18649317020922898
1733359279110822400,0.880822509765625,0.13421148656904697,-0.08213993854820728,-0.19827245533019303
1733359279120788200,0.890788330078125,0.12298983533084391,-0.08508505208939314,-0.2003805335253477
1733359279130753500,0.90075341796875,0.1344189918398857,-0.07274813308566808,-0.1962111388862133
1733359279140718300,0.91071826171875,0.12090601479411124,-0.06401303796619176,-0.18601795391291379
1733359279150684400,0.920684326171875,0.08598258545100688,-0.05284384756758809,-0.1675678127259016
1733359279160649500,0.9306494140625,0.0880249049335718,-0.020714140596240757,-0.16634148580133915
1733359279170614500,0.940614501953125,0.10430500860512255,0.02082607653811574,-0.14548252990692853
1733359279180580400,0.950580322265625,0.10037000724375247,0.05901727550551295,-0.13890198247283697
1733359279190545400,0.96054541015625,0.10132102435827255,0.051112493730336425,-0.13401713304072618
1733359279200511500,0.970511474609375,0.11889175236225127,0.035894904723763464,-0.11826105324327946
1733359279210476300,0.980476318359375,0.1555985579907894,0.037667905745655296,-0.10895984867364168
1733359279220441300,0.99044140625,0.15091419956684113,0.006095540396124124,-0.06494564264118671
1733359279230407400,1.000407470703125,0.12441022352278232,-0.02065948779955506,-0.002991583031415939
1733359279240372500,1.01037255859375,0.10734335338771342,-0.04748129762113094,0.07613368387073279
1733359279250337300,1.020337158203125,0.1382744982242584,-0.09292232158631086,0.1488961377426982
1733359279260303600,1.0303037109375,0.15661913321018217,-0.11433745005875826,0.1798828121587634
1733359279270268400,1.040268310546875,0.14476561380922792,-0.15911138841733335,0.17091653863191603
1733359279280234200,1.050234130859375,0.16620061602592467,-0.1824380495995283,0.16791238837987182
1733359279290199600,1.060199462890625,0.1353513042539358,-0.16437719999104738,0.12371493473500013
1733359279300164400,1.070164306640625,0.10191314503252506,-0.12070230891555547,0.10164631078988313
1733359279310130400,1.08013037109375,0.09292144480347633,-0.06470569640547037,0.10781155542135239
1733359279320095500,1.090095458984375,0.10039397264122962,-0.026835692216455934,0.08301058390289545
1733359279330060500,1.100060546875,0.12205869196057319,0.008202303417026996,0.07208353169709443
1733359279340026400,1.1100263671875,0.10380582691133022,0.012164338915795088,0.08270487895458936
1733359279349991400,1.119991455078125,0.07123159104287624,0.04763473461717367,0.07142039161324501
1733359279359956500,1.12995654296875,0.04627425991892815,0.07880392599329351,0.07367080088853836
1733359279369922300,1.13992236328125,0.015878537133336066,0.12366057419925927,0.07666326070278882
1733359279379887400,1.149887451171875,0.005701426512002944,0.15721856040805576,0.056149464984238145
1733359279389853400,1.159853515625,-0.0038268648117780685,0.21100494952276347,0.02972586070001125
1733359279399818500,1.169818603515625,-0.004169979161024093,0.24687355076149103,-0.012135551212728022
1733359279409783300,1.179783203125,0.006255553263425827,0.2442578153051436,-0.052536242923140526
1733359279419749400,1.189749267578125,0.02561024207472801,0.22366963917613028,-0.09576572831869125
1733359279429714400,1.19971435546875,0.060877370288968086,0.17601883020699025,-0.10963263336867093
1733359279439679500,1.209679443359375,0.09562895019650458,0.10445552299171686,-0.14933131428956983
1733359279449645600,1.2196455078125,0.1353133103311062,0.023365678018331525,-0.16499357832372188
1733359279459610400,1.2296103515625,0.15866905147731303,-0.05507525988146662,-0.14427432316094635
1733359279469576400,1.239576416015625,0.17277122658789157,-0.09990545847192406,-0.11625701994448899
1733359279479541500,1.24954150390625,0.18381284508407114,-0.12448241197615861,-0.0774509039491415
1733359279489506600,1.259506591796875,0.20526713652312753,-0.15792451672032476,-0.07643237455636262
1733359279499472400,1.269472412109375,0.19950258164703843,-0.18724252727180718,-0.029954993280768394
1733359279509437400,1.2794375,0.18474749558568,-0.1962583390288055,-0.006327157194912433
1733359279519402500,1.289402587890625,0.16183189942240714,-0.1970725780211389,0.017351240034401416
1733359279529368300,1.299368408203125,0.11113806949555874,-0.21222060892283914,0.031203532037138937
1733359279539333400,1.30933349609375,0.08653437411487103,-0.20255013264939187,0.017381050650775432
1733359279549299500,1.319299560546875,0.04910919108390808,-0.16330752493292092,-0.008710252939164638
1733359279559264500,1.329264404296875,0.0045364743858575815,-0.14486366735622286,-0.030554712739586827
1733359279569229300,1.339229248046875,-0.034032033461332316,-0.11260741139575839,-0.06594926672577858
1733359279579195400,1.3491953125,-0.04037175787687301,-0.05003302793055772,-0.08047375890165567
1733359279589160400,1.359160400390625,-0.04482464563250541,-0.006619272009283304,-0.08280746254622935
1733359279599125500,1.36912548828125,-0.02540858202278614,0.006614303573220968,-0.03810615103244781
1733359279609091600,1.379091552734375,0.000969137293100357,0.06538666440695524,0.01683306137919426
1733359279619056400,1.389056396484375,0.041322774991393085,0.09483034716472029,0.05394523293823003
1733359279629021400,1.399021484375,0.08156301544308663,0.1287389003768563,0.10251549483984708
1733359279638987500,1.408987548828125,0.1112964749276638,0.147227327747643,0.13617957177162168
1733359279648952600,1.41895263671875,0.10180267039537429,0.1609175610564649,0.1037497128099203
1733359279658918400,1.42891845703125,0.09198211812674999,0.16964827226176857,0.07154577155858279
1733359279668883200,1.43888330078125,0.05058043268024921,0.13369988378509878,0.013448971898853778
1733359279678848500,1.4488486328125,0.008434650868177414,0.11248422340750694,-0.02029109287858009
1733359279688814300,1.458814453125,0.017414076137542724,0.07289104868769646,-0.025508243004977702
1733359279698779400,1.468779296875,-0.0035772739648818968,0.07126622396484017,-0.030691783122718332
1733359279708744400,1.478744384765625,0.006107084703445434,0.04779737783297896,-0.042484512247145174
1733359279718710500,1.48871044921875,0.01256663610637188,0.03292655643746257,-0.050018707144260405
1733359279728675300,1.49867529296875,0.02033376297652721,0.05284545500278472,-0.02340951716005802
1733359279738641400,1.508641357421875,0.03712941495478153,0.06334054553210736,0.013632511772215366
1733359279748606500,1.5186064453125,0.05068389305472373,0.04732245379760861,0.003090367230772972
1733359279758571300,1.5285712890625,0.03960428063571453,0.020593582956492898,-0.019687866288423537
1733359279768537600,1.53853759765625,0.022913842597603797,0.008761544734984635,-0.01712941397726536
1733359279778502400,1.54850244140625,0.026821371430158614,0.013600363068282604,-0.0023877719193696975
1733359279788467500,1.558467529296875,0.025852234137058255,0.017104279536008835,-0.004529752384126186
1733359279798433500,1.56843359375,0.03758709559440612,0.007939999219030141,-0.0333925665140152
1733359279808398600,1.578398681640625,0.03698562256991863,-0.01878200348988175,-0.05660276170969009
1733359279818363400,1.58836328125,0.044639352193474764,-0.020525193895399568,-0.032433950614929194
1733359279828329200,1.5983291015625,0.036195348975062366,-0.04649988536834716,-0.005421732787787914
1733359279838294500,1.60829443359375,0.044540567994117736,-0.05256225414723158,-0.022960019826889038
1733359279848260400,1.61826025390625,0.06915595381259917,-0.05678133314698934,-0.05807692591547966
1733359279858225400,1.628225341796875,0.10090192216336727,-0.05029869312942028,-0.06341390302926302
1733359279868190500,1.6381904296875,0.10836217504143714,-0.021160130798071622,-0.05013502700030804
1733359279878156500,1.648156494140625,0.07752046205401421,-0.0035974399700760837,-0.03580138122141361
1733359279888121300,1.658121337890625,0.08048691064417361,0.017258885575830937,-0.008251695516705513
1733359279898086400,1.66808642578125,0.07285247024297714,0.04146349863633513,0.030257191097736356
1733359279908052500,1.678052490234375,0.08554302498996258,0.07382847566828131,0.05451134238839149
1733359279918017300,1.688017333984375,0.07464695244431495,0.07963409320712089,0.04279869276285171
1733359279927983600,1.697983642578125,0.07815817543566227,0.04672361112162471,0.00030482816547155377
1733359279937948400,1.707948486328125,0.06421031410396098,0.025983313170820473,-0.0021978023052215577
1733359279947913500,1.71791357421875,0.019096330136060713,0.008940116172283886,0.015507365733385086
1733359279957879600,1.727879638671875,-0.0035042087286710735,-0.013613807071745395,0.00684796619862318
1733359279967844600,1.7378447265625,0.016980945417284964,-0.02935468930006027,-0.0038870705664157865
1733359279977809400,1.747809326171875,0.049749242553114886,-0.045579117261618375,-0.014288345332443714
1733359279987775000,1.75777490234375,0.03632102118134498,-0.06581906447485089,-0.020182956328988075
1733359279997740000,1.767739990234375,0.049230771636962885,-0.06174523916468024,-0.04772533551007509
1733359280007705900,1.777705810546875,0.05539923113882542,-0.045953211271017785,-0.03879267199188471
1733359280017671000,1.7876708984375,0.05799743093848228,-0.038993893652409316,-0.027680910868942737
1733359280027636000,1.797635986328125,0.046484687799215316,-0.015113397979736327,-0.01778027910143137
1733359280037602000,1.80760205078125,0.059170566371083255,0.014486498253047465,-0.009917582902312278
1733359280047566800,1.81756689453125,0.07406944481730461,0.04037453435584903,-0.0004649871632456779
1733359280057532200,1.8275322265625,0.061169631233811375,0.05050079157277942,0.02346533900052309
1733359280067498000,1.837498046875,0.05017828162014484,0.05292714193686843,0.009380115024745464
1733359280077462800,1.847462890625,0.06674304745197296,0.03884104117825627,-0.007208908465504646
1733359280087429000,1.85742919921875,0.08175356957912444,0.04169277734756469,-0.005077157133817673
1733359280097394000,1.867393798828125,0.05799684641659259,0.04419306973069906,0.006114098966121673
1733359280107359000,1.87735888671875,0.07374094351530075,0.04603694403171539,-0.00038110827207565303
1733359280117325000,1.887324951171875,0.0972971756696701,0.03259805513545871,-0.01139671554416418
1733359280127290000,1.8972900390625,0.08388765899837017,0.00844853326305747,-0.024182255098223686
1733359280137255000,1.9072548828125,0.10001754054427146,-0.01642842610105872,-0.027911504754424093
1733359280147220700,1.917220703125,0.06610825667977333,-0.0002494447164237499,-0.04074585188627243
1733359280157186000,1.92718603515625,0.04991349320411682,0.006689414636045694,-0.03906856632381677
1733359280167151900,1.93715185546875,0.04903028062880039,0.021701544198393822,-0.00979337200075388
1733359280177117000,1.947116943359375,0.035569910553097724,0.013880202922970056,-0.015652327162027357
1733359280187082000,1.95708203125,0.02428454642891884,0.024499065962433814,-0.03073971391767263
1733359280197048000,1.967048095703125,0.05902560494244098,0.009660539401322603,-0.04085544974058866
1733359280207012900,1.977012939453125,0.10020458754897117,-0.008260171084105967,-0.04415156867653131
1733359280216978200,1.986978271484375,0.09164952517151832,-0.022233459118008614,-0.02948883707374334
1733359280226944000,1.996944091796875,0.0813940886169672,-0.048507133537530896,-0.0076154434397816655
1733359280236908800,2.00690869140625,0.07987024005055426,-0.054407443622499704,0.03184738289862871
1733359280246873900,2.016873779296875,0.07249298928081989,-0.03478592056855559,0.024521570055186747
1733359280256840000,2.02683984375,0.05792144309282302,-0.02748874929770827,-0.017202771474421022
1733359280266805000,2.036804931640625,0.03550736671090126,-0.02672770179733634,-0.03820376618802547
1733359280276771000,2.04677099609375,0.03645195408463478,-0.014185177218914031,-0.043270986449718475
1733359280286736100,2.056736083984375,0.05170739088356495,0.006977730058133602,-0.02983312046676874
1733359280296701000,2.066700927734375,0.0579921702414751,0.00406140422001481,-0.01497691211849451
1733359280306666800,2.076666748046875,0.06928922480344772,-0.010247837769985198,-0.0006263152047991752
1733359280316632000,2.086632080078125,0.08269055816829204,-0.005652765064686536,0.0028971827462315556
1733359280326596900,2.096596923828125,0.0712812754034996,0.015671470253914594,0.005347498507797718
1733359280336563000,2.10656298828125,0.06763385881185531,0.042341742775589226,0.005974398234486579
1733359280346528000,2.116528076171875,0.07038812595605849,0.05880114853680134,-0.008373276069760321
1733359280356493800,2.126493896484375,0.08157587492465973,0.053397535927593706,-0.02147065805196762
1733359280366459000,2.136458984375,0.07071078203916549,0.05383373538777232,-0.025688860268890855
1733359280376424200,2.146424072265625,0.07339724464416504,0.047771220478415484,-0.01492635097503662
1733359280386390000,2.15639013671875,0.06286532923579216,0.03301014306768775,-0.045860126160085196
1733359280396354800,2.166354736328125,0.06456570341289043,0.010737374852597712,-0.03534399284273386
1733359280406319900,2.17631982421875,0.0672381374925375,0.027900252708047628,-0.02680968099236488
1733359280416286000,2.186285888671875,0.05943301669955253,0.0077758946985006325,-0.01565875690281391
1733359280426251000,2.1962509765625,0.026497546303272244,-0.00802329358831048,-0.021327450188994405
1733359280436217000,2.206217041015625,0.03714344348013401,-0.010164835661649703,-0.019181670331954954
1733359280446182000,2.216181884765625,0.06872048500478267,-0.003409077791124582,0.003765197752416134
1733359280456147000,2.22614697265625,0.059037879902124404,0.008635580267757176,0.018601824617385864
1733359280466112800,2.23611279296875,0.07222001755833625,-0.0035794659219682214,0.0013818097472190856
1733359280476078000,2.246078125,0.06554419305622577,-0.018124270233511923,-0.009582067337632179
1733359280486043000,2.25604296875,0.07330138305425643,-0.018324322850257157,-0.0023678981751203538
1733359280496009000,2.266009033203125,0.06547755756080151,-0.024718407801538705,-0.018790917448699474
1733359280505974000,2.27597412109375,0.047175592672824854,-0.02234159566760063,-0.014007190303504466
1733359280515939800,2.28593994140625,0.046534372159838674,-0.009963175609707832,-0.0005152560457587241
1733359280525905000,2.29590478515625,0.05205693497359752,-0.004380699302256107,0.007570142993330955
1733359280535870000,2.305869873046875,0.06672668083906173,-0.022056202854961154,0.01432458568960428
1733359280545836000,2.3158359375,0.0925175401777029,-0.023513123665004968,-0.006919277869164943
1733359280555800800,2.32580078125,0.06222644681036472,-0.008235328903794288,-0.011252338637411593
1733359280565766000,2.335765869140625,0.05572422530949116,-0.007926847476512193,-0.008579320035874843
1733359280575732000,2.34573193359375,0.0397363825827837,0.025513795962929724,-0.006475333493947982
1733359280585697000,2.355697021484375,0.026294132685661314,0.04471884717047214,0.0031228081956505773
1733359280595663000,2.3656630859375,0.013320084822177886,0.06600128917396068,0.03748538878560066
1733359280605628000,2.3756279296875,0.03002045973241329,0.055071606619656086,0.05003185888677835
1733359280615593000,2.385593017578125,0.03466156353652477,0.051675680571049445,0.03289250803738832
1733359280625558800,2.395558837890625,0.04787175824344158,0.047820612578094,0.012077391284704208
1733359280635524000,2.405524169921875,0.07036766768991946,0.031741292175650596,-0.011097148075699805
1733359280645489000,2.415489013671875,0.06009761808812618,0.02296016595736146,-0.02558189276307821
1733359280655455000,2.425455078125,0.07985971865653992,0.005276917489618063,-0.017922902442514894
1733359280665420000,2.435419921875,0.08308744853138923,-0.022089958994090556,-0.025616379554569718
1733359280675385900,2.4453857421875,0.07484744345247744,-0.0347596170835197,-0.026325989128649235
1733359280685351000,2.455350830078125,0.05191255806684494,-0.04106324727237224,-0.024899755717813967
1733359280695316000,2.46531591796875,0.059765609654784196,-0.042610622844845056,-0.02511573655605316
1733359280705282000,2.475281982421875,0.0671855305224657,-0.025114421381801366,-0.04091156384199857
1733359280715246800,2.485246826171875,0.05233107573986053,-0.03425225208327174,-0.04406038326174021
1733359280725212000,2.4952119140625,0.0627326427668333,-0.009745879597216844,-0.02119388693720102
1733359280735178000,2.505177978515625,0.06349895096421242,0.004247866702824831,-0.0028738018706440925
1733359280745143000,2.51514306640625,0.06123042151033878,0.038973581516742704,-0.009025017976760863
1733359280755109000,2.525109130859375,0.06606500205993653,0.049421618033945555,-0.015291677156090736
1733359280765074000,2.535073974609375,0.027124153769016265,0.06857713101133704,-0.011336509789526461
1733359280775039000,2.5450390625,0.026827801170945166,0.08267375316396355,0.02074526638686657
1733359280785004800,2.5550048828125,0.04386895234286785,0.08994491321071982,0.025970307558774948
1733359280794970000,2.56497021484375,0.06542202798128127,0.06957797861695289,0.03674596859514713
1733359280804935000,2.574934814453125,0.09156301593184471,0.03942819341644645,0.021337971583008764
1733359280814901000,2.58490087890625,0.07646715360879898,0.028813860421627757,0.009222294114530086
1733359280824866000,2.594865966796875,0.0561275454133749,0.024559710108488796,0.02083352919220924
1733359280834832000,2.604831787109375,0.06775134771168231,0.010992226396501064,0.0392483068048954
1733359280844797000,2.614796875,0.048559155985713004,0.016554244437813757,0.028624621459841727
1733359280854762000,2.624761962890625,0.06463467699587344,-0.015953209804743528,0.001166121169924736
1733359280864728000,2.63472802734375,0.053100891068577766,-0.024341245052218435,0.0002902151182293892
1733359280874692900,2.64469287109375,0.0407774160683155,-0.03359671078398824,-0.012575111673772335
1733359280884658000,2.654657958984375,0.04857552259862423,-0.002339548863470554,-0.02727992885261774
1733359280894624000,2.6646240234375,0.05870762503445148,0.0014865852959454059,-0.03609802608042955
1733359280904589000,2.674589111328125,0.0698304920732975,-0.020689298415929078,-0.02477028411924839
1733359280914555100,2.68455517578125,0.06986731695234775,-0.019947247876971958,-0.029937165363132952
1733359280924520000,2.69452001953125,0.05545242263078689,-0.021012685151398182,-0.011955810731649398
1733359280934485000,2.704485107421875,0.03108136696219444,-0.004595949488133192,0.009770867908000946
1733359280944450800,2.714450927734375,0.028847324299812314,0.014847148258984089,0.024974282258749005
1733359280954416000,2.724416015625,0.0470692096889019,0.002138911724835634,0.03237023772895336
1733359280964381000,2.734380859375,0.06347615461051463,-0.004868628949671983,-0.0026359014615416525
1733359280974346800,2.7443466796875,0.09516308625042438,0.0013240882106125354,-0.03496142326593399
1733359280984312800,2.754312744140625,0.10073884055614471,0.011071429112553596,-0.044756256571412086
1733359280994278700,2.764278564453125,0.06202712484598159,0.018906945043802262,-0.0409758612498641
1733359281004243700,2.77424365234375,0.04602934524714947,0.01340294080004096,-0.020421733520925044
1733359281014208800,2.784208740234375,0.04056172749102115,0.033262948784977195,-0.015222119051218033
1733359281024174600,2.794174560546875,0.033601240828633305,0.041479572988301516,-0.004221709348261356
1733359281034139600,2.8041396484375,0.06523088932335376,0.038275954641401766,-0.012256547243893147
1733359281044104700,2.814104736328125,0.06402502066493033,0.03845116507783532,-0.001799158376455307
1733359281054070800,2.82407080078125,0.0558791236102581,0.029093992537260055,-0.02892915736436844
1733359281064035600,2.83403564453125,0.05990238777697086,0.029046354003250598,-0.022898645028471946
1733359281074001700,2.844001708984375,0.052342766177654265,0.0378016151279211,-0.0065998366564512245
1733359281083966700,2.853966796875,0.046288872966170305,0.0317062208622694,0.021774609434604644
1733359281093931800,2.863931884765625,0.07440028420686721,0.0396013580262661,0.03994038072228431
1733359281103897900,2.87389794921875,0.10173954203128814,0.028368016350269316,0.050854281185567375
1733359281113862700,2.883862548828125,0.1071270802885294,0.030215543913096186,0.04783464110344648
1733359281123827700,2.89382763671875,0.08140227192342281,0.025344576875865457,0.04893120416849851
1733359281133793800,2.903793701171875,0.05988485212028026,0.018142828803509474,0.008441957391798496
1733359281143758800,2.9137587890625,0.04844809682667255,-0.002304477550089359,-0.01914192284345627
1733359281153724700,2.923724609375,0.044021512556076045,0.0007468728445470333,-0.02531388947665691
1733359281163689700,2.933689697265625,0.041185996869206425,-0.013215455403923987,-0.02856266213953495
1733359281173654800,2.94365478515625,0.03447159392237663,-0.012592355069518089,-0.036867841409146784
1733359281183620600,2.95362060546875,0.024166473007202146,0.0030601182229816914,-0.019344167417287825
1733359281193585700,2.963585693359375,0.031056817042827603,0.012547639144957065,-0.023725451241433618
1733359281203550700,2.97355078125,0.03827975403368473,0.023937194295972585,-0.02605681679844856
1733359281213516800,2.983516845703125,0.0642184974104166,0.03809212250709534,-0.025218612408638
1733359281223481600,2.993481689453125,0.07167115150392055,0.028920243405550716,-0.022994506618380546
1733359281233447700,3.00344775390625,0.07573416315913199,0.019788988575339315,0.002201017175614834
1733359281243412700,3.013412841796875,0.0754986008375883,-0.0045101709008216855,0.006509820285439491
1733359281253377800,3.023377685546875,0.08857610907554626,-0.011904665066301822,0.03819558288156986
1733359281263343900,3.03334375,0.09086743488311767,-0.009134469700604676,0.029526538735628126
1733359281273308700,3.04330859375,0.0726274293154478,-0.006364566595852375,0.014673837518692015
1733359281283273700,3.053273681640625,0.08097440190017223,0.001742898144572973,0.011240355938673018
1733359281293239800,3.06323974609375,0.08275719366371631,0.002512567342817783,0.010714578498899936
1733359281303204900,3.073204833984375,0.06075754330158233,0.01455079566091299,-0.005891980648040771
1733359281313170700,3.083170654296875,0.05469955843687057,0.006228665256500244,0.000977028338611126
1733359281323135500,3.093135498046875,0.042625674283504486,0.03210632609575987,0.0015989596292376516
1733359281333100800,3.103100830078125,0.030964462584257123,0.04227130788788199,0.0009463409394025802
1733359281343066600,3.113066650390625,0.025378771406412124,0.035404198597371574,-0.007689385458827018
1733359281353031700,3.12303173828125,0.029060674789547918,0.05004720258638262,-0.02272328846156597
1733359281362996700,3.132996826171875,0.054687283477187154,0.03713803665265441,-0.032488895672559734
1733359281372962800,3.142962890625,0.05300386043488979,0.01279942194893956,-0.0506748329654336
1733359281382927600,3.152927734375,0.06995850236713885,0.006427694959938526,-0.04940817403048277
1733359281392893700,3.162893798828125,0.0817079768717289,0.004800678279995918,-0.03766132987439632
1733359281402858800,3.172858642578125,0.07269348028898238,-0.007893529728800058,-0.03142915748655796
1733359281412823600,3.182823486328125,0.07584522231817245,-0.02444733577519655,-0.011457505820691586
1733359281422790000,3.192789794921875,0.058954877793788905,-0.03452858480662107,0.003056172700226307
1733359281432754700,3.202754638671875,0.039240123498439784,-0.04044014693796635,-0.011105915904045104
1733359281442719700,3.2127197265625,0.05142272872328758,-0.017616759102791545,0.0009840426012873648
1733359281452685800,3.222685791015625,0.04744213465452194,-0.01117123622521758,0.00034720600247383117
1733359281462651000,3.23265087890625,0.05348316838443279,0.010863923841714859,0.0042693478822708126
1733359281472616700,3.24261669921875,0.06597673925459384,0.024967998648434877,0.013147943125665187
1733359281482581500,3.25258154296875,0.05151917483508586,0.05021028419360518,0.02824146736115217
1733359281492546800,3.262546875,0.0572732083171606,0.06548004177883267,0.03390957612544298
1733359281502512600,3.2725126953125,0.07303834820389747,0.06429039360284805,0.038331776481866836
1733359281512477700,3.282477783203125,0.06276712955832481,0.03773921741619706,0.03645721478164196
1733359281522442800,3.29244287109375,0.042728550136089324,0.04269026395231485,0.02776128262877464
1733359281532408800,3.302408935546875,0.06975275066196918,0.038496173263341184,0.013178922785818576
1733359281542373600,3.31237353515625,0.07338613872826098,0.0223603003680706,-0.005396013824641705
1733359281552339700,3.322339599609375,0.062490066182613366,0.00001432078629732132,-0.014040215790271758
1733359281562304800,3.3323046875,0.06616320173740387,0.006593553046137094,-0.0206043966114521
1733359281572269600,3.34226953125,0.05129939460456371,-0.013846154522895813,-0.01563479150533676
1733359281582236000,3.35223583984375,0.047809214401245116,-0.01134527761787176,-0.01908785456866026
1733359281592200700,3.36220068359375,0.04332768507301807,0.0014082593627274035,-0.014949147328734397
1733359281602165800,3.372165771484375,0.025426117679476737,0.016936667884141207,0.007579495343565941
1733359281612131800,3.3821318359375,0.02738309696614742,0.010623977605998515,0.013207856619358062
1733359281622097000,3.392096923828125,0.028046529310941693,0.02151975789070129,-0.009615092824399471
1733359281632062700,3.402062744140625,0.029475100809335707,0.022418460296094418,-0.02787731022387743
1733359281642027500,3.412027587890625,0.044267011749744414,0.011991612697392701,-0.02956336361467838
1733359281651992800,3.421992919921875,0.05851531733274459,-0.00013517068699002264,-0.03210164992064237
1733359281661958700,3.431958740234375,0.07097030975818634,-0.002928016275912523,0.005082417830824851
1733359281671923700,3.441923828125,0.05799275476336479,-0.011645429608225821,0.008504793494939803
1733359281681888800,3.451888671875,0.05035188462138176,-0.009498042315989733,0.01260229194164276
1733359281691854600,3.4618544921875,0.06540390780270099,-0.007761720042675733,0.008875964894890785
1733359281701819600,3.471819580078125,0.08897826013565063,-0.008543664200603962,-0.020064006124436855
1733359281711785700,3.48178564453125,0.09053016575276851,-0.0004800386019051075,-0.032229367953538895
1733359281721750800,3.491750732421875,0.07928454911708831,0.006425210741907357,-0.030167174726724623
1733359281731715600,3.501715576171875,0.06497077708244324,0.004129501020163297,-0.04578793770670891
1733359281741682000,3.511681884765625,0.04026420584917068,0.022086159601807594,-0.028167233081161973
1733359281751646700,3.521646728515625,0.027977555727958677,0.041546500744670624,0.007578034038841724
1733359281761611800,3.53161181640625,0.051589901983737946,0.030402590917795895,0.0005108721315860748
1733359281771577900,3.541577880859375,0.059114452269673344,0.044091216791421174,-0.0019391513690352438
1733359281781542700,3.551542724609375,0.05715688846111297,0.04726210191249847,-0.00493044213950634
1733359281791508700,3.5615087890625,0.053225394231081004,0.04176511193141341,0.009819675485789775
1733359281801473500,3.5714736328125,0.05386310761272907,0.04693155478388071,0.003982639895379543
1733359281811438800,3.58143896484375,0.04234393473267555,0.03563596152663231,0.032736440692842005
1733359281821404700,3.59140478515625,0.057531566992402076,0.042729719179868696,0.04185030599683523
1733359281831369700,3.60136962890625,0.05360591798126697,0.03860913211852312,0.03409954573959112
1733359281841334800,3.611334716796875,0.07331248897016047,0.018680296681076288,0.03671352763026953
1733359281851300600,3.621300537109375,0.06597673925459384,0.0032408816173672673,0.036328035444021224
1733359281861265700,3.631265625,0.062328153619170185,0.0017345687076449393,0.03439765190333128
1733359281871231700,3.641231689453125,0.05971417172849178,0.002266922018676996,0.007662205190956592
1733359281881196800,3.65119677734375,0.04694762913584709,-0.008008388280123471,-0.009446165998280048
1733359281891161600,3.66116162109375,0.036248540467023846,-0.015978928767889738,-0.0277434547111392
1733359281901128000,3.6711279296875,0.04911562082469463,0.0005653787977993488,-0.04370879334509373
1733359281911092700,3.6810927734375,0.03117196785509586,0.00032397125735878944,-0.0352571913421154
1733359281921057800,3.691057861328125,0.03509937043190002,0.0013759645283222197,-0.031627894929051395
1733359281931024000,3.70102392578125,0.03643441842794418,0.012950813118368387,-0.019260873048007488
1733359281940988700,3.71098876953125,0.04531038332283496,0.007987053231149911,-0.02467442252933979
1733359281950954800,3.720954833984375,0.057957683449983595,-0.01242123628631234,-0.017616612972319125
1733359281960919600,3.73091943359375,0.07639467289447784,0.003355740168690681,-0.029300621025264262
1733359281970884900,3.740884765625,0.06764379568397999,0.011392039369046687,-0.008273907348513602
1733359281980850700,3.7508505859375,0.044753918483853336,0.024788842689245937,0.015851064604520796
1733359281990815200,3.760815185546875,0.05134381826817989,0.015154314512014388,0.02717529943436384
1733359282000781000,3.770781005859375,0.042318800291419024,0.0271095407217741,0.042754561360180375
1733359282010746400,3.780746337890625,0.04668400976359844,0.04047200338095426,0.05748422071933746
1733359282020711200,3.790711181640625,0.06576338876485824,0.0460788834773004,0.05719254429638385
1733359282030677000,3.800677001953125,0.08200082233846187,0.03569499823749065,0.0187897484049201
1733359282040642300,3.810642333984375,0.06480185025632382,0.03894304024800658,-0.0024351181924343107
1733359282050607000,3.820607177734375,0.05087678527832031,0.05065671278685331,0.006186871941387653
1733359282060573200,3.8305732421875,0.005502104547619819,0.062088499644398686,0.012798691296577453
1733359282070538200,3.840538330078125,-0.016153846943378448,0.06787921187505126,0.02151683528125286
1733359282080504000,3.850504150390625,-0.009923428121209143,0.07404606394171714,0.011589900028705595
1733359282090469000,3.86046923828125,-0.021024667850136756,0.052501171609759326,-0.027658699037134644
1733359282100434200,3.87043408203125,-0.007921440649032592,0.0254494985550642,-0.048852293713390824
1733359282110400300,3.880400146484375,0.01815408084988594,-0.006798574098944664,-0.054150984643399715
1733359282120365000,3.890364990234375,0.022576573467254637,-0.03779533151760697,-0.030785014364123342
1733359282130330000,3.900330078125,0.03421089715957641,-0.050602790642529726,-0.0012564298018813132
1733359282140296200,3.910296142578125,0.04753273554742336,-0.05085939575210213,0.00502191981524229
1733359282150261200,3.92026123046875,0.044670331853628155,-0.04541413595825433,0.01025426751077175
1733359282160227000,3.93022705078125,0.03819733644723892,-0.026886107229441403,0.010279401952028274
1733359282170192100,3.940192138671875,0.06555822158157826,-0.01792670183479786,0.02424655250608921
1733359282180157200,3.9501572265625,0.08842705599367617,-0.020717355466634033,0.035702597022056574
1733359282190123000,3.960123046875,0.08868599919080734,-0.008389204291254282,0.025978198604285716
1733359282200088300,3.97008837890625,0.08458908526599407,-0.03431260396838188,0.01858896513581276
1733359282210053000,3.98005322265625,0.09331599707901478,-0.039499505086988206,0.019288053315877914
1733359282220019200,3.990019287109375,0.07271510759890079,-0.06261413095369935,0.003521452124416828
1733359282229984300,3.999984375,0.0686240388929844,-0.06804170896038413,-0.019789573097229004
1733359282239950000,4.0099501953125,0.07786766805648804,-0.0733997288621962,-0.037621874646842475
1733359282249915100,4.0199150390625,0.09057751202583313,-0.06771466896310448,-0.050213937455415726
1733359282259880200,4.029880126953125,0.10068389549851417,-0.03666179744303226,-0.05221183327436447
1733359282269846300,4.03984619140625,0.09972703316509723,-0.006258768133819103,-0.06723083096891641
1733359282279811000,4.04981103515625,0.12081307581365108,0.016566665527969596,-0.060042088508605956
1733359282289776000,4.059776123046875,0.10463117181956767,0.029703356607258317,-0.04527238940000534
1733359282299742200,4.0697421875,0.07922025170922278,0.03219020498692989,-0.028117548720538614
1733359282309707300,4.079707275390625,0.07826338937580585,0.03509834751859307,-0.015907178705930707
1733359282319673000,4.089673095703125,0.06904723274111747,0.04616290849894285,0.0020981413230299947
1733359282329638100,4.09963818359375,0.047232291296124454,0.06178367147892713,-0.0059624155357480045
1733359282339603200,4.109603271484375,0.028262802410125732,0.08419409459903836,-0.0024739888980984687
1733359282349569000,4.119569091796875,0.01556640244424343,0.08727057943493127,-0.006020283202826976
1733359282359534300,4.129534423828125,0.024294483301043508,0.06654255644381046,-0.010155483311414719
1733359282369500200,4.139500244140625,0.034705402678251264,0.02201762441024184,-0.03033288668245077
1733359282379465200,4.14946533203125,0.050338440617918964,-0.0014933072976768015,-0.024560733021795747
1733359282389430300,4.15943017578125,0.05972703121006488,-0.009314356312155722,-0.015692074650526047
1733359282399396000,4.16939599609375,0.07763795095384121,-0.0364149830751121,-0.022411153772473335
1733359282409361200,4.179361083984375,0.08097790903151035,-0.041741438794881104,-0.020583353823423384
1733359282419326000,4.189325927734375,0.05602876121401786,-0.029629414588212964,-0.027883739964663982
1733359282429292300,4.199292236328125,0.03571604102551937,-0.03684694475159049,-0.043640696544945234
1733359282439257000,4.209257080078125,0.04260638506114483,-0.05406900544837117,-0.045483986324071884
1733359282449222100,4.21922216796875,0.05750760159492492,-0.05384542582556605,-0.046211131554841994
1733359282459188200,4.229188232421875,0.07895721685886382,-0.05079422156140208,-0.047944238957762716
1733359282469153300,4.2391533203125,0.08270400217175483,-0.012647738518565892,-0.01920008277148008
1733359282479119000,4.249119140625,0.09197335029840469,0.014847440519928931,0.007849544456601142
1733359282489084200,4.259084228515625,0.10233575435876846,0.029625907456874847,0.03348492097258567
1733359282499049200,4.26904931640625,0.10875438922941684,0.04405059252008795,0.050506198400259016
1733359282509015000,4.27901513671875,0.10506839419305324,0.05507482149004936,0.04254851739406586
1733359282518980400,4.28898046875,0.0812368522286415,0.06251710032001137,0.061190089499950404
1733359282528946200,4.2989462890625,0.07790157032608985,0.05057736394032836,0.07276771456897259
1733359282538911200,4.3089111328125,0.09258008401989937,0.05141381476446986,0.09900368732661008
1733359282548876300,4.318876220703125,0.08478490009903908,0.0678477938234806,0.11128595353364944
1733359282558842000,4.328842041015625,0.07782265987098216,0.1025108186647296,0.10772650748640299
1733359282568807200,4.33880712890625,0.08020107944011688,0.09840747499912976,0.10708674827814102
1733359282578772000,4.34877197265625,0.0887619870364666,0.07664718635082245,0.0874570419177413
1733359282588738300,4.35873828125,0.08964812222123146,0.07712240264713764,0.06407967346161604
1733359282598703000,4.368703125,0.09056699063181876,0.0653790656223893,0.016369243259727953
1733359282608669200,4.378669189453125,0.08272095330655574,0.0772720402508974,0.002478372812271118
1733359282618634200,4.38863427734375,0.06905366248190403,0.07626184029504657,0.002630640764534473
1733359282628599000,4.39859912109375,0.06542085893750191,0.06594444442018867,0.017421674922108648
1733359282638565000,4.408565185546875,0.0577221211284399,0.06332987800762056,0.02967237694710493
1733359282648530200,4.4185302734375,0.04047404920756817,0.043274931972473854,0.041407530665397645
1733359282658495200,4.4284951171875,0.01711363188624382,0.009504618187248706,0.039892449927330015
1733359282668461000,4.4384609375,0.01750701511800289,-0.0018418284744024275,0.026384733578562736
1733359282678426400,4.44842626953125,0.010652326917648315,-0.00858516525477171,0.0004921674311161041
1733359282688392200,4.45839208984375,0.026712065836787223,-0.001623217287659645,-0.0275996623262763
1733359282698357000,4.46835693359375,0.018107319098711012,-0.02327171612456441,-0.0595826543033123
1733359282708322300,4.478322265625,0.03166822693943977,-0.013019640570878982,-0.045289925056695934
1733359282718288100,4.4882880859375,0.031001287463307377,-0.017194149776548148,-0.024150983177125454
1733359282728253200,4.498253173828125,0.030275895798206328,-0.0184346513569355,-0.008578443253040312
1733359282738219300,4.50821923828125,0.03194412127137184,-0.014719137965142726,0.003088321404159069
1733359282748184300,4.518184326171875,0.0457838460534811,-0.008981032704561949,-0.0006222235515713692
1733359282758149000,4.528149169921875,0.0709025052189827,-0.037020547752827405,-0.03361234674453735
1733359282768115200,4.538115234375,0.10338614019453525,-0.060591392954438925,-0.05273614940941333
1733359282778080300,4.548080322265625,0.09295651611685753,-0.079372811922431,-0.06273030467927455
1733359282788045000,4.558045166015625,0.1047913308173418,-0.07621464015245437,-0.06610007337331772
1733359282798011100,4.56801123046875,0.09319617009162902,-0.05375789367258548,-0.05729892728030681
1733359282807976200,4.57797607421875,0.06693360158801079,-0.04142155919075012,-0.03450520393103361
1733359282817942000,4.58794189453125,0.04898527244329452,-0.028090076191723344,-0.014947393763065336
1733359282827907000,4.597906982421875,0.039189270094037054,-0.02210880982503295,-0.01860533174872398
1733359282837872400,4.607872314453125,0.04139057953059673,0.01240077802017331,-0.019280454531311986
1733359282847838200,4.617838134765625,0.052957098683714864,0.029390491265803575,-0.02651128256767988
1733359282857803000,4.627802978515625,0.07319616911411285,0.05095686477720737,-0.013318331256508827
1733359282867768300,4.637768310546875,0.08150339421033859,0.04792611877918243,-0.018913374784588814
1733359282877734100,4.647734130859375,0.08201134373247623,0.05210895742177963,-0.016867255909740923
1733359282887699200,4.65769921875,0.05993745909035206,0.06597016338333488,0.005932897180318832
1733359282897665300,4.667665283203125,0.03714695061147213,0.07184007833003997,0.012168576699495314
1733359282907630000,4.677630126953125,0.048857846671342846,0.08586217394173144,0.03175707426667213
1733359282917595100,4.68759521484375,0.05516133072972297,0.08706979616582393,0.0215913618221879
1733359282927561200,4.697561279296875,0.039515433308482166,0.0729980161935091,0.005591244135797023
1733359282937526300,4.7075263671875,0.0440408017784357,0.06738134535551071,-0.005514671768248081
1733359282947491000,4.717490966796875,0.05863572884202003,0.03483107488453388,0.0035761049211025238
1733359282957457200,4.72745703125,0.041298809593915936,0.013222031275182962,0.014050737184286117
1733359282967422200,4.737422119140625,0.033597733697295185,0.020990619450062514,0.039159459477663035
1733359282977388000,4.747387939453125,0.0014268179327249525,0.01878960227444768,0.06825199071019887
1733359282987353000,4.75735302734375,-0.0035661680489778515,0.01728080514669418,0.07022270626127719
1733359282997318100,4.767318115234375,0.007369651985168457,0.008157733622938394,0.05542524236291647
1733359283007284200,4.7772841796875,0.01903729342520237,0.007467851662635803,0.03839052093178034
1733359283017249000,4.7872490234375,0.015366495957970619,0.006631400838494301,0.0271487036883831
1733359283027214000,4.797214111328125,0.020208675292134284,0.012208470318466424,0.039217911666631695
1733359283037180000,4.807179931640625,0.03607786007523536,-0.01550327408015728,0.045863048769533635
1733359283047145200,4.817145263671875,0.030841128465533253,0.0018935586616396903,0.05786152959913015
1733359283057111000,4.827111083984375,0.025936405289173126,-0.0025026304706931113,0.06788344965875148
1733359283067075800,4.837075927734375,0.0329044907361269,-0.0031543723776936527,0.0630640666782856
1733359283077041200,4.847041259765625,0.05463818363845348,0.003461977022141218,0.052993631301820276
1733359283087007000,4.857007080078125,0.06516250026226043,0.006417758087813854,0.011788052949309348
1733359283096972000,4.866971923828125,0.06434709222614765,0.0035253976471722125,0.008040098592638968
1733359283106938000,4.876938232421875,0.0706231037557125,0.023853607665747404,-0.005676876592636108
1733359283116903200,4.886903076171875,0.05591594848930835,0.03392287399843335,0.001486146904528141
1733359283126868000,4.896867919921875,0.07579787604510783,0.015521540389209984,-0.012363807010650634
1733359283136834000,4.906833984375,0.06860358062684535,0.027837124343961475,-0.028525252738595006
1733359283146799000,4.916799072265625,0.06755261026918888,0.020066928733885287,-0.039595220546424385
1733359283156764000,4.926763916015625,0.0542582444101572,0.015037702395021914,-0.03675239833593368
1733359283166730200,4.936730224609375,0.06996434758603573,0.020329525192826985,-0.033361586853861806
1733359283176695000,4.946695068359375,0.07533376566469668,0.029825667812675236,-0.025452421164512632
1733359283186661000,4.9566611328125,0.07116963172256946,0.03918444778844714,-0.0004094575837254524
1733359283196626000,4.9666259765625,0.07582417953014374,0.02930661237463355,0.02184884371459484
1733359283206591200,4.97659130859375,0.09829203192591666,0.022107786911725998,0.018893208779394627
1733359283216557000,4.98655712890625,0.07323182494938373,0.005871230120956897,0.012285188816487788
1733359283226521900,4.99652197265625,0.06652677435278892,0.007941460523754358,-0.010209843847155571
1733359283236487200,5.006487060546875,0.05045826760530472,0.00205064891949296,-0.03857902924120426
1733359283246453000,5.016452880859375,0.03648410278856754,-0.001072305406630039,-0.046019700635969635
1733359283256418000,5.02641796875,0.022269114953279493,-0.02243555756136775,-0.04389817843735218
1733359283266384100,5.036384033203125,0.031135142976045607,-0.01675312801077962,-0.04808277064561844
1733359283276349200,5.04634912109375,0.04408522544205189,-0.05155599971413612,-0.03956248732060194
1733359283286314000,5.05631396484375,0.06576806493997574,-0.048955023435503245,-0.006549860034883022
1733359283296280000,5.066280029296875,0.07873100688755512,-0.0430989908836782,0.009722060330212116
1733359283306245000,5.0762451171875,0.06427987220883369,-0.0230475519798696,0.013695347875356673
1733359283316210000,5.0862099609375,0.07828034051060676,0.0033535482116043565,0.00734422528296709
1733359283326176300,5.09617626953125,0.08966331979036331,0.012651245649904013,0.00509030887633562
1733359283336141000,5.10614111328125,0.09509352814555168,0.012830547739565372,0.0018184475988149641
1733359283346107000,5.11610693359375,0.09022446080446243,0.020646628317981957,-0.008495733405649662
1733359283356072000,5.126072021484375,0.07568915497362613,0.04308642366304993,0.005171849679946899
1733359283366037200,5.136037353515625,0.06275543912053108,0.05809592287689447,0.03102379155606031
1733359283376003000,5.146003173828125,0.05027355868816375,0.05356310175284743,0.032977848233282564
1733359283385967900,5.1559677734375,0.05246843838393688,0.03661094403862953,0.021952304089069365
1733359283395933200,5.16593310546875,0.06283902575075626,0.008359101413935423,0.0059624155357480045
1733359283405899000,5.17589892578125,0.07054945399761199,-0.017568536046892402,-0.02310322768986225
1733359283415864000,5.185864013671875,0.07199205402135848,-0.04405936034843325,-0.035899580898880956
1733359283425830100,5.195830078125,0.06488835949599743,-0.03558540038317442,-0.04381985250413418
1733359283435795000,5.205794921875,0.05064882174134254,-0.040940205414593214,-0.033625206226110455
1733359283445760000,5.215760009765625,0.025657588347792623,-0.025640052691102026,-0.024020634795725346
1733359283455726000,5.22572607421875,0.006409282520413399,-0.015015782824158668,-0.018570844957232473
1733359283465691100,5.235691162109375,0.016121113717556,-0.013658084604889154,-0.01747048249989748
1733359283475657000,5.245656982421875,0.023036592194437978,0.0031746845133602615,-0.008269523434340953
1733359283485622300,5.255622314453125,0.0329611893594265,0.03067658555358648,0.00660568187534809
1733359283495587000,5.265587158203125,0.047913843819499015,0.07169073298722504,0.047529812937974925
1733359283505553000,5.275552978515625,0.03399053240716457,0.07751783170551062,0.058040101036429405
1733359283515518000,5.28551806640625,0.018074585872888564,0.0779801885202527,0.059520402722060675
1733359283525483000,5.29548291015625,0.028978257203102112,0.08968480096980928,0.05956161151528358
1733359283535449000,5.305448974609375,0.03740180215537548,0.08945040769204497,0.07014788745939732
1733359283545414000,5.315413818359375,0.04457447026371956,0.07367708449885249,0.06499181987047195
1733359283555380200,5.325380126953125,0.045890813559293746,0.053106590157002205,0.05086626388430595
1733359283565345000,5.335344970703125,0.04328969115018844,0.03371566098853945,0.026372166357934473
1733359283575310000,5.34531005859375,0.04313771545886993,0.03499810201451182,0.015586568449437618
1733359283585276200,5.355276123046875,0.049826983964443204,0.03039426148086786,-0.006618249095976352
1733359283595241000,5.365240966796875,0.06755319479107856,-0.005788812534511089,-0.0006458966881036758
1733359283605206000,5.3752060546875,0.08278758880198002,-0.007153963407874107,-0.016806757894158364
1733359283615172000,5.385172119140625,0.07069616899192332,-0.016242402009665965,-0.015277648630738258
1733359283625137200,5.39513720703125,0.07495674904584884,-0.013183306699991225,0.0014975450813770293
1733359283635103000,5.40510302734375,0.0757125358492136,-0.005833090067654848,0.005749649567902088
1733359283645068300,5.415068359375,0.06234218214452266,0.018393588694185017,-0.006283610314130782
1733359283655033000,5.425033203125,0.06831716490089892,-0.004079232137650251,-0.001756196017563343
1733359283664999000,5.4349990234375,0.06632569882273674,-0.017719488824903963,-0.006885083338618278
1733359283674964000,5.4449638671875,0.07078092466592788,-0.054935120758414266,0.006522679767012596
1733359283684929000,5.454928955078125,0.0855856950879097,-0.06426116750836372,-0.0010232055678963661
1733359283694895000,5.46489501953125,0.08768003701865673,-0.06180982883349061,0.0061263739258050915
1733359283704860000,5.47485986328125,0.0730371791601181,-0.05611702401936054,-0.016316928550601004
1733359283714826000,5.484825927734375,0.05488835900723934,-0.043556087001413106,-0.04385053990334272
1733359283724791000,5.494791015625,-0.008382043898105622,-0.03486600006744266,-0.04733399810492992
1733359283734756000,5.504756103515625,-0.021117022308707236,-0.022917349728941917,-0.01144026242494583
1733359283744722200,5.51472216796875,0.0036801498174667355,0.020075696562230586,-0.003920680575072765
1733359283754687000,5.52468701171875,0.02835515686869621,0.018898323345929384,-0.03755523915141821
1733359283764653000,5.534653076171875,0.09144377346634865,0.025465134515613316,-0.05740384895950555
1733359283774618000,5.5446181640625,0.12195230897665023,0.0151003923676908,-0.04500672420114279
1733359283784583200,5.554583251953125,0.1164157176375389,0.03359787982776761,-0.002230243270099163
1733359283794549000,5.564549072265625,0.0953062941133976,0.07153729599118232,0.04208937544971704
1733359283804514000,5.57451416015625,0.07443827812969685,0.07997618464305996,0.05709522140175104
1733359283814479000,5.58447900390625,0.06491349393725394,0.08391498539671301,0.07725187424570322
1733359283824445000,5.59444482421875,0.035440146693587304,0.06682999508306384,0.07005114908665418
1733359283834410000,5.604409912109375,0.03465864092707634,0.044361558165401216,0.04555179086327552
1733359283844376000,5.6143759765625,0.03937807066440582,0.03773760998100042,0.027872634048759937
1733359283854341000,5.624341064453125,0.049455228042602536,0.021999650362133978,0.004848609074950218
1733359283864306000,5.634305908203125,0.05776303766071796,0.029625469065457582,0.015442483803629874
1733359283874272000,5.64427197265625,0.0674947426021099,0.01175093580931425,-0.014751871190965174
1733359283884237000,5.654237060546875,0.09377367771863937,0.014669599734991788,-0.03029109336733818
1733359283894202000,5.6642021484375,0.09348960008025169,0.014424100541323422,-0.04736000932902097
1733359283904168200,5.674168212890625,0.06636486178934574,0.006726677906513214,-0.06594459055066108
1733359283914133000,5.684133056640625,0.0861778157621622,-0.008346826454252004,-0.055904550312459465
1733359283924099000,5.69409912109375,0.08184300142824649,-0.006363105291128158,-0.05346241785734892
1733359283934064000,5.704064208984375,0.06950842051208019,-0.020129910967499016,-0.015601766018569468
1733359283944029200,5.714029296875,0.06428922455906867,-0.02927987049818039,0.022897768245637416
1733359283953995000,5.7239951171875,0.06257248376905918,-0.04565174410641193,0.03796235864758491
1733359283963959800,5.733959716796875,0.04041559701859951,-0.0452761887922883,0.038545126971602436
1733359283973926100,5.743926025390625,0.026222821015119552,-0.029962007543444632,0.01836275516450405
1733359283983891200,5.75389111328125,0.014614216285943985,-0.0011127835474908352,0.002601122409105301
1733359283993856300,5.763856201171875,0.008473229312896728,0.02172448668256402,0.0011845336094498634
1733359284003822300,5.773822265625,0.02307224802970886,0.045253246308118104,-0.001225157880783081
1733359284013787400,5.783787353515625,0.03842003928720951,0.04234071986228227,0.030177988381683826
1733359284023752200,5.793752197265625,0.04401274472773075,0.06590513532310724,0.04528232627213001
1733359284033718000,5.803718017578125,0.04571194986104965,0.05530877637639641,0.05375643236786127
1733359284043683300,5.813683349609375,0.051693946880102155,0.06085019002109766,0.039648412038385865
1733359284053649200,5.823649169921875,0.06664893942773342,0.04012611255273223,-0.002131166809797287
1733359284063614200,5.8336142578125,0.09285188669860363,0.005848433767259121,-0.04616875371783972
1733359284073579300,5.843579345703125,0.11238894633948802,-0.03773907128572464,-0.05310439819991588
1733359284083545000,5.853545166015625,0.11428045917451381,-0.06488645979985594,-0.05440846653580665
1733359284093510100,5.86351025390625,0.08648761236369609,-0.06734422821551561,-0.0482978747010231
1733359284103475500,5.873475341796875,0.06778291189372539,-0.0494252712957561,-0.04023994819074869
1733359284113441300,5.883441162109375,0.047376083680987356,-0.04440861217752099,-0.03564005317986011
1733359284123406000,5.893406005859375,0.04066986404061317,-0.038126755429059266,-0.03869213422685861
1733359284133372400,5.903372314453125,0.05201835652887821,-0.028992285728454588,-0.028340251560509202
1733359284143337200,5.913337158203125,0.06630640960037708,-0.011010784966498613,-0.00583235941529274
1733359284153302300,5.92330224609375,0.05946107375025749,0.03637611236944795,0.03228577431589365
1733359284163268400,5.933268310546875,0.04716273319125175,0.05688172478154301,0.047938101477921005
1733359284173233200,5.943233154296875,0.04533785585165023,0.10143807486668228,0.08057283536195754
1733359284183199200,5.95319921875,0.018052374041080475,0.08320274547412991,0.10399258165508508
1733359284193164000,5.9631640625,0.018716390907764432,0.11139058295190334,0.09727847096920013
1733359284203129300,5.97312939453125,0.035306291180849075,0.09483590012267232,0.07721300354003906
1733359284213095200,5.98309521484375,0.03179915984272957,0.09702011229395865,0.052886079274117946
1733359284223060200,5.993060302734375,0.0259855051279068,0.08573620947450399,0.03133680302798748
1733359284233025300,6.003025390625,0.024099837511777876,0.06858151492550969,-0.002732347573339939
1733359284242991000,6.0129912109375,0.021174889975786208,0.04087225474491715,-0.010401274766027927
1733359284252956200,6.0229560546875,0.0353705885887146,0.021254677213728427,-0.02819178300052881
1733359284262922200,6.032922119140625,0.04303717769384384,0.004806815759837627,-0.04157441166490316
1733359284272887300,6.04288720703125,0.04624094217121601,-0.0013094751633703709,-0.01063596030473709
1733359284282852000,6.05285205078125,0.05021452197730541,-0.00581730797663331,0.010537176105380058
1733359284292818400,6.062818359375,0.045724224820733066,-0.014500088386982678,0.007809796968102455
1733359284302783200,6.072783203125,0.0787450354129076,-0.0023731588721275327,-0.0006803834795951843
1733359284312748300,6.082748291015625,0.10433481922149658,-0.017719342694431543,-0.008817512705922126
1733359284322714400,6.09271435546875,0.11576982094943522,-0.0483707938067615,-0.012332535089552402
1733359284332679200,6.10267919921875,0.11731178969442843,-0.048714054286479944,-0.028580197796225545
1733359284342645200,6.112645263671875,0.10155015693902969,-0.04431406576186418,-0.018190321207046507
1733359284352610000,6.122610107421875,0.09619184477627277,-0.04430909732580185,-0.021559213118255136
1733359284362575400,6.132575439453125,0.0922995135128498,-0.03377060604616999,-0.02684942848086357
1733359284372541200,6.142541259765625,0.0391699808716774,-0.03191927909106016,-0.020839666672050953
1733359284382506200,6.15250634765625,0.04080196598768234,-0.03057897039800882,-0.02516249830722809
1733359284392471300,6.16247119140625,0.03677110303640366,-0.02621361479535699,-0.026000118175148964
1733359284402437000,6.17243701171875,0.023922142857313155,-0.027412176930159328,-0.029845687687397003
1733359284412402200,6.182402099609375,0.02374678629040718,-0.004871989950537681,-0.018977379931509494
1733359284422368300,6.1923681640625,0.029497312641143796,-0.0005548574037849903,-0.02828852137327194
1733359284432333300,6.202333251953125,0.03871346927583218,0.006543138033151626,-0.00971621511131525
1733359284442298000,6.212298095703125,0.05186170466244221,0.01215484043508768,0.019711247164011
1733359284452264200,6.22226416015625,0.0685059654712677,0.016231734485179186,0.055925885361433024
1733359284462229200,6.232229248046875,0.07385434076189995,0.03423047864288092,0.054247430755198
1733359284472195000,6.242195068359375,0.08525251761078834,0.02992635170817375,0.04735036471784115
1733359284482160400,6.252160400390625,0.08108078488409519,0.049611295387148854,0.039242753846943375
1733359284492125200,6.262125244140625,0.08200374494791031,0.04925678286105394,0.021971885572373867
1733359284502091300,6.27209130859375,0.08903145162761211,0.033275369875133035,0.011316928306221961
1733359284512056000,6.28205615234375,0.09501929386556147,0.018414485351741314,0.0013239420801401138
1733359284522021400,6.292021484375,0.08016834621429443,0.03235167915895581,-0.001712064614892006
1733359284531987200,6.3019873046875,0.08114917394518852,0.016426088013499974,-0.001260229194164276
1733359284541952300,6.3119521484375,0.07174363221824169,0.02835164973735809,-0.013935878632962704
1733359284551918300,6.32191845703125,0.04822890111804008,0.03341112508401275,-0.01346066233664751
1733359284561883100,6.331883056640625,0.05803016416430473,0.023715952760726213,-0.019762392829358575
1733359284571848200,6.34184814453125,0.053069911408424375,0.017774580013006924,-0.02707154679894447
1733359284581814300,6.351814208984375,0.05843056165874004,0.036780016995221376,-0.015028642305731773
1733359284591779300,6.361779296875,0.04892155955731869,0.05718377646803856,0.0010477554872632027
1733359284601744100,6.371744140625,0.03423544707894325,0.05729308206140995,0.00009147767573595046
1733359284611710200,6.381710205078125,0.01196399403810501,0.06031944414526224,-0.0021320435926318166
1733359284621675300,6.39167529296875,0.010731237372756004,0.060548576726019376,0.01182195521891117
1733359284631641000,6.40164111328125,0.013196750703454017,0.04342866122946143,0.029972236676514146
1733359284641606400,6.4116064453125,0.011591653594374656,0.02581424021422863,0.04050824373811483
1733359284651571200,6.4215712890625,0.03165478293597698,0.02339884963557124,0.04433423176705837
1733359284661537300,6.431537353515625,0.01660392879843712,-0.001137625727802515,0.047347442108392715
1733359284671502000,6.441502197265625,0.019406126737594603,-0.046193449767678973,0.04795096095949411
1733359284681468200,6.45146826171875,0.02328793660700321,-0.04878448917418718,0.0342573666498065
1733359284691433200,6.46143310546875,0.061166124102473254,-0.03937529418542981,0.019295652100443837
1733359284701398000,6.47139794921875,0.08023439718782902,-0.04089607401192188,0.013068448148667812
1733359284711364400,6.4813642578125,0.07780512421429157,-0.005517594377696514,0.003777180451154709
1733359284721329200,6.4913291015625,0.057364978253841396,0.0011079612419009207,0.010398936678469181
1733359284731294200,6.501294189453125,0.05119827231764793,0.022364830412715673,0.020028058028221128
1733359284741260300,6.51126025390625,0.023756723162531853,0.03335588776543736,0.03648030339628458
1733359284751225300,6.521225341796875,0.038052375018596644,0.04730813301131129,0.04063070107400417
1733359284761191200,6.531191162109375,0.061171969321370125,0.057268386011570686,0.023157295964658257
1733359284771156200,6.54115625,0.07768354366123675,0.038837095655500885,-0.008185936804115772
1733359284781121300,6.551121337890625,0.1085468839585781,0.011508359225094317,-0.042571606008708476
1733359284791087000,6.561087158203125,0.10227496408224106,-0.014881196659058332,-0.04498772723972797
1733359284801052400,6.571052490234375,0.09474223048985003,-0.04941168116182089,-0.0682420538380742
1733359284811017200,6.581017333984375,0.07022562887072563,-0.06988602165281772,-0.09507716153264045
1733359284820983300,6.5909833984375,0.057926703789830204,-0.06808554810211062,-0.09353811539709568
1733359284830948000,6.600947998046875,0.04293371731936931,-0.06694821463525295,-0.09810381587743759
1733359284840914200,6.6109140625,0.04316226537823677,-0.07895823977217077,-0.09673808048218488
1733359284850879200,6.620879150390625,0.04489537278115749,-0.06700871265083551,-0.05676145940274
1733359284860844000,6.630843994140625,0.04148118042349815,-0.02693389189392328,-0.029101883582770823
1733359284870810400,6.640810302734375,0.0726888041138649,0.026112200247496366,0.0032712767556309697
1733359284880775200,6.650775146484375,0.06090484281778335,0.059426440828293556,0.03109218061715364
1733359284890741000,6.660740966796875,0.05621171656548977,0.09002455431818962,0.05038520236909389
1733359284900706300,6.670706298828125,0.05301964252591133,0.09020721740871668,0.06286649827957153
1733359284910671400,6.68067138671875,0.04935585932135582,0.0912881445132196,0.045100832225382324
1733359284920637200,6.69063720703125,0.06895078662931918,0.08150704747214912,0.04427957897037267
1733359284930602200,6.700602294921875,0.07730301991105079,0.05392097527980804,0.03693856855779886
1733359284940567300,6.7105673828125,0.07372457690238952,0.03528115673959255,0.011832768873870372
1733359284950533000,6.720533203125,0.04211187954246998,0.025209990710765122,0.009385667982697486
1733359284960498400,6.73049853515625,0.05558686266541481,0.01707826831191778,0.0033431729480624195
1733359284970464300,6.74046435546875,0.05284019430577755,-0.006279664791375398,-0.002601414670050144
1733359284980429000,6.750428955078125,0.05658639509677887,-0.009329700011759996,-0.004366670776903629
1733359284990395000,6.760394775390625,0.05416881256103515,-0.0071368661426007745,-0.0061892100289464
1733359285000360700,6.770360595703125,0.03231646171510219,-0.0163378252081573,0.006009177286922932
1733359285010325800,6.78032568359375,0.043563831916451454,0.016942074711620805,0.013208148880302905
1733359285020290600,6.79029052734375,0.03236906868517399,0.03474851116761565,0.013738894756138324
1733359285030256600,6.800256591796875,0.02825578814744949,0.043626521889120334,0.03793284029215574
1733359285040221700,6.8102216796875,0.0534609565526247,0.05017024444416165,0.04827186347693205
1733359285050187800,6.820187744140625,0.055310968333482737,0.034099107348173854,0.05173632471710443
1733359285060152800,6.83015283203125,0.056603930753469464,0.01910392892062664,0.05032470435351133
1733359285070117600,6.84011767578125,0.04214928894340992,0.017186112600564955,0.03818389244377613
1733359285080083700,6.850083740234375,0.041055063965916634,0.017137305022776127,0.03195055101215839
1733359285090048800,6.860048828125,0.052560208320617675,0.008741670990735292,0.01705868682861328
1733359285100014600,6.8700146484375,0.0461713840663433,-0.006698036333918571,0.0007683540239930152
1733359285109979600,6.879979736328125,0.03715162678658962,-0.017241934441030025,-0.019957915401458737
1733359285119944700,6.88994482421875,0.04045242189764976,0.0035056700333952902,-0.02305997307002544
1733359285129910800,6.899910888671875,0.04344985014796257,-0.006681231329590082,-0.021097440825402734
1733359285139875600,6.90987548828125,0.0531909074395895,0.001983867293596268,-0.027695523916184902
1733359285149841000,6.9198408203125,0.04101180934607982,0.010908639766275883,-0.03197159380018711
1733359285159806700,6.929806640625,0.06555822158157826,0.016259353144466877,-0.031387948693335055
1733359285169771800,6.939771728515625,0.06573357814848423,0.018222031519562004,-0.016702420736849306
1733359285179737900,6.94973779296875,0.055742345488071436,0.030518033991008994,-0.009834873054921627
1733359285189702700,6.95970263671875,0.06535422344207763,0.03923237858340144,-0.001329202777147293
1733359285199667700,6.969667724609375,0.06631517742872238,0.04045490611568093,0.007912672820687293
1733359285209633800,6.9796337890625,0.06166764388382435,0.028303718942403792,0.007993629102408886
1733359285219598800,6.989598876953125,0.06799392429590224,0.0318000366255641,0.040733284665644166
1733359285229564700,6.999564697265625,0.05393967998027801,0.016788345454633233,0.05220920292586088
1733359285239529700,7.00952978515625,0.05524667092561721,0.0012703121967613696,0.028742694881558416
1733359285249494800,7.019494873046875,0.07018705042600631,-0.004855477207154036,0.011833061134815215
1733359285259460600,7.029460693359375,0.057680035552382464,-0.006359598159790039,-0.02617372117638588
1733359285269425700,7.03942578125,0.07336041976511477,-0.027128391552716492,-0.030906594917178152
1733359285279390700,7.049390625,0.07087678625583649,-0.04327288614585995,-0.029372517217695713
1733359285289356800,7.059356689453125,0.06179916130900383,-0.042093320972472426,-0.024862346316874027
1733359285299321600,7.069321533203125,0.08147007646262645,-0.03795709795057774,-0.027040567138791084
1733359285309287700,7.07928759765625,0.08692366569340229,-0.02101604615226388,-0.028635142853856085
1733359285319252700,7.089252685546875,0.08018938900232314,-0.0224224058188498,-0.017885493041574954
1733359285329217800,7.0992177734375,0.06416998209357261,-0.014903993012756108,-0.020509119543433187
1733359285339183900,7.109183837890625,0.06407412050366401,-0.0156309921130538,0.00620353081524372
1733359285349148700,7.119148681640625,0.06819090817272663,-0.0030099954709410666,-0.00554389786273241
1733359285359113700,7.12911376953125,0.06925006183683872,0.01937485481649637,-0.015432839192450046
1733359285369079800,7.139079833984375,0.05667173529267311,0.03667772566452622,-0.01939765117019415
1733359285379044900,7.149044921875,0.05696574980318546,0.04046557364016771,-0.01777414162158966
1733359285389010700,7.1590107421875,0.05301029017567634,0.05014467161148786,-0.007393325121700763
1733359285398975500,7.1689755859375,0.049746319943666455,0.04506196151971817,-0.003677519468963146
1733359285408940800,7.17894091796875,0.04698386949300766,0.05488718996345997,0.010685060143470763
1733359285418906600,7.18890673828125,0.02293196277618408,0.052635319383442396,0.02918693151772022
1733359285428871700,7.19887158203125,0.035411505120992656,0.04911459791138768,0.03715747200548648
1733359285438837800,7.208837646484375,0.03499649457931518,0.03696282621622085,0.05961860239952802
1733359285448802800,7.218802734375,0.04185059825778007,0.04785816810950637,0.0688940880060196
1733359285458767600,7.228767578125,0.05444470689296722,0.0472784685254097,0.06004676468372345
1733359285468733700,7.238733642578125,0.07786123831570148,0.036071868725866076,0.049965223391354084
1733359285478698800,7.24869873046875,0.08243278401494025,0.03431611109972,0.0683899378761649
1733359285488663600,7.25866357421875,0.06345452730059624,0.04462707723379135,0.031980653889477254
1733359285498630000,7.2686298828125,0.049887189719080925,0.04076002654209733,0.025036826100945472
1733359285508594700,7.2785947265625,0.058960723012685776,0.03906564371436834,0.031791853319108485
1733359285518560800,7.288560791015625,0.028138299247622487,0.0051790100730955595,0.03295972805470228
1733359285528525800,7.29852587890625,0.029839842468500136,-0.0035756665296852587,0.016746259878575802
1733359285538491000,7.308490966796875,0.06496902351677418,-0.0052849546656012535,-0.0076315177917480465
1733359285548456700,7.318456787109375,0.08709259251952171,0.000301028773188591,-0.018707623079419134
1733359285558421500,7.32842138671875,0.08521452368795872,-0.03793693194538355,-0.02907499557584524
1733359285568387800,7.338387939453125,0.08814823905229568,-0.05121449280008673,-0.03810264390110969
1733359285578352600,7.3483525390625,0.08825111490488052,-0.0467478687800467,-0.040977907076478005
1733359285588317700,7.358317626953125,0.07172668108344078,-0.058768415310978886,-0.04616203171610832
1733359285598283800,7.36828369140625,0.0649023880213499,-0.04650704576149583,-0.03497662083506584
1733359285608248800,7.378248779296875,0.05009411046802997,-0.06450184439644217,-0.03450841880142688
1733359285618213600,7.388213623046875,0.05414017098844051,-0.06845218945741653,-0.03202595433592796
1733359285628179700,7.3981796875,0.05910626896321773,-0.04998787361457944,-0.020941958002746106
1733359285638144800,7.408144775390625,0.055741176444292065,-0.019256781394779682,0.0012809797212481498
1733359285648110600,7.418110595703125,0.0395879140228033,0.017623481104522942,0.021124913354218004
1733359285658076000,7.428075927734375,0.03965688760578632,0.0331711788482964,0.03412409565895796
1733359285668040700,7.438040771484375,0.04671966559886932,0.05696414236798882,0.033546003510057924
1733359285678006500,7.448006591796875,0.05949322245419025,0.07439020120427012,0.02886193734705448
1733359285687971800,7.457971923828125,0.07399287244975566,0.060366352026909584,0.010539514192938804
1733359285697937700,7.467937744140625,0.08154080361127852,0.06486439409852028,0.0083306059718132
1733359285707902700,7.47790283203125,0.07748889787197112,0.0496845067538321,-0.0063990533873438836
1733359285717867500,7.487867431640625,0.07331716514527797,0.04516001506671309,-0.023203180932998654
1733359285727833900,7.497833740234375,0.08203238652050494,0.03467749175801873,-0.027069208711385725
1733359285737798700,7.507798583984375,0.06932663420438766,0.01743175792470574,-0.018190321207046507
1733359285747763700,7.517763671875,0.0744791946619749,-0.0037599370554089544,-0.021731939336657524
1733359285757729800,7.527729736328125,0.06297697291672229,0.00012245733588933945,-0.029754502272605895
1733359285767694600,7.537694580078125,0.03907061215043068,-0.008332797928899526,-0.0009381576329469681
1733359285777660700,7.54766064453125,0.04002513639628887,-0.0005645020149648189,0.02236994497925043
1733359285787625700,7.557625732421875,0.03045534401834011,0.0053732174709439275,0.024198913972079752
1733359285797590800,7.5675908203125,0.06007599077820778,0.007953589352965354,0.018947277054190633
1733359285807556600,7.577556640625,0.05389759440422058,0.01859977879077196,0.02731996860206127
1733359285817522000,7.58752197265625,0.04255611617863178,0.011296762301027774,0.017734101872146128
1733359285827487700,7.59748779296875,0.04814706805348396,-0.002230535531044006,0.03083352968096733
1733359285837452500,7.60745263671875,0.03096738519370556,0.005649988585710525,0.04835135845392942
1733359285847417900,7.61741796875,0.03458849830031395,0.024307050521671772,0.04813420857191086
1733359285857383700,7.6273837890625,0.03828209212124348,0.013538549878448247,0.032494156369566915
1733359285867348700,7.6373486328125,0.028414193579554554,-0.004188829991966485,0.027804829509556293
1733359285877313500,7.6473134765625,0.006685176852345466,0.018744447958469388,0.031661504937708376
1733359285887279900,7.65727978515625,0.03868307413756847,0.037396395327895876,0.03152881846874952
1733359285897244700,7.66724462890625,0.04773381107747555,0.054361704784631724,0.0283382057338953
1733359285907210800,7.677210693359375,0.05950958906710147,0.04545125309824943,0.01476385388970375
1733359285917175800,7.68717578125,0.05737316156029701,0.04366860746517777,0.009976911874115467
1733359285927140600,7.697140625,0.05130465530157089,0.047157764755189416,0.016645429852604865
1733359285937106700,7.707106689453125,0.04657002799510956,0.02629530172944069,0.0037912089765071866
1733359285947071700,7.71707177734375,0.04808393968939781,0.029939065059274433,-0.0012844868525862692
1733359285957036800,7.727036865234375,0.06625906332731246,0.021694822196662425,0.007018938851356506
1733359285967002600,7.737002685546875,0.07821078240573406,0.018569383652508258,-0.016911095051467418
1733359285976968000,7.746968017578125,0.0872018981128931,0.010466595087200402,-0.01610240901708603
1733359285986933800,7.756933837890625,0.09064707013070583,-0.007643500490486621,-0.01886953564286232
1733359285996898600,7.766898681640625,0.10355740510821342,-0.0012786416336894035,-0.012580664631724357
1733359286006864000,7.77686376953125,0.095249595490098,-0.021554244682192802,0.007079729127883911
1733359286016829700,7.78682958984375,0.08268295938372612,0.00494198644682765,0.006696867290139198
1733359286026794800,7.796794677734375,0.06705635118484497,0.00026098902374505995,0.00196457807123661
1733359286036760800,7.8067607421875,0.039347675526142115,0.0010654372744262218,0.008016133195161819
1733359286046725600,7.8167255859375,0.03438274659514427,-0.006510550937801599,-0.006061784256994724
1733359286056690700,7.826690673828125,0.03595394143462181,-0.005987988368421793,-0.019101006311178205
1733359286066656800,7.83665673828125,0.05276420646011829,-0.013791647856682538,-0.00936024128049612
1733359286076621800,7.846621826171875,0.03761398360133171,-0.006240940216183662,-0.022823826226592063
1733359286086586600,7.856586669921875,0.05945932018458843,-0.02036912655085325,-0.020702596288919448
1733359286096552700,7.866552734375,0.0441676430284977,-0.027272768459469077,-0.03271861277520657
1733359286106517800,7.876517822265625,0.03861293151080608,-0.0077896309629082675,-0.026255554240942
1733359286116483600,7.886483642578125,0.04819616789221763,0.0025740882717072964,-0.040976153510808945
1733359286126448600,7.89644873046875,0.07541150707602501,-0.0006675239980220794,-0.043807577544450756
1733359286136413700,7.90641357421875,0.08298691076636314,-0.012207009013742208,-0.03972615344971418
1733359286146379800,7.9163798828125,0.10274901133477687,-0.010366203452646732,-0.035791152088344096
1733359286156344600,7.926344482421875,0.09928630366027355,-0.005714432124048471,-0.03194499805420637
1733359286166311000,7.936310791015625,0.08330372163057327,-0.001630669941753149,-0.03950929582864046
1733359286176275700,7.946275634765625,0.08445581427514552,0.0025736498802900313,-0.03607376842200756
1733359286186240800,7.95624072265625,0.06955518226325512,0.01469458804577589,-0.034950317350029944
1733359286196206800,7.966206787109375,0.06520049418509007,0.003537672606855631,-0.041323651774227615
1733359286206171600,7.976171630859375,0.050283495560288424,-0.0006112637661397456,-0.025131518647074698
1733359286216136700,7.98613671875,0.06067571023702621,0.0007898352034389972,-0.0006102408528327941
1733359286226102800,7.996102783203125,0.04699731349647045,-0.00872208950743079,0.013210486967861652
1733359286236067800,8.00606787109375,0.03467500753998756,-0.0006704466074705124,0.03518412610590458
1733359286246033700,8.01603369140625,0.05409983897805214,0.016545915000885723,0.04109598049819469
1733359286255998700,8.025998779296875,0.03470423363447189,0.032573943607509134,0.044478608673810954
1733359286265963800,8.0359638671875,0.035517888104915615,0.042108956933021545,0.0496770540997386
1733359286275929600,8.0459296875,0.032712767556309696,0.049684799014776945,0.036786008344590664
1733359286285894700,8.055894775390625,0.0002741407662630081,0.06767535986602306,0.03477291495651007
1733359286295860700,8.06586083984375,-0.01319441261589527,0.08273030565679072,0.06293664090633391
1733359286305825800,8.07582568359375,-0.004497895941138267,0.0805313343077898,0.060437225306034084
1733359286315790600,8.08579052734375,0.015638883158564567,0.06443608568385244,0.032841362372040744
1733359286325756700,8.095756591796874,0.034600188738107676,0.04527852687984705,0.009032032239437103
1733359286335721700,8.1057216796875,0.05589315213561058,0.01930018214508891,-0.009631751698255538
1733359286345686800,8.115686767578126,0.09106617232561111,-0.03341054056212306,-0.04708177690953016
1733359286355652900,8.12565283203125,0.07322948686182498,-0.042419776447862385,-0.034955578047037125
1733359286365617700,8.13561767578125,0.0442108976483345,-0.05288651766553521,-0.048828912837803364
1733359286375583700,8.145583740234375,0.038001521614193914,-0.048993748010694976,-0.04585223511457443
1733359286385548800,8.155548828125,0.022822072660923003,-0.04347878398150205,-0.04363806619644165
1733359286395513900,8.165513916015625,0.02925415153503418,-0.04631503032073378,-0.0529687891215086
1733359286405479700,8.175479736328125,0.033871289941668506,-0.04017506626099348,-0.04449965146183967
1733359286415444700,8.18544482421875,0.06803893248140812,-0.005132686713337898,-0.0030909517526626585
1733359286425410800,8.195410888671875,0.0564104540079832,0.010809271045029163,0.013300503338873386
1733359286435375600,8.205375732421874,0.05426525867283344,0.052811114341765636,0.015038579177856445
1733359286445340700,8.215340576171876,0.06825871271193028,0.053789019463211296,0.03865764743536711
1733359286455306800,8.225306640625,0.0659001668870449,0.0736677321486175,0.05139350262880325
1733359286465271800,8.235271728515626,0.06163783326745033,0.0774812990874052,0.059707741987705225
1733359286475236600,8.245236572265625,0.0591641366302967,0.06936141325682402,0.06563333264440298
1733359286485202700,8.25520263671875,0.04239654170274734,0.06555807545110583,0.045293432188034055
1733359286495167700,8.265167724609375,0.0418535208672285,0.04780950666218996,0.017204525040090082
1733359286505133600,8.275133544921875,0.032411738783121105,0.031217852823436257,0.010054945546388626
1733359286515099000,8.285098876953125,0.02324877364039421,0.0062879942283034325,0.0003942600145936012
1733359286525063700,8.295063720703125,0.03914017025530338,-0.012663959001004695,-0.015782675543427466
1733359286535029800,8.30502978515625,0.04582826971709728,-0.022910919988155365,-0.02551876439899206
1733359286544994800,8.314994873046874,0.06127484517395496,-0.03119929425343871,-0.03899345526099205
1733359286554960600,8.324960693359374,0.03427987074255943,-0.010474047741293907,-0.025106384205818174
1733359286564925700,8.33492578125,0.03761632168889045,-0.009448650216311217,-0.023448972387611865
1733359286574890500,8.344890380859376,0.044510757377743716,0.01619753995463252,-0.034089024345576764
1733359286584856800,8.35485693359375,0.05953589255213737,0.018660861328244207,-0.04924363111853599
1733359286594821600,8.364821533203125,0.06102350076138973,-0.00016498130336403845,-0.052503509697318075
1733359286604786700,8.37478662109375,0.07659750199019909,-0.029953531976044175,-0.03200724963545799
1733359286614752800,8.384752685546875,0.08791384577453136,-0.04849222822934389,-0.012874386881291866
1733359286624717800,8.3947177734375,0.09986439580917358,-0.04281695907190442,0.00556260256320238
1733359286634683600,8.40468359375,0.10787059213221073,-0.04219809652119875,0.011931260812282561
1733359286644648700,8.414648681640625,0.08299450955092906,-0.038652971260249615,0.00042348610907793044
1733359286654613800,8.42461376953125,0.08098550781607627,-0.035030689109861846,-0.016570611050724982
1733359286664579600,8.43457958984375,0.060897244033217425,-0.03711918582171202,-0.03545885139405727
1733359286674545000,8.444544921875,0.059548167511820786,-0.019368132814764974,-0.03750000183284283
1733359286684510700,8.4545107421875,0.03680032913088798,0.010221826545894146,-0.041995851947367185
1733359286694475800,8.464475830078126,0.02919569934606552,0.01811886340603232,-0.04128185845911503
1733359286704440800,8.47444091796875,0.03980418712198734,0.026479718385636807,-0.012532733836770057
1733359286714406700,8.48440673828125,0.042488311639428136,0.040379648922383785,-0.0044607788011431695
1733359286724371700,8.494371826171875,0.03370236311554908,0.037000527878105635,-0.0015241408273577689
1733359286734337800,8.504337890625,0.05021452197730541,0.04802154197767377,0.007407353647053241
1733359286744302800,8.514302734375,0.05032032043933868,0.03687894732505083,0.006368950510025024
1733359286754267600,8.524267578125,0.05794774657785892,0.03535378358438611,-0.00014846855998039245
1733359286764233700,8.534233642578124,0.06746668555140495,0.04392886583656072,0.017988368894159792
1733359286774198800,8.54419873046875,0.06748714381754398,0.04980900991633534,0.0480582207262516
1733359286784163800,8.554163818359376,0.06095803430974483,0.05338555322885513,0.0443459222048521
1733359286794129700,8.564129638671876,0.06394318760037422,0.04565013667121529,0.03719692723304033
1733359286804094700,8.5740947265625,0.052205988055467605,0.0499450573861599,0.04563099357932806
1733359286814060800,8.584060791015625,0.039730537363886834,0.037665859919041395,0.021905542337894438
1733359286824025600,8.594025634765625,0.02269113975763321,0.03520546115487814,0.02067278567254543
1733359286833991000,8.603990966796875,0.029251228925585744,0.001230564708262682,0.02597147660255432
1733359286843956700,8.613956787109375,0.017272037318348882,0.013162263911962508,0.008048574160039424
1733359286853921500,8.623921630859375,0.020328502279520034,0.024360095883160827,0.007528641939163207
1733359286863888000,8.633887939453125,0.05858604448139667,0.011506021137535571,0.016554828959703446
1733359286873852700,8.643852783203124,0.034244799429178234,0.01739259495809674,0.028562954400479793
1733359286883817700,8.653817626953124,0.034012159717082976,0.0005972352407872676,0.03998538890779018
1733359286893783800,8.66378369140625,0.04212590806782245,0.0031083412788808344,0.018975918626785278
1733359286903748900,8.673748779296876,0.03782733409106731,-0.000016366612911224363,0.0230333773240447
1733359286913713700,8.683713623046875,0.02384089431464672,0.00488163456171751,-0.020098785176873205
1733359286923679700,8.6936796875,0.04496200827658176,-0.001418050104379654,-0.01964490392953157
1733359286933644800,8.703644775390625,0.05261632242202759,-0.008772066128998994,-0.015848141995072364
1733359286943610600,8.713610595703125,0.03397475031614303,0.0007093173131346702,-0.0305079509884119
1733359286953575700,8.72357568359375,0.0435877973139286,-0.009469254612922667,-0.004560147522389889
1733359286963540700,8.733540771484375,0.060872109591960905,-0.007588993824273347,0.0075879709109663955
1733359286973506800,8.7435068359375,0.06835515882372856,-0.02015226892977953,0.01040682772397995
1733359286983471600,8.7534716796875,0.059901218733191486,-0.010262450817227363,0.013196458442509173
1733359286993437000,8.76343701171875,0.0811018276721239,0.010983750829100608,0.010404489636421203
1733359287003402000,8.773402099609376,0.10871113460958004,0.02779766911640763,0.009667699794471263
1733359287013367000,8.783366943359376,0.08972060293555259,0.03200973385348916,-0.0027107202634215352
1733359287023333000,8.7933330078125,0.0746276632219553,0.021297201181203127,0.00423895274400711
1733359287033298000,8.8032978515625,0.07931962043046951,0.021673487147688863,0.01830576428025961
1733359287043263000,8.813262939453125,0.04703063124418259,0.026444939333200454,0.03243190478831529
1733359287053229000,8.82322900390625,0.023942601123452187,0.01153422431871295,0.048509471625089645
1733359287063194000,8.833194091796875,0.011066752937436104,0.0007180851414799689,0.017634440889954566
1733359287073160000,8.843159912109375,0.019821137279272077,-0.0011243278548121452,-0.006425941394269466
1733359287083125000,8.853125,0.03166179719865322,-0.04918722475618124,-0.03056727996021509
1733359287093090000,8.863090087890624,0.061392334073781966,-0.08287132156267761,-0.05108925898522138
1733359287103056000,8.873055908203124,0.06258242064118386,-0.07274097269251942,-0.0607066898971796
1733359287113021200,8.883021240234376,0.044502574071288103,-0.06107172381728887,-0.0760670483753085
1733359287122987000,8.892987060546876,0.05408990210592746,-0.02073211464434862,-0.0458446363300085
1733359287132952000,8.9029521484375,0.07698562452495097,-0.018982056106626986,-0.04995294843167066
1733359287142917000,8.912917236328125,0.08779635687470436,-0.007768003652989864,-0.04047258790284395
1733359287152883000,8.922883056640625,0.12116203538179397,0.02118307328224182,-0.008052958074212075
1733359287162848000,8.932847900390625,0.13379939863681792,0.035328503012657164,0.007864157503843307
1733359287172814000,8.94281396484375,0.13199088791012764,0.056361061908304685,0.00436316364556551
1733359287182779100,8.952779052734375,0.12027473115324973,0.058807432147115465,0.0029649872854351994
1733359287192744000,8.962743896484374,0.10833528703451156,0.0748646868482232,0.02144581587165594
1733359287202710300,8.972710205078124,0.06506313154101372,0.059897711601853365,0.044163259114325046
1733359287212675000,8.982675048828124,0.051178398573398586,0.0545370613515377,0.04978840551972389
1733359287222640000,8.99264013671875,0.07265840897560119,0.04685162141546607,0.048531098935008045
1733359287232606000,9.00260595703125,0.07495558000206946,0.041535540959239,0.03931465003937483
1733359287242571000,9.012571044921875,0.09000175796449184,0.03190013599917292,0.018755846135318277
1733359287252537000,9.022537109375,0.08367080137729645,0.04143661062940955,0.03415039914399385
1733359287262502000,9.032501953125,0.0819908854663372,0.026275574115663766,0.01906681178063154
1733359287272467200,9.04246728515625,0.07347849318683147,0.03713233756422996,0.027700200091302394
1733359287282433000,9.05243310546875,0.05139700976014137,0.03346665466353297,0.04479132788479328
1733359287292398000,9.062398193359375,0.052256841459870335,0.038537820447981354,0.04963584530651569
1733359287302363100,9.072363037109374,0.04369418029785156,0.022027707412838934,0.0376665905714035
1733359287312329000,9.082328857421874,0.06670388448536396,0.02786313556805253,0.01930646575540304
1733359287322294000,9.0922939453125,0.07627484590709209,0.013620967464894055,0.02676934898197651
1733359287332260000,9.102260009765626,0.06814531546533108,-0.011293985822051763,0.041004795083403586
1733359287342225200,9.11222509765625,0.07516542336046696,-0.013979717774689197,0.05332856234461069
1733359287352190000,9.12218994140625,0.0807142896592617,-0.003638210371881723,0.0577525162667036
1733359287362156000,9.132156005859375,0.06739771196842194,-0.011896627890318631,0.04136602961122989
1733359287372121000,9.14212109375,0.07108487604856491,-0.013099720069766044,0.023845862750709056
1733359287382087000,9.1520869140625,0.06550327652394772,-0.04428527805879712,0.01127776533961296
1733359287392052000,9.162052001953125,0.05267828174233436,-0.056187020515650506,-0.02509089437574148
1733359287402017000,9.17201708984375,0.04069499848186969,-0.06366597809419036,-0.02969809591025114
1733359287411983000,9.181983154296875,0.041054479444026945,-0.058361003553867336,-0.03328267639875412
1733359287421948000,9.191947998046874,0.04184826017022133,-0.05049962252900004,-0.033192660027742384
1733359287431914000,9.2019140625,0.04757715921103954,-0.03266600580513477,-0.041803836506605144
1733359287441879000,9.211879150390626,0.05759235726892948,-0.01664659889638424,-0.042642917679250235
1733359287451844000,9.221843994140626,0.06362520769238472,-0.018335721027106046,-0.022235504944622515
1733359287461810200,9.23181005859375,0.0738689538091421,0.0033354280330240723,-0.018972996017336843
1733359287471775000,9.24177490234375,0.05948094749450683,0.00132715695053339,-0.007943652480840682
1733359287481740000,9.251739990234375,0.049886605197191236,0.01759045561775565,0.007095803479850292
1733359287491706000,9.2617060546875,0.00912146408855915,0.0358073725707829,0.02250146240442991
1733359287501671200,9.271671142578125,-0.023115502649545667,0.04745046409144997,0.009720014503598213
1733359287511637000,9.281636962890625,-0.057491819503903384,0.04251622255966067,0.003014671646058559
1733359287521602000,9.29160205078125,-0.0839735837161541,0.03754734810590744,-0.016419512142241
1733359287531567000,9.301567138671874,-0.11679682590961456,0.02408230185508728,-0.022574527640640735
1733359287541533000,9.311532958984374,-0.11065700798034667,0.01209448854997754,-0.005912146653234958
1733359287551498000,9.321498046875,-0.08208733157813548,0.01846402358189225,0.030500936725735662
1733359287561464000,9.331464111328126,-0.055334933730959886,0.024625468821078536,0.07203121698796748
1733359287571429000,9.34142919921875,0.006973930665850639,0.03883753404691815,0.08076660436838864
1733359287581394000,9.351393798828125,0.06834405290782451,0.03353986603021621,0.0864288679137826
1733359287591360000,9.361360107421875,0.09300678499937057,0.005797434232383966,0.07729045269042253
1733359287601325000,9.371324951171875,0.13507424087822437,0.004721913955360651,0.07512918300330639
1733359287611289900,9.381289794921875,0.16211889967024326,-0.007807751141488552,0.04001110787093639
1733359287621256200,9.391256103515625,0.1722375581026077,-0.012293079861998558,0.011286825428903103
1733359287631221000,9.401220947265625,0.17822306225299833,-0.03906096753925085,-0.02250847666710615
1733359287641187000,9.41118701171875,0.17354630261361598,-0.06745265702605246,-0.04557487947791815
1733359287651152100,9.421152099609374,0.16377075853049755,-0.04974675833508372,-0.051285366079211234
1733359287661117200,9.4311171875,0.18502397443950175,-0.006915332346409559,-0.06415799939483403
1733359287671083000,9.4410830078125,0.15952245343625546,0.054607788500189776,-0.04814239187836647
1733359287681048000,9.451048095703126,0.15094225661754607,0.1296162677332759,-0.018222762171924114
1733359287691014100,9.46101416015625,0.1387801096588373,0.15335633202195167,0.014681728564202785
1733359287700979000,9.47097900390625,0.09565057750642299,0.1860207303918898,0.030931729358434676
1733359287710944000,9.480944091796875,0.06083119305968284,0.19012831184118986,0.040106677199900145
1733359287720910000,9.49091015625,0.0273100317299366,0.18809373727366327,0.02689472892731428
1733359287730875100,9.500875244140625,0.01775368335545063,0.19267419693171978,-0.005367372252047062
1733359287740841200,9.51084130859375,0.018166940331459044,0.14216989822760223,-0.03860211785584688
1733359287750806000,9.520805908203124,0.04333996003270149,0.06551350565701723,-0.06043780982792377
1733359287760771000,9.53077099609375,0.05087795432209968,-0.008645224878937005,-0.08007453045099973
1733359287770737000,9.54073681640625,0.06318506270945072,-0.07705152936801314,-0.08365443476438522
1733359287780702200,9.5507021484375,0.057977557194232934,-0.1363395846389234,-0.076614453125
1733359287790667000,9.5606669921875,0.06510989329218864,-0.17299875173345208,-0.039808278775215145
1733359287800632800,9.5706328125,0.07080664362907409,-0.22058555555567144,-0.018433190052211283
1733359287810598100,9.58059814453125,0.06449497626423835,-0.22820918230190873,-0.03631137657016516
1733359287820564000,9.59056396484375,0.0873112037062645,-0.2511918523520231,-0.037172377313673496
1733359287830529000,9.600529052734375,0.09142857589721679,-0.2639709621652961,-0.06078560035228729
1733359287840494000,9.610494140625,0.08777531408667563,-0.23223361551240085,-0.06957739409506321
1733359287850460200,9.620460205078125,0.06167056649327278,-0.18436214952990412,-0.05703063173294067
1733359287860425000,9.630425048828124,0.07942308080494404,-0.11943141219690441,-0.035253976471722126
1733359287870391000,9.64039111328125,0.05762275240719318,-0.04929521517530083,-0.015540098959207533
1733359287880356000,9.650356201171874,0.053107905331254,-0.009890402634441853,-0.02693827580809593
1733359287890321000,9.66032080078125,0.05191021997928619,0.04264803224578499,-0.0024088147073984146
1733359287900287200,9.670287353515626,0.05762450597286224,0.10897972241789101,-0.0026136896297335624
1733359287910252000,9.680251953125,0.04277180475592613,0.15948051399067042,0.004136953674256801
1733359287920217000,9.690217041015625,0.035250761601328846,0.17179025272652507,-0.002228489704430103
1733359287930183000,9.700182861328125,0.053395490100979805,0.18532777969166636,0.026060616190731523
1733359287940148200,9.710148193359375,0.05234685783088207,0.17273717818781734,0.05603109930157661
1733359287950114000,9.720114013671875,0.0808925688356161,0.13317819799855352,0.06290098507106304
1733359287960078800,9.730078857421875,0.09406769222915172,0.09386837026476859,0.04505523951798677
1733359287970044200,9.740044189453124,0.06409107163846492,0.0747458827741444,0.05496931528896093
1733359287980010000,9.750010009765624,0.03142272774577141,0.09391323231980205,0.06356938585191965
1733359287989974800,9.759974853515626,0.017326982375979422,0.08985694266632199,0.040213060183823104
1733359287999940600,9.769940673828126,0.00803133076429367,0.08358750700801611,0.03901537483185529
1733359288009905700,9.77990576171875,-0.0045984337061643595,0.08811696713119745,0.022326982620358465
1733359288019870700,9.78987060546875,0.004356441643834114,0.050164399225264784,0.03194002961814403
1733359288029836500,9.79983642578125,0.0182429281771183,0.045761195830255744,0.06249649592339992
1733359288039801600,9.809801513671875,0.0406032285451889,0.04210252719223499,0.06276479147076607
1733359288049767700,9.819767578125,0.047098435783386225,0.033340105674415824,0.06422872654348612
1733359288059732700,9.829732666015625,0.05969312894046306,0.01809811287894845,0.0829082925722003
1733359288069697500,9.839697509765625,0.06372282284796238,0.029576223096251485,0.10086363597959279
1733359288079663900,9.849663818359375,0.05854278986155986,0.04601750867888331,0.07657236754894256
1733359288089628700,9.859628662109374,0.026035774010419843,0.056303194241225714,0.07046382154077291
1733359288099593700,9.86959375,0.024652795219421385,0.006965601228922605,0.07707914802730083
1733359288109559800,9.879559814453126,0.039760932502150535,-0.038513270528614515,0.03550970479846
1733359288119524600,9.889524658203126,0.0618266338378191,-0.07328150931000708,0.016557459308207033
1733359288129490700,9.89949072265625,0.0913321297854185,-0.07833513943776488,-0.007887830640375614
1733359288139455500,9.90945556640625,0.09074760789573193,-0.059460635358840226,-0.011282149253785609
1733359288149420800,9.9194208984375,0.04919686936736106,-0.05382496755942702,-0.03911795842349529
1733359288159386600,9.92938671875,0.010024550408124923,-0.033300212055444714,-0.04840542672872543
1733359288169351700,9.9393515625,0.00480886158645153,-0.039317134257405996,-0.023988778352737425
1733359288179317800,9.94931787109375,0.05386427665650844,-0.07076207383498549,-0.007327858670055865
1733359288189282600,9.959282470703124,0.114276367521286,-0.07895049485713243,-0.012215630711615084
1733359288199247600,9.96924755859375,0.14374094693660736,-0.08143544354066252,-0.026060908451676367
1733359288209213700,9.979213623046874,0.1255658232986927,-0.048132455006241796,-0.05091945537626743
1733359288219178800,9.9891787109375,0.07842822454869747,-0.0037969080649316307,-0.06593816080987452
1733359288229143600,9.9991435546875,0.022764789515733717,0.04626008526310325,-0.08039864783883094
1733359288239109600,10.009109619140625,-0.0015700257956981658,0.07350450441092252,-0.1070069610401988
1733359288249074700,10.01907470703125,0.0018336451679468154,0.06142419051676988,-0.108015553560853
1733359288259040500,10.02904052734375,0.034795419049263,0.06792451232150197,-0.10956073717623949
1733359288269005800,10.039005859375,0.06318681627511978,0.05956950256079435,-0.0890273599743843
1733359288278970600,10.048970703125,0.07363806766271591,0.04025163862854242,-0.06075929686725139
1733359288288936700,10.058936767578125,0.06567629500329494,0.0476389724008739,-0.04377425979673862
1733359288298901500,10.068901611328124,0.07198445523679256,0.025016660095751285,-0.05024316354990005
1733359288308867600,10.07886767578125,0.07396656896471977,0.027138328424841165,-0.05540244600921869
1733359288318832600,10.08883251953125,0.06824819131791592,0.007067015776783227,-0.03739274206608534
1733359288328797700,10.098797607421876,0.08158756536245346,-0.024950024600327015,-0.010377017107605933
1733359288338763800,10.108763671875,0.10639292079508304,-0.0700397509098053,0.03642681964337825
1733359288348728600,10.118728515625,0.1309112759798765,-0.09353343922197818,0.06561550472676754
1733359288358693600,10.128693603515625,0.13030337321460247,-0.08379004384279251,0.07214958267062901
1733359288368659700,10.13865966796875,0.1389326698720455,-0.07668444962128997,0.0689481562808156
1733359288378624800,10.148624755859375,0.1269821198374033,-0.05459522127956152,0.048232992771267885
1733359288388590600,10.158590576171875,0.0830541307836771,-0.014538959092646837,0.04207300883680582
1733359288398555600,10.1685556640625,0.008917465949058533,0.03045096010416746,0.033057927732169624
1733359288408520700,10.178520751953124,-0.04127952037155628,0.07231032619029283,0.04601064054667949
1733359288418486500,10.188486572265624,-0.06671557492315769,0.09074263945966958,0.05460545041263103
1733359288428451800,10.198451904296874,-0.05805939025878906,0.11871201188117265,0.04660363800376653
1733359288438417700,10.208417724609374,-0.035324411359429354,0.12409589687660336,0.023506840054690836
1733359288448382700,10.2183828125,-0.0017845453292131422,0.11437588237300514,0.009077332685887812
1733359288458347500,10.228347412109375,0.01153787758052349,0.07722922402247787,0.00819996532946825
1733359288468313600,10.238313720703125,0.025088848549127577,0.031941052531450985,0.033145898276567456
1733359288478278700,10.248278564453125,0.06317804844677448,-0.015651011987775562,0.05865034188926219
1733359288488244700,10.25824462890625,0.06247545313537121,-0.02582768421769142,0.05446691872477531
1733359288498209800,10.268209716796875,0.07460837399959563,-0.05777180548906326,0.03352934463620186
1733359288508174600,10.278174560546875,0.07206453473567963,-0.0731087830916047,0.0015139116942882538
1733359288518140700,10.288140625,0.07012742919325828,-0.07598039300516247,-0.009437398169934748
1733359288528105700,10.298105712890624,0.1013490814089775,-0.044784605883061886,-0.023386136284470557
1733359288538070800,10.30807080078125,0.08958850098848342,0.012822218302637339,-0.01710398727506399
1733359288548036600,10.31803662109375,0.07109890457391739,0.06575418254509569,0.0027571897536516187
1733359288558001700,10.328001708984376,0.0658265171289444,0.11301482315286994,0.03323591464757919
1733359288567967700,10.3379677734375,0.041375966483354565,0.11427987465262412,0.057772974532842636
1733359288577932500,10.3479326171875,0.0486813210606575,0.10655921727269888,0.06698942342847586
1733359288587897900,10.35789794921875,0.0488075777888298,0.08111877880692482,0.05246785386204719
1733359288597863700,10.36786376953125,0.06444704546928405,0.0531524751253426,0.033843232890963554
1733359288607828700,10.377828857421875,0.06735036569535732,0.03292392608895898,0.018243220438063142
1733359288617794800,10.387794921875,0.0678086308568716,0.011367635580152273,-0.0005018120422959327
1733359288627759600,10.397759521484375,0.019765023177862166,0.012049041973054408,-0.010682137534022331
1733359288637724700,10.407724609375,-0.0022194296151399613,0.002082359232008457,-0.006319850671291351
1733359288647690800,10.417690673828124,0.013192074528336524,-0.022483780617266892,-0.0037108372166752813
1733359288657655800,10.42765576171875,0.03704991997778415,-0.0644344782486558,-0.00611556027084589
1733359288667620600,10.43762060546875,0.06369184318780899,-0.08323957035318016,-0.01891483608931303
1733359288677586700,10.447586669921876,0.07875614132881165,-0.06721709470450878,-0.01711450866907835
1733359288687551700,10.4575517578125,0.08863865291774273,-0.06062602587640285,0.005157528893649578
1733359288697517600,10.467517578125,0.07950959004461765,-0.02779956881254911,-0.014701017786562442
1733359288707482600,10.477482666015625,0.07163374210298061,0.011512012486904859,-0.0550797899261117
1733359288717447700,10.48744775390625,0.06131693075001239,0.012325082435458897,-0.09956102894842624
1733359288727413800,10.497413818359375,0.06254325767457485,-0.010331132139265536,-0.10615823525637387
1733359288737378600,10.507378662109375,0.0546504585981369,-0.012286503990739583,-0.09373656057864427
1733359288747344600,10.5173447265625,0.06740881788432598,-0.02981879968047142,-0.06760083332508803
1733359288757309700,10.527309814453124,0.07518646614849567,-0.019338614459335803,-0.059464288620650764
1733359288767274500,10.5372744140625,0.08785422454178332,-0.02532338795736432,-0.056260231882333755
1733359288777240800,10.54724072265625,0.07921908266544342,-0.014623422505706548,-0.0505526678904891
1733359288787205600,10.55720556640625,0.0709194563537836,-0.009973258612304926,-0.016747428922355173
1733359288797171700,10.567171630859375,0.057499418288469314,0.00539747512936592,0.017055471958220002
1733359288807136800,10.57713671875,0.0544499675899744,0.009219517635554075,0.0247568401157856
1733359288817101800,10.587101806640625,0.05698270093798637,0.03252937381342053,0.05605389565527439
1733359288827067600,10.597067626953125,0.056415130183100695,0.039482407821714874,0.0694511373668909
1733359288837032700,10.60703271484375,0.07085106729269028,0.032835663283616305,0.06053776307106018
1733359288846997800,10.616997802734375,0.0630769261598587,0.04503901903554797,0.052827042563259596
1733359288856963600,10.626963623046874,0.0369692559570074,0.03552957854270935,0.03185702750980854
1733359288866928600,10.6369287109375,0.03304302242398262,0.04959755912274122,0.0007417582780122757
1733359288876894700,10.646894775390624,0.031163200026750562,0.05088672215044498,0.012806582342088221
1733359288886859800,10.65685986328125,0.023607670080661773,0.06260448634251951,0.007815349926054477
1733359288896824600,10.666824462890625,0.03910276085436344,0.03991027784496545,0.021801497441530225
1733359288906790700,10.676790771484375,0.05132277548015118,0.027938392761349677,0.022158348055183887
1733359288916755700,10.686755615234375,0.06304010128080845,0.03285597541928291,0.01701864707916975
1733359288926721500,10.696721435546875,0.0698041885882616,0.016628478717803954,0.020194354505836964
1733359288936686800,10.706686767578125,0.060336687541007995,0.006993219888210296,0.004373977300524711
1733359288946651600,10.716651611328125,0.05805705217123031,-0.0022490941010415554,-0.016655951246619224
1733359288956617500,10.726617431640625,0.06223930629193782,-0.027342911086231467,-0.04900573070943355
1733359288966582800,10.736582763671874,0.06648761138617992,-0.026196371399611233,-0.03704904319494962
1733359288976547800,10.7465478515625,0.05836860233843326,-0.007550561510026454,-0.03543050208240747
1733359288986513700,10.756513671875,0.07109305935502051,-0.031105040098726746,-0.03440349712222814
1733359288996479200,10.766479248046876,0.0906260273426771,-0.02112637465894222,-0.03634849371016025
1733359289006445300,10.7764453125,0.08814531644284725,-0.025161183132976293,-0.019280162270367145
1733359289016410400,10.786410400390626,0.0879202755153179,-0.006877338423579931,-0.02261690547764301
1733359289026375200,10.796375244140625,0.09800094002485275,0.004254588704556227,-0.0280114579975605
1733359289036341500,10.806341552734375,0.0943389103859663,0.004388298086822033,-0.02474105802476406
1733359289046306300,10.816306396484375,0.0825660550057888,0.00563712910413742,-0.009521861582994461
1733359289056272400,10.8262724609375,0.07360182730555534,0.021404607078433037,-0.007153671146929263
1733359289066237400,10.836237548828125,0.061169046711921686,0.0319762699753046,0.006669394761323929
1733359289076202500,10.846202392578125,0.03961304846405983,0.031270021402090786,0.009962591087818145
1733359289086168300,10.856168212890625,0.018410101437568663,0.0433656789958477,0.049672377924621106
1733359289096133000,10.866133056640624,0.030932898402214047,0.05143558820486068,0.05824380691498517
1733359289106098400,10.876098388671876,0.04830898061692714,0.05767652842104434,0.042454993891716
1733359289116064300,10.886064208984376,0.051184243792295456,0.044372810211777684,0.056022915995121
1733359289126029300,10.896029296875,0.0241904384046793,0.02795622067898512,0.025868308489024636
1733359289135995400,10.905995361328126,0.02676934898197651,0.04099792695119977,0.019191022682189942
1733359289145960400,10.91596044921875,0.03167874833345413,0.044010406640172,0.022984862007200717
1733359289155925200,10.92592529296875,0.023028993409872054,0.035735037986934184,0.03546995730996132
1733359289165891300,10.935891357421875,0.03535246841013431,0.0334533567905426,0.060199324896931646
1733359289175856400,10.9458564453125,0.058733928519487374,0.025692221269756555,0.03836421744674444
1733359289185822200,10.955822265625,0.09898235227763652,0.02528729373067617,0.018553893822431562
1733359289195787500,10.96578759765625,0.11136252590119838,0.004213526041805744,-0.01944236709475517
1733359289205752300,10.97575244140625,0.10531740051805973,-0.027312662078440186,-0.042941023842990395
1733359289215718100,10.98571826171875,0.09098200117349624,-0.04236950756534934,-0.058143561410903925
1733359289225683500,10.995683349609376,0.0780342567950487,-0.057929626399278636,-0.039430677634477614
1733359289235649300,11.005649169921876,0.07013268989026546,-0.06349617448523641,-0.05724339770078659
1733359289245614300,11.0156142578125,0.04463233793079853,-0.05164192443192005,-0.055683601038157934
1733359289255579100,11.0255791015625,0.06076806469559669,-0.046624242400377984,-0.057658115981519216
1733359289265545500,11.03554541015625,0.05246493125259876,-0.04535480698645115,-0.05235036496222019
1733359289275510300,11.04551025390625,0.04638648812174797,-0.023606354906409978,-0.044269057576358316
1733359289285475300,11.055475341796875,0.040462358769774436,0.011956833644956349,-0.02301905653774738
1733359289295441400,11.06544140625,0.03686345749497413,0.01815568828508258,0.001263151803612709
1733359289305406200,11.07540625,0.04141454492807388,0.03800605165883898,0.025110768119990825
1733359289315372300,11.085372314453124,0.05274374819397926,0.047761429736763235,0.031062370000779625
1733359289325337300,11.09533740234375,0.0451432100623846,0.058425447092205283,0.0256608032181859
1733359289335302400,11.105302490234376,0.07933481799960136,0.05808671665713191,0.03446019574552774
1733359289345268200,11.115268310546876,0.08213117071986198,0.05044964590743184,0.018475275628268718
1733359289355233500,11.125233642578126,0.07520517084896564,0.0365695891149342,-0.004018587991595268
1733359289365199400,11.135199462890625,0.07357201668918133,0.03202405463978648,-0.002198094566166401
1733359289375164200,11.1451640625,0.07072597960829734,0.034050007509440185,0.02257686572819948
1733359289385129500,11.15512939453125,0.04906535194218158,0.008008388280123471,0.01990910782366991
1733359289395095300,11.16509521484375,0.03659516194760799,-0.00542319409251213,0.012220599147677421
1733359289405060400,11.175060302734375,0.0324514862716198,-0.007780717004090547,0.00966653075069189
1733359289415026400,11.1850263671875,0.023590134423971176,-0.010412380681931972,0.021137480574846268
1733359289424991500,11.194991455078124,0.03466682423353195,-0.0021444646827876567,0.018895546866953373
1733359289434956300,11.204956298828124,0.02324877364039421,0.002063800662010908,0.006624386575818061
1733359289444922400,11.21492236328125,0.02890811457633972,-0.005349544334411621,-0.0011959317862987517
1733359289454887400,11.224887451171876,0.04463701410591602,0.008395926292985677,-0.01344751059412956
1733359289464852200,11.234852294921875,0.03399930023550987,-0.01365691556110978,0.014108020329475402
1733359289474818300,11.244818359375,0.024248890593647956,0.010783552081882954,0.011536708536744118
1733359289484783400,11.254783447265625,0.05528875650167465,0.005055968215316534,0.027065701580047605
1733359289494749200,11.264749267578125,0.04620002563893795,0.02463350599706173,0.03715601070076227
1733359289504714200,11.27471435546875,0.06312719504237174,0.017397271133214234,0.017139935371279714
1733359289514679600,11.284679443359375,0.06666589056253433,0.009094137690216303,-0.006737783822417259
1733359289524645400,11.294645263671875,0.07345920396447181,0.007667612018436193,-0.011934475682675838
1733359289534610200,11.304610107421874,0.06700199064910412,0.009869505976885557,-0.03210077313780785
1733359289544576500,11.314576416015624,0.08101181130111217,0.008416238428652287,-0.03734539579302072
1733359289554541300,11.324541259765626,0.07368366037011147,0.0013850246176123618,-0.047618368004262446
1733359289564506400,11.33450634765625,0.05575578949153423,0.008413461949676274,-0.06739157448858023
1733359289574472400,11.344472412109376,0.07460545139014721,0.010777560732513666,-0.03828238438218832
1733359289584437200,11.354437255859375,0.07105214282274246,0.015116174458712339,-0.03674538407325744
1733359289594402300,11.36440234375,0.07544774743318557,0.0059388885296881196,-0.042409985706210136
1733359289604368400,11.374368408203125,0.059250645869970316,-0.006751520086824893,-0.03129004127681255
1733359289614333400,11.38433349609375,0.0588812280356884,0.015744681620597837,-0.032201895424723626
1733359289624299300,11.39429931640625,0.05197159477770328,0.015514233865588903,-0.04092763819396496
1733359289634264300,11.404264404296875,0.04277238927781581,0.00965147931203246,-0.03055120560824871
1733359289644229400,11.4142294921875,0.04490530965328216,0.006364420465379953,-0.00962649100124836
1733359289654195200,11.4241953125,0.05027940390706062,0.021022037501633166,0.009702771107852459
1733359289664160300,11.43416015625,0.03900339213311672,0.009235738117992878,0.010720131456851958
1733359289674126300,11.444126220703126,0.0420019894272089,0.006630377925187349,0.02527472651004791
1733359289684091400,11.45409130859375,0.040294600987434384,0.000883650966733694,0.019663608630001543
1733359289694056200,11.46405615234375,0.04462532366812229,0.002086889276653528,-0.0014323708906769752
1733359289704022500,11.4740224609375,0.024418401941657064,0.009563801028579472,-0.009060089290142058
1733359289713987300,11.4839873046875,0.028396657922863958,0.0011959317862987517,-0.009967267262935639
1733359289723952400,11.493952392578125,0.045621933490037916,-0.0052155426912009716,0.006793021140992641
1733359289733918500,11.50391845703125,0.05637888982594013,-0.001969254246354103,0.0006423895567655563
1733359289743883300,11.51388330078125,0.055039165654778476,-0.0007474573664367198,0.011114975993335247
1733359289753849300,11.523849365234375,0.03634440205693245,-0.00017170330509543418,0.018803484669327734
1733359289763814400,11.533814453125,0.04912263508737087,0.0064954994991421695,0.02121843685656786
1733359289773779500,11.543779541015626,0.03715045774281025,0.01696706302240491,0.02972849104851484
1733359289783745300,11.553745361328126,0.04451718711853027,0.02348404370099306,0.02027852565795183
1733359289793710300,11.56371044921875,0.051984454259276384,0.0409684085957706,0.021181611977517605
1733359289803676400,11.573676513671876,0.06627718350589275,0.04718538341447711,0.022094342908263204
1733359289813641200,11.58364111328125,0.04698854566812515,0.06589417553767561,0.04012158250808716
1733359289823606300,11.593606201171875,0.03955518079698086,0.05277955015972256,0.05494359632581472
1733359289833572400,11.603572265625,0.046351416808366776,0.0521951744005084,0.04784107084423303
1733359289843537400,11.613537353515625,0.07780044803917407,0.04239931818172336,0.04460837253332138
1733359289853503200,11.623503173828125,0.086347911632061,0.05298515573441982,0.020241993039846418
1733359289863468300,11.63346826171875,0.06982113972306252,0.045344870114326474,0.018335574896633625
1733359289873433300,11.643433349609374,0.04529752384126186,0.03996317707598209,0.010551204630732535
1733359289883399200,11.653399169921874,0.029483868637681005,0.04535159211605787,-0.02339344280809164
1733359289893364500,11.663364501953126,0.013798223727941513,0.036916064465045924,-0.005595920310914516
1733359289903329300,11.673329345703126,0.02219137354195118,0.01406798058003187,0.0037181437402963634
1733359289913295400,11.68329541015625,0.028573183533549307,0.01076119411960244,-0.004427168792486191
1733359289923260400,11.693260498046875,0.046351416808366776,-0.01684372890368104,-0.00033259295523166654
1733359289933226200,11.703226318359375,0.07336977211534977,-0.02899973838254809,-0.030054946523904797
1733359289943191300,11.71319140625,0.08766191684007645,-0.04673895482122898,-0.024967267996072767
1733359289953156400,11.72315625,0.09417816686630248,-0.0597298076890409,-0.04452390912026167
1733359289963122400,11.733122314453125,0.08815057713985443,-0.0763876586318016,-0.045515258245170116
1733359289973087200,11.743087158203124,0.07109130578935145,-0.06218567640855908,-0.010932312902808189
1733359289983053600,11.753053466796874,0.05038111071586609,-0.04973009946122765,-0.00819382784962654
1733359289993018400,11.763018310546874,0.04423837017714977,-0.03163417853936553,-0.0067018357262015335
1733359290002983700,11.772983642578126,0.040915363234281535,-0.009238368466496467,0.009288052827119827
1733359290012949500,11.782949462890626,0.03790390645861626,-0.0039351474918425085,0.005118365927040577
1733359290022914300,11.792914306640625,0.04538812473416328,0.018086860832571983,0.018422376397252083
1733359290032880600,11.802880615234375,0.049741059246659274,0.05676861979588866,0.04149696251451969
1733359290042845400,11.812845458984375,0.05506605366170406,0.09505305000469089,0.05423983197063207
1733359290052810500,11.822810546875,0.0439057772219181,0.08616130301877856,0.05662497354149818
1733359290062776600,11.832776611328125,0.05729892728030681,0.08394815701395272,0.05527823510766029
1733359290072741600,11.84274169921875,0.07071195108294487,0.07503259076103568,0.04334259038120508
1733359290082706400,11.85270654296875,0.07502806071639061,0.06826689601838588,0.021150340056419373
1733359290092672500,11.862672607421874,0.08399111937284469,0.055310091550648206,0.00481061515212059
1733359290102637600,11.872637451171874,0.0967740285784006,0.0303675196044147,-0.016886837393045424
1733359290112603400,11.882603271484374,0.1017763669103384,0.01482420577481389,-0.04805383681207895
1733359290122568400,11.892568359375,0.08989069880545139,-0.0032210078731179236,-0.05592179370820522
1733359290132533500,11.902533447265625,0.09716565824449062,-0.013013356960564852,-0.06514321103990077
1733359290142499300,11.912499267578125,0.11388356881141662,-0.028429829540103674,-0.07650397848784923
1733359290152464400,11.92246435546875,0.07500526436269282,-0.04489201178029179,-0.09521277061104774
1733359290162430500,11.932430419921875,0.07605038950145245,-0.04701236493512988,-0.0723331225439906
1733359290172395500,11.9423955078125,0.0722398913025856,-0.03962722311988473,-0.06588818418830633
1733359290182360300,11.9523603515625,0.06218553027808666,-0.04184241495132446,-0.03807400232851505
1733359290192326700,11.96232666015625,0.055209261524677276,-0.05017492061927915,-0.017917641745507716
1733359290202291500,11.97229150390625,0.05500526338517665,-0.052811991124600166,0.015271511150896548
1733359290212256500,11.982256591796874,0.05059446120560169,-0.05240194901898503,0.033175708892941476
1733359290222222600,11.99222265625,0.06283434957563877,-0.03636895197629928,0.04868687401860952
1733359290232187400,12.0021875,0.046696284723281856,-0.018032208035886288,0.04620411729216575
1733359290242153500,12.012153564453126,0.023708207845687865,0.007949936091154814,0.04531213688850402
1733359290252118300,12.0221181640625,0.029312603724002836,0.03543035595193505,0.03696341073811054
1733359290262083600,12.03208349609375,0.028156419426202773,0.049221857678145166,0.029085809230804442
1733359290272049400,12.04204931640625,0.025448914033174515,0.05307137271314859,0.014760054497420787
1733359290282014500,12.052014404296875,0.02596153973042965,0.06876330123320222,0.015343991865217685
1733359290291980500,12.06198046875,0.018601824617385864,0.07656915267854929,0.01756371374130249
