time,seconds_elapsed,z,y,x
1733359014233654800,0.02165478515625,0.15280921953320503,-0.138638947622478,-0.14135405180007218
1733359014243619600,0.03161962890625,0.1336176123291254,-0.1653062975347042,-0.14833207411915064
1733359014253585700,0.041585693359375,0.1718804152280092,-0.336163507194817,-0.2594917709246278
1733359014263550700,0.05155078125,0.17653145590424538,-0.46251112852096554,-0.3847828689351678
1733359014273516500,0.0615166015625,0.17702829951047896,-0.5410366759642958,-0.4898100543349981
1733359014283481600,0.071481689453125,0.17922025659680366,-0.5983145604565739,-0.5472898911401629
1733359014293447700,0.08144775390625,0.19709025980830192,-0.5938984975799918,-0.6233735983893275
1733359014303412700,0.091412841796875,0.25743045448064805,-0.6551005697786808,-0.7115709372803568
1733359014313378800,0.10137890625,0.298749722340703,-0.8021575093954801,-0.7263727850928903
1733359014323344000,0.11134375,0.38203707735836506,-0.998544881631434,-0.7984630387917161
1733359014333309700,0.121309814453125,0.5440151072531938,-1.2337579513460397,-0.9686743517637252
1733359014343274500,0.1312744140625,0.6884229936659335,-1.5021549132600425,-1.2070660515144467
1733359014353240800,0.14124072265625,0.8140969535142183,-1.7300810408368705,-1.468787188926339
1733359014363205600,0.15120556640625,1.008363972595334,-1.9297277071297168,-1.7407538260206579
1733359014373171700,0.161171630859375,1.2101643097907304,-2.0175266943529246,-1.9895766111537814
1733359014383136800,0.17113671875,1.3353484402954579,-2.0080776057451963,-2.1638535661295055
1733359014393102600,0.1811025390625,1.3417343419402836,-1.9408397605136036,-2.2802087857514617
1733359014403067600,0.191067626953125,1.2117144618421791,-1.7617936914399266,-2.1633257428631185
1733359014413033700,0.20103369140625,0.9988689990192651,-1.4860300001502036,-1.8843413359612224
1733359014422998800,0.210998779296875,0.8275006249666214,-1.2649509619891643,-1.534709567645192
1733359014432964900,0.22096484375,0.7246598436951637,-1.045264839491248,-1.1333084491252898
1733359014442930700,0.2309306640625,0.6386988855540752,-0.8193155649453401,-0.8503869950354099
1733359014452895700,0.240895751953125,0.6165905141204595,-0.5571703569024801,-0.6261676130220294
1733359014462861800,0.25086181640625,0.5682932239413261,-0.19337562319934368,-0.099566143514961
1733359014472826600,0.26082666015625,0.5316781882494688,0.029802725328505038,0.4370711284466088
1733359014482792700,0.270792724609375,0.50534196998775,0.17745207788050174,0.8006770615793765
1733359014492757800,0.2807578125,0.41808746490478516,0.33343218253478407,1.134604334154725
1733359014502723600,0.2907236328125,0.26282383795678615,0.4759191838875413,1.4288640515998006
1733359014512688600,0.300688720703125,0.13414543559551237,0.6644935442849993,1.6571552130967377
1733359014522654700,0.31065478515625,0.055827101162075995,0.869312937040627,1.8036816990986466
1733359014532619800,0.320619873046875,0.1537163975059986,1.0920946874663233,1.8649942459344864
1733359014542585600,0.330585693359375,0.3901157543957233,1.335383219347894,1.8223941444836556
1733359014552551000,0.340551025390625,0.6133937639057636,1.5864955767229199,1.7163750254370271
1733359014562516700,0.350516845703125,0.700181235998869,1.6632015075236557,1.5225069425456226
1733359014572481500,0.3604814453125,0.6840536925405264,1.657432568733394,1.475674610352516
1733359014582447900,0.37044775390625,0.5831055931478738,1.6214660600781439,1.5920513111539185
1733359014592412700,0.38041259765625,0.4911971247792244,1.6019310462638734,1.7448579003386198
1733359014602378500,0.39037841796875,0.36990123388469215,1.6425224382407961,1.9689123010486362
1733359014612343800,0.40034375,0.2505775198459625,1.5730578568704425,2.016172649395466
1733359014622309600,0.4103095703125,0.14246844278275966,1.3819015171557665,1.8415427893288432
1733359014632274700,0.420274658203125,0.02904021652340889,1.1222115202452987,1.5391659625321625
1733359014642240800,0.43024072265625,-0.11632511674463748,0.7900890320695936,1.197377381997183
1733359014652206600,0.44020654296875,-0.28043314440548417,0.5383748363438994,0.9541472292393446
1733359014662171600,0.450171630859375,-0.42720074568688865,0.3871535435892641,0.7956955468397587
1733359014672137700,0.4601376953125,-0.60291913164258,0.2881000988367945,0.7401042271949351
1733359014682102800,0.470102783203125,-0.732027742114663,0.21688597038537263,0.6609441812403499
1733359014692068900,0.48006884765625,-0.7347165428072213,0.13676518963985143,0.5181924645368009
1733359014702033700,0.49003369140625,-0.6264017140388488,0.032615006270259615,0.3291971022482961
1733359014711999700,0.499999755859375,-0.49696577130854125,-0.038146848369017244,0.18706240319823844
1733359014721964500,0.509964599609375,-0.2881353893458843,-0.08428330725245177,0.14894942056620492
1733359014731930600,0.5199306640625,-0.052339259046316144,-0.13793003216814248,0.15336320015415547
1733359014741895700,0.529895751953125,0.030765725141763685,-0.2022640822496265,0.17981822248995302
1733359014751861800,0.53986181640625,0.009606032735109328,-0.18351777112763373,0.20193506949096918
1733359014761826800,0.549826904296875,-0.09543839606046677,-0.0875245541960001,0.19870702908886595
1733359014771792600,0.559792724609375,-0.23835049095749852,0.0013891528034582733,0.16641190242273732
1733359014781758000,0.569758056640625,-0.3332745077550411,0.1320461617613211,0.1424974679478444
1733359014791723800,0.579723876953125,-0.35746962233483787,0.24352836851943283,0.0613200177562423
1733359014801688600,0.5896884765625,-0.30364626221060753,0.36848990578204394,0.06331332873161882
1733359014811655000,0.599655029296875,-0.17140227632224558,0.47521823254395273,0.07488730053883046
1733359014821619700,0.60961962890625,-0.05893383500576019,0.4729214633762836,0.145210288836807
1733359014831585500,0.61958544921875,0.05103343714475631,0.4091415035136044,0.25771771045681086
1733359014841552000,0.6295517578125,0.15838906549215315,0.3194695254927501,0.28796405136696995
1733359014851516700,0.6395166015625,0.2173684932053089,0.2437854120204225,0.3590539323842153
1733359014861482500,0.649482421875,0.14482991121709346,0.10416176420953124,0.32453356741666795
1733359014871447800,0.65944775390625,0.12518763763606547,-0.03648797524608671,0.3780209370521828
1733359014881413600,0.66941357421875,0.04891805242598057,-0.029135895450226962,0.5443276803337037
1733359014891378700,0.679378662109375,-0.16390636760890484,-0.046041072217561305,0.5656897999772802
1733359014901344800,0.6893447265625,-0.26892683100700376,-0.07666822913885116,0.5036417054085061
1733359014911309800,0.699309814453125,-0.2266319961130619,-0.18639928138069808,0.3619226562209427
1733359014921276000,0.70927587890625,-0.2373895369708538,-0.3406315559869632,0.22358539495877922
1733359014931240700,0.71924072265625,-0.16364859345555305,-0.3831027338284999,0.18084310855828226
1733359014941206800,0.729206787109375,0.014975450813770294,-0.37119185821712014,0.18587843584436922
1733359014951171600,0.739171630859375,0.14270283606052397,-0.3380108155619353,0.18143692799927666
1733359014961137700,0.7491376953125,0.20081541781127452,-0.3381209979381412,0.09682438879245892
1733359014971102700,0.759102783203125,0.3123515467137098,-0.31734475189112127,0.06203370071724057
1733359014981068800,0.76906884765625,0.36055998956561086,-0.37397038301974533,0.06767777101881801
1733359014991033900,0.779033935546875,0.24353812272846698,-0.3631126697231084,0.11385504596983081
1733359015000999700,0.788999755859375,0.1653723485082388,-0.2859535883273929,0.13844148882161825
1733359015010964700,0.79896484375,0.18904431599676608,-0.25609270307086407,0.07171308181635104
1733359015020930800,0.808930908203125,0.22586802600324152,-0.33699199390821155,-0.03430544814181048
1733359015030895600,0.8188955078125,0.1897264530420303,-0.4094445781134069,-0.11076613091062754
1733359015040862000,0.828862060546875,0.12288520591259001,-0.4581996219974011,-0.11642859538542107
1733359015050827800,0.838827880859375,0.037648470392823215,-0.4404706346917897,-0.14898988957391118
1733359015060792600,0.84879248046875,-0.0782832631200552,-0.39406310378201304,-0.15127849370143376
1733359015070759000,0.858759033203125,-0.10972878721952438,-0.3484228309176862,-0.18027882573902607
1733359015080723700,0.8687236328125,-0.07718202387988567,-0.32342472939193245,-0.21321920977244152
1733359015090689500,0.878689453125,-0.05766892963647842,-0.2965819498475641,-0.25443112653419375
1733359015100654800,0.88865478515625,0.017215338695049286,-0.23491774002984164,-0.2771903996245935
1733359015110620700,0.89862060546875,0.09422375957369804,-0.17901888880580663,-0.29327256957124914
1733359015120585700,0.908585693359375,0.19706278727948665,-0.16020765922144053,-0.2961146976619959
1733359015130551800,0.9185517578125,0.2617179225414991,-0.1449935042809695,-0.2790193868837319
1733359015140516900,0.928516845703125,0.2527513567537069,-0.14527078685238956,-0.22667852040221914
1733359015150482700,0.938482666015625,0.19069325224757194,-0.14690416020788252,-0.2204580749847926
1733359015160447700,0.94844775390625,0.11687398279905319,-0.16453304813988506,-0.24187409850638358
1733359015170413800,0.958413818359375,0.014371639701724052,-0.19287198452614246,-0.2812802079551853
1733359015180378600,0.968378662109375,-0.024935119292140005,-0.17808131569474933,-0.3069136299761012
1733359015190344700,0.9783447265625,0.06517769783139228,-0.14526508776396513,-0.3251666411558166
1733359015200309800,0.988309814453125,0.14478198042213916,-0.1317936117723584,-0.35809049417953936
1733359015210275600,0.998275634765625,0.18612287559211252,-0.07347286716364324,-0.3050948353174142
1733359015220241000,1.008240966796875,0.21547931845784185,-0.046069604192301626,-0.21463267503324895
1733359015230206700,1.018206787109375,0.2155699193507433,-0.03053184332065284,-0.13015667648660018
1733359015240171800,1.028171875,0.1941150433897972,0.05324672928005457,-0.08698986279740929
1733359015250137900,1.038137939453125,0.14897066428363323,0.10566599476002156,-0.027314470443036407
1733359015260103700,1.048103759765625,0.09281739990711212,0.10700981058441102,0.019780805268883705
1733359015270068700,1.05806884765625,0.046419221347570414,0.09810103939846157,0.08048577813301235
1733359015280034800,1.068034912109375,0.00813245305120945,0.04943623108118772,0.1432713201308623
1733359015289999600,1.07799951171875,0.011062661284208297,0.014729147902503608,0.16393192217526956
1733359015299965700,1.087965576171875,0.053286184507608414,-0.020211670966818928,0.17004245921112596
1733359015309930800,1.0979306640625,0.05429857642054557,-0.03037285336665809,0.16973984126904978
1733359015319896600,1.107896484375,0.06784019503891468,-0.03807407539375126,0.19350363349318503
1733359015329861600,1.117861572265625,0.14067279153764248,-0.08482252869568764,0.14311231191055848
1733359015339827700,1.12782763671875,0.15507248829007148,-0.1354660166747868,0.10597184583880007
1733359015349792800,1.137792724609375,0.11805588605999946,-0.1587160324241966,0.06344915700573474
1733359015359758800,1.1477587890625,0.10445639977455139,-0.13999218886233866,0.04029063719836995
1733359015369724000,1.157723876953125,0.09195756820738316,-0.12013766077011823,0.04372114137001335
1733359015379689700,1.167689697265625,0.051034021666646,-0.12276252938099205,0.08200219231164083
1733359015389654500,1.177654541015625,0.051666474351286885,-0.12864727657064795,0.10668509040838108
1733359015399620900,1.187620849609375,0.08503098381459713,-0.12815225959531962,0.08160915613975375
1733359015409585700,1.197585693359375,0.1164116259843111,-0.1476587779674679,0.01062138379011303
1733359015419551700,1.2075517578125,0.1310164899200201,-0.17125198113135992,-0.04092259669266641
1733359015429516800,1.217516845703125,0.11990180618762969,-0.20327983516342937,-0.05058788533434271
1733359015439482600,1.227482666015625,0.058951370662450785,-0.20181137004606425,-0.05401742139160633
1733359015449447700,1.23744775390625,0.014593758019804953,-0.17194354359209538,-0.0683507749095559
1733359015459413800,1.247413818359375,0.019479776495695114,-0.19352949858680366,-0.07613558356687426
1733359015469378800,1.25737890625,0.023320669832825658,-0.21391170381493865,-0.06593286358024925
1733359015479345000,1.267344970703125,0.03220657159984112,-0.21825638195574282,-0.023649280732683835
1733359015489310700,1.277310791015625,0.015447744500637054,-0.22951909585669636,0.011197283981926738
1733359015499275800,1.28727587890625,0.04231587768197059,-0.22091464137956499,0.06373016590420157
1733359015509241900,1.297241943359375,0.10009995813071727,-0.15870156550742684,0.05307608542088419
1733359015519206700,1.30720654296875,0.12777122438848018,-0.11722798386849462,0.0018427417898550628
1733359015529172700,1.3171728515625,0.1776139904439449,-0.08629333190061152,-0.007812135055661201
1733359015539137800,1.3271376953125,0.18082418466210365,-0.05025456172674894,-0.030433570577949282
1733359015549103600,1.337103515625,0.1744908899873495,-0.03254047972932458,-0.044820809707604346
1733359015559068700,1.347068603515625,0.14460545481145382,-0.03233063637092709,-0.040800322019867594
1733359015569034800,1.35703466796875,0.123217214345932,-0.04447634365148842,-0.044855917553603644
1733359015578999800,1.366999755859375,0.08606383399367332,-0.08958535918332636,-0.04512863354776055
1733359015588965600,1.376965576171875,0.07033201185464859,-0.10634075221642851,-0.06916336993407457
1733359015598931000,1.386930908203125,0.07223463060557841,-0.0923757205542177,-0.06323989816922694
1733359015608896800,1.396896728515625,0.0694821170270443,-0.06971921371854842,-0.06021317075919359
1733359015618861600,1.406861572265625,0.07137187629640102,-0.028235183750838038,-0.03725822896622121
1733359015628828000,1.416827880859375,0.08646013983488082,-0.015948825890570877,-0.043957434343919154
1733359015638792700,1.426792724609375,0.10443711055219172,-0.015386735028401016,-0.05531820179186761
1733359015648758500,1.436758544921875,0.07495324191451072,-0.0745426883522421,-0.05891918542589992
1733359015658723800,1.446723876953125,0.010382277804613113,-0.11802534479126334,-0.02214512324742973
1733359015668689700,1.456689697265625,-0.012611644291877746,-0.15804609727337957,-0.007437346926517784
1733359015678654700,1.46665478515625,-0.028871874219179153,-0.17534312290251253,-0.020493702778592703
1733359015688620800,1.476620849609375,-0.029102175843715668,-0.1710221909634769,-0.027857034620828926
1733359015698585900,1.4865859375,-0.03857201497852802,-0.17306319527179,0.0034841157887130973
1733359015708551700,1.4965517578125,-0.03185527394413948,-0.13217552376203237,0.02939761512633413
1733359015718517800,1.506517822265625,0.008875380373001097,-0.1127432396698743,0.04363956403378397
1733359015728482800,1.51648291015625,0.026122867771983145,-0.0842727127932012,0.0553545882795006
1733359015738449200,1.52644921875,0.04352291538417339,-0.06738105309456587,0.09424871135186404
1733359015748414000,1.5364140625,0.0716997930765152,-0.04010740785226226,0.09517411910109222
1733359015758380000,1.546380126953125,0.10122983894348143,-0.0579104833073914,0.1235506475513801
1733359015768344800,1.5563447265625,0.10532149217128753,-0.061916211817413566,0.11635931127518415
1733359015778311000,1.566310791015625,0.10685878474116325,-0.06885792071409523,0.08938165330477059
1733359015788276000,1.57627587890625,0.08547580497264862,-0.041765331127122045,0.07906579179987311
1733359015798242000,1.586241943359375,0.10579203229248522,-0.023215748153626918,0.09497669683285057
1733359015808207000,1.59620703125,0.13059446511566639,0.00004661562070250511,0.1213309622079134
1733359015818173000,1.6061728515625,0.09659633392393588,0.016876389064267278,0.1383439467312768
1733359015828138000,1.616137939453125,0.06544657790064812,0.04208557605743408,0.13293342945724726
1733359015838104000,1.62610400390625,0.04265899203121662,0.04438113964870572,0.10858728903420269
1733359015848068900,1.63606884765625,-0.00127834937274456,0.03966989321783185,0.06774605048205704
1733359015858035200,1.64603515625,-0.007104863569140434,0.04910312666930258,0.05729436070304364
1733359015868000000,1.656,-0.010102876341342925,0.0064339055050164455,0.060068355461023744
1733359015877965800,1.6659658203125,0.010881459498405455,-0.000874152486026287,0.06400174938719719
1733359015887931000,1.675930908203125,0.03417524132430553,-0.008486965577304363,0.0914658026350662
1733359015897897000,1.68589697265625,0.04119651826322079,-0.014458952658995985,0.09502247220333665
1733359015907862000,1.695862060546875,0.03297054170966148,-0.021313786989822982,0.09705237059574574
1733359015917828000,1.705828125,0.030423195314407347,-0.021219971226528286,0.10626315693557262
1733359015927794000,1.7157939453125,0.006119944185018539,-0.030448475886136292,0.09423197941277175
1733359015937759000,1.725759033203125,0.029058921223878858,-0.05704553704112768,0.0726010892977938
1733359015947725000,1.73572509765625,0.004546411257982254,-0.07436725872009992,0.049578196835145354
1733359015957690000,1.745690185546875,-0.04138239622414112,-0.07308562141172588,0.0423132108008489
1733359015967656000,1.755656005859375,-0.024193945536017416,-0.05940963582396507,0.024136297064647077
1733359015977621000,1.76562109375,-0.004932195705175399,-0.046518370873108505,0.019681436547636984
1733359015987587000,1.775587158203125,-0.00469078816473484,-0.03135726129412651,0.04151833409611135
1733359015997551900,1.7855517578125,0.01604395682811737,-0.038690819052606816,0.021952121425978837
1733359016007518000,1.79551806640625,0.039598435416817665,-0.058351285877451295,0.02783412866927683
1733359016017483000,1.80548291015625,0.05518237351775169,-0.08409523733444511,0.0386164021095261
1733359016027448800,1.81544873046875,0.07521510772109032,-0.07264394205883144,0.03343154681753367
1733359016037414100,1.8254140625,0.12650807258486746,-0.08190474155284463,0.020687581382878125
1733359016047380000,1.8353798828125,0.17406886518299577,-0.07054455862678587,0.002492584000714123
1733359016057345000,1.845344970703125,0.19563480030298233,-0.07265088325627148,-0.010747713583521544
1733359016067311000,1.85531103515625,0.1844821226477623,-0.07128419801294804,-0.02578596396781504
1733359016077276000,1.86527587890625,0.1527577816069126,-0.08145765537247061,-0.04699464661534875
1733359016087242000,1.875241943359375,0.12424421930611133,-0.09739683665186166,-0.07654445662871003
1733359016097207000,1.88520703125,0.10296236182451247,-0.09429609415754675,-0.08063749809600412
1733359016107172900,1.8951728515625,0.1091349129796028,-0.11642675048820673,-0.07712196425572038
1733359016117138000,1.905137939453125,0.10650456447601318,-0.1544347018431872,-0.07333046301826834
1733359016127104000,1.91510400390625,0.100316815751791,-0.17361505700089036,-0.05332553013730794
1733359016137069000,1.925069091796875,0.08982172522246837,-0.17455065735056996,-0.04478208513241261
1733359016147035000,1.935034912109375,0.08248714455068111,-0.15181611684262752,-0.03112692313697189
1733359016157000200,1.945000244140625,0.07051555172801018,-0.12101451666988432,-0.012223704420216381
1733359016166966000,1.954966064453125,0.042805122503638264,-0.1017406380098313,0.014400938861444591
1733359016176932000,1.96493212890625,0.04184416851699352,-0.11152487685605883,0.0039021585376933215
1733359016186897200,1.974897216796875,0.01362578977048397,-0.13184804537333547,-0.02028353062663227
1733359016196863000,1.984863037109375,0.012806874603033066,-0.12756466896571217,-0.05239727284386754
1733359016206827800,1.994827880859375,0.06318623175323008,-0.11588599467501044,-0.05248549911659211
1733359016216794000,2.004794189453125,0.0565893177062273,-0.09889993469119071,-0.03768131321649998
1733359016226759000,2.014759033203125,0.05064414556622505,-0.08417802024707198,-0.00798124454487115
1733359016236725000,2.02472509765625,-0.01778057136237621,-0.07433211434148251,0.018509214430488644
1733359016246690000,2.03468994140625,-0.07388473590016365,-0.06135287884622812,0.027566856035217642
1733359016256656000,2.04465576171875,-0.08522504508197307,-0.04340031191781163,0.019179843701049686
1733359016266621000,2.054620849609375,-0.11196867510080337,-0.05872654893063008,0.025803207363560794
1733359016276587000,2.0645869140625,-0.09908931978344916,-0.07135806696675717,0.023034473302587864
1733359016286552000,2.074552001953125,-0.07577274160385132,-0.07059153957366943,0.03398318935092538
1733359016296518100,2.08451806640625,-0.020022212809324265,-0.03491634201519191,0.04589548973441124
1733359016306483000,2.09448291015625,0.0449906498491764,0.00025580139197409153,0.041845410626009105
1733359016316449000,2.104448974609375,0.09187807323038577,0.035130569287762044,0.06861731689125299
1733359016326413800,2.114413818359375,0.11451251436471939,0.047999841602519154,0.08531780139934271
1733359016336380000,2.1243798828125,0.11052432151138782,0.055784577194601295,0.10085019197613
1733359016346345000,2.134344970703125,0.09035539370775222,0.030522344839945433,0.09736015790328383
1733359016356311000,2.14431103515625,0.05176292046308517,0.05908171904385089,0.08104399653766303
1733359016366276000,2.154276123046875,-0.020530746853351593,0.03216485134996474,0.09182988670710474
1733359016376242000,2.164241943359375,-0.07924889328181743,0.05474507807902992,0.09115721160992979
1733359016386208000,2.1742080078125,-0.10256430241763591,0.07373064131699503,0.06360730670951306
1733359016396173000,2.184173095703125,-0.09582768763899803,0.0889544408686459,0.04372936120908707
1733359016406139000,2.194138916015625,-0.11407821460068225,0.08300415416210889,0.0485665721071884
1733359016416104200,2.204104248046875,-0.09896364757716655,0.04205503478869795,0.03040956864785403
1733359016426070000,2.214070068359375,-0.08278174358308314,0.02925254409983754,-0.005739420434832573
1733359016436034800,2.224034912109375,-0.02693301511108875,0.015914119903370737,-0.03932414852008223
1733359016446001200,2.234001220703125,0.033843232890963554,0.007819003187865018,-0.09461418366339057
1733359016455966000,2.243966064453125,0.08056406753361224,-0.0170088563375175,-0.14614402602296322
1733359016465931800,2.253931884765625,0.150949855402112,-0.06512984010167419,-0.1542611719071865
1733359016475897000,2.26389697265625,0.21348902142345905,-0.10797734044231473,-0.12324570978805421
1733359016485863000,2.27386279296875,0.1899199297875166,-0.17550795807540415,-0.08780253088716417
1733359016495828000,2.283827880859375,0.15940379549264908,-0.2078195244196802,-0.048508083385601634
1733359016505794000,2.2937939453125,0.12848200300633908,-0.24498678716681896,-0.03691277652941644
1733359016515759000,2.303759033203125,0.08692425021529197,-0.2487608988780528,-0.0703226960370317
1733359016525725000,2.313724853515625,0.07345745039880275,-0.2186078257419169,-0.16323606713190675
1733359016535690000,2.32368994140625,0.08689502412080764,-0.196462994755432,-0.30018476011250167
1733359016545656000,2.333656005859375,0.12334931629300117,-0.18084186644926667,-0.42842667075265195
1733359016555620900,2.343620849609375,0.16640169155597687,-0.15385587904192508,-0.5489882194906472
1733359016565587000,2.3535869140625,0.20218319903314114,-0.1262151540528983,-0.6027407063357532
1733359016575552000,2.363552001953125,0.2645896785855293,-0.10991627261564135,-0.6247546774841845
1733359016585517800,2.373517822265625,0.3137374481141567,-0.14630736335851252,-0.6234709212839603
1733359016595483100,2.383483154296875,0.3037187429249286,-0.19165376784279942,-0.5851085304681212
1733359016605449000,2.393448974609375,0.24394904161691663,-0.26265571484826505,-0.5614030991014093
1733359016615415000,2.4034150390625,0.17593933522999286,-0.30114122058711945,-0.5030007040912285
1733359016625380000,2.413380126953125,0.11739946797788142,-0.354622562340647,-0.3914084245547652
1733359016635346000,2.423345947265625,0.06810322988927364,-0.3727111036736518,-0.26007227422632273
1733359016645311000,2.43331103515625,0.06868073751628398,-0.3683488168109208,-0.11585921626593917
1733359016655277000,2.443277099609375,0.07361760939657688,-0.3591857786029577,0.017166202323697505
1733359016665241900,2.453241943359375,0.14546177937984467,-0.2900348662916571,0.09322598070800305
1733359016675208200,2.463208251953125,0.23948095629215238,-0.21661197574958205,0.12202500888668
1733359016685173000,2.473173095703125,0.2904530186384916,-0.21516572246402502,0.11241698512388393
1733359016695138800,2.483138916015625,0.3252361627280712,-0.13727438127100466,0.0998533812248148
1733359016705104000,2.493103759765625,0.2833656907260418,-0.05355111905410886,0.1617202192088589
1733359016715070000,2.503070068359375,0.16576982339322566,0.01817008213661611,0.2755732832841575
1733359016725035000,2.513034912109375,-0.08238368417620659,-0.00819908854663372,0.3941770490178838
1733359016735000300,2.523000244140625,-0.2233908222347498,-0.08724661403745412,0.45572731359973545
1733359016744965600,2.532965576171875,-0.17881401388347148,-0.1255252720925957,0.48640989050269123
1733359016754931500,2.542931396484375,-0.05399637860357761,-0.13848485303930938,0.48153676804099227
1733359016764896500,2.552896484375,0.113396077555418,-0.1296487817633897,0.4441532321946695
1733359016774862600,2.562862548828125,0.24411796844303607,-0.16038783809393645,0.4134548366680741
1733359016784827400,2.572827392578125,0.3169920659959316,-0.1814719079811126,0.43933264363780616
1733359016794793700,2.582793701171875,0.36665655287504195,-0.031277108730003236,0.47528855783380564
1733359016804758500,2.592758544921875,0.3036813335239887,0.03167173407077789,0.4206956746418029
1733359016814724400,2.602724365234375,0.2679898424178362,0.05910794946365058,0.3439257752267644
1733359016824689400,2.612689453125,0.2260907288432121,0.028825258598476646,0.25907515294775363
1733359016834655500,2.622655517578125,0.16480828488469124,-0.0394373265709728,0.20844631454851478
1733359016844621300,2.632621337890625,0.0829319657087326,-0.10976890003420411,0.18220475230030714
1733359016854586600,2.642586669921875,0.03552081071436405,-0.14976225305274127,0.1694263366067782
1733359016864552400,2.652552490234375,-0.0003822773158550262,-0.11289821103587747,0.13157565817274153
1733359016874517500,2.662517578125,-0.03243862679004669,-0.07272175653539598,0.09304244083464146
1733359016884483600,2.672483642578125,-0.06293605638444423,0.0020090748000890016,0.07754954201802611
1733359016894448600,2.68244873046875,-0.07827917146682739,0.08888532115519046,0.06641027183365077
1733359016904414500,2.69241455078125,-0.060974400922656054,0.11746383845098315,0.09090100835915654
1733359016914379500,2.702379638671875,-0.06636427726745606,0.14291377539746464,0.11900752422902733
1733359016924345600,2.712345703125,-0.10652502274215221,0.14406966743431984,0.15234573020730166
1733359016934310400,2.722310302734375,-0.1609393344968557,0.14698007498830556,0.16626549795567988
1733359016944276500,2.7322763671875,-0.1810913111656904,0.15851239961087701,0.18614318772777913
1733359016954241500,2.742241455078125,-0.1983627639621496,0.1691226409524679,0.19939499308671801
1733359016964207400,2.752207275390625,-0.19988193635344503,0.1914646019462496,0.24269315980430692
1733359016974172700,2.762172607421875,-0.16799276013970374,0.19893376878313718,0.26003928527217357
1733359016984138500,2.772138427734375,-0.12715689188241958,0.21506087385006248,0.2576610848987475
1733359016994103600,2.782103515625,-0.08621931681632995,0.2125963103674352,0.2251618139626458
1733359017004069600,2.792069580078125,-0.03110182522833347,0.19997589824721215,0.18096918262336403
1733359017014034400,2.802034423828125,0.04524900852441788,0.17119024100676178,0.16338884654082356
1733359017024000500,2.81200048828125,0.07805471506118775,0.1404975811012089,0.12014847442507744
1733359017033966600,2.821966552734375,0.10806932957470416,0.07395217511318623,0.09402480293549596
1733359017043931400,2.831931396484375,0.09638882865309714,0.030953868125006556,0.06240731980260461
1733359017053897500,2.8418974609375,0.05915595332384109,0.04155344194211066,0.07014814318772405
1733359017063862500,2.851862548828125,0.03541968842744827,0.05359758854433894,0.07697780654467642
1733359017073828400,2.861828369140625,0.004072364005446433,0.08050188901759683,0.10761690963208674
1733359017083793400,2.87179345703125,-0.04357727591991424,0.09529942598119377,0.15063560182116925
1733359017093759500,2.881759521484375,-0.09722878660857677,0.09986980263665318,0.1834823710206896
1733359017103724500,2.891724609375,-0.11695055516660213,0.10031111666336655,0.18135902219116687
1733359017113690400,2.9016904296875,-0.09813421101570129,0.09550568914301692,0.16918573278393595
1733359017123655700,2.91165576171875,-0.032386019819974896,0.07626366692595184,0.13682744122110307
1733359017133621500,2.92162158203125,0.020439561438560485,0.05711677564643323,0.11784754053894429
1733359017143586300,2.93158642578125,0.0420890831887722,0.028239202338829636,0.1188932501995936
1733359017153552600,2.941552734375,0.07955752083957195,-0.01567366221100092,0.14668792364131658
1733359017163517400,2.951517333984375,0.09814414788782597,-0.08858538836054504,0.1675483043078333
1733359017173483300,2.961483154296875,0.12554419598877428,-0.11809694872274994,0.17902780276462435
1733359017183448600,2.971448486328125,0.14517536365389824,-0.12675890554077923,0.17061642317418008
1733359017193414400,2.981414306640625,0.15616671326756476,-0.13779489801377057,0.12881426716800778
1733359017203379500,2.99137939453125,0.13799334319531917,-0.1759613278660923,0.06914999899584799
1733359017213345500,3.001345458984375,0.09555471591651439,-0.2027569803331047,-0.006079977500811219
1733359017223310600,3.011310546875,0.0766191293001175,-0.2615781487446278,-0.07102552881045267
1733359017233276700,3.021276611328125,0.05724807387590408,-0.28921317464523016,-0.13078417900148778
1733359017243241500,3.031241455078125,0.0532955368578434,-0.29969182549640533,-0.16207699675727635
1733359017253207600,3.04120751953125,0.07510814021527766,-0.28105617167465385,-0.17890255068344996
1733359017263172400,3.05117236328125,0.11834639343917369,-0.2506281540546566,-0.1943782974358648
1733359017273138400,3.061138427734375,0.13003566218912602,-0.2031025789003819,-0.19534144337959586
1733359017283104500,3.0711044921875,0.13591127622425556,-0.13727284690104424,-0.1971917656877078
1733359017293069600,3.081069580078125,0.12564765636324882,-0.10765819149054587,-0.18422973705558104
1733359017303035400,3.091035400390625,0.10956102943718432,-0.08225976553559303,-0.16593292326675727
1733359017313000400,3.10100048828125,0.12310323257744311,-0.0788747262071818,-0.12848189340848476
1733359017322966500,3.110966552734375,0.1467892285913229,-0.06529796321019529,-0.14145289079835638
1733359017332931600,3.120931640625,0.16610650800168514,-0.09682911976650356,-0.1817817776478827
1733359017342897400,3.1308974609375,0.2077308962881565,-0.1112607460271567,-0.1977873204280622
1733359017352862700,3.14086279296875,0.20569559106826782,-0.12770276226215063,-0.1885422482261434
1733359017362828500,3.15082861328125,0.1899187607437372,-0.14553615979030726,-0.13693409819966182
1733359017372793300,3.16079345703125,0.20038228709101677,-0.18069917004294692,-0.13825977557916194
1733359017382759700,3.170759765625,0.19699556726217268,-0.209639287192747,-0.1011972153155133
1733359017392724500,3.180724365234375,0.19604396562576293,-0.19894304806813595,-0.10186775325452908
1733359017402690300,3.190690185546875,0.1813444091439247,-0.1538986222051084,-0.10751690159002318
1733359017412655600,3.200655517578125,0.12861059782207013,-0.10507445860765874,-0.08126567646432667
1733359017422621400,3.210621337890625,0.06100128892958164,-0.07091631454862654,-0.01945425846194848
1733359017432586500,3.22058642578125,-0.0020668694019317624,-0.061616059827059505,0.08693214126080274
1733359017442552600,3.230552490234375,-0.01736672986447811,-0.051488925827294585,0.17195304207280276
1733359017452517600,3.240517578125,0.01545183615386486,-0.05922120057977736,0.18836880962168798
1733359017462483500,3.2504833984375,0.05095686477720737,-0.09516505901180207,0.19561443336838855
1733359017472448500,3.260448486328125,0.050449499776959415,-0.09879106748923659,0.2113460180453956
1733359017482414600,3.27041455078125,0.010220365241169928,-0.08678871420212089,0.22463864860506727
1733359017492379400,3.28037939453125,-0.0562754294514656,-0.042778526757657524,0.21066651134863495
1733359017502345500,3.290345458984375,-0.1263321314960718,-0.01835040713958442,0.21176035273363814
1733359017512310500,3.300310546875,-0.15525135198831558,-0.029654549029469488,0.1851248409980908
1733359017522276400,3.3102763671875,-0.12496610383987426,-0.018508812571689487,0.1168420715571381
1733359017532242400,3.320242431640625,-0.05781096845567226,-0.011375745821371673,0.02084938434846699
1733359017542207500,3.33020751953125,0.06444529190361499,0.01745214312560856,-0.07134084183732048
1733359017552173300,3.34017333984375,0.16001403634548186,0.03876600318066776,-0.11978800708223133
1733359017562138600,3.350138671875,0.17669336846768854,0.026896044101566076,-0.14748446258017792
1733359017572104400,3.3601044921875,0.13890519734323023,0.004177870206534862,-0.12511828046059234
1733359017582069500,3.370069580078125,0.07735036618411541,-0.04323087363503873,-0.08622934501999989
1733359017592035600,3.38003564453125,0.016588731229305265,-0.08754026322178542,-0.05523867028225213
1733359017602000400,3.39000048828125,-0.034378070420026774,-0.09285736659131943,-0.0356378977553919
1733359017611966500,3.399966552734375,-0.05775193174481392,-0.08760894454382359,-0.03858967849938199
1733359017621931500,3.409931640625,-0.07551789005994797,-0.043575595419481396,-0.03194563737502321
1733359017631897300,3.4198974609375,-0.09820961433947085,0.018668825438991187,-0.02489343557488173
1733359017641862400,3.4298623046875,-0.13916063340902327,0.03228511672876775,0.029272472643014042
1733359017651828500,3.439828369140625,-0.1117366199105978,0.05056852304674685,0.10655757330488413
1733359017661793500,3.44979345703125,-0.06338321563005447,0.03233326671943068,0.20431261227726935
1733359017671759600,3.459759521484375,0.05603402191102504,0.013465265446528792,0.265654239077121
1733359017681724700,3.469724609375,0.16001754347681998,0.02667991713285446,0.3283054871708154
1733359017691690500,3.4796904296875,0.25276830788850785,0.08048756823129952,0.38793541468195614
1733359017701655300,3.4896552734375,0.27071780607700346,0.11281455134041607,0.36949396825805303
1733359017711621600,3.49962158203125,0.20979250499308108,0.10020824081078171,0.3393332963373512
1733359017721586400,3.50958642578125,0.09015431817770003,0.05535078888721764,0.3025088374122046
1733359017731552500,3.519552490234375,0.019684359157085416,-0.001684738216549158,0.2468225146939978
1733359017741518000,3.52951806640625,-0.03364624901413917,-0.046567982168495656,0.194971349691879
1733359017751484200,3.539484130859375,-0.027646131816506384,-0.08307773085497319,0.1417098064351827
1733359017761450000,3.549449951171875,0.003592471534013748,-0.08526508483141661,0.08849650450069457
1733359017771415000,3.5594150390625,0.04390519270002842,-0.09664587215408682,0.05045390195744112
1733359017781381000,3.569381103515625,0.07161094574928284,-0.06009053076021373,-0.0017169782520271837
1733359017791346200,3.57934619140625,0.1049871456503868,-0.052184726071730254,-0.04102308879191987
1733359017801312000,3.58931201171875,0.10798165129125117,-0.04888137367740273,-0.06401998829678632
1733359017811277000,3.599277099609375,0.0940688612729311,-0.05736103273108601,-0.0664317347467877
1733359017821243100,3.6092431640625,0.09321721287965774,-0.07419599380642175,-0.05741837067520245
1733359017831208000,3.6192080078125,0.08699906901717186,-0.0669560326155275,-0.04524307197397574
1733359017841174000,3.629174072265625,0.11746727251708507,-0.08595284789986908,-0.09150434454716741
1733359017851139000,3.63913916015625,0.12493746226727961,-0.09069098233766854,-0.11122195751988329
1733359017861105000,3.64910498046875,0.11735095266103744,-0.09639014382734894,-0.11531502638664096
1733359017871070200,3.6590703125,0.09769465055465698,-0.11674334215670823,-0.12576390315406025
1733359017881036000,3.6690361328125,0.06298223361372947,-0.15001776218377053,-0.13769120017727837
1733359017891001000,3.6790009765625,0.03477262269556522,-0.1778034486014396,-0.15645037078084423
1733359017900967200,3.68896728515625,0.02157470294833183,-0.19018281850740312,-0.18519176875445992
1733359017910932000,3.698931884765625,0.043863107123970985,-0.17893245263136923,-0.18598503802400082
1733359017920898000,3.70889794921875,0.0870931770414114,-0.16333470520079135,-0.18435297984275967
1733359017930863000,3.718863037109375,0.1427145264983177,-0.12384155678935348,-0.12367190844402648
1733359017940829000,3.728828857421875,0.18065350427031515,-0.11506510674618184,-0.06506395809149836
1733359017950794000,3.7387939453125,0.19630466238856314,-0.14735672628097235,-0.004386256826785393
1733359017960760000,3.748760009765625,0.1715887388050556,-0.169352796446532,0.02139338471480878
1733359017970725000,3.75872509765625,0.13298866677582263,-0.1891186964072287,0.009678643596882466
1733359017980691000,3.76869091796875,0.06317980201244354,-0.17947320844456552,0.0031344735172693615
1733359017990657000,3.778656982421875,0.005184709161520004,-0.16211758449599145,0.015119530893000773
1733359018000622000,3.7886220703125,0.009428338080644607,-0.11159501948282122,0.006059859444678295
1733359018010588200,3.798588134765625,0.004065934264659881,-0.0721649994354695,-0.029834638853708746
1733359018020553200,3.80855322265625,0.018560908085107804,-0.03678315880037844,-0.018546781378344167
1733359018030519000,3.81851904296875,0.05125497094094753,-0.0023092998556792734,-0.006933377176465001
1733359018040484000,3.828484130859375,0.08822773402929306,0.007640066424384712,0.023168027421226724
1733359018050450200,3.8384501953125,0.14940028787255286,0.006791413705796003,0.06957668170901014
1733359018060415000,3.8484150390625,0.17375614597201347,-0.008357493978738785,0.0885553311489988
1733359018070381000,3.858381103515625,0.13947861331701278,-0.018362097577378153,0.08734499637801199
1733359018080346000,3.86834619140625,0.09147767573595046,-0.06964855963513254,0.05591991227837279
1733359018090312000,3.87831201171875,0.018512392768263816,-0.10171659954711794,0.05392811740664765
1733359018100277200,3.88827734375,-0.05920739125013351,-0.11734430372454226,0.056456850432977074
1733359018110243000,3.8982431640625,-0.08245558036863804,-0.11683942294232547,0.03582685815596487
1733359018120208100,3.9082080078125,-0.08221358830630779,-0.11018266846686602,0.012000953631184528
1733359018130174200,3.91817431640625,-0.04935001410245895,-0.06495536031760275,0.0003125936301075853
1733359018140139000,3.928138916015625,0.015858663389086723,-0.00861994430720806,-0.0322383823770564
1733359018150105000,3.93810498046875,0.08351707212030887,0.018837167743220924,-0.03711085410149535
1733359018160070100,3.948070068359375,0.08506079443097114,-0.005156140654161572,-0.03762363506237743
1733359018170036000,3.958035888671875,0.12149930451214312,-0.026023206789791583,-0.013600275161670287
1733359018180001000,3.9680009765625,0.12953531145155428,-0.08116634427569806,0.03115850786861265
1733359018189967000,3.977967041015625,0.10243161594867706,-0.08373619476370513,0.06136348243863322
1733359018199932200,3.98793212890625,0.06021335342228412,-0.06025682723782956,0.1164517570652999
1733359018209898000,3.99789794921875,0.02697100903391838,-0.01684029483757913,0.11676433927896432
1733359018219863300,4.00786328125,0.002215337961912155,-0.024289076473563907,0.10712048615096137
1733359018229829000,4.0178291015625,-0.050754620203375816,-0.04419087777361273,0.09876991510335355
1733359018239794000,4.0277939453125,-0.03975976345837116,-0.0354158159699291,0.06865300012598745
1733359018249760300,4.03776025390625,-0.0014595511585474012,-0.014607494284212588,0.08577501624808646
1733359018259726000,4.04772607421875,0.06867313873171806,-0.0038549949277192352,0.0758576799409464
1733359018269691000,4.05769091796875,0.11681026991307734,-0.0030010084468871353,0.08396872487794607
1733359018279657200,4.0676572265625,0.1259054305166006,-0.026237214866653084,0.1203119761574082
1733359018289622000,4.0776220703125,0.11092296544015406,-0.012361322792619466,0.12563508914262056
1733359018299587800,4.087587890625,0.05615618698596954,0.0010136340219527482,0.12647225235281512
1733359018309553200,4.09755322265625,0.0008194996893405913,0.005554711517691612,0.10929300788445398
1733359018319519000,4.10751904296875,-0.05316869560778141,0.02488148940876126,0.10680651569780893
1733359018329484000,4.117484130859375,-0.08218845386505126,0.041275501783564685,0.09038418141081929
1733359018339450000,4.1274501953125,-0.041812604334950446,0.05504574152603745,0.08570234373752027
1733359018349415200,4.137415283203125,0.00495440753698349,0.059832391280680894,0.04520237463740632
1733359018359381000,4.147381103515625,0.06650456252098083,0.0360443231318146,0.0032603820439253465
1733359018369346000,4.157345947265625,0.10080722961723804,0.021809534617513417,-0.010849124706449218
1733359018379312000,4.16731201171875,0.11505611972212791,0.003396583635732531,-0.019433453135937452
1733359018389277000,4.17727685546875,0.09863456175327301,-0.01359378719702363,0.005177352405549026
1733359018399243000,4.187242919921875,0.08164543302953242,-0.018514950051531195,0.0588771729150787
1733359018409208000,4.1972080078125,0.07875146515369415,-0.039921676021814345,0.06707731177448295
1733359018419174000,4.207173828125,0.08666822962760924,-0.05919226674623787,0.061556210265448316
1733359018429139200,4.21713916015625,0.0660135641336441,-0.08488733756020665,0.03068913679119432
1733359018439105000,4.22710498046875,0.03981996921300888,-0.13484335473179818,-0.0010466138429474085
1733359018449070000,4.237070068359375,0.03592646890580654,-0.15478271156325935,-0.04450700821781065
1733359018459036200,4.2470361328125,0.03139642426073551,-0.16160627397298813,-0.060428548809234046
1733359018469001000,4.2570009765625,0.06002747546136379,-0.15149835613034665,-0.07747260432429612
1733359018478967300,4.26696728515625,0.09820493816435337,-0.13882621382288635,-0.05101259528612718
1733359018488932000,4.27693212890625,0.1238227790236473,-0.16442089300230145,-0.023319094363669864
1733359018498898000,4.28689794921875,0.13948095140457153,-0.19696977523379028,-0.004502800445118919
1733359018508863000,4.296863037109375,0.1336924311310053,-0.20972703854143618,-0.01537913624383509
1733359018518829000,4.3068291015625,0.10524667336940764,-0.21342779275551438,-0.045097941581974735
1733359018528795000,4.316794921875,0.05385609335005283,-0.20012509745955467,-0.06774387222470249
1733359018538760200,4.32676025390625,0.01943769091963768,-0.13398746855482457,-0.06871646185021381
1733359018548726000,4.33672607421875,0.021408698731660843,-0.046084655630961056,-0.02709263068616856
1733359018558691000,4.346691162109375,0.02782791812419891,0.028829204121232032,-0.021364594728453083
1733359018568657200,4.3566572265625,0.05029927765130996,0.09575118833668529,-0.009915591874625533
1733359018578622200,4.366622314453125,0.12159984227716922,0.09679499830119312,0.011609381047310307
1733359018588588000,4.376588134765625,0.107692897477746,0.06536861729361117,0.02627200305224396
1733359018598553000,4.386552978515625,0.10259060590267181,0.0023832418747246264,0.03631567828594707
1733359018608519200,4.396519287109375,0.08257306926846504,-0.06129632635340094,0.016384372330200857
1733359018618484000,4.40648388671875,0.04961947869360447,-0.11551255825273692,-0.019991909002605824
1733359018628450000,4.416449951171875,0.005215688821673393,-0.11391155279688536,-0.025023806789168154
1733359018638415000,4.4264150390625,-0.028673136776685714,-0.08308240703009069,-0.046333123099850486
1733359018648381000,4.436380859375,-0.030664602854847907,-0.0646114422507584,-0.044977886265725825
1733359018658346200,4.44634619140625,-0.006639584144949913,-0.04528875601291656,-0.03272470002269838
1733359018668312000,4.45631201171875,0.005848141506314277,-0.021399127185717223,-0.014702876383508555
1733359018678277000,4.466277099609375,0.06486965479552745,-0.030343919533118605,0.02621705342803616
1733359018688243200,4.4762431640625,0.07210077509284019,-0.04883848438374698,0.06271563226652797
1733359018698208000,4.4862080078125,0.12165011115968227,-0.07153276594653725,0.09077951000449247
1733359018708174000,4.496174072265625,0.15773323193192482,-0.09367087493129074,0.08621327066803351
1733359018718139100,4.50613916015625,0.12843524125516415,-0.10547880162484943,0.07529244727361947
1733359018728105000,4.51610498046875,0.10242752429544925,-0.11655191123783588,0.09215157467583193
1733359018738073000,4.526072998046875,0.060713119637966155,-0.06439356171637774,0.09473558155335485
1733359018748039000,4.536038818359375,0.0381283628642559,-0.01410962776467204,0.09442820523777044
1733359018758005200,4.546005126953125,0.025507950744032858,0.01179265605919063,0.08753993442822247
1733359018767970000,4.555969970703125,0.0006949965268373489,0.009504179795831442,0.0770174809679389
1733359018777936000,4.565935791015625,0.0027747254103422164,-0.0016843728903681039,0.05643225484783761
1733359018787901200,4.575901123046875,0.04810790508687496,-0.04155592616014182,0.005496994547662325
1733359018797867000,4.585866943359375,0.06416472139656543,-0.10063625696450472,-0.017518751221569255
1733359018807832000,4.59583203125,0.05124795667827129,-0.08148366659656167,-0.011276075706025585
1733359018817798100,4.605798095703125,0.024603110858798027,-0.04885850425846874,-0.006141521262587048
1733359018827763200,4.61576318359375,0.022092004820704458,-0.009870455824956298,0.009510239643859676
1733359018837729000,4.62572900390625,-0.010346037447452544,0.01237951603643596,0.004813154169078916
1733359018847694000,4.635694091796875,-0.012571312281489371,0.03150309950560331,0.0007577778310514986
1733359018857660200,4.64566015625,0.006437924093008041,0.02711575126685202,-0.0030711602068040516
1733359018867625000,4.655625,0.001174304476380348,0.02449957741908729,0.02309488911977969
1733359018877591000,4.665591064453125,0.010978490132093429,0.03410604854561388,0.07247669573314487
1733359018887556000,4.67555615234375,0.013896423405408859,0.027226006708294153,0.08451885130768641
1733359018897522000,4.68552197265625,0.018625205492973328,-0.011290405625477432,0.07517992224327753
1733359018907487200,4.6954873046875,0.013929156631231307,-0.03759279468283057,0.057923813146422615
1733359018917453000,4.705453125,0.00265606746673584,-0.051385246257111425,0.02012900678520091
1733359018927418000,4.715418212890625,0.04105155683457851,-0.06129881057143211,0.002178873842465691
1733359018937384200,4.72538427734375,0.05489128161668777,-0.08240260807238518,0.00014552768422290683
1733359018947349000,4.735348876953125,0.10239596011340618,-0.10956453656852244,0.006875246931193396
1733359018957315000,4.745315185546875,0.14031740222871303,-0.10686346091628074,0.04467201692063827
1733359018967280000,4.755280029296875,0.16000936017036438,-0.11790544473864137,0.06279380750269628
1733359018977246000,4.765245849609375,0.135425538533926,-0.14231734387427566,0.05948335864730179
1733359018987211000,4.7752109375,0.11133622241616248,-0.1375629158888012,0.03518534994861111
1733359018997177000,4.785177001953125,0.05438800826966762,-0.13848309947364032,-0.005030107688275166
1733359019007142100,4.79514208984375,-0.010748773029446601,-0.10912249188944696,-0.04427318119562696
1733359019017108000,4.80510791015625,-0.04818681554198265,-0.0700181966651231,-0.03739504818760324
1733359019027073000,4.815072998046875,-0.0724789607554674,-0.023952172669395803,-0.028017157085984942
1733359019037039000,4.8250390625,-0.04921966572105884,0.008877060873433948,-0.0072781240770826115
1733359019047005200,4.835005126953125,-0.00955634837448597,0.021045929833874107,0.05588871798908803
1733359019056970200,4.84497021484375,0.0601011252194643,0.02696859788112342,0.1031876767466776
1733359019066936000,4.85493603515625,0.09916296954154968,0.012559183452278374,0.11278552617533132
1733359019076900900,4.86490087890625,0.1396744281500578,-0.017309519784525034,0.11203768521640449
1733359019086867200,4.8748671875,0.14728841028511525,-0.0719740069080144,0.06651334404905791
1733359019096832000,4.88483203125,0.1250298167258501,-0.12059957919344305,0.0360474969030125
1733359019106798000,4.894798095703125,0.059416065564751624,-0.14073058613948522,0.012671078294957987
1733359019116763100,4.90476318359375,-0.00844224965274334,-0.12494433039948344,-0.0038193071264075113
1733359019126729000,4.91472900390625,-0.02915653637945652,-0.09575447627231479,-0.019990977420844137
1733359019136694000,4.924694091796875,-0.01591886914372444,-0.0701336397383362,-0.018538326360541396
1733359019146660000,4.93466015625,0.0106225163012743,-0.02730652459859848,-0.0035472669856855643
1733359019156625200,4.944625244140625,0.07159282557070255,-0.003271057559922337,-0.0222956650334876
1733359019166591200,4.95459130859375,0.10416706143915652,0.0039711686532944435,-0.025133039317303336
1733359019176556000,4.96455615234375,0.12943828081786632,0.006155453889816999,-0.02585859537918586
1733359019186522000,4.974522216796875,0.1405360134154558,0.01871332216784358,-0.05071576319744345
1733359019196487200,4.984487060546875,0.13699322624206542,0.02926416147239506,-0.07328517170497216
1733359019206453000,4.994452880859375,0.10921966865360737,0.04078158078677952,-0.08392291297484189
1733359019216418000,5.00441796875,0.07922025170922278,0.043293125216290355,-0.06643554327222519
1733359019226384100,5.014384033203125,0.07884732674360274,0.022477862333133817,-0.02777230634628795
1733359019236349200,5.02434912109375,0.0563192685931921,-0.041372970808669925,-0.012798668463691137
1733359019246315000,5.03431494140625,0.03974398136734962,-0.09611702597439288,0.0010330899243825116
1733359019256280000,5.044280029296875,0.03991407723724842,-0.09345080243982375,0.00511543875101488
1733359019266246100,5.05424609375,0.05940203703939914,-0.09319339361265301,0.025534699470351915
1733359019276211000,5.0642109375,0.07335048289299011,-0.058496904893219466,0.03931841289903968
1733359019286177300,5.07417724609375,0.06121990011632442,-0.03729717273712158,0.062498240355914454
1733359019296142000,5.08414208984375,0.0437444491803646,-0.057397492283955215,0.08627795166838914
1733359019306108000,5.09410791015625,0.02121229937672615,-0.10704093637503682,0.07982307644058019
1733359019316073200,5.1040732421875,0.023482582396268843,-0.16426044174358248,0.05005355012877844
1733359019326039000,5.1140390625,0.034493805754184724,-0.2128035233773291,0.017741602475300895
1733359019336004900,5.1240048828125,0.01747077476084232,-0.24507673047259448,-0.044158418542426074
1733359019345970200,5.13397021484375,-0.014573299753665923,-0.2520436468757689,-0.05992721169097349
1733359019355936000,5.14393603515625,-0.016325696378946302,-0.2180084716092795,-0.05919992946288548
1733359019365901000,5.153901123046875,-0.0198158765822649,-0.1533674379378557,-0.045211973582813515
1733359019375867100,5.1638671875,0.024153029003739356,-0.06677760730870068,-0.017732656550442333
1733359019385832200,5.173832275390625,0.06481704782545566,0.020552081902325152,-0.00015654911844758317
1733359019395798000,5.183798095703125,0.13387714004814624,0.08905519782938062,0.03067641202365048
1733359019405763000,5.19376318359375,0.1523006854891777,0.10063925263918935,0.060011478741210884
1733359019415729200,5.203729248046875,0.16736147649884223,0.08757818407937884,0.055551188563834876
1733359019425694000,5.21369384765625,0.18776304401457308,0.06282689692154526,0.07164308988663833
1733359019435660000,5.223659912109375,0.1447147604048252,0.008457593352347612,0.05340908936806954
1733359019445625000,5.233625,0.09006605537235736,-0.04570332816317677,0.03172786415520822
1733359019455591000,5.2435908203125,0.01707622248530388,-0.06698387047052383,0.02854470864102477
1733359019465556200,5.25355615234375,-0.046886838859319685,-0.06194251530244946,0.03790674001980805
1733359019475522000,5.26352197265625,-0.06281798296272754,-0.020227453057840464,0.07874878913941792
1733359019485487000,5.273487060546875,-0.01682604711651802,0.028480829074978828,0.11153910631081089
1733359019495453200,5.283453125,0.05292378093600273,0.05478782124221324,0.10314711640742606
1733359019505418000,5.29341796875,0.09389292018413543,0.05823598893471062,0.07491148056543898
1733359019515384000,5.303384033203125,0.1345405723929405,0.01791091974377632,0.0383227894578129
1733359019525349000,5.31334912109375,0.12309621831476687,0.000960880921408534,0.02012324833127204
1733359019535315000,5.32331494140625,0.06855623435378075,-0.03305734321027994,0.008600087116801295
1733359019545280000,5.333280029296875,0.01623743357360363,-0.058017962269857525,0.00017672539844061248
1733359019555246000,5.34324609375,-0.012138766083121299,-0.08043934517540037,-0.004194033035935718
1733359019565211100,5.353211181640625,-0.02689385214447975,-0.08674714008271693,-0.014153057056089165
1733359019575177000,5.363177001953125,-0.041807928159832954,-0.07739457065202296,0.012634073036105836
1733359019585142000,5.37314208984375,-0.015148469293117523,-0.0202189044252038,0.029279292826156596
1733359019595108000,5.383108154296875,0.018232406783103942,-0.003172565621510148,0.028190483809297437
1733359019605074200,5.39307421875,0.046961657661199564,-0.0021767595171928405,0.045374625931773334
1733359019615039200,5.403039306640625,0.0601402881860733,-0.010722542609646916,0.06994454234044532
1733359019625005000,5.413005126953125,0.06481470973789692,-0.03417319549769163,0.057764019474829544
1733359019634970000,5.42297021484375,0.07131576219499111,-0.08515461019426583,0.04629942175964825
1733359019644936200,5.432936279296875,0.04240940118432045,-0.11616422709450125,0.05154917268112767
1733359019654901000,5.44290087890625,0.025058453410863876,-0.13493117914572358,0.030341622544755226
1733359019664867000,5.4528671875,0.016124620848894117,-0.11380451222583651,0.023366799113049636
1733359019674832100,5.46283203125,0.04671557394564151,-0.07701974599026143,0.03534061814213637
1733359019684798000,5.4727978515625,0.06231470961570739,-0.057475745151937006,0.04127562964772805
1733359019694763300,5.48276318359375,0.11212883409857749,-0.01782740617878735,0.0510161024174653
1733359019704729000,5.49272900390625,0.16428396874964235,-0.007137158403545617,0.059464475850318554
1733359019714694100,5.502694091796875,0.1734668076366186,-0.012496712675318121,0.04820161125231534
1733359019724660200,5.51266015625,0.1684738216549158,-0.027664032799378034,0.0032630814619100416
1733359019734625000,5.522625,0.13677110792398453,-0.08097323285639285,-0.04231968164083082
1733359019744587800,5.532587890625,0.08089139979183674,-0.09645451430045068,-0.08146573821422644
1733359019754552800,5.542552734375,0.05123977337181568,-0.08450316054821014,-0.11205343077480792
1733359019764518700,5.5525185546875,0.031764673051238056,-0.021095833390206098,-0.1275227386532817
1733359019774483700,5.562483642578125,0.029178163689374922,0.0167577311206609,-0.09303248569620773
1733359019784449800,5.57244970703125,0.07458966929912567,0.026651933147385714,-0.06406564950284083
1733359019794414800,5.582414794921875,0.11289864942729473,0.0012944237247109413,-0.01172666901773773
1733359019804380700,5.592380615234375,0.1689484534293413,-0.028355668325349685,0.03305701898329425
1733359019814345700,5.602345703125,0.2043359931528568,-0.04006356871053576,0.04054889540891163
1733359019824311800,5.612311767578125,0.18036884211003779,-0.06032755438648164,0.043037145727803
1733359019834276600,5.622276611328125,0.1401753634095192,-0.07764934913069009,0.03746093019777909
1733359019844242700,5.63224267578125,0.0541144520252943,-0.11555610513351856,0.014874167555005988
1733359019854207700,5.642207763671875,-0.027324060255289075,-0.11888371518626809,0.006956196363049093
1733359019864173600,5.652173583984375,-0.09504267474114894,-0.11067483589798212,0.035824031444638964
1733359019874139000,5.662138916015625,-0.07914426386356353,-0.0981457553230226,0.033416344681824556
1733359019884104700,5.672104736328125,-0.019260580787062644,-0.09915595527887344,0.0027876328409765843
1733359019894069800,5.68206982421875,0.05721124899685383,-0.11597381908893585,-0.026938278091384563
1733359019904035800,5.692035888671875,0.10225684390366077,-0.1312770405523479,-0.02034137546082493
1733359019914000600,5.702000732421875,0.1598825189203024,-0.13172237316705285,-0.01704703977330355
1733359019923966700,5.711966796875,0.16767945640683174,-0.116905108589679,-0.0036619919646240302
1733359019933932800,5.721932861328125,0.1713315491735935,-0.07963833099082111,0.013969294562085996
1733359019943897600,5.731897705078125,0.14478782564103604,-0.07963599290326237,0.03073752652716357
1733359019953863700,5.74186376953125,0.09263035290241241,-0.05184687241949141,0.04093810478905215
1733359019963828700,5.751828857421875,0.07082184119820595,-0.02618007785193622,0.049128210878209205
1733359019973794800,5.761794921875,0.06094166769683361,0.0009559855505824089,0.04366076208543963
1733359019983759600,5.771759521484375,0.052205403533577915,0.006464227578043938,0.030109887014958075
1733359019993725700,5.7817255859375,0.07309855395853519,0.006116363988444209,0.016531574806635033
1733359020003690800,5.791690673828125,0.07263327453434466,-0.02678571559488773,0.002641267760648043
1733359020013656800,5.80165673828125,0.0740174223691225,-0.04840001990124583,0.0005736694188206457
1733359020023622000,5.811621826171875,0.05090367328524589,-0.03391045290827751,0.0005531415123783517
1733359020033587700,5.821587646484375,0.03469721937179565,-0.006048924775421619,-0.01541580814254703
1733359020043552500,5.831552490234375,0.037814474609494206,0.014277239416539668,-0.00907993392246135
1733359020053518800,5.841518798828125,0.04839198272526264,0.025537980556115506,-0.015473648410162423
1733359020063483600,5.851483642578125,0.07212766309976577,0.006068140932545065,-0.006887218213488813
1733359020073449700,5.86144970703125,0.05962298631370067,0.004678440139815211,-0.00785432794628432
1733359020083414800,5.871414794921875,0.05397182868421077,0.003283551715314388,-0.015590696635283528
1733359020093380600,5.881380615234375,0.01954699651300907,-0.006214271404966712,0.01855995823703706
1733359020103345700,5.891345703125,-0.009689619365334511,-0.016425576556846497,0.044010077846609055
1733359020113311700,5.901311767578125,-0.012993337085843085,-0.059994303844124075,0.05120261056604795
1733359020123276800,5.91127685546875,-0.0393178649097681,-0.08733202729858458,0.03757816793585662
1733359020133243000,5.921242919921875,-0.039139001211524006,-0.11289017385989426,0.039923242357815615
1733359020143207700,5.931207763671875,-0.017718612042069433,-0.1199801321208477,0.038841612000414166
1733359020153173800,5.941173828125,0.041996728730201716,-0.11408990503847598,0.03957938822305295
1733359020163138600,5.951138671875,0.059792497661709784,-0.10919592245183884,0.059464580881595605
1733359020173104600,5.961104736328125,0.10704758531153201,-0.09722929806523024,0.0768117931948509
1733359020183069700,5.971069580078125,0.11987258009314536,-0.09275463686920701,0.08083624467165208
1733359020193035800,5.981035888671875,0.12955284710824488,-0.0927538331516087,0.08630971677983179
1733359020203000800,5.991000732421875,0.10828268006443977,-0.09299158743023872,0.0721689312584931
1733359020212966700,6.000966552734375,0.09214227712452411,-0.07044000227376818,0.04032962206846569
1733359020222931700,6.010931640625,0.05286006805002689,-0.06232260066121816,0.011406942393945064
1733359020232897800,6.020897705078125,0.005987842237949371,-0.04457973096072673,-0.020175426043081097
1733359020242862600,6.030862548828125,-0.011699205622076988,0.0027262831587344404,-0.044133923421986396
1733359020252829000,6.040828857421875,-0.0033732758253812787,0.06463270423449576,-0.05151384107284247
1733359020262794800,6.050794677734375,0.006266074657440186,0.11100377559140324,-0.033997505570645445
1733359020272759600,6.060759521484375,0.05852466968297958,0.1170901097677648,-0.017512114843161543
1733359020282726000,6.070725830078125,0.09265022664666175,0.10398512900099158,0.014913679864775622
1733359020292690700,6.080690673828125,0.12467559646070003,0.0810572578780353,0.03062938541099429
1733359020302656800,6.09065673828125,0.10195289252102374,0.023227073265239595,0.023800304292642977
1733359020312621800,6.100621826171875,0.07613456065356732,-0.032664617565646765,0.00761557529970014
1733359020322587600,6.110587646484375,0.02986439238786697,-0.07990180423259735,0.017221005817432886
1733359020332552700,6.120552734375,-0.014718845704197884,-0.10570018929056822,0.015578380576404743
1733359020342518800,6.130518798828125,-0.05537468121945858,-0.09864479088634252,0.014762921166297746
1733359020352483800,6.14048388671875,-0.05891279221773147,-0.10095401767678558,0.03230922597342869
1733359020362449700,6.15044970703125,-0.019544658425450324,-0.09972374522946774,0.03208457320496672
1733359020372414700,6.160414794921875,0.03563479248285294,-0.10638057277016341,0.032554496838233894
1733359020382380800,6.170380859375,0.10092939469218254,-0.14117745312415061,0.014632850204466375
1733359020392345600,6.180345703125,0.1874520783692598,-0.18130225050263105,0.0038706014909272194
1733359020402311700,6.190311767578125,0.25410043327510357,-0.19566132298372685,-0.04017035355325788
1733359020412276700,6.20027685546875,0.2376239302486181,-0.19234642628207801,-0.05030468904536683
1733359020422242600,6.21024267578125,0.1738888324409723,-0.1361828597072512,-0.05784797599781304
1733359020432208000,6.220207763671875,0.10818272682130337,-0.04459543998651206,-0.008976755534132826
1733359020442173700,6.230173583984375,0.047535658156871795,0.029316695377230643,0.04086494822129607
1733359020452138800,6.240138671875,0.020402152037620542,0.03234963333234191,0.03333430612129159
1733359020462104800,6.250104736328125,0.024995325046777723,0.006466930991783738,-0.00889556121957139
1733359020472069600,6.260069580078125,0.015231471401453017,-0.020846388673782346,-0.05313214015678968
1733359020482035700,6.27003564453125,0.006081950262188911,-0.022128902764990924,-0.08201728028291835
1733359020492000800,6.280000732421875,0.019247136783599853,-0.02255209661312401,-0.07087491395915858
1733359020501966600,6.289966552734375,0.026290041032433507,-0.0045576633043587205,-0.08619304073075763
1733359020511931600,6.299931640625,0.026036943054199218,-0.0062503656316548585,-0.04315397247392684
1733359020521897700,6.309897705078125,0.021928338691592216,-0.009666676881164312,0.02412566150620114
1733359020531862800,6.31986279296875,0.01783084024488926,-0.02293897703886032,0.08539039171151816
1733359020541828600,6.32982861328125,-0.0030190555602312087,-0.04151800530254841,0.12828434327607974
1733359020551794000,6.3397939453125,-0.009206804284453392,-0.03806574595682323,0.13092591642658225
1733359020561759700,6.349759765625,0.009411386945843696,-0.013157514671608805,0.11971176350824535
1733359020571725800,6.359725830078125,0.01766951220333576,-0.005847118593007326,0.08843539456375873
1733359020581691000,6.36969091796875,0.0337888723552227,-0.0035025282282382247,0.06159995807562954
1733359020591656700,6.37965673828125,0.05549217011928558,-0.011189721729978919,0.059116840589581984
1733359020601621500,6.38962158203125,0.07547931161522865,-0.025923107416182756,0.05557262407750822
1733359020611587800,6.399587890625,0.10126549477875232,-0.08202851406298577,0.043212424662895495
1733359020621552600,6.409552734375,0.11389935090243816,-0.07754559649527072,0.028977732046716845
1733359020631518700,6.419518798828125,0.11701602161824702,-0.08071480111591517,0.011402793658501468
1733359020641483800,6.42948388671875,0.08909107286036014,-0.06647986647114157,0.015276699924311833
1733359020651449600,6.43944970703125,0.06630816316604614,-0.030355390775203703,0.009670106380688957
1733359020661414700,6.44941455078125,0.029593758752942085,0.006954056921601295,-0.01130193166648969
1733359020671380700,6.459380615234375,0.04159808480143547,0.054342780888453124,-0.02141770858860109
1733359020681345800,6.469345703125,0.057876434907317156,0.06229826993755996,-0.024882329658977687
1733359020691311900,6.479311767578125,0.06528057368397712,0.05456387629322707,-0.012546414160606218
1733359020701276700,6.489276611328125,0.08433306467831134,0.01504172098301351,-0.00042921602189890105
1733359020711242800,6.49924267578125,0.09754676651656627,-0.015934139778092504,0.009457857577718096
1733359020721207600,6.50920751953125,0.08759586586654186,-0.05903261920511722,0.02551436678508762
1733359020731173600,6.519173583984375,0.03774433198273182,-0.11238419709913432,0.047878005321137604
1733359020741138000,6.529137939453125,-0.0020405659168958664,-0.1413034906566143,0.045001933861593714
1733359020751104000,6.53910400390625,-0.01754676260650158,-0.12331402578391135,0.0625047705614008
1733359020761069000,6.549069091796875,-0.022706921848654745,-0.08070983267985284,0.07301016328902915
1733359020771035000,6.559034912109375,-0.019976035580039023,-0.05610679488629102,0.08618991719190962
1733359020781000000,6.569,0.01921498807966709,-0.0249897720888257,0.0880825716712512
1733359020790966000,6.578966064453125,0.06661854428946971,0.013499094650894402,0.09685691195572727
1733359020800931000,6.58893115234375,0.08530337101519107,0.030016514209657907,0.07931863404978066
1733359020810897000,6.59889697265625,0.10744330663084983,0.009733458507061005,0.030216272282169665
1733359020820862000,6.608862060546875,0.0745534289419651,-0.024396263175085184,-0.0022907230193726716
1733359020830828000,6.618828125,0.049776130560040474,-0.031773221683874725,-0.052915268835984165
1733359020840792800,6.628792724609375,0.03801438109576702,-0.011431348466128111,-0.05359465680173598
1733359020850759000,6.638759033203125,0.032088498178124425,0.008603723824769259,-0.053813331920560446
1733359020860724000,6.648723876953125,0.035412674164772034,0.017991291503608224,-0.04933133680145256
1733359020870689800,6.658689697265625,0.02463642860651016,0.02652911048531532,-0.03831933712540194
1733359020880655000,6.668655029296875,0.04090016566514969,0.03207417739182711,-0.004528317337221233
1733359020890621000,6.678620849609375,0.06971475673913956,0.02839402757436037,0.032274558802135284
1733359020900586800,6.688586669921875,0.07367430801987647,-0.003999591030180454,0.04659082418796606
1733359020910552000,6.698552001953125,0.09259645063281059,-0.03577040156126022,0.06441655899947508
1733359020920518000,6.708517822265625,0.10647592290341854,-0.08908347407579421,0.06381686694012023
1733359020930483000,6.71848291015625,0.08193710945248603,-0.10522519218996167,0.030381141704390754
1733359020940449000,6.728448974609375,0.05145955360233784,-0.0952192734170705,-0.0051974316457752134
1733359020950413800,6.738413818359375,0.025181203007698057,-0.09624876259528099,-0.028322110832331236
1733359020960380000,6.7483798828125,-0.004990647894144058,-0.07840031362846493,-0.04461445064765866
1733359020970345000,6.758344970703125,0.012218261060118675,-0.07931947429999708,-0.02429792193372268
1733359020980311000,6.76831103515625,0.05152268196642398,-0.06684416973888874,0.02824181442102417
1733359020990275800,6.77827587890625,0.09826748200654983,-0.09210479465834796,0.0675400202156743
1733359021000242000,6.788241943359375,0.12239362300336361,-0.09646905428245663,0.09557465359284542
1733359021010207000,6.79820703125,0.11135668068230152,-0.07031272263228892,0.09244382648752071
1733359021020172800,6.8081728515625,0.09708031804859638,-0.03227028448581695,0.10632080540694296
1733359021030138000,6.81813818359375,0.05799450832903385,-0.008310586097091436,0.08315829441105015
1733359021040104000,6.82810400390625,0.014725859966874122,0.014242460364103317,0.05768544237986207
1733359021050068700,6.83806884765625,0.012477204257249831,-0.016075740205869077,-0.004780205172480782
1733359021060035000,6.84803515625,-0.0029062428355216977,-0.07711275803595781,-0.08421645256131886
1733359021069999900,6.857999755859375,0.008932663518190383,-0.07040127769857644,-0.12418088087947107
1733359021079966000,6.867966064453125,0.07460837399959563,-0.028051643877476454,-0.1391468880114611
1733359021089931000,6.877930908203125,0.13155425005853175,-0.005982727671414613,-0.11249593211160971
1733359021099896800,6.887896728515625,0.16632044301331042,-0.018297580973803997,-0.043359774411446415
1733359021109862000,6.89786181640625,0.15006547378301618,-0.014052125423774122,0.025408230396336873
1733359021119828000,6.907827880859375,0.1191828442633152,0.00164762107655406,0.06748613917054608
1733359021129793000,6.91779296875,0.025945173117518424,0.011662526873499154,0.0838385956922546
1733359021139759000,6.927759033203125,0.0009743979901075362,0.0030953356668353077,0.08734207376856357
1733359021149724000,6.937723876953125,-0.029206220740079877,-0.014881123593822121,0.06349734352901577
1733359021159690000,6.94768994140625,-0.0414355877161026,-0.05943082474246621,0.00631543992847728
1733359021169654800,6.95765478515625,-0.04874620299041271,-0.06458689233139157,-0.013983532008348265
1733359021179620900,6.967620849609375,-0.040970308291912075,-0.04762267885319888,-0.017043523508810905
1733359021189586000,6.9775859375,0.024849194574356078,0.004667991811037064,-0.0040596266798151185
1733359021199552000,6.987552001953125,0.08573241008222103,0.02610482065863907,-0.00864306032131426
1733359021209517000,6.99751708984375,0.13213058864176272,-0.007681859739497304,-0.0020827650865627217
1733359021219483000,7.00748291015625,0.11760697324872016,-0.03858049054592848,0.010745514776569326
1733359021229448000,7.017447998046875,0.11533610570728778,-0.07498363705277443,0.017629067170160124
1733359021239414000,7.0274140625,0.08720131359100342,-0.08574125097580254,0.01461125600223313
1733359021249379800,7.0373798828125,0.05580547385215759,-0.06779051067829131,0.046663076573424035
1733359021259345200,7.04734521484375,0.016357845082879064,-0.044434769532084466,0.08359319696328603
1733359021269311000,7.05731103515625,-0.02967500729560852,-0.011493965373560785,0.1000987525543198
1733359021279275800,7.06727587890625,-0.04417231920361519,-0.0053877574529498816,0.10005240179509856
1733359021289242000,7.0772421875,-0.03478489765524864,-0.03595766776166856,0.07242199727068654
1733359021299207000,7.08720703125,-0.018707623079419134,-0.02164842577166855,0.04555957687750924
1733359021309173000,7.097173095703125,0.03821954827904701,-0.010463234086334705,0.032495964734163135
1733359021319138000,7.107137939453125,0.07990005066692829,0.008169570191204548,0.01239544425792992
1733359021329104000,7.117103759765625,0.09945113883316516,0.0002947451628744602,0.011639091198984533
1733359021339069000,7.12706884765625,0.08847498678863049,-0.001738806491345167,0.018235192395234478
1733359021349035000,7.137034912109375,0.06191665020883083,0.0030184710383415222,0.012197571040183538
1733359021359000000,7.147,0.03891571384966373,0.010669204987213014,0.0008706499212654307
1733359021368966000,7.1569658203125,0.019931611916422842,-0.01913790425546467,-0.0014901849004731048
1733359021378931000,7.166930908203125,0.055440147671103474,-0.05158157254680991,0.004145122139336308
1733359021388897000,7.17689697265625,0.05688274769484997,-0.02708206819295883,0.006389053724781843
1733359021398861800,7.18686181640625,0.057009588944911954,-0.019352058462798593,0.0011261270862538367
1733359021408828000,7.196827880859375,0.04355272600054741,-0.03337093920409679,-0.002711921273241751
1733359021418793000,7.20679296875,0.02154606137573719,-0.07965908151790499,-0.039781180705735456
1733359021428758800,7.2167587890625,0.019515432330965993,-0.10588898986093699,-0.06133364442279562
1733359021438724000,7.22672412109375,0.05272504349350929,-0.10848616674728691,-0.016720776094158646
1733359021448690000,7.23668994140625,0.0984556980550289,-0.07574271179176867,0.06554569546014535
1733359021458655000,7.246655029296875,0.14913666850030421,-0.04446655290983617,0.08801986343227326
1733359021468621000,7.25662109375,0.15008067135214806,-0.08189765422493218,0.06984417353877798
1733359021478585900,7.2665859375,0.12523732199668883,-0.1272075260911137,0.02508048257958144
1733359021488552000,7.276552001953125,0.044049569606781004,-0.11123583078160881,-0.001509817757771816
1733359021498517000,7.28651708984375,-0.019732874473929404,-0.08466434245929122,-0.0465316276469035
1733359021508482800,7.29648291015625,-0.01942716952562332,-0.030561288610845803,-0.08291266735321842
1733359021518447900,7.30644775390625,-0.034384500160813326,-0.002217018462345004,-0.06304707901086658
1733359021528414000,7.3164140625,-0.009120295044779778,0.07129749588593841,-0.01329462843722431
1733359021538379000,7.32637890625,0.03748305069804191,0.08823219100870192,0.00981194883706048
1733359021548344800,7.3363447265625,0.08404197277724743,0.09199161660745739,0.014402007440524174
1733359021558310100,7.34631005859375,0.13010638933777807,0.06165083887949586,0.027780304706364403
1733359021568276000,7.35627587890625,0.12512801640331744,0.017863208144530653,0.02993194119874388
1733359021578242000,7.366241943359375,0.12344634692668914,-0.048700683348253365,0.014264076257578561
1733359021588207000,7.37620703125,0.0593733954668045,-0.10216069005280733,0.030324527562770525
1733359021598173000,7.3861728515625,-0.003798807761073112,-0.11792071537300944,0.03364898439391981
1733359021608137700,7.3961376953125,-0.033005613023042675,-0.11165551749840379,0.038108014195971186
1733359021618104000,7.40610400390625,-0.0246259072124958,-0.112993707299605,0.04558456062171608
1733359021628068900,7.41606884765625,0.0011287117689847946,-0.0983537720505148,0.015297042884374968
1733359021638035000,7.426034912109375,0.02597147660255432,-0.09345087550505995,0.026861860987462568
1733359021648000000,7.436,0.028037761482596395,-0.0758144618537277,0.020541480593208688
1733359021657965800,7.4459658203125,0.08815057713985443,-0.03651237903498113,0.028227139724988956
1733359021667931000,7.455930908203125,0.11715046165287495,0.003251110750436783,0.025143594960647168
1733359021677897000,7.46589697265625,0.10069032523930072,0.0028931641582399603,-0.0035829547869972883
1733359021687862000,7.475862060546875,0.07766250087320804,0.0005604834269732237,-0.010594237771572078
1733359021697828000,7.485828125,0.07166238367557526,-0.017782544123753904,-0.03603324461537413
1733359021707793000,7.49579296875,0.0732417618215084,-0.04352086955755949,-0.0705092361516552
1733359021717759000,7.505759033203125,0.10393091459572315,-0.014078940365463494,-0.0715140703792218
1733359021727723800,7.515723876953125,0.12549568067193032,0.01982559425868094,-0.043412965903407895
1733359021737689900,7.52568994140625,0.12464812393188476,0.03409698845632374,-0.019382453601062298
1733359021747655200,7.5356552734375,0.08060907571911811,0.023152692854776977,0.018560529059194957
1733359021757621200,7.545621337890625,0.03121522247493267,-0.024755598006770012,0.03658302855181973
1733359021767586300,7.55558642578125,-0.0373661463201046,-0.06406871367618441,0.022681275950744748
1733359021777552100,7.56555224609375,-0.042536242434382435,-0.07086283079572021,-0.006935977842216379
1733359021787517200,7.57551708984375,-0.0001315174251794815,-0.07652772468961774,-0.03006424864178989
1733359021797483300,7.585483154296875,0.038840310525894164,-0.10041983773484825,-0.04752846579768229
1733359021807448000,7.595447998046875,0.07810732203125953,-0.15228899505138396,-0.033854032846190964
1733359021817414400,7.605414306640625,0.08399813363552093,-0.17581256704516707,0.012160923116002231
1733359021827379200,7.615379150390625,0.08874269781410693,-0.1414811122458428,0.0602440864872653
1733359021837345000,7.625344970703125,0.07995441120266913,-0.06577237578891218,0.10181426950162276
1733359021847310300,7.635310302734375,0.07513502822220325,-0.008202961004152893,0.0994426267331466
1733359021857276200,7.645276123046875,0.059413142955303186,0.022053499441221355,0.044986279634735546
1733359021867241200,7.6552412109375,0.03933072439134121,0.027671777714416382,0.004900234230910428
1733359021877207300,7.665207275390625,0.028938509714603423,0.04981383222192526,-0.016982141860527915
1733359021887172000,7.675172119140625,0.07746610151827335,0.07083528520166874,-0.050155690762423905
1733359021897138200,7.68513818359375,0.09035130205452442,0.052468073057755825,-0.06433707315563224
1733359021907103200,7.695103271484375,0.10184241788387298,0.0034086393997073174,-0.0573812352688983
1733359021917069300,7.7050693359375,0.11032266145944594,-0.01990033999532461,-0.02247966613115277
1733359021927034000,7.7150341796875,0.12513327710032462,-0.027471140575781462,0.010690567435650155
1733359021937000200,7.725000244140625,0.1295347269296646,-0.036807562589272855,0.04218918256238103
1733359021946965200,7.73496533203125,0.08832768727242946,-0.03339161666594446,0.0639942967331037
1733359021956931000,7.74493115234375,0.04368950412273407,-0.033668899237364526,0.06506107201466801
1733359021966896400,7.754896484375,0.02645020003020763,-0.033641207512840623,0.07862212141929194
1733359021976862200,7.7648623046875,0.026832477346062658,-0.029366671998798846,0.058450554133998224
1733359021986828000,7.774828125,0.01952478468120098,-0.00806150670684874,0.04108049523469526
1733359021996793300,7.78479345703125,0.014402034839987754,-0.015797507786378263,0.021695612214528953
1733359022006759200,7.79475927734375,-0.004831657940149307,-0.03789440797790885,0.007087250280636362
1733359022016724200,7.80472412109375,-0.0021148001968860626,-0.02303498475924134,0.017747290147282182
1733359022026690300,7.814690185546875,0.023635142609477043,-0.027833178821206093,0.01731996354672592
1733359022036655000,7.824655029296875,0.028291443982720373,-0.06334624462053179,0.007300911297625862
1733359022046621200,7.83462109375,0.04506722221672535,-0.08492745037488639,-0.012899142296635545
1733359022056586200,7.844586181640625,0.06440905154645443,-0.09190824917294084,-0.0003203864942071959
1733359022066552000,7.854552001953125,0.053093876805901524,-0.10206300183199346,0.027064203742705285
1733359022076517000,7.86451708984375,0.08593757726550101,-0.07225625791549682,0.04817966428198851
1733359022086483200,7.874483154296875,0.08991291063725948,-0.05557765644565224,0.04443154552853666
1733359022096448300,7.8844482421875,0.09391045584082602,-0.031050825693458316,0.04024797166700009
1733359022106414000,7.8944140625,0.05794365492463111,-0.0029863953996449705,0.014050198328169061
1733359022116379100,7.904379150390625,0.0713292061984539,0.025943565682321784,-0.00256999661847949
1733359022126345200,7.91434521484375,0.08634674258828162,0.032695597225800156,-0.002437378648179583
1733359022136310000,7.92431005859375,0.09403554352521896,0.014296236377954482,0.0011610796686261891
1733359022146276400,7.9342763671875,0.13031331008672714,0.029477292766422032,-0.01638134468947537
1733359022156241200,7.9442412109375,0.11784253557026386,0.019354031224176286,-0.035001042890269306
1733359022166207200,7.954207275390625,0.11751871044337749,-0.01075410679168999,-0.041365216760477046
1733359022176172300,7.96417236328125,0.08865618857443332,-0.02597688343003392,-0.05258054785574786
1733359022186138000,7.97413818359375,0.06669979283213615,-0.04246332332864403,-0.055935575638385485
1733359022196103200,7.984103271484375,0.03577273964881897,-0.02235942358523607,-0.05208230687687173
1733359022206069200,7.9940693359375,0.03988660470843315,-0.041134266681969164,-0.04996786743958946
1733359022216034000,8.004033935546875,0.05161854355633259,-0.04768208089023828,-0.050985273454361595
1733359022226000400,8.01400048828125,0.051344402790069577,-0.05929331596791744,-0.04159349995786324
1733359022235965200,8.023965087890625,0.06134440327882766,-0.058155690240114924,-0.008021211229078472
1733359022245931300,8.03393115234375,0.09478899224102497,-0.06940196446292102,0.03260925694948528
1733359022255896000,8.04389599609375,0.10218494771122932,-0.08231134959235786,0.061949360601766965
1733359022265862100,8.053862060546875,0.07857610858678818,-0.0968361340291798,0.0704682511207182
1733359022275827200,8.0638271484375,0.0771153883844614,-0.1203480155851692,0.0668047875765711
1733359022285793300,8.073793212890624,0.07432195827364921,-0.11554156515151262,0.05355226526500191
1733359022295758300,8.08375830078125,0.04357727591991424,-0.09603811551928519,0.03484856030887458
1733359022305724200,8.09372412109375,0.014357611176371573,-0.06678089524433016,0.03453421539638657
1733359022315689000,8.10368896484375,0.02405482932627201,-0.014452084526792168,0.022517833583918397
1733359022325655300,8.1136552734375,0.026261983981728552,0.03716996616087854,-0.010063941703597083
1733359022335620000,8.1236201171875,0.02647650351524353,0.07095986142940819,-0.03823601535665803
1733359022345586200,8.133586181640625,0.05178863942623138,0.07072276473790406,-0.02868786855493672
1733359022355551200,8.14355126953125,0.07781739917397498,0.03829275964573026,-0.017627280496805904
1733359022365517000,8.15351708984375,0.10864157650470734,-0.008283332763984798,-0.036717555351415646
1733359022375483400,8.1634833984375,0.1261924307644367,-0.06275646203383803,-0.03730814165570773
1733359022385448200,8.1734482421875,0.10322481215298175,-0.11677059548981487,-0.022536227757134472
1733359022395414000,8.1834140625,0.07191665069758892,-0.11382307079583406,0.012966896603489294
1733359022405379300,8.19337939453125,0.05067103357315063,-0.06678549835421145,0.038763866022508586
1733359022415345200,8.20334521484375,0.05699380685389042,-0.040140360273793335,0.03792880800443236
1733359022425310200,8.213310302734374,0.03937280996739864,-0.03652319268994033,0.03460937669156119
1733359022435276300,8.2232763671875,0.03698386900424957,-0.02662636031471193,0.03180874508840498
1733359022445241000,8.233240966796876,0.014637012639641761,-0.047285701983794566,0.022345093665784223
1733359022455207200,8.243207275390626,0.025008769050240517,-0.052026612900570035,0.0007863554715644567
1733359022465172200,8.253172119140626,0.06007423721253872,-0.04874247666336596,-0.03571288095405325
1733359022475138300,8.26313818359375,0.08964519961178302,-0.04813362405002117,-0.06446976875774561
1733359022485103000,8.27310302734375,0.111165542024374,-0.05786094507724046,-0.07039072890509851
1733359022495069200,8.283069091796875,0.10233458531498908,-0.04721175996474922,-0.06511665182653814
1733359022505034200,8.2930341796875,0.07959551476240158,-0.02303914947770536,-0.04168237468455918
1733359022515000000,8.303,0.04220540304481983,0.013270473526790737,-0.00041915699383243915
1733359022524965400,8.31296533203125,0.03262041309773922,0.016470365546643734,0.019434679261932614
1733359022534931200,8.32293115234375,0.04394026401340961,0.033107539027556775,0.02944128073812462
1733359022544896000,8.33289599609375,0.06300795257687568,0.06608940584883094,0.047942033300944605
1733359022554862300,8.3428623046875,0.07892974433004855,0.047809287466481325,0.047883425848348996
1733359022564827100,8.3528271484375,0.07270692429244519,0.004107289188355207,0.04806021175393834
1733359022574793200,8.362793212890624,0.0647059886664152,-0.022986323311924933,0.05594267666602973
1733359022584758300,8.37275830078125,0.033111996006965634,-0.05429148909263312,0.0721370474160416
1733359022594724000,8.38272412109375,-0.005470540365576744,-0.05503858113288879,0.0667223060580436
1733359022604689200,8.392689208984375,-0.019070611172914503,-0.03087619977891445,0.05865510939592495
1733359022614655200,8.4026552734375,-0.0018763152658939361,-0.004780585340037942,0.035471178869379213
1733359022624620300,8.412620361328125,0.028449849414825437,-0.006490092671662569,0.01347012200144818
1733359022634586000,8.422586181640625,0.06577274111509322,-0.014602671978622674,0.009019446752499789
1733359022644551200,8.43255126953125,0.11099895328581333,-0.04970277306288481,0.017365206910960843
1733359022654517200,8.442517333984375,0.12013386137783527,-0.07420015852488578,0.019565091575414407
1733359022664482000,8.45248193359375,0.10532499930262565,-0.09238558436110615,0.02362104786875425
1733359022674448100,8.4624482421875,0.06958674644529819,-0.09595160627961158,0.02196779391914606
1733359022684413200,8.4724130859375,0.026389994275569914,-0.08523169401846825,0.028518014713632873
1733359022694379000,8.48237890625,-0.02109597952067852,-0.04580693466812372,0.037021280688478146
1733359022704344300,8.49234423828125,-0.028166940820217132,-0.020283421028777955,0.021751963777956553
1733359022714310100,8.50231005859375,-0.03943827641904354,0.02000935332775116,0.024268771187763195
1733359022724275200,8.512275146484376,-0.014682020825147628,0.05509009212441742,0.019346953029418364
1733359022734241300,8.5222412109375,0.015264789149165153,0.07341068864762783,0.0396469689999707
1733359022744206600,8.53220654296875,0.06463818412721156,0.0963196358744055,0.05851636764551513
1733359022754173000,8.5421728515625,0.11595803699791431,0.05127930166460573,0.0957526131087914
1733359022764137700,8.5521376953125,0.12751403475701809,0.007365268070995807,0.08833732275045476
1733359022774103600,8.562103515625,0.09314005599021911,-0.028698344283178447,0.043535642435005864
1733359022784068600,8.572068603515625,0.05067103357315063,-0.05056187411025166,0.007035514955999678
1733359022794034700,8.58203466796875,0.01792962444424629,-0.073636021836102,-0.03268393190418137
1733359022803999700,8.591999755859375,0.008242927688360213,-0.09877236278876661,-0.05702200546849053
1733359022813965800,8.6019658203125,0.010098200166225433,-0.09612287119328976,-0.08421308242729865
1733359022823931600,8.611931640625,0.04071311866044998,-0.11995061376541852,-0.1031996320459526
1733359022833896700,8.621896728515624,0.0638742140173912,-0.10662526824623346,-0.10051492300662211
1733359022843862800,8.63186279296875,0.1119014550834894,-0.07409202197529376,-0.08446211615176871
1733359022853827800,8.641827880859376,0.1430675777196884,-0.04724858484379947,-0.07944149324446916
1733359022863793700,8.651793701171876,0.1391109490483999,-0.02200330362394452,-0.07016228131093084
1733359022873758700,8.6617587890625,0.12143208449482917,-0.0021146540664136407,-0.05912551708638202
1733359022883724800,8.671724853515625,0.07114741989076137,0.0010102730210870504,-0.03541865638098679
1733359022893689600,8.681689697265625,0.05870587146878242,0.019244944826513528,-0.015644353918125853
1733359022903655700,8.69165576171875,0.028716975918412206,0.029767580949887632,0.010895527981308988
1733359022913620700,8.701620849609375,0.019629998621344565,0.05331475301496684,0.04614399373591877
1733359022923586600,8.711586669921875,0.04176818067133426,0.046060763298720116,0.05091616287406068
1733359022933551900,8.7215517578125,0.037979309782385826,0.023920608487352727,0.053507426042854786
1733359022943517700,8.731517578125,0.028800562548637387,-0.02451996261999011,0.07309480023202486
1733359022953482800,8.741482666015624,-0.006553074905276298,-0.058257616244629024,0.07732604459361173
1733359022963448800,8.75144873046875,-0.025170097091794012,-0.05751761153228581,0.09302837577667086
1733359022973413600,8.76141357421875,-0.01673018552660942,-0.015967457525804637,0.09889115772969088
1733359022983379700,8.771379638671876,0.005292261189222335,0.0071964873753488055,0.07486261362214572
1733359022993344800,8.7813447265625,0.06800269212424755,-0.03176101978942752,-0.0033671389163617274
1733359023003310600,8.791310546875,0.11173837347626686,-0.11409823447540401,-0.06002464418346062
1733359023013275600,8.801275634765625,0.11942074467241763,-0.1644914740204811,-0.08636526462566108
1733359023023241700,8.81124169921875,0.09837386499047279,-0.14651421104222534,-0.08468728494346141
1733359023033206800,8.821206787109375,0.08499006728231906,-0.11281228631809354,-0.058472291041770943
1733359023043172600,8.831172607421875,0.06524725593626499,-0.07444010476060212,-0.039965451231459156
1733359023053137700,8.8411376953125,0.0449777903676033,-0.05874466910921037,-0.01040609478832921
1733359023063103700,8.851103759765625,0.005901332998275757,-0.04679499585740268,-0.0021856072606402446
1733359023073068500,8.861068603515625,0.013366846573352813,-0.015437150041386485,0.009152142354613169
1733359023083035000,8.871034912109375,0.04161445141434669,0.04167991786599159,0.001241487390254042
1733359023092999700,8.880999755859374,0.10096388148367404,0.08823949753232299,0.009497674135697888
1733359023102965500,8.890965576171874,0.10193594138622283,0.12345175375416874,0.03823215659887064
1733359023112930800,8.900930908203126,0.12469663924872874,0.12585377339459955,0.07215177919429261
1733359023122896600,8.910896728515626,0.11191022291183471,0.08713869668357074,0.06509814348889048
1733359023132861700,8.92086181640625,0.07135901681482791,0.0400773049749434,0.06285399955760222
1733359023142827800,8.930827880859376,0.05051788883805275,-0.009442439671233295,0.024250817689253017
1733359023152792600,8.94079248046875,0.04330605776309967,-0.05923961301930249,-0.010593065302859759
1733359023162758700,8.950758544921875,0.043458617976307866,-0.09035385933779179,-0.03490314460690133
1733359023172723700,8.9607236328125,0.030334932509064674,-0.11229381540194153,-0.05342337362174876
1733359023182689800,8.970689697265625,0.023723405414819716,-0.11282025042884052,-0.05262768863283563
1733359023192654600,8.980654541015625,-0.025949849292635916,-0.07953888920433819,-0.04628975888215937
1733359023202620700,8.99062060546875,-0.01933306150138378,-0.04109568823724985,-0.0006552490383386611
1733359023212585700,9.000585693359374,0.016025836649537085,-0.02893397966995835,0.014793135924759553
1733359023222551600,9.010551513671874,0.05823766943514347,-0.026061419908329844,0.019003722232452128
1733359023232516900,9.020516845703124,0.07499182035923004,-0.039324586911499496,0.00861755027907784
1733359023242482700,9.030482666015626,0.10850655194818973,-0.04018799880780279,0.013309507487592053
1733359023252447500,9.040447509765626,0.10550503204464912,-0.025893954386934637,0.020273819800082128
1733359023262413800,9.050413818359376,0.08126198666989803,-0.00867576614767313,0.03483744982639327
1733359023272378600,9.060378662109375,0.06417758087813853,-0.013973361099138855,0.0318346170318895
1733359023282344700,9.0703447265625,0.04152209695577621,0.007529007265344262,0.021130404663376973
1733359023292310800,9.080310791015625,0.02315583465993404,-0.0004180792815983295,0.021600401361880357
1733359023302275600,9.090275634765625,0.025265958681702613,-0.013085399283468722,0.031015304572216698
1733359023312242000,9.100241943359375,0.04848667527139187,-0.004463774475827813,0.04369486071786377
1733359023322206700,9.110206787109375,0.07863222268819808,-0.003704042149707675,0.06722789922631345
1733359023332172500,9.120172607421875,0.09551730651557445,-0.007669292518869042,0.06265905694081447
1733359023342137900,9.130137939453125,0.06276888312399387,-0.006828896171972155,0.07398916438901797
1733359023352103700,9.140103759765625,0.04154664687514305,0.0020499913323670624,0.09739522921666502
1733359023362068700,9.15006884765625,0.02868774982392788,0.021986060228198764,0.09489089084607548
1733359023372034800,9.160034912109374,-0.00952361514866352,0.03487827502712607,0.06874778400366194
1733359023381999600,9.16999951171875,-0.028235914403200148,0.07117496548481285,0.07485336173661053
1733359023391965700,9.179965576171876,-0.028328853383660316,0.10615604329928754,0.06686175106135196
1733359023401930800,9.1899306640625,-0.05080956526100635,0.09349880630001425,0.047699082257389086
1733359023411896800,9.199896728515625,-0.0073357497155666345,0.05183423213362694,0.04742332035619765
1733359023421861600,9.209861572265625,0.039003976655006406,-0.015485519227758048,-0.0007610383672174066
1733359023431827700,9.21982763671875,0.0547375523597002,-0.0607235679667443,-0.040873428355273786
1733359023441792800,9.229792724609375,0.028044191223382947,-0.09614471769891679,-0.08009626735877245
1733359023451758600,9.239758544921875,0.026247370934486387,-0.08525507489405572,-0.10152402698392979
1733359023461724000,9.249723876953125,0.00952536871433258,-0.06962379052005707,-0.12429218663368373
1733359023471689700,9.259689697265625,-0.005109305837750435,-0.06827749047763645,-0.11998320086076855
1733359023481654500,9.269654541015624,0.025423195070028305,-0.0468086590565741,-0.08743506754795088
1733359023491620900,9.279620849609374,0.09424363331794738,-0.03768880240321159,-0.03589964483096264
1733359023501585700,9.289585693359374,0.15215923119187355,-0.04560724737755954,-0.013292151069059037
1733359023511551700,9.2995517578125,0.20115677859485148,-0.06527757800929249,-0.0059667263846844435
1733359023521516800,9.309516845703126,0.16833528996706007,-0.08180398459210991,-0.0025228695411235093
1733359023531482600,9.319482666015626,0.14752747973799704,-0.08945106527917086,-0.027726622307347133
1733359023541447700,9.32944775390625,0.08081073577105999,-0.10545344798788428,-0.04147985611609183
1733359023551413800,9.339413818359375,0.018601824617385864,-0.11294139259047806,-0.052276938966405576
1733359023561378800,9.34937890625,-0.022188450932502744,-0.07663162345550954,-0.03194745943935122
1733359023571344600,9.3593447265625,-0.043641573327779765,-0.0006831599585711955,0.00039855944708688183
1733359023581309700,9.369309814453125,-0.02694529007077217,0.08629610837958752,0.03665095638860948
1733359023591275800,9.37927587890625,0.03475099538564682,0.1335751614268869,0.05060598724661395
1733359023601240600,9.389240478515624,0.10119535215198994,0.12944682945050298,0.07685412536608055
1733359023611206700,9.39920654296875,0.1677636275589466,0.08407039515413343,0.05828499744189903
1733359023621171700,9.409171630859374,0.15468962645232676,0.018775208422914146,0.03456778202255955
1733359023631137500,9.419137451171874,0.10645371107161045,-0.07111154485978186,0.023797833774343597
1733359023641102800,9.429102783203126,0.05288987866640091,-0.11083499489575624,0.02198661050075898
1733359023651068700,9.439068603515626,-0.01963058314323425,-0.10670330191850662,0.007939850805269088
1733359023661033700,9.44903369140625,-0.07672200515270233,-0.10047909364141523,-0.0014642113506444729
1733359023670999800,9.458999755859375,-0.10105389785468578,-0.0832120978243649,0.002355209940194618
1733359023680964600,9.468964599609375,-0.07664718635082245,-0.04968289931863546,0.006789774304558523
1733359023690930700,9.4789306640625,-0.01652501834332943,-0.02438055414929986,-0.004525078492297325
1733359023700895700,9.488895751953125,0.034138416445255275,-0.028122078765183686,-0.0049405319919693285
1733359023710861600,9.498861572265625,0.0960036287277937,-0.043785146516934034,0.008040347471099812
1733359023720826600,9.50882666015625,0.12196341489255427,-0.017915595918893815,0.00040485675713280213
1733359023730792700,9.518792724609375,0.10663491285741329,0.012779986596107483,0.006510534954781178
1733359023740758000,9.528758056640624,0.06958733096718787,0.05624627642221749,0.03472800266912673
1733359023750723800,9.538723876953124,0.06112637661397457,0.09097133364900946,0.049109766472643236
1733359023760689000,9.54868896484375,0.04745733222365379,0.040582331887632606,0.04466428570533171
1733359023770655000,9.558655029296874,0.03874211084842682,-0.021176935802400113,0.00016215116710518486
1733359023780619800,9.568619873046876,0.03629237960875034,-0.07558927479572594,-0.05294224817445502
1733359023790586000,9.578586181640626,0.04339256700277328,-0.08216543831564485,-0.05957284072877373
1733359023800551000,9.588551025390625,0.09705109195411205,-0.04117605999708175,-0.05982947780438699
1733359023810516700,9.598516845703125,0.13532558529078959,-0.02139773894622922,-0.03510366758110467
1733359023820483000,9.608483154296875,0.15373568672835827,-0.023360051995143294,-0.040030977048608474
1733359023830447900,9.61844775390625,0.10539806453883648,-0.06774528329707681,-0.03864603006280958
1733359023840414000,9.6284140625,0.03982464538812637,-0.09123400317318738,-0.012266730711190029
1733359023850379000,9.63837890625,0.013752046498656273,-0.10018106054291129,-0.02619272955424385
1733359023860344800,9.6483447265625,-0.028482582640647885,-0.12289148952290416,-0.055664279849757435
1733359023870310000,9.658309814453125,-0.05790683004558086,-0.10106566135771572,-0.03222522378467256
1733359023880276000,9.66827587890625,-0.0402893402904272,-0.04830423137657344,0.031336008443543686
1733359023890241000,9.678240966796874,0.008528758892416954,0.024285496276989577,0.11916040410264395
1733359023900207000,9.68820703125,0.03647591948211193,0.09840126445405184,0.20773655884396283
1733359023910172000,9.698171875,0.07786416092514992,0.1523958894919604,0.25808257998013867
1733359023920138000,9.708137939453126,0.0972884078413248,0.09476064292937517,0.24890034388136117
1733359023930103000,9.71810302734375,0.07725450459420681,0.04282945322729647,0.216639338680543
1733359023940068900,9.72806884765625,0.08525660926401615,-0.01259337798282504,0.1386392581497319
1733359023950034000,9.738033935546875,0.08574059338867664,-0.04076828291378915,0.036777546476921996
1733359023960000000,9.748,0.02991290770471096,-0.036507337533682585,-0.07602334623089992
1733359023969965000,9.757965087890625,-0.0391699808716774,-0.029514263775944707,-0.15428097258619963
1733359023979931000,9.767930908203125,-0.07293664139509201,0.00590250204205513,-0.18946129929982125
1733359023989896000,9.77789599609375,-0.053473816034197805,0.009088365536555648,-0.20744402390448374
1733359023999862000,9.787862060546875,-0.008183890977501869,0.019430311330780384,-0.18416516565307975
1733359024009826800,9.797826904296874,0.10022855294644832,0.014889453030750155,-0.13945230069882236
1733359024019793200,9.807793212890624,0.1739776797682047,-0.020493118256703018,-0.08767943423045799
1733359024029758000,9.817758056640624,0.18852876769006252,-0.03545359069705009,-0.027041437071759718
1733359024039723800,9.827723876953126,0.1717027205735445,-0.03737286832183599,0.0231493044544477
1733359024049689000,9.837689208984376,0.14411211833655832,-0.04566913363263011,0.05406611937154084
1733359024059655000,9.847655029296876,0.07770926262438296,-0.046143765407055615,0.07836681321766227
1733359024069620000,9.857619873046875,0.01814882015287876,-0.03204049431793392,0.0777209530621767
1733359024079586000,9.8675859375,-0.0037257425248622893,-0.03389605905674398,0.06368438596713821
1733359024089550800,9.87755078125,0.0019359364986419676,-0.03398198377452791,0.05110222806464881
1733359024099517000,9.887516845703125,0.05370002600550651,-0.04436287333965301,-0.015868390198657288
1733359024109482000,9.89748193359375,0.05280863012373447,-0.09589045067690312,-0.06728748392644338
1733359024119448000,9.907447998046875,0.07870002722740173,-0.11207863828130066,-0.06945317406035029
1733359024129412900,9.917412841796875,0.11106266617178916,-0.10839885379001497,-0.04572747622374445
1733359024139379000,9.92737890625,0.11443828008472919,-0.07846716831959784,0.009258594978839392
1733359024149344000,9.937343994140624,0.10887596978247165,-0.06910188553780316,0.04482748604356311
1733359024159309800,9.947309814453124,0.11815642382502556,-0.052817836343497036,0.023917649345286188
1733359024169275100,9.957275146484376,0.08046528333425522,-0.03232588713057339,-0.0023452747805364194
1733359024179241000,9.967240966796876,0.029871406650543213,-0.027243980756402015,-0.01425350691450294
1733359024189205800,9.977205810546875,0.017408230918645858,-0.035988282095640894,-0.010681929754756856
1733359024199172000,9.987172119140626,0.03786883514523506,-0.027104864546656608,-0.004473372850412852
1733359024209137000,9.997136962890625,0.04562602514326572,-0.047548079247027634,-0.012531311347952578
1733359024219103000,10.00710302734375,0.061220484638214105,-0.058624549860879775,-0.04072686405801214
1733359024229068000,10.017068115234375,0.09272855257987976,-0.05865151093304157,-0.06958922153017483
1733359024239033900,10.027033935546875,0.09523147531151771,-0.05067264100834727,-0.07010548678950872
1733359024248999000,10.0369990234375,0.11272855355739593,-0.03864164614863694,-0.06692324002420064
1733359024258965000,10.046965087890625,0.09688450321555137,-0.029719430959224698,-0.03771533878368791
1733359024268930000,10.056929931640624,0.0917939020782709,-0.005654153304174542,-0.03142196969394572
1733359024278895900,10.066895751953124,0.07516074718534946,0.029369083151593804,-0.010587927903438685
1733359024288861000,10.07686083984375,0.11137129372954369,0.040090675913169976,0.00019540869307966205
1733359024298827000,10.086826904296874,0.094330142557621,0.01590907840207219,-0.009428751926709082
1733359024308791800,10.096791748046876,0.07533259662091732,-0.018352379900962112,-0.024550914880679918
1733359024318758000,10.1067578125,0.06361760890781878,-0.01983560419604182,-0.030993476332898715
1733359024328723000,10.116722900390625,0.05573474670350551,-0.007161123801022767,-0.0039640359450204415
1733359024338688800,10.126688720703125,0.07647650595903396,0.003055515113100409,-0.00013054246093379332
1733359024348654000,10.136654052734375,0.07960369806885718,0.031929800485074517,0.007732108072412666
1733359024358620000,10.146619873046875,0.11798515891134738,0.027996844950318334,0.03271922012998257
1733359024368585000,10.1565849609375,0.12266191855072975,-0.016901377375051378,0.03087741905504372
1733359024378551000,10.166551025390625,0.1268728142440319,-0.05640548557192087,0.030273694707965478
1733359024388515800,10.176515869140625,0.10939853235185146,-0.08240859942175448,0.020199964546004773
1733359024398482000,10.18648193359375,0.06711480337381362,-0.10720080311186611,0.012155466056172735
1733359024408447000,10.196447021484374,0.024185762229561803,-0.08068477130383253,0.03209634355786256
1733359024418412800,10.206412841796874,0.02800970443189144,-0.06477708114124835,0.0660656368141761
1733359024428379100,10.216379150390624,0.044187516772747036,-0.02866663397066295,0.05821413329592905
1733359024438344000,10.226343994140626,0.05791910500526428,-0.006302534210309386,0.06502400510702282
1733359024448310000,10.23631005859375,0.10481997238993644,0.01696465186960995,0.0754268599087838
1733359024458274800,10.24627490234375,0.12311083136200904,0.001725947009772062,0.06546842440627515
1733359024468241000,10.256240966796875,0.09739946700036525,-0.037840778094530104,0.03604841250175377
1733359024478206000,10.2662060546875,0.026953473377227782,-0.10250256229303777,0.029205127044825346
1733359024488172000,10.276172119140625,-0.003799392282962799,-0.13883242436796425,-0.0032386622608173636
1733359024498137000,10.28613720703125,-0.04017594304382801,-0.1103445810303092,-0.030742090821138116
1733359024508103000,10.29610302734375,-0.03219897281527519,-0.03916238208711147,-0.04103615833604708
1733359024518067700,10.306067626953125,-0.015083587363362311,0.013221373688057064,-0.03003552715409314
1733359024528034000,10.316033935546875,0.04257774348855018,0.08360533492565154,-0.01906228173598647
1733359024537998800,10.325998779296874,0.09116320295929908,0.1074390688471496,-0.012988971437979488
1733359024547965000,10.33596484375,0.1494511412769556,0.07973185449317097,-0.032857719851797446
1733359024557930000,10.345929931640624,0.10652385369837283,0.027159809604287145,-0.0449170868560439
1733359024567895800,10.355895751953126,0.017084405791759488,-0.019343217569217086,-0.05122589097693562
1733359024577860900,10.36586083984375,-0.014634674552083015,-0.01642564962208271,-0.036892660756572146
1733359024587827000,10.375826904296876,-0.023802315869927405,0.020075915757939218,-0.016622998825088144
1733359024597792000,10.3857919921875,-0.011415712505578993,0.009026990738138556,0.028253952383389694
1733359024607758000,10.395758056640625,0.002391279050707817,-0.016072671465948225,0.06261726819227915
1733359024617723000,10.405722900390625,-0.0022679449319839475,-0.02974967996701598,0.09054377415301278
1733359024627689000,10.41568896484375,0.030556466305255887,-0.04518653774745762,0.07670793096157721
1733359024637653800,10.42565380859375,0.05262216764092445,-0.07543890653960407,0.023980727477022446
1733359024647619800,10.435619873046875,0.06164309396445751,-0.08746887848600744,-0.046162369642825794
1733359024657585000,10.4455849609375,0.06803659439384938,-0.07220518531538546,-0.07908999465936795
1733359024667551000,10.455551025390625,0.07823182519376277,-0.0171378164794296,-0.04010515196309425
1733359024677516000,10.46551611328125,0.13397124807238578,0.0029344460166990756,0.0038793530508410183
1733359024687481900,10.47548193359375,0.16753157236874103,-0.015902137204632162,0.04500810330747627
1733359024697447200,10.485447265625,0.17672902430295942,-0.06134213825650513,0.05797404092974029
1733359024707413000,10.4954130859375,0.17148995460569857,-0.12276873992606997,0.041976928051188585
1733359024717377800,10.505377685546875,0.10438391906023024,-0.15453480121679602,-0.004029483844945207
1733359024727344000,10.51534423828125,0.053773091241717336,-0.1219393033646047,-0.042204480596212665
1733359024737309000,10.525308837890625,0.014978373423218725,-0.0907448314167559,-0.06680286961412057
1733359024747274800,10.535274658203125,-0.023226561808586118,-0.060368982375413174,-0.0698752353973221
1733359024757239800,10.54523974609375,-0.01196750116944313,-0.018312047890573738,-0.07335066555608064
1733359024767206000,10.555205810546875,0.019311434191465377,-0.004828589200228452,-0.042318453231547024
1733359024777171000,10.5651708984375,0.05252455248534679,0.001756999735161662,-0.01711974196662195
1733359024787136800,10.57513671875,0.061489364707469935,0.018585969461128116,0.03495705305149313
1733359024797102000,10.58510205078125,0.07584054614305495,0.04092603075876832,0.06486333921917248
1733359024807068000,10.59506787109375,0.07569850732386112,0.04927358786538243,0.0584008286741795
1733359024817032700,10.60503271484375,0.06854337487220764,0.06520429357737302,0.02698153499451
1733359024826999000,10.6149990234375,0.04957388598620891,0.06504829929806291,0.011319576921034604
1733359024836963800,10.6249638671875,0.025349545311927794,0.04167955253981054,-0.03462846498452127
1733359024846929700,10.6349296875,-0.024651041653752325,0.02283164420686662,-0.03027762196441181
1733359024856895000,10.64489501953125,-0.026506898653507232,0.020457681617140767,-0.0037957116216886786
1733359024866860800,10.65486083984375,-0.014572715231776237,-0.026163711239024997,0.007245094023738056
1733359024876825900,10.664825927734375,-0.0051315176695585244,-0.056652373005077236,0.0179534711107146
1733359024886792000,10.6747919921875,0.0027332243561744686,-0.05695332871302962,-0.005927572551229969
1733359024896757000,10.684757080078125,0.033542788639664645,-0.055172436645627015,0.00959047897295095
1733359024906722800,10.694722900390625,0.06856850931346416,-0.0561821982100606,0.0038949890113901347
1733359024916688000,10.70468798828125,0.07814940760731696,-0.06235306886471807,-0.008488573012501001
1733359024926654000,10.714654052734375,0.0840647691309452,-0.07811616292484104,-0.009662457363773136
1733359024936618800,10.72461865234375,0.11403028380572795,-0.10067812334485352,-0.00520152329900302
1733359024946584800,10.734584716796874,0.11286240907013416,-0.1116894197680056,0.009822397165838628
1733359024956550000,10.7445498046875,0.08665829275548458,-0.08007679547332226,0.036085678055509926
1733359024966515700,10.754515625,0.08240414244234562,-0.05296469746828079,0.034472571169910954
1733359024976481000,10.76448095703125,0.08160860815048217,-0.038276904489472505,0.04666486667171121
1733359024986446800,10.77444677734375,0.061864043238759034,0.0022119769610464573,0.06264644405441358
1733359024996412000,10.784411865234375,0.036543139499425885,0.07144004616178572,0.07879290227578022
1733359025006378000,10.7943779296875,0.02328793660700321,0.07111483279541135,0.042782883272366595
1733359025016342800,10.8043427734375,-0.004639350238442421,0.0534150715842843,-0.017321502483263612
1733359025026308900,10.814308837890625,0.004641688326001167,0.04446414175704121,-0.047878644641954446
1733359025036274000,10.82427392578125,0.025886720928549763,0.038192952533066274,-0.043911357579333704
1733359025046239700,10.83423974609375,-0.0073667293757200235,0.004793883213028312,-0.024136982051236554
1733359025056204800,10.844204833984374,-0.012056933018565178,0.004633651150017976,0.003916351459827274
1733359025066171000,10.8541708984375,-0.004622983625531196,-0.07530453957021235,0.04910971167371608
1733359025076136700,10.86413671875,-0.055009939560294145,-0.09801467628926039,0.11727680971259251
1733359025086101800,10.874101806640626,-0.03098375180661678,-0.038977965430915355,0.14910739674004725
1733359025096067000,10.884067138671876,0.03882102130353451,0.043226635851338506,0.17118565616318954
1733359025106033000,10.894032958984376,0.10494272198677063,0.08929996637068688,0.1663115290544927
1733359025115998700,10.903998779296876,0.1124246021747589,0.08474157241396606,0.08633031204328871
1733359025125964000,10.913964111328125,0.1069739355534315,0.03628887247741222,-0.01646251103375107
1733359025135929900,10.923929931640625,0.08487667003571987,-0.013992577256262302,-0.07631178038399666
1733359025145894700,10.933894775390625,0.1063075805991888,-0.03374861341007054,-0.11988474545497446
1733359025155861000,10.943861083984375,0.13592764283716677,-0.0564104540079832,-0.138571709338855
1733359025165825800,10.95382568359375,0.15778174724876878,-0.06055661390200257,-0.14135571403419597
1733359025175791900,10.9637919921875,0.13714578645527362,-0.06016556875780225,-0.13829530355026945
1733359025185757000,10.9737568359375,0.1143985325962305,-0.08645071441940963,-0.10223947264375165
1733359025195722800,10.98372265625,0.12474398552179336,-0.06973097722157835,-0.0690140063249506
1733359025205687800,10.993687744140624,0.1397866563528776,-0.05429550768062472,-0.04190126899909228
1733359025215654000,11.00365380859375,0.14012158739566802,-0.05941854978278279,-0.033570242902170866
1733359025225619000,11.013618896484376,0.10779226619899272,-0.04936535780206323,-0.015945921547431498
1733359025235585000,11.0235849609375,0.06071662676930427,-0.05151091846339404,-0.0009547617078758775
1733359025245549800,11.0335498046875,0.05003332019150257,-0.06891863792538643,0.0029460177234839646
1733359025255516000,11.043515869140625,0.020226795470714567,-0.055549745525419705,-0.01667211693013087
1733359025265480700,11.053480712890625,-0.025357728618383406,-0.012599661593139171,-0.03835030765240081
1733359025275446800,11.06344677734375,-0.054098669934272765,0.06169518947787583,-0.0681156235799659
1733359025285411800,11.073411865234375,0.004189852905273437,0.12133081607744096,-0.08263101913393475
1733359025295378000,11.0833779296875,0.07671499089002609,0.09284260741360485,-0.0984434961605817
1733359025305343000,11.093343017578125,0.07004501160681248,0.04761157293729484,-0.06715275163087062
1733359025315308800,11.103308837890625,-0.03262859640419483,-0.009175532363355159,-0.033787675911979745
1733359025325273900,11.11327392578125,-0.0820130972981453,-0.03323269977718592,0.05125361923407763
1733359025335240000,11.123239990234374,-0.14136778806447983,0.009730755093321204,0.1669858481194824
1733359025345204700,11.133204833984376,-0.22945699040591716,0.11901530567668378,0.2806904436348006
1733359025355171000,11.143171142578124,-0.17390812166333197,0.2407872896503657,0.41143348690830167
1733359025365136000,11.153135986328126,-0.016002455773949622,0.30584537969008085,0.45621991942226886
1733359025375101700,11.163101806640626,0.19994623376131057,0.29526509509533644,0.450292209873721
1733359025385066800,11.173066650390625,0.29624212343394757,0.239850958648324,0.42466103460881854
1733359025395032800,11.18303271484375,0.28033611377179624,0.18387962670996785,0.37609716591536996
1733359025404998000,11.192997802734375,0.1673410182327032,0.17780585975423455,0.3138777699002996
1733359025414964000,11.2029638671875,0.06362228508293628,0.2231831708334386,0.27145295195113867
1733359025424929000,11.212928955078125,0.0012888707667589186,0.30390169827640057,0.24498991070566697
1733359025434894800,11.222894775390625,-0.052154550129175185,0.36541780486032366,0.24683469832213595
1733359025444860000,11.23285986328125,-0.17872458203434943,0.4120135518185794,0.23175763203110544
1733359025454826000,11.242825927734375,-0.32001755129694937,0.47121918950304387,0.22386454069372266
1733359025464790800,11.252790771484374,-0.4327501965075731,0.5261775450065732,0.25408611248880625
1733359025474756900,11.2627568359375,-0.42158465937078,0.581383883921802,0.36737259218990803
1733359025484722000,11.272721923828126,-0.27085809133052824,0.6746509272925555,0.5135461365683004
1733359025494687700,11.282687744140626,-0.15143208596110344,0.6891282193258405,0.6106245914533734
1733359025504653000,11.292653076171876,-0.12625263651907442,0.6218713771328329,0.7084371692992747
1733359025514619000,11.302618896484375,-0.04894844756424427,0.49071986265629525,0.831032744615525
1733359025524584000,11.312583984375,0.04983692083656788,0.2644802268616855,0.8258017851594835
1733359025534550000,11.322550048828125,0.12554185790121555,0.08573197169080377,0.662038698478788
1733359025544514800,11.332514892578125,0.17297697829306125,-0.028236206664144992,0.39680677646696566
1733359025554481000,11.34248095703125,0.1631020654886961,-0.10126812512725591,0.1302381990239024
1733359025564446000,11.352446044921875,0.12778525291383266,-0.11134002180844545,-0.13126739594116807
1733359025574411800,11.362411865234375,0.12041735449433326,-0.1453296774327755,-0.335960751164332
1733359025584376800,11.372376953125,0.10374620567858218,-0.20811010486409068,-0.48670098240375514
1733359025594343000,11.382343017578124,0.13286299456954,-0.3179134186245501,-0.6357046721741557
1733359025604308000,11.392307861328124,0.2509486912459135,-0.49436771763935683,-0.732378089922294
1733359025614273800,11.402273681640626,0.4538911842137575,-0.7288141868956387,-0.8288168951969593
1733359025624238800,11.41223876953125,0.7022188793063163,-1.032390452609956,-0.9652419661622494
1733359025634205000,11.422204833984376,0.7971323747098445,-1.2975440486885605,-1.193110079941526
1733359025644169700,11.432169677734375,0.7381196292489767,-1.3437107565797866,-1.3739743774183093
1733359025654136000,11.442135986328125,0.5573690943449735,-1.184722702281177,-1.2393904042750596
1733359025664100900,11.452100830078125,0.2842535794764757,-0.9953178824089467,-1.0614517119213938
1733359025674066700,11.462066650390625,0.045719548645615574,-0.7595872185610234,-0.9760862354554235
1733359025684032000,11.472031982421875,-0.04235445612668991,-0.49144890758320686,-0.8058318870592862
1733359025693997800,11.481997802734375,-0.06667758100032806,-0.2313056870125234,-0.5772854356270283
1733359025703963000,11.491962890625,0.0496527964413166,-0.05408318010419607,-0.346363779496029
1733359025713929000,11.501928955078125,0.23689152432084082,0.04786269815415144,-0.058397390041500324
1733359025723893800,11.511893798828124,0.36669571584165095,0.10451280613690614,0.27144012900218367
1733359025733859800,11.52185986328125,0.42342005810439587,0.089808427349478,0.48961475095860657
1733359025743824400,11.531824462890626,0.4585059845328331,0.04368248986005783,0.5461942048579455
1733359025753790700,11.541790771484376,0.3645142801493406,-0.007838438540697098,0.5129927039366216
1733359025763755500,11.551755615234375,0.20417758772075176,-0.02781535090357065,0.41530017227381466
1733359025773721300,11.561721435546875,0.02954816604554653,-0.033267917221039535,0.2614646053675562
1733359025783686700,11.571686767578125,-0.093009707608819,-0.02169452993571758,0.13201850656941533
1733359025793652500,11.581652587890625,-0.1606318759828806,-0.002718319047987461,0.0314098682641983
1733359025803617500,11.591617431640625,-0.15262567965984344,0.011655512610822915,-0.031959684166684744
1733359025813583600,11.60158349609375,0.01680909598171711,-0.014181962348520755,-0.0926613325625658
1733359025823548700,11.611548583984375,0.18110124803781508,-0.07612038599774242,-0.1341577105551958
1733359025833514500,11.621514404296875,0.28042145396769047,-0.15949410412460566,-0.15078553168587386
1733359025843479600,11.6314794921875,0.29128362424373627,-0.21650822311416268,-0.1291863518834114
1733359025853445600,11.641445556640624,0.18510873011350631,-0.23424992377087472,-0.08383147183172404
1733359025863410400,11.651410400390626,0.04521861338615417,-0.23612857712432742,-0.09996858683601022
1733359025873376500,11.66137646484375,-0.006146247670054435,-0.2156821475535631,-0.15694054718427358
1733359025883341600,11.671341552734376,0.013422960674762724,-0.161898388787359,-0.22552615376301108
1733359025893307600,11.6813076171875,0.004371054691076279,-0.13415464181527495,-0.30200331730917096
1733359025903272700,11.691272705078125,0.007006079369783401,-0.1026836910136044,-0.37760099460706115
1733359025913238500,11.701238525390625,-0.017062778481841085,-0.09858692321926354,-0.38651444196812806
1733359025923203600,11.71120361328125,-0.06129705700576305,-0.11205971438512205,-0.3266111774083227
1733359025933169700,11.721169677734375,-0.08561959735751151,-0.09764993463009596,-0.252891057485342
1733359025943134500,11.731134521484375,-0.09980126744508742,-0.041583325623720885,-0.16156996055059133
1733359025953100800,11.741100830078125,-0.09619710547327995,0.008913958817720412,-0.04824570612236857
1733359025963065600,11.751065673828125,-0.07884148152470588,0.1024015130713582,0.14638525090031326
1733359025973031400,11.761031494140624,-0.06508242076337337,0.1898180768482387,0.35787374615631995
1733359025982996500,11.77099658203125,-0.12303250542879104,0.26697306659072634,0.5835109590783715
1733359025992962600,11.780962646484374,-0.12450023989379405,0.3690624449729919,0.8525394238289445
1733359026002927600,11.790927734375,-0.08495850310027599,0.47417146343737837,1.0651109650813042
1733359026012893700,11.800893798828126,-0.05585340464711189,0.5204021764755249,1.165947201597318
1733359026022858500,11.8108583984375,0.012780571117997169,0.4535295112945139,1.0762366085991262
1733359026032824600,11.820824462890625,0.10278875882327557,0.3877880421005189,0.8793871718093752
1733359026042789400,11.830789306640625,0.1505453662544489,0.3619434067480266,0.6458976379517466
1733359026052755700,11.840755615234375,0.1604559348940849,0.3479940841116011,0.4196512070901692
1733359026062720500,11.850720458984375,0.20494857209324835,0.31947292302623387,0.21792656547948716
1733359026072686600,11.8606865234375,0.18524083206057548,0.2646957693085074,0.06345883814953267
1733359026082651600,11.870651611328125,0.14775836588442326,0.1779568125322461,-0.018001885962858795
1733359026092617500,11.880617431640625,0.10532441478073597,0.09836232068315148,-0.10342932174913584
1733359026102582500,11.89058251953125,0.08969956014752388,0.009967705654352902,-0.28364509218931194
1733359026112548600,11.900548583984374,0.10258476068377494,-0.10092384173423051,-0.5286494880780578
1733359026122513400,11.910513427734376,0.06357727689743041,-0.20860811751410363,-0.7711161821827291
1733359026132479700,11.920479736328126,0.007917348995804787,-0.30241189811006186,-0.9328835650015622
1733359026142444500,11.930444580078126,-0.05277297428846359,-0.34568010808080435,-0.9311758843008429
1733359026152410600,11.94041064453125,-0.09698270289301872,-0.3213300952002406,-0.7806660277511924
1733359026162375700,11.950375732421875,-0.10718085630238056,-0.26188275771439073,-0.5459471712943166
1733359026172341500,11.960341552734375,-0.03433656936585903,-0.19178791561648248,-0.3250456816572696
1733359026182306600,11.970306640625,0.12320903103947639,-0.13081848312988875,-0.12417466120123863
1733359026192272600,11.980272705078125,0.18421265805661677,-0.10860606679990888,0.0013286182552576064
1733359026202237700,11.99023779296875,0.12785948719382284,-0.11771467140689491,0.08424801674336195
1733359026212203500,12.00020361328125,0.07304185533523559,-0.16677403199970722,0.12334858564063907
1733359026222168600,12.01016845703125,0.02104629516005516,-0.22590148988142608,0.10858882340416312
1733359026232134700,12.020134765625,-0.08623626795113086,-0.31580665560364723,0.031140805531851945
1733359026242099500,12.030099365234374,-0.16299802059233187,-0.3831352478586137,-0.06260152720045298
1733359026252065500,12.0400654296875,-0.06827449480295181,-0.34481764603257176,-0.01637947239279747
1733359026262030600,12.050030517578126,-0.005779752445220947,-0.210746590847522,0.06320212344210595
1733359026271996400,12.059996337890626,-0.015576339316368102,-0.11801716148480772,0.05602887081187218
1733359026281961700,12.069961669921875,0.006627893707156181,-0.060705520853400224,0.06881031871270388
1733359026291927600,12.079927490234375,0.03935819692015648,-0.022462737829238175,0.03003017740882933
1733359026301892600,12.089892578125,0.04477262318432331,0.0020968261487782,-0.0020976663989946244
1733359026311858700,12.099858642578125,0.12193886497318744,0.039672377435863014,-0.002059891671873629
