time,seconds_elapsed,z,y,x
1733704725534400300,0.026400146484375,-0.04288361221551895,-0.11758923530578613,0.056773435324430466
1733704725544367400,0.036367431640625,-0.011430018581449986,-0.10250544548034668,0.06067432835698128
1733704725554334200,0.046334228515625,-0.0056815845891833305,-0.07646559178829193,0.044101208448410034
1733704725564301300,0.05630126953125,-0.032450564205646515,-0.0681181326508522,0.02784596011042595
1733704725574267100,0.06626708984375,-0.012669136747717857,-0.08541456609964371,0.029791932553052902
1733704725584234200,0.076234130859375,-0.003989611752331257,-0.12581846117973328,0.027134599164128304
1733704725594201300,0.086201416015625,-0.014778077602386475,-0.16385212540626526,0.028724240139126778
1733704725604168200,0.096168212890625,-0.031811971217393875,-0.20376837253570557,0.03180907666683197
1733704725614135300,0.10613525390625,-0.05081256106495857,-0.23087161779403687,0.026309113949537277
1733704725624101000,0.11610107421875,-0.06317903101444244,-0.23923446238040924,0.047147177159786224
1733704725634068200,0.126068115234375,-0.0652107521891594,-0.23690420389175415,0.042044028639793396
1733704725644035300,0.136035400390625,-0.05867026373744011,-0.20057736337184906,0.02343832328915596
1733704725654002200,0.146002197265625,-0.05059502646327019,-0.17138245701789856,0.00255541130900383
1733704725663969300,0.15596923828125,-0.04473983496427536,-0.16192983090877533,-0.006529632955789566
1733704725673935000,0.16593505859375,-0.04377630352973938,-0.16843725740909576,-0.006920319050550461
1733704725683902200,0.175902099609375,-0.04755839332938194,-0.2036658525466919,-0.009421547874808311
1733704725693869300,0.185869384765625,-0.05295316129922867,-0.2591618597507477,-0.011503607034683228
1733704725703836200,0.195836181640625,-0.06458890438079834,-0.32338955998420715,-0.01034354604780674
1733704725713803300,0.20580322265625,-0.0789787620306015,-0.381938099861145,-0.00495756883174181
1733704725723769000,0.21576904296875,-0.09051976352930069,-0.42982521653175354,0.0016359926667064428
1733704725733736200,0.225736083984375,-0.10014788806438446,-0.45200827717781067,0.00900309532880783
1733704725743703000,0.235703125,-0.09867535531520844,-0.4734368324279785,0.013705285266041756
1733704725753670100,0.245670166015625,-0.09709209948778152,-0.46873822808265686,0.00880240648984909
1733704725763636200,0.25563623046875,-0.09509806334972382,-0.43805649876594543,-0.00023075612261891365
1733704725773603300,0.265603271484375,-0.08512505143880844,-0.41356155276298523,-0.01180272363126278
1733704725783570200,0.275570068359375,-0.0723586454987526,-0.3975048065185547,-0.02697931043803692
1733704725793537000,0.285537109375,-0.0675274059176445,-0.4027368724346161,-0.04154840111732483
1733704725803504000,0.295504150390625,-0.0687779113650322,-0.4438110888004303,-0.040450602769851685
1733704725813470200,0.30547021484375,-0.07240300625562668,-0.5070984363555908,-0.02261567860841751
1733704725823437300,0.315437255859375,-0.08083733916282654,-0.5701586008071899,0.0010307198390364647
1733704725833404400,0.325404296875,-0.09508445113897324,-0.6406567692756653,0.02359941229224205
1733704725843371300,0.335371337890625,-0.12231428921222687,-0.6819903254508972,0.04012608528137207
1733704725853338400,0.34533837890625,-0.15703657269477844,-0.6650840640068054,0.050927598029375076
1733704725863304200,0.35530419921875,-0.17706044018268585,-0.6064300537109375,0.03216821327805519
1733704725873271300,0.365271240234375,-0.17717042565345764,-0.5336053967475891,-0.031177202239632607
1733704725883238400,0.37523828125,-0.17727257311344147,-0.4883337616920471,-0.1009589359164238
1733704725893205200,0.385205322265625,-0.17292869091033936,-0.49839144945144653,-0.14647528529167175
1733704725903172400,0.39517236328125,-0.1849527806043625,-0.5655468106269836,-0.15151524543762207
1733704725913138200,0.40513818359375,-0.21708275377750397,-0.6793644428253174,-0.12976254522800446
1733704725923105300,0.415105224609375,-0.25774896144866943,-0.8369132876396179,-0.10621460527181625
1733704725933072400,0.425072265625,-0.3147619068622589,-0.8909797072410583,-0.08042775094509125
1733704725943039200,0.435039306640625,-0.3811515271663666,-0.8246520757675171,-0.04666372016072273
1733704725953005300,0.44500537109375,-0.4059719443321228,-0.6963870525360107,-0.04699741303920746
1733704725962972200,0.45497216796875,-0.3653161823749542,-0.5466103553771973,-0.13569340109825134
1733704725972939300,0.464939208984375,-0.29985034465789795,-0.42669597268104553,-0.2778625190258026
1733704725982906400,0.47490625,-0.2534104287624359,-0.3592865467071533,-0.3752520978450775
1733704725992873200,0.484873291015625,-0.24432054162025452,-0.41179078817367554,-0.3878496289253235
1733704726002839300,0.49483935546875,-0.23935355246067047,-0.5447917580604553,-0.3495846688747406
1733704726012806100,0.50480615234375,-0.2342970073223114,-0.7822836637496948,-0.30707183480262756
1733704726022773200,0.514773193359375,-0.2752336263656616,-1.0474755764007568,-0.28948280215263367
1733704726032740400,0.524740234375,-0.3592614233493805,-1.1752516031265259,-0.29107537865638733
1733704726042707200,0.534707275390625,-0.47246304154396057,-1.1810473203659058,-0.2866119146347046
1733704726052673300,0.54467333984375,-0.571978747844696,-1.062684178352356,-0.2740761637687683
1733704726062640000,0.55464013671875,-0.6074517369270325,-0.8650926947593689,-0.30603015422821045
1733704726072607200,0.564607177734375,-0.5768506526947021,-0.6438285112380981,-0.3802716135978699
1733704726082574000,0.574573974609375,-0.5230419635772705,-0.46181535720825195,-0.45710718631744385
1733704726092541200,0.584541259765625,-0.4320891499519348,-0.3606487810611725,-0.4982021749019623
1733704726102507300,0.59450732421875,-0.37024426460266113,-0.3570404350757599,-0.48916077613830566
1733704726112474000,0.60447412109375,-0.3534114956855774,-0.45026281476020813,-0.43339791893959045
1733704726122441200,0.614441162109375,-0.3612588346004486,-0.6106529831886292,-0.38138678669929504
1733704726132408000,0.624407958984375,-0.38144055008888245,-0.7346737384796143,-0.3441706895828247
1733704726142374400,0.63437451171875,-0.407938152551651,-0.7730336785316467,-0.32584744691848755
1733704726152341200,0.64434130859375,-0.4085317552089691,-0.736251175403595,-0.3286658525466919
1733704726162308000,0.65430810546875,-0.36927077174186707,-0.6535725593566895,-0.35225772857666016
1733704726172275200,0.664275146484375,-0.3146600127220154,-0.5171947479248047,-0.38934385776519775
1733704726182242000,0.674241943359375,-0.26133105158805847,-0.38231170177459717,-0.4289524257183075
1733704726192208400,0.68420849609375,-0.22051171958446503,-0.28125807642936707,-0.4539563059806824
1733704726202175200,0.69417529296875,-0.20155508816242218,-0.25437131524086,-0.4569763243198395
1733704726212142300,0.704142333984375,-0.19787192344665527,-0.32225877046585083,-0.44230735301971436
1733704726222109400,0.714109375,-0.2224101424217224,-0.3626893162727356,-0.43217748403549194
1733704726232076300,0.724076171875,-0.25677290558815,-0.4067646265029907,-0.4212143123149872
1733704726242042400,0.73404248046875,-0.2990086078643799,-0.4105231463909149,-0.4065689146518707
1733704726252009200,0.74400927734375,-0.3535788953304291,-0.3970949649810791,-0.3981828987598419
1733704726261976300,0.753976318359375,-0.40922993421554565,-0.33018994331359863,-0.3807782828807831
1733704726271943400,0.763943359375,-0.43682801723480225,-0.1590735912322998,-0.3368896543979645
1733704726281910300,0.77391015625,-0.3800324499607086,0.0519515797495842,-0.28729796409606934
1733704726291876400,0.78387646484375,-0.26290369033813477,0.26897284388542175,-0.26557856798171997
1733704726301843200,0.79384326171875,-0.14961931109428406,0.42349931597709656,-0.259358286857605
1733704726311810300,0.803810302734375,-0.06984006613492966,0.4578125476837158,-0.24299556016921997
1733704726321777400,0.81377734375,-0.021187856793403625,0.4345562160015106,-0.19378644227981567
1733704726331744300,0.823744140625,0.009156466461718082,0.3522365689277649,-0.14194828271865845
1733704726341710300,0.83371044921875,0.02548520639538765,0.2641487419605255,-0.11485666036605835
1733704726351677200,0.84367724609375,0.031586240977048874,0.1954200267791748,-0.11287127435207367
1733704726361644300,0.853644287109375,0.03129594027996063,0.12769876420497894,-0.11211596429347992
1733704726371611400,0.863611328125,0.021129589527845383,0.06452325731515884,-0.10151045769453049
1733704726381577200,0.8735771484375,0.010182520374655724,0.02165757492184639,-0.0853586345911026
1733704726391544300,0.88354443359375,0.007181937340646982,-0.01324181817471981,-0.060786180198192596
1733704726401511200,0.89351123046875,0.011062052100896835,-0.03386106342077255,-0.027965430170297623
1733704726411478300,0.903478271484375,0.013633067719638348,-0.06441390514373779,0.0038020857609808445
1733704726421445000,0.913445068359375,0.011203794740140438,-0.09926937520503998,0.032838139683008194
1733704726431411200,0.9234111328125,0.006768832914531231,-0.15091046690940857,0.054808419197797775
1733704726441378300,0.93337841796875,0.006035021971911192,-0.22340887784957886,0.07307285815477371
1733704726451345200,0.94334521484375,0.001120158238336444,-0.3096497654914856,0.08110149204730988
1733704726461312300,0.953312255859375,-0.014352008700370789,-0.4033525586128235,0.08696524053812027
1733704726471279000,0.963279052734375,-0.0364445261657238,-0.48451346158981323,0.08775833249092102
1733704726481245200,0.9732451171875,-0.07092667371034622,-0.5529226660728455,0.08184252679347992
1733704726491212000,0.9832119140625,-0.11195133626461029,-0.5895054936408997,0.06433410942554474
1733704726501179100,0.99317919921875,-0.15448689460754395,-0.6053386926651001,0.035836294293403625
1733704726511146200,1.003146240234375,-0.1951054185628891,-0.6108480095863342,-0.005542304366827011
1733704726521113000,1.013113037109375,-0.22723901271820068,-0.5997870564460754,-0.055630724877119064
1733704726531079200,1.0230791015625,-0.2564946413040161,-0.546465277671814,-0.11135364323854446
1733704726541046000,1.0330458984375,-0.27835574746131897,-0.443319171667099,-0.170743927359581
1733704726551013000,1.04301318359375,-0.28476598858833313,-0.32287371158599854,-0.2221946120262146
1733704726560980000,1.05297998046875,-0.27399325370788574,-0.1928296834230423,-0.2588854432106018
1733704726570946300,1.0629462890625,-0.2529420256614685,-0.1132669597864151,-0.2728598415851593
1733704726580913200,1.0729130859375,-0.22175706923007965,-0.06460938602685928,-0.2516070604324341
1733704726590880300,1.08288037109375,-0.19082419574260712,-0.038504816591739655,-0.20199687778949738
1733704726600847000,1.09284716796875,-0.15374282002449036,-0.03424106910824776,-0.13856610655784607
1733704726610814200,1.102814208984375,-0.11448941379785538,-0.04682956635951996,-0.08113130927085876
1733704726620780300,1.1127802734375,-0.07387807220220566,-0.06897032260894775,-0.04786096513271332
1733704726630747100,1.1227470703125,-0.0312962606549263,-0.08612880110740662,-0.04226619750261307
1733704726640714200,1.13271435546875,-0.0057494500651955605,-0.10611554980278015,-0.0560862198472023
1733704726650681000,1.14268115234375,0.007285391911864281,-0.10371550917625427,-0.08382809907197952
1733704726660648200,1.152648193359375,0.003601212752982974,-0.0842164158821106,-0.11531738936901093
1733704726670614000,1.162614013671875,-0.002903558313846588,-0.03204323351383209,-0.14600472152233124
1733704726680581000,1.1725810546875,-0.00830205250531435,0.04832031577825546,-0.16096343100070953
1733704726690548200,1.18254833984375,-0.010520465672016144,0.15018756687641144,-0.16007420420646667
1733704726700515000,1.19251513671875,-0.003083531279116869,0.21530507504940033,-0.14502960443496704
1733704726710482200,1.202482177734375,-0.004012441728264093,0.2267840951681137,-0.1260865330696106
1733704726720448000,1.212447998046875,-0.009570629335939884,0.19132089614868164,-0.10343440622091293
1733704726730415000,1.2224150390625,-0.023754091933369637,0.12965700030326843,-0.07775408029556274
1733704726740382200,1.23238232421875,-0.037742018699645996,0.0665062963962555,-0.0530371367931366
1733704726750349000,1.24234912109375,-0.04479753226041794,0.0085689602419734,-0.033519625663757324
1733704726760315100,1.252315185546875,-0.05016593262553215,-0.024808436632156372,-0.02573680505156517
1733704726770282000,1.262281982421875,-0.05455775186419487,-0.0240667462348938,-0.024019597098231316
1733704726780249000,1.2722490234375,-0.04289385676383972,0.013508319854736328,-0.02254643104970455
1733704726790216200,1.28221630859375,-0.02249750681221485,0.0791696235537529,-0.011929739266633987
1733704726800183000,1.29218310546875,-0.0020636951085180044,0.14007022976875305,0.0024389992468059063
1733704726810149000,1.302149169921875,0.007625950034707785,0.1753978580236435,0.017018474638462067
1733704726820116000,1.312115966796875,0.014161658473312855,0.17922139167785645,0.022910360246896744
1733704726830083000,1.3220830078125,0.016539327800273895,0.15533070266246796,0.022564148530364037
1733704726840050200,1.33205029296875,0.015173613093793392,0.11539634317159653,0.01608530431985855
1733704726850017000,1.34201708984375,0.01094504538923502,0.07642471045255661,0.009745915420353413
1733704726859983000,1.351983154296875,0.009691040962934494,0.06672227382659912,0.0015155269065871835
1733704726869950000,1.361949951171875,0.014726546593010426,0.09167369455099106,-0.003101329319179058
1733704726879917000,1.3719169921875,0.030042197555303574,0.16493484377861023,-0.011823072098195553
1733704726889884200,1.38188427734375,0.050501931458711624,0.2579819858074188,-0.03243007883429527
1733704726899851000,1.39185107421875,0.07211163640022278,0.3529633581638336,-0.06354408711194992
1733704726909817300,1.4018173828125,0.07830827683210373,0.4192350506782532,-0.0977550521492958
1733704726919784200,1.4117841796875,0.06447173655033112,0.4510659873485565,-0.12499955296516418
1733704726929751000,1.4217509765625,0.06324481964111328,0.4481961727142334,-0.11853232979774475
1733704726939718000,1.4317177734375,0.05188099667429924,0.3989553153514862,-0.08521914482116699
1733704726949685000,1.44168505859375,0.05089855566620827,0.33711591362953186,-0.049745846539735794
1733704726959651300,1.4516513671875,0.05182882770895958,0.3000607192516327,-0.025424588471651077
1733704726969618200,1.4616181640625,0.057281117886304855,0.2907838821411133,-0.024379031732678413
1733704726979585300,1.471585205078125,0.0693732500076294,0.3117176592350006,-0.03476998209953308
1733704726989552000,1.48155224609375,0.07876461744308472,0.3375833332538605,-0.0511833056807518
1733704726999518200,1.491518310546875,0.08031244575977325,0.3389332890510559,-0.06559820473194122
1733704727009485000,1.501485107421875,0.05820741131901741,0.30009642243385315,-0.0743914246559143
1733704727019452200,1.5114521484375,0.059262558817863464,0.24869421124458313,-0.06104233115911484
1733704727029419300,1.521419189453125,0.06126205995678902,0.17451611161231995,-0.03248285502195358
1733704727039386000,1.53138623046875,0.05490719527006149,0.10773682594299316,-0.011561001650989056
1733704727049352200,1.541352294921875,0.04683355614542961,0.07420656085014343,-0.005493521690368652
1733704727059319000,1.551319091796875,0.043259214609861374,0.07302916049957275,-0.0041249701753258705
1733704727069286100,1.5612861328125,0.04888567700982094,0.10709364712238312,-0.006121808663010597
1733704727079253200,1.571253173828125,0.06249634176492691,0.16979297995567322,-0.01470766868442297
1733704727089220000,1.58122021484375,0.08120904117822647,0.2551653981208801,-0.02851988561451435
1733704727099186200,1.591186279296875,0.09432204812765121,0.3296167254447937,-0.04521869495511055
1733704727109153000,1.601153076171875,0.09780226647853851,0.38547998666763306,-0.06514446437358856
1733704727119120100,1.6111201171875,0.08316490054130554,0.4152786433696747,-0.09841275215148926
1733704727129087200,1.621087158203125,0.08260350674390793,0.47263965010643005,-0.12425286322832108
1733704727139054000,1.63105419921875,0.09887859970331192,0.5136587023735046,-0.136287122964859
1733704727149020200,1.641020263671875,0.11520058661699295,0.5489780902862549,-0.14494958519935608
1733704727158987000,1.650987060546875,0.129102885723114,0.5804415345191956,-0.15061935782432556
1733704727168954000,1.6609541015625,0.15070033073425293,0.6193404793739319,-0.15264149010181427
1733704727178921200,1.670921142578125,0.1765061765909195,0.6582726240158081,-0.14641650021076202
1733704727188888000,1.68088818359375,0.19324280321598053,0.7250216007232666,-0.12817305326461792
1733704727198854100,1.690854248046875,0.2004811316728592,0.7976507544517517,-0.09793125092983246
1733704727208821000,1.700821044921875,0.20621545612812042,0.8847371935844421,-0.08766929060220718
1733704727218788000,1.7107880859375,0.21638719737529755,0.985217809677124,-0.09905709326267242
1733704727228755000,1.7207548828125,0.2417604625225067,1.0762372016906738,-0.12025239318609238
1733704727238722000,1.73072216796875,0.2804563045501709,1.1572185754776,-0.144025057554245
1733704727248688000,1.740688232421875,0.3314310908317566,1.2231371402740479,-0.17235709726810455
1733704727258655000,1.750655029296875,0.3908940851688385,1.31424081325531,-0.21201013028621674
1733704727268622000,1.7606220703125,0.4505462348461151,1.3998124599456787,-0.23300036787986755
1733704727278589000,1.7705888671875,0.49459412693977356,1.4877214431762695,-0.23223631083965302
1733704727288556000,1.78055615234375,0.5348360538482666,1.5745060443878174,-0.20472131669521332
1733704727298522000,1.790522216796875,0.5692089200019836,1.6835873126983643,-0.1692548543214798
1733704727308489000,1.800489013671875,0.5943225026130676,1.7578985691070557,-0.13344785571098328
1733704727318456000,1.8104560546875,0.6219539046287537,1.8078312873840332,-0.11776662617921829
1733704727328423000,1.8204228515625,0.6367277503013611,1.846710443496704,-0.11187198758125305
1733704727338389200,1.83038916015625,0.6386468410491943,1.8947895765304565,-0.10856141149997711
1733704727348356000,1.840356201171875,0.6536745429039001,1.9958237409591675,-0.0810839831829071
1733704727358323200,1.8503232421875,0.7075355648994446,2.1207680702209473,-0.034070808440446854
1733704727368290300,1.860290283203125,0.8064759969711304,2.204798460006714,-0.011146584525704384
1733704727378257200,1.870257080078125,0.9514557719230652,2.2170569896698,-0.02783995307981968
1733704727388223200,1.88022314453125,1.134228229522705,2.1425085067749023,-0.07832443714141846
1733704727398190000,1.890190185546875,1.333490014076233,1.9901022911071777,-0.09660810232162476
1733704727408157200,1.9001572265625,1.5202007293701172,1.8243756294250488,-0.05323052778840065
1733704727418124300,1.910124267578125,1.7048230171203613,1.6811825037002563,0.007441733963787556
1733704727428091100,1.920091064453125,1.8535759449005127,1.4982203245162964,0.0599835030734539
1733704727438057200,1.93005712890625,1.9979356527328491,1.1726590394973755,0.1357489973306656
1733704727448024000,1.940024169921875,2.1586177349090576,0.7194782495498657,0.2356252521276474
1733704727457991200,1.9499912109375,2.347283363342285,0.27450719475746155,0.3574559986591339
1733704727467958300,1.959958251953125,2.465541362762451,-0.09539736807346344,0.5350725650787354
1733704727477925000,1.969925048828125,2.473252773284912,-0.29565513134002686,0.7120969891548157
1733704727487891200,1.97989111328125,2.400594711303711,-0.2565290331840515,0.8074898719787598
1733704727497858000,1.989858154296875,2.3428142070770264,-0.14883795380592346,0.8424270749092102
1733704727507825200,1.9998251953125,2.2774524688720703,-0.07120893895626068,0.9007375240325928
1733704727517792300,2.009792236328125,2.2125561237335205,0.1002834364771843,0.9880189299583435
1733704727527760000,2.019759765625,2.116004228591919,0.39031046628952026,1.0361661911010742
1733704727537726000,2.029725830078125,1.9518375396728516,0.6806200742721558,1.0138922929763794
1733704727547693000,2.039693115234375,1.7477864027023315,0.9099667072296143,0.9348675608634949
1733704727557660000,2.049659912109375,1.5310755968093872,1.1152604818344116,0.8420372009277344
1733704727567627000,2.059626953125,1.3094806671142578,1.2531251907348633,0.7981792092323303
1733704727577592800,2.0695927734375,1.097711443901062,1.3085201978683472,0.825509786605835
1733704727587560000,2.079559814453125,0.9113590121269226,1.3214993476867676,0.9137848019599915
1733704727597526800,2.08952685546875,0.7551864385604858,1.3203479051589966,1.0168390274047852
1733704727607494000,2.099493896484375,0.6132076978683472,1.2695189714431763,1.1089084148406982
1733704727617461000,2.1094609375,0.461284339427948,1.1429357528686523,1.1875121593475342
1733704727627426800,2.1194267578125,0.2736494541168213,0.9602276682853699,1.2406537532806396
1733704727637394000,2.129393798828125,0.06523440778255463,0.7146779298782349,1.2969582080841064
1733704727647360800,2.13936083984375,-0.16520226001739502,0.4249795079231262,1.3817561864852905
1733704727657327900,2.149327880859375,-0.37522560358047485,0.1583307385444641,1.4659249782562256
1733704727667295000,2.159294921875,-0.5518427491188049,-0.10536349564790726,1.5388660430908203
1733704727677260800,2.1692607421875,-0.6959236264228821,-0.39155182242393494,1.6182794570922852
1733704727687228000,2.179227783203125,-0.825859785079956,-0.7158542275428772,1.6575062274932861
1733704727697194800,2.18919482421875,-0.9678440093994141,-1.1148618459701538,1.634473204612732
1733704727707161900,2.199161865234375,-1.1098341941833496,-1.5929388999938965,1.5544172525405884
1733704727717129000,2.20912890625,-1.2541675567626953,-2.1056125164031982,1.425123929977417
1733704727727094800,2.2190947265625,-1.3970098495483398,-2.550140380859375,1.32082200050354
1733704727737062000,2.229061767578125,-1.4744266271591187,-2.754513740539551,1.2669612169265747
1733704727747028700,2.23902880859375,-1.4383721351623535,-2.6227211952209473,1.2012392282485962
1733704727756995800,2.248995849609375,-1.2147281169891357,-1.9718462228775024,1.11166250705719
1733704727766963000,2.258962890625,-0.6160327196121216,-0.8301478624343872,0.9967779517173767
1733704727776929000,2.268928955078125,0.550728976726532,-0.8159393072128296,0.8417429327964783
1733704727786896000,2.278895751953125,1.644521951675415,-1.997824788093567,0.754484236240387
1733704727796862700,2.28886279296875,1.720361590385437,-2.3513216972351074,0.6233213543891907
1733704727806829800,2.298829833984375,1.2603719234466553,-2.0301406383514404,0.2617783546447754
1733704727816797000,2.308796875,0.8227981328964233,-1.7310203313827515,-0.08553638309240341
1733704727826763000,2.318762939453125,0.4425767660140991,-1.4356683492660522,-0.2409859001636505
1733704727836730000,2.328730224609375,0.12699542939662933,-1.1596758365631104,-0.2446228563785553
1733704727846697000,2.338697021484375,-0.11288934201002121,-0.9916251301765442,-0.1555531769990921
1733704727856664000,2.3486640625,-0.28435763716697693,-0.9214101433753967,0.0024591118562966585
1733704727866631000,2.358630859375,-0.35900604724884033,-0.8143294453620911,0.21164162456989288
1733704727876597000,2.368596923828125,-0.35052213072776794,-0.5827164053916931,0.43428292870521545
1733704727886564000,2.378564208984375,-0.30021899938583374,-0.3514571189880371,0.6118355989456177
1733704727896531000,2.388531005859375,-0.22600619494915009,-0.2340271770954132,0.6934999227523804
1733704727906498000,2.398498046875,-0.13245761394500732,-0.2217705100774765,0.6431847810745239
1733704727916465000,2.40846484375,-0.030543839558959007,-0.24086563289165497,0.46554654836654663
1733704727926431000,2.418430908203125,0.05260750651359558,-0.20003670454025269,0.23711389303207397
1733704727936397800,2.428397705078125,0.09489752352237701,-0.14393720030784607,0.036605656147003174
1733704727946365000,2.438364990234375,0.09639821946620941,-0.18654590845108032,-0.08649550378322601
1733704727956332000,2.44833203125,0.06917634606361389,-0.2720627188682556,-0.131683811545372
1733704727966299000,2.458298828125,0.023152662441134453,-0.2980197072029114,-0.13728098571300507
1733704727976265000,2.468264892578125,-0.034950852394104004,-0.27622631192207336,-0.1219736710190773
1733704727986231800,2.478231689453125,-0.09378354251384735,-0.22451543807983398,-0.08071384578943253
1733704727996199000,2.488198974609375,-0.11513363569974899,-0.17570605874061584,-0.03596250340342522
1733704728006166000,2.498166015625,-0.08553632348775864,-0.15572941303253174,0.0019103119848296046
1733704728016132900,2.5081328125,-0.02671797201037407,-0.15977346897125244,0.02741132117807865
1733704728026099000,2.518098876953125,0.03477708250284195,-0.16906523704528809,0.04305898770689964
1733704728036065800,2.528065673828125,0.08462527394294739,-0.1863000988960266,0.046385932713747025
1733704728046033000,2.538032958984375,0.10380269587039948,-0.2001674473285675,0.03538920730352402
1733704728056000000,2.548,0.09840872138738632,-0.20402081310749054,0.020477907732129097
1733704728065966800,2.557966796875,0.07943183183670044,-0.18538615107536316,0.014802712015807629
1733704728075933000,2.567932861328125,0.05477220565080643,-0.1501549482345581,0.013992495834827423
1733704728085899800,2.577899658203125,0.025230558589100838,-0.1124267429113388,0.011664893478155136
1733704728095867000,2.587866943359375,-0.00033809448359534144,-0.08357802033424377,-0.0017738684546202421
1733704728105834000,2.597833984375,-0.023347539827227592,-0.06814047694206238,-0.01776881515979767
1733704728115800800,2.60780078125,-0.040753453969955444,-0.07570168375968933,-0.03004460036754608
1733704728125767000,2.617766845703125,-0.05552680790424347,-0.09267747402191162,-0.034935228526592255
1733704728135733800,2.627733642578125,-0.07116541266441345,-0.11479000002145767,-0.036369629204273224
1733704728145700900,2.637700927734375,-0.07436679303646088,-0.13081370294094086,-0.027784133329987526
1733704728155668000,2.64766796875,-0.06552650034427643,-0.13343371450901031,-0.0067018913105130196
1733704728165633800,2.6576337890625,-0.04831874743103981,-0.12539151310920715,0.01800611801445484
1733704728175601000,2.667600830078125,-0.02046123333275318,-0.11240564286708832,0.029980387538671494
1733704728185567700,2.677567626953125,0.009167499840259552,-0.10554054379463196,0.024283619597554207
1733704728195534800,2.687534912109375,0.02800825424492359,-0.1022091954946518,0.01062595471739769
1733704728205501700,2.697501708984375,0.03460356965661049,-0.10282304883003235,-0.00023814360611140728
1733704728215468000,2.707468017578125,0.03934568911790848,-0.10475891083478928,0.00020801951177418232
1733704728225435100,2.71743505859375,0.04066342115402222,-0.1145569458603859,0.0050629619508981705
1733704728235402000,2.727402099609375,0.032056815922260284,-0.12761205434799194,0.013068554922938347
1733704728245368800,2.737368896484375,0.02503885328769684,-0.1491740643978119,0.01897544600069523
1733704728255335700,2.747335693359375,0.017080875113606453,-0.16892272233963013,0.022528473287820816
1733704728265302000,2.757302001953125,0.013173487037420273,-0.1888498216867447,0.02760499157011509
1733704728275268900,2.767268798828125,0.018472926691174507,-0.19293321669101715,0.03827705979347229
1733704728285236000,2.777236083984375,0.012326083146035671,-0.1939486861228943,0.048773374408483505
1733704728295203000,2.787203125,0.00665524136275053,-0.19055134057998657,0.04854308068752289
1733704728305170000,2.797169921875,0.006256832275539637,-0.17015871405601501,0.04436351731419563
1733704728315136000,2.807135986328125,0.008391158655285835,-0.14099280536174774,0.03516748547554016
1733704728325102800,2.817102783203125,0.004502676893025637,-0.11482565104961395,0.023989932611584663
1733704728335070000,2.827070068359375,-0.00009047705680131912,-0.09289718419313431,0.01338496059179306
1733704728345037000,2.837037109375,0.00256575969979167,-0.07199402898550034,0.006683913990855217
1733704728355004000,2.84700390625,0.001773605588823557,-0.05674189329147339,0.000855046440847218
1733704728364970000,2.856969970703125,0.0031768251210451126,-0.04118876904249191,0.00123587844427675
1733704728374936800,2.866936767578125,-0.0005563633749261498,-0.02019503526389599,0.0048337457701563835
1733704728384904000,2.876904052734375,-0.006207058671861887,0.003272739239037037,0.0106173325330019
1733704728394871000,2.88687109375,-0.012428203597664833,0.025958610698580742,0.016487205401062965
1733704728404838000,2.896837890625,-0.014435693621635437,0.04743807017803192,0.014943105168640614
1733704728414804000,2.906803955078125,-0.016493014991283417,0.061341337859630585,0.00773905124515295
1733704728424770800,2.916770751953125,-0.02096952311694622,0.05985315889120102,-0.000671211164444685
1733704728434738000,2.926738037109375,-0.019175607711076736,0.05447390675544739,-0.012132941745221615
1733704728444705000,2.936705078125,-0.010492636822164059,0.04462260752916336,-0.020930428057909012
1733704728454672000,2.946671875,-0.0034048110246658325,0.03224475681781769,-0.02258176915347576
1733704728464638000,2.956637939453125,-0.0027882892172783613,0.01708551123738289,-0.017240531742572784
1733704728474604800,2.966604736328125,-0.0029892222955822945,0.00720783369615674,-0.012961107306182384
1733704728484572000,2.976572021484375,-0.0015457889530807734,0.0002537872642278671,-0.004214753396809101
1733704728494539000,2.9865390625,-0.0012766341678798199,-0.00837617740035057,-0.0014840310905128717
1733704728504505900,2.996505859375,0.0011218086583539844,-0.0089144017547369,-0.009667126461863518
1733704728514472000,3.006471923828125,0.0020000049844384193,-0.0052594952285289764,-0.01116705872118473
1733704728524438800,3.016438720703125,-0.002565452130511403,0.0013113217428326607,-0.00794889498502016
1733704728534405600,3.026405517578125,-0.003585866652429104,0.008442721329629421,0.0006403810111805797
1733704728544372500,3.03637255859375,-0.002980263903737068,0.011280318722128868,0.0037823785096406937
1733704728554339600,3.046339599609375,0.0011444243136793375,0.004560100380331278,0.001849753549322486
1733704728564305700,3.0563056640625,0.008997553959488869,-0.0077919065952301025,-0.00006559188477694988
1733704728574272500,3.0662724609375,0.014966296963393688,-0.025614554062485695,-0.0035129187162965536
1733704728584239600,3.076239501953125,0.017092829570174217,-0.038481615483760834,-0.005545709282159805
1733704728594206500,3.08620654296875,0.017469312995672226,-0.047014378011226654,-0.0027255057357251644
1733704728604173600,3.096173583984375,0.013243673369288445,-0.0574723482131958,0.0034748658072203398
1733704728614139600,3.1061396484375,0.00988974329084158,-0.07897473871707916,0.011936414055526257
1733704728624106800,3.116106689453125,0.007230045273900032,-0.09061595797538757,0.014800110831856728
1733704728634073600,3.126073486328125,0.006423874758183956,-0.09640432894229889,0.013018518686294556
1733704728644040700,3.136040771484375,0.006154895294457674,-0.0935443639755249,0.010295968502759933
1733704728654007600,3.146007568359375,0.010939080268144608,-0.0848214253783226,0.006101861130446196
1733704728663973600,3.1559736328125,0.011297808028757572,-0.07487212121486664,0.0029382919892668724
1733704728673940700,3.165940673828125,0.015506148338317871,-0.061409078538417816,0.00382083747535944
1733704728683907600,3.175907470703125,0.014155658893287182,-0.05596957355737686,0.0032684977632015944
1733704728693874700,3.185874755859375,0.011045265011489391,-0.05573490262031555,0.005901477299630642
1733704728703841800,3.195841796875,0.009998909197747707,-0.05901458114385605,0.0082037802785635
1733704728713807600,3.2058076171875,0.008728543296456337,-0.06486211717128754,0.007155898027122021
1733704728723774700,3.215774658203125,0.007927997037768364,-0.07001666724681854,0.0025382430758327246
1733704728733741600,3.225741455078125,0.0065411352552473545,-0.06204687058925629,-0.0031153394374996424
1733704728743708700,3.235708740234375,0.003448406234383583,-0.05255615711212158,-0.003978469409048557
1733704728753675800,3.24567578125,0.0015405311714857817,-0.043657511472702026,-0.003683418035507202
1733704728763641600,3.2556416015625,0.00023078860249370337,-0.03603927046060562,-0.0064341966062784195
1733704728773608700,3.265608642578125,-0.0005102949216961861,-0.03868134319782257,-0.009400302544236183
1733704728783575600,3.275575439453125,-0.0004607600858435035,-0.039548467844724655,-0.011057853698730469
1733704728793542700,3.285542724609375,0.000646183209028095,-0.03889334201812744,-0.008678857237100601
1733704728803509800,3.295509765625,0.0014203641330823302,-0.03360110893845558,-0.0045576151460409164
1733704728813475600,3.3054755859375,0.0046495841816067696,-0.02345634251832962,-0.0033003471326082945
1733704728823442700,3.315442626953125,0.0049137696623802185,-0.010525364428758621,-0.008586988784372807
1733704728833409500,3.325409423828125,0.00479580694809556,0.003759829793125391,-0.01767532341182232
1733704728843376600,3.335376708984375,0.0065247309394180775,0.014203149825334549,-0.015714436769485474
1733704728853343700,3.34534375,0.006529859732836485,0.0135421734303236,-0.010930469259619713
1733704728863309600,3.3553095703125,0.006039571948349476,0.003931890241801739,-0.009154407307505608
1733704728873276700,3.365276611328125,0.004062115680426359,-0.010989796370267868,-0.00944217387586832
1733704728883243500,3.375243408203125,0.002513753715902567,-0.025951968505978584,-0.009854963980615139
1733704728893210600,3.385210693359375,0.00009394984226673841,-0.03855779394507408,-0.00836455263197422
1733704728903177500,3.395177490234375,-0.0018661367939785123,-0.04458346217870712,-0.00406221579760313
1733704728913143600,3.4051435546875,-0.0013011719565838575,-0.048838406801223755,0.002323028864338994
1733704728923110700,3.415110595703125,-0.0026900104712694883,-0.05392131954431534,0.007093815132975578
1733704728933077500,3.425077392578125,0.0010113025782629848,-0.055217716842889786,0.007491324096918106
1733704728943044600,3.435044677734375,0.004361292812973261,-0.053281333297491074,0.00401110528036952
1733704728953011500,3.445011474609375,0.006350042764097452,-0.05144723504781723,0.002035500481724739
1733704728962977500,3.4549775390625,0.007984691299498081,-0.05324114114046097,-0.0016543089877814054
1733704728972944400,3.4649443359375,0.007744438946247101,-0.056639038026332855,-0.0052833217196166515
1733704728982911500,3.474911376953125,0.006829643156379461,-0.06385700404644012,-0.006698525045067072
1733704728992878600,3.484878662109375,0.005357345566153526,-0.0713929682970047,-0.002298783278092742
1733704729002845400,3.494845458984375,0.0031407964415848255,-0.07291842252016068,0.0035961237736046314
1733704729012811800,3.504811767578125,0.005046113394200802,-0.07249445468187332,0.005664682947099209
1733704729022778600,3.514778564453125,0.007065322250127792,-0.07420580089092255,0.0032409399282187223
1733704729032745500,3.524745361328125,0.007082146126776934,-0.07245425134897232,-0.0034841669257730246
1733704729042712600,3.534712646484375,0.006996125914156437,-0.0677947849035263,-0.006768643856048584
1733704729052679400,3.544679443359375,0.005581990350037813,-0.07145906239748001,-0.011091222055256367
1733704729062645800,3.554645751953125,0.004297281615436077,-0.07834413647651672,-0.014742149971425533
1733704729072612600,3.564612548828125,0.008056173101067543,-0.09232597053050995,-0.01523185521364212
1733704729082579700,3.574579833984375,0.0204412043094635,-0.10845034569501877,-0.01600763387978077
1733704729092546800,3.584546875,0.012696142308413982,-0.13732829689979553,-0.01500324159860611
1733704729102513700,3.594513671875,0.0047556618228554726,-0.16053880751132965,-0.014910561963915825
1733704729112479700,3.604479736328125,0.007871867157518864,-0.17772528529167175,-0.012587038800120354
1733704729122446600,3.614446533203125,0.007673994172364473,-0.1929822713136673,-0.00910921674221754
1733704729132413700,3.62441357421875,0.0009048940264619887,-0.20515872538089752,-0.001812926260754466
1733704729142380800,3.634380859375,-0.004029144532978535,-0.21549445390701294,0.0009844580199569464
1733704729152347600,3.64434765625,0.00025626010028645396,-0.22482648491859436,-0.003431028686463833
1733704729162313700,3.654313720703125,0.004445146303623915,-0.23521573841571808,-0.010892673395574093
1733704729172280600,3.664280517578125,0.009452635422348976,-0.24282914400100708,-0.019875671714544296
1733704729182247700,3.67424755859375,0.013958970084786415,-0.25148922204971313,-0.02471676468849182
1733704729192214800,3.68421484375,0.02109483815729618,-0.2637086510658264,-0.027874870225787163
1733704729202181600,3.694181640625,0.02495269477367401,-0.2751309275627136,-0.0315159447491169
1733704729212147700,3.704147705078125,0.027816077694296837,-0.29089415073394775,-0.027104325592517853
1733704729222114600,3.714114501953125,0.027130581438541412,-0.298498272895813,-0.019181955605745316
1733704729232081700,3.72408154296875,0.02466673217713833,-0.2982082962989807,-0.012486983090639114
1733704729242048500,3.734048583984375,0.02719646878540516,-0.28481525182724,-0.005152370780706406
1733704729252015600,3.744015625,0.028925910592079163,-0.2746284008026123,-0.004267371725291014
1733704729261981700,3.753981689453125,0.03403864800930023,-0.26511505246162415,-0.008902870118618011
1733704729271948500,3.763948486328125,0.03560231626033783,-0.25629785656929016,-0.013647008687257767
1733704729281915600,3.77391552734375,0.03547341749072075,-0.24949827790260315,-0.016057701781392097
1733704729291882500,3.783882568359375,0.03571291267871857,-0.2418036013841629,-0.01658303663134575
1733704729301849600,3.793849609375,0.03332671895623207,-0.2312593311071396,-0.017446966841816902
1733704729311815400,3.8038154296875,0.0301053486764431,-0.21355676651000977,-0.01504210103303194
1733704729321782500,3.813782470703125,0.023287655785679817,-0.19355297088623047,-0.013731560669839382
1733704729331749600,3.82374951171875,0.016175853088498116,-0.17395637929439545,-0.012698328122496605
1733704729341716500,3.833716552734375,0.015081561170518398,-0.1596517413854599,-0.010394958779215813
1733704729351683600,3.84368359375,0.01279041264206171,-0.13906018435955048,-0.007877943105995655
1733704729361649400,3.8536494140625,0.011048971675336361,-0.12525302171707153,-0.010845770128071308
1733704729371616500,3.863616455078125,0.009279959835112095,-0.11077875643968582,-0.014418384991586208
1733704729381583600,3.87358349609375,0.008606179617345333,-0.09774098545312881,-0.017248526215553284
1733704729391550500,3.883550537109375,0.0071033900603652,-0.08159607648849487,-0.0160530973225832
1733704729401517600,3.893517578125,0.004342757165431976,-0.06620699912309647,-0.010257260873913765
1733704729411483600,3.903483642578125,0.002603288507089019,-0.04948902130126953,-0.005880040116608143
1733704729421450500,3.913450439453125,0.0026413716841489077,-0.035719409584999084,-0.0037838660646229982
1733704729431417600,3.92341748046875,0.0038582803681492805,-0.023586062714457512,-0.007406250573694706
1733704729441384400,3.933384521484375,0.006839688867330551,-0.022393500432372093,-0.0059601543471217155
1733704729451351600,3.9433515625,0.008191938512027264,-0.021595574915409088,-0.007601517718285322
1733704729461317600,3.953317626953125,0.00711602158844471,-0.023311182856559753,-0.010196235030889511
1733704729471284700,3.96328466796875,0.007185021881014109,-0.022204136475920677,-0.010363001376390457
1733704729481251800,3.973251953125,0.002083736937493086,-0.018088487908244133,-0.010701488703489304
1733704729491218700,3.98321875,0.0017478050431236625,-0.012243140488862991,-0.010759861208498478
1733704729501185500,3.993185546875,0.0024737827479839325,-0.008873708546161652,-0.008283121511340141
1733704729511151600,4.003151611328125,0.0015409376937896013,-0.006567381322383881,-0.005508498288691044
1733704729521118700,4.01311865234375,0.004297575913369656,-0.009647328406572342,-0.004846702329814434
1733704729531085300,4.023085205078125,0.007314296439290047,-0.016003480181097984,-0.004579903557896614
1733704729541052400,4.033052490234375,0.008998213335871696,-0.01899714022874832,-0.006475807633250952
1733704729551019500,4.04301953125,0.007554433774203062,-0.01827091909945011,-0.007820811122655869
1733704729560985300,4.0529853515625,0.006138431373983622,-0.012931812554597855,-0.005962989758700132
1733704729570952400,4.062952392578125,0.003917370457202196,-0.008726686239242554,-0.0015549564268440008
1733704729580919300,4.072919189453125,0.002445175079628825,-0.006194019690155983,0.0024554976262152195
1733704729590886400,4.082886474609375,0.0019822611939162016,-0.0016026906669139862,0.002581847133114934
1733704729600853500,4.092853515625,0.004496018867939711,-0.005997972562909126,0.0014380194479599595
1733704729610819300,4.1028193359375,0.0031777634285390377,-0.010659335181117058,0.0017916655633598566
1733704729620786400,4.112786376953125,0.006776226684451103,-0.018947357311844826,0.00008750869892537594
1733704729630753300,4.122753173828125,0.009112320840358734,-0.022686166688799858,-0.0015042000450193882
1733704729640720400,4.132720458984375,0.008449193090200424,-0.02071782387793064,-0.005098935216665268
1733704729650687500,4.1426875,0.004611531272530556,-0.01733027771115303,-0.007272779941558838
1733704729660653300,4.1526533203125,0.00528611009940505,-0.01341409981250763,-0.00785521324723959
1733704729670620400,4.162620361328125,-0.0019187221769243479,-0.004738298244774342,0.0006180019117891788
1733704729680587300,4.172587158203125,-0.00022814766271039844,-0.004470384679734707,0.003629504470154643
1733704729690554400,4.182554443359375,0.0022582095116376877,-0.0075061265379190445,0.007004734128713608
1733704729700521500,4.192521484375,0.007839929312467575,-0.012897161766886711,0.005277673713862896
1733704729710487300,4.2024873046875,0.010050912387669086,-0.017476236447691917,0.0006389240734279156
1733704729720454400,4.212454345703125,0.01184614934027195,-0.024395395070314407,-0.0018926765769720078
1733704729730421200,4.222421142578125,0.009796266444027424,-0.028862841427326202,-0.007790951989591122
1733704729740388400,4.232388427734375,0.007855887524783611,-0.023936524987220764,-0.009352895431220531
1733704729750355500,4.24235546875,0.003501886036247015,-0.01723707839846611,-0.0061701517552137375
1733704729760321300,4.2523212890625,0.0014427297282963991,-0.014156598597764969,0.0013889643596485257
1733704729770288400,4.262288330078125,0.0012047223281115294,-0.014772068709135056,0.005234411917626858
1733704729780255200,4.272255126953125,0.00378852104768157,-0.018433649092912674,0.0008042433764785528
1733704729790222300,4.282222412109375,0.003182105254381895,-0.022959919646382332,-0.004860805347561836
1733704729800189200,4.292189208984375,0.004862826317548752,-0.02884976752102375,-0.008684838190674782
1733704729810155300,4.3021552734375,0.0056749009527266026,-0.032200299203395844,-0.009792868047952652
1733704729820122400,4.312122314453125,0.006311396602541208,-0.03516919165849686,-0.007816003635525703
1733704729830089200,4.322089111328125,0.005076543428003788,-0.02953898161649704,-0.005269327200949192
1733704729840056300,4.332056396484375,0.006181488744914532,-0.020194213837385178,-0.001672728220000863
1733704729850023200,4.342023193359375,0.005276835989207029,-0.005634745582938194,0.0015925236511975527
1733704729859989500,4.351989501953125,0.003985469229519367,0.005618175957351923,0.0060309479013085365
1733704729869956400,4.361956298828125,0.0018838755786418915,0.011831608600914478,0.0039035342633724213
1733704729879923500,4.37192333984375,0.0005927751190029085,0.013200206682085991,0.00317409448325634
1733704729889890600,4.381890625,0.0020869700238108635,0.00732583599165082,0.0027016063686460257
1733704729899857400,4.391857421875,0.004172225017100573,-0.0008223718032240868,-0.0037352540530264378
1733704729909823500,4.401823486328125,0.006853192113339901,-0.008701911196112633,-0.008621027693152428
1733704729919790300,4.411790283203125,0.008390368893742561,-0.016641326248645782,-0.009632229804992676
1733704729929757400,4.42175732421875,0.010456142947077751,-0.01786661334335804,-0.005939674563705921
1733704729939724500,4.431724609375,0.009341876953840256,-0.0168484877794981,-0.003565999213606119
1733704729949691400,4.44169140625,0.005274752154946327,-0.015217335894703865,-0.002569291740655899
1733704729959657500,4.451657470703125,0.0027583313640207052,-0.020752450451254845,0.000446471618488431
1733704729969624300,4.461624267578125,-0.0011598399141803384,-0.0259690098464489,0.0032316031865775585
1733704729979591400,4.47159130859375,-0.000524675939232111,-0.031069763004779816,0.001240091398358345
1733704729989558500,4.48155859375,-0.00009117036825045943,-0.030638881027698517,-0.005753528326749802
1733704729999525400,4.491525390625,-0.0006230036960914731,-0.029712900519371033,-0.008408167399466038
1733704730009491500,4.501491455078125,-0.000400083779823035,-0.028353603556752205,-0.006277656182646751
1733704730019458300,4.511458251953125,0.0016002166084945202,-0.02054627798497677,-0.004880295135080814
1733704730029425400,4.52142529296875,0.0014778139302507043,-0.013028979301452637,-0.0011741844937205315
1733704730039392500,4.531392578125,0.0017249552765861154,-0.003930822946131229,-0.0020908445585519075
1733704730049359400,4.541359375,0.004002801142632961,0.003141996916383505,-0.0037183931563049555
1733704730059325400,4.551325439453125,0.004784705117344856,0.012147475965321064,-0.0030994743574410677
1733704730069292300,4.561292236328125,0.0012832263018935919,0.01809457503259182,-0.0041230181232094765
1733704730079259400,4.57125927734375,-0.0002829786972142756,0.017541702836751938,-0.0025054144207388163
1733704730089226200,4.581226318359375,0.0008115056552924216,0.012078768573701382,-0.0032592033967375755
1733704730099193300,4.591193359375,0.0025207223370671272,0.004210725426673889,-0.00461102370172739
1733704730109159400,4.601159423828125,0.0038046403788030148,-0.002453599125146866,-0.008436940610408783
1733704730119126300,4.611126220703125,0.005231029354035854,-0.006227297708392143,-0.006778057664632797
1733704730129093400,4.62109326171875,0.004716779571026564,-0.012192217633128166,-0.004493342246860266
1733704730139060200,4.631060302734375,0.004341274034231901,-0.008585233241319656,-0.0004032596480101347
1733704730149027300,4.64102734375,0.004807519726455212,-0.011316565796732903,0.002120769117027521
1733704730158993400,4.650993408203125,0.007456033490598202,-0.00883236899971962,0.0009260749211534858
1733704730168960300,4.660960205078125,0.005935708526521921,-0.011866779997944832,-0.0019271201454102993
1733704730178927400,4.67092724609375,0.006816948764026165,-0.0017600832507014275,-0.0036216899752616882
1733704730188894200,4.680894287109375,0.0026047322899103165,0.011567696928977966,-0.0031902045011520386
1733704730198861300,4.690861328125,0.0011322703212499619,0.02650802955031395,-0.0040171160362660885
1733704730208827100,4.7008271484375,-0.001435927813872695,0.03892633318901062,-0.005586292594671249
1733704730218794200,4.710794189453125,-0.0023310163524001837,0.047857508063316345,-0.008684081956744194
1733704730228761300,4.72076123046875,-0.0020157601684331894,0.05229593813419342,-0.007388862781226635
1733704730238728200,4.730728271484375,-0.0012461068108677864,0.05106023699045181,-0.007292190566658974
1733704730248695300,4.7406953125,-0.0023421195801347494,0.04738961160182953,-0.008296222425997257
1733704730258661400,4.750661376953125,-0.0016872482374310493,0.03824405372142792,-0.007638155482709408
1733704730268628500,4.76062841796875,0.0011142068542540073,0.030426297336816788,-0.0009620285127311945
1733704730278595300,4.77059521484375,0.003031416330486536,0.02358117513358593,-0.0014416638296097517
1733704730288562200,4.780562255859375,0.0054450854659080505,0.01638561114668846,-0.002662284765392542
1733704730298529300,4.790529296875,0.007478941697627306,0.012250520288944244,-0.004296666476875544
1733704730308495400,4.800495361328125,0.004808141849935055,0.010653975419700146,-0.005749852396547794
1733704730318462500,4.81046240234375,0.0021399203687906265,0.008646750822663307,-0.004376193508505821
1733704730328429600,4.8204296875,0.002608255483210087,0.0036498447880148888,-0.004064111039042473
1733704730338396400,4.830396484375,-0.000643464270979166,-0.008578324690461159,-0.0058564189821481705
1733704730348363500,4.840363525390625,0.0018574950518086553,-0.016874071210622787,-0.005514970514923334
1733704730358329300,4.850329345703125,0.001050557242706418,-0.019092217087745667,-0.0031559420749545097
1733704730368296400,4.86029638671875,0.0016069686971604824,-0.021692270413041115,0.00012997770681977272
1733704730378263600,4.870263671875,0.003915130626410246,-0.018923914059996605,-0.0014138566330075264
1733704730388230400,4.88023046875,0.004681093618273735,-0.011631622910499573,-0.006585788447409868
1733704730398197500,4.890197509765625,0.00429200567305088,0.00016245245933532715,-0.007954120635986328
1733704730408163300,4.900163330078125,0.00018000073032453656,0.010360476560890675,-0.00649906974285841
1733704730418130400,4.91013037109375,-0.0006770044565200806,0.014056676998734474,-0.004540847614407539
1733704730428097300,4.92009716796875,0.00007059110794216394,0.009882166981697083,-0.004956393502652645
1733704730438064400,4.930064453125,0.0003733925404958427,0.003345438279211521,-0.0013129229191690683
1733704730448031500,4.940031494140625,0.00275562796741724,-0.005255216732621193,-0.0011880930978804827
1733704730457997300,4.949997314453125,0.005297615192830563,-0.013268135488033295,0.00008889264427125454
1733704730467964400,4.95996435546875,0.0014644276816397905,-0.020102888345718384,-0.0008659209124743938
1733704730477931300,4.96993115234375,0.000573600409552455,-0.018480757251381874,-0.0036665007937699556
1733704730487898400,4.9798984375,-0.0013093157904222608,-0.012393828481435776,-0.003358516376465559
1733704730497865500,4.989865478515625,-0.0019697798416018486,-0.007405728101730347,-0.0006881647277623415
1733704730507831300,4.999831298828125,-0.0005144969327375293,0.0033161714673042297,0.0034229643642902374
1733704730517798400,5.00979833984375,0.0003728683805093169,0.011092867702245712,-0.0008378271013498306
1733704730527765500,5.019765625,0.0026167593896389008,0.023036617785692215,-0.0029998673126101494
1733704730537732600,5.029732666015625,0.001847638632170856,0.03786616399884224,-0.004879792686551809
1733704730547699700,5.03969970703125,0.00014910806203261018,0.057623330503702164,-0.0072511471807956696
1733704730557665500,5.04966552734375,0.000474280008347705,0.07356368005275726,-0.009189661592245102
1733704730567632600,5.059632568359375,-0.0016696432139724493,0.0827142745256424,-0.011228952556848526
1733704730577599500,5.069599609375,-0.001218503573909402,0.0919642299413681,-0.015488944016397
1733704730587566600,5.079566650390625,0.0003482357715256512,0.10046907514333725,-0.016825323924422264
1733704730597533700,5.08953369140625,-0.00008665845962241292,0.10917574912309647,-0.020918069407343864
1733704730607499500,5.09949951171875,0.0008338067564181983,0.11888082325458527,-0.021649526432156563
1733704730617466600,5.109466552734375,0.0034189373254776,0.12707164883613586,-0.022569116204977036
1733704730627433500,5.11943359375,0.00742199644446373,0.12244600057601929,-0.022948740050196648
1733704730637400600,5.129400634765625,0.009672899730503559,0.11158083379268646,-0.028665482997894287
1733704730647367700,5.13936767578125,0.010535655543208122,0.09401752054691315,-0.029535582289099693
1733704730657334500,5.14933447265625,0.009939108043909073,0.07412371039390564,-0.02765539288520813
1733704730667300600,5.159300537109375,0.005502500105649233,0.05409781634807587,-0.023913558572530746
1733704730677267500,5.169267333984375,-0.0012981483014300466,0.03508710488677025,-0.015828732401132584
1733704730687234600,5.179234619140625,-0.0038384892977774143,0.014903567731380463,-0.003916509915143251
1733704730697201700,5.18920166015625,-0.004687771666795015,-0.008746366947889328,0.0035637766122817993
1733704730707167700,5.199167724609375,-0.0037381183356046677,-0.018459178507328033,0.003862112294882536
1733704730717134600,5.209134521484375,-0.0012762924889102578,-0.014929424971342087,0.006488255225121975
1733704730727101400,5.219101318359375,0.0015428646001964808,-0.012517690658569336,0.005270255263894796
1733704730737068500,5.229068603515625,0.004024131689220667,-0.006708269938826561,0.0009293027687817812
1733704730747035400,5.239035400390625,0.0020225790794938803,-0.002542034722864628,-0.002212319290265441
1733704730757002500,5.24900244140625,-0.0014334049774333835,0.007648551370948553,-0.0018671734724193811
1733704730766968800,5.25896875,-0.005656787659972906,0.006977987941354513,-0.00046953093260526657
1733704730776935700,5.268935791015625,-0.004320146981626749,0.0036405143328011036,0.0010253014042973518
1733704730786902800,5.27890283203125,-0.003605477511882782,-0.0063178278505802155,0.0036317177582532167
1733704730796869600,5.28886962890625,-0.006510187406092882,-0.011969588696956635,0.004324938636273146
1733704730806836500,5.29883642578125,-0.005506083834916353,-0.015597358345985413,0.001690354896709323
1733704730816802600,5.308802490234375,-0.006310625001788139,-0.01113150268793106,-0.0028215728234499693
1733704730826769700,5.318769775390625,0.000009687733836472034,-0.007067767903208733,-0.009231729432940483
1733704730836736800,5.32873681640625,0.00046668617869727314,-0.007965251803398132,-0.011909537948668003
1733704730846703600,5.33870361328125,0.0012008300982415676,0.00013156328350305557,-0.00722805131226778
1733704730856670700,5.348670654296875,0.0021909934002906084,0.0025308048352599144,0.0012900687288492918
1733704730866636500,5.358636474609375,0.0032388768158853054,0.0006679054349660873,0.00570279685780406
1733704730876603600,5.368603759765625,0.004241823218762875,-0.007957007735967636,0.0058958763256669044
1733704730886570800,5.37857080078125,0.00106280785985291,-0.014807989820837975,0.005145130679011345
1733704730896537600,5.38853759765625,-0.0017207280034199357,-0.018890349194407463,0.0056077223271131516
1733704730906504700,5.398504638671875,-0.002762631746008992,-0.025028908625245094,0.006572748068720102
1733704730916470500,5.408470458984375,-0.002065416192635894,-0.03396141529083252,0.008816461078822613
1733704730926437600,5.418437744140625,-0.0029709520749747753,-0.03915805742144585,0.005932902917265892
1733704730936404700,5.42840478515625,0.0018475052202120423,-0.04018017649650574,0.007983003742992878
1733704730946371600,5.43837158203125,0.0010855302680283785,-0.044610608369112015,0.005943646188825369
1733704730956338700,5.448338623046875,-0.0005919948453083634,-0.05012095347046852,0.005852299742400646
1733704730966304500,5.458304443359375,-0.006512926425784826,-0.04624393209815025,0.004109642002731562
1733704730976271600,5.468271728515625,-0.012139652855694294,-0.04646896943449974,0.0033043022267520428
1733704730986238700,5.47823876953125,-0.01791136898100376,-0.05041099339723587,0.010398922488093376
1733704730996205600,5.48820556640625,-0.020821139216423035,-0.06833167374134064,0.016909819096326828
1733704731006172700,5.498172607421875,-0.022082459181547165,-0.07448063790798187,0.022134235128760338
1733704731016138500,5.508138427734375,-0.023342134431004524,-0.06827227771282196,0.022468993440270424
1733704731026105600,5.518105712890625,-0.0211833193898201,-0.05894187092781067,0.022628143429756165
1733704731036072700,5.52807275390625,-0.018212296068668365,-0.0445655956864357,0.015670370310544968
1733704731046039600,5.53803955078125,-0.016102436929941177,-0.03378140181303024,0.012404856272041798
1733704731056006700,5.548006591796875,-0.011380651965737343,-0.025986865162849426,0.01374549139291048
1733704731065972500,5.557972412109375,-0.006075695157051086,-0.022461364045739174,0.015958964824676514
1733704731075939600,5.567939697265625,0.00048526839236728847,-0.02292289026081562,0.01320525724440813
1733704731085906400,5.577906494140625,0.006525377742946148,-0.02444116398692131,0.006834588944911957
1733704731095873500,5.58787353515625,0.00963461771607399,-0.030231144279241562,0.0009221045766025782
1733704731105840600,5.597840576171875,0.009919165633618832,-0.028235385194420815,-0.006920085288584232
1733704731115806500,5.607806396484375,0.010088009759783745,-0.02061554789543152,-0.010343045927584171
1733704731125773600,5.617773681640625,0.011039070785045624,-0.008651301264762878,-0.009089055471122265
1733704731135740400,5.627740478515625,0.011484351009130478,-0.0028765033930540085,-0.0063436031341552734
1733704731145707500,5.63770751953125,0.0129065727815032,0.0004804003983736038,-0.0048777200281620026
1733704731155674600,5.647674560546875,0.010084420442581177,0.006970257498323917,-0.006375481374561787
1733704731165640700,5.657640625,0.0013279826380312443,0.011170889250934124,-0.007259986363351345
1733704731175607800,5.66760791015625,-0.008558203466236591,0.014578936621546745,-0.0061196209862828255
1733704731185574700,5.67757470703125,-0.017889562994241714,0.01637975499033928,-0.005553883500397205
1733704731195541500,5.68754150390625,-0.022968744859099388,0.015930479392409325,-0.004901409149169922
1733704731205508600,5.697508544921875,-0.023788660764694214,0.011060910299420357,-0.002683397615328431
1733704731215475500,5.707475341796875,-0.021077828481793404,0.0030471920035779476,0.0004647248424589634
1733704731225441800,5.71744189453125,-0.01946050487458706,-0.007207576185464859,0.00042800349183380604
1733704731235408600,5.72740869140625,-0.011245186440646648,-0.015204781666398048,-0.001669235760346055
1733704731245375700,5.737375732421875,-0.0012006127508357167,-0.020827267318964005,-0.0032954919151961803
1733704731255342800,5.7473427734375,0.008674654178321362,-0.019820058718323708,-0.007229246664792299
1733704731265308700,5.75730859375,0.01722276210784912,-0.012414328753948212,-0.010838947258889675
1733704731275275800,5.76727587890625,0.019361281767487526,-0.003402991220355034,-0.012090632691979408
1733704731285242600,5.77724267578125,0.020421456545591354,-0.0029774149879813194,-0.012334784492850304
1733704731295209700,5.787209716796875,0.016385167837142944,0.002237587235867977,-0.009669758379459381
1733704731305176600,5.797176513671875,0.006734792608767748,0.004930527415126562,-0.005964212119579315
1733704731315143700,5.807143798828125,-0.002139925491064787,0.005632270127534866,-0.005727989599108696
1733704731325109800,5.81710986328125,-0.00867232121527195,0.009394305758178234,-0.0010063450317829847
1733704731335076600,5.82707666015625,-0.012018582783639431,0.01045291218906641,0.006655835546553135
1733704731345043700,5.837043701171875,-0.01189474668353796,0.00553139066323638,0.01315794326364994
1733704731355010600,5.847010498046875,-0.009150358848273754,-0.0030096331611275673,0.011691606603562832
1733704731364977700,5.856977783203125,-0.005798103753477335,-0.014841003343462944,0.007140258327126503
1733704731374943700,5.86694384765625,-0.004590892698615789,-0.028987182304263115,0.005110663361847401
1733704731384910600,5.87691064453125,-0.005773888435214758,-0.04072403162717819,0.0026283683255314827
1733704731394877700,5.886877685546875,-0.010560920462012291,-0.04496884346008301,0.0013838731683790684
1733704731404844500,5.896844482421875,-0.013121915981173515,-0.04547347128391266,0.0017542578279972076
1733704731414811600,5.906811767578125,-0.010646508075296879,-0.042694464325904846,0.004229665733873844
1733704731424777500,5.916777587890625,-0.011613990180194378,-0.03712419793009758,0.003322768956422806
1733704731434744600,5.92674462890625,-0.011193211190402508,-0.03076297417283058,0.0002580033615231514
1733704731444711700,5.936711669921875,-0.014752435497939587,-0.030251098796725273,-0.002638623584061861
1733704731454678500,5.946678466796875,-0.013996896333992481,-0.02349173091351986,-0.007114332169294357
1733704731464645600,5.956645751953125,-0.013244894333183765,-0.017186976969242096,-0.010162177495658398
1733704731474611500,5.966611572265625,-0.007522560656070709,-0.016953684389591217,-0.012482589110732079
1733704731484578600,5.97657861328125,0.003486993722617626,-0.013136561959981918,-0.01534983143210411
1733704731494545700,5.986545654296875,0.009853546507656574,-0.009857678785920143,-0.022295089438557625
1733704731504512500,5.996512451171875,0.010316786356270313,0.0007859058678150177,-0.025908704847097397
1733704731514479600,6.006479736328125,0.008742591366171837,0.009954104200005531,-0.026391269639134407
1733704731524445400,6.016445556640625,0.007995015941560268,0.012502460740506649,-0.023258546367287636
1733704731534412500,6.02641259765625,0.0009213939774781466,0.010984458960592747,-0.01623712293803692
1733704731544379600,6.036379638671875,-0.002027851529419422,0.007022235542535782,-0.00981184747070074
1733704731554346500,6.046346435546875,-0.00452456483617425,0.0010343845933675766,-0.004600041545927525
1733704731564313600,6.056313720703125,-0.005388608202338219,-0.005307130515575409,-0.004041341133415699
1733704731574279400,6.066279541015625,-0.008847787976264954,-0.011311760172247887,-0.00801557581871748
1733704731584246500,6.07624658203125,-0.010272067040205002,-0.014247110113501549,-0.011353820562362671
1733704731594213600,6.086213623046875,-0.01194559782743454,-0.012819122523069382,-0.008740726858377457
1733704731604180500,6.096180419921875,-0.009880094788968563,-0.017028244212269783,-0.0016009686514735222
1733704731614147600,6.106147705078125,-0.005368699785321951,-0.021358277648687363,0.0006342222914099693
1733704731624114700,6.11611474609375,0.0001564428093843162,-0.03028414212167263,-0.000586074311286211
1733704731634080800,6.126080810546875,0.0025620763190090656,-0.03618038445711136,-0.00016609369777143002
1733704731644047600,6.136047607421875,0.004216919653117657,-0.03682885318994522,0.0017983451252803206
1733704731654014500,6.146014404296875,0.002667492488399148,-0.03579634800553322,0.004186667967587709
1733704731663981600,6.155981689453125,0.0017529184697195888,-0.02996748313307762,0.005242169834673405
1733704731673948700,6.16594873046875,0.00040242946124635637,-0.02922872081398964,0.006436597555875778
1733704731683914800,6.175914794921875,0.0004760962328873575,-0.02224217914044857,0.006270626559853554
1733704731693881900,6.1858818359375,-0.0020419226493686438,-0.017328914254903793,0.005666355136781931
1733704731703848700,6.1958486328125,0.002024206332862377,-0.01748604141175747,0.0036457849200814962
1733704731713815800,6.20581591796875,0.0010987577261403203,-0.01882055029273033,0.002887050388380885
1733704731723782700,6.21578271484375,0.0036821868270635605,-0.01758911833167076,0.0028750007040798664
1733704731733748700,6.225748779296875,0.005349325481802225,-0.009441975504159927,0.0014744442887604237
1733704731743715800,6.2357158203125,0.007487105205655098,-0.0010290350764989853,0.0004958873614668846
1733704731753682700,6.2456826171875,0.008245839737355709,-0.0006279628723859787,0.0013225326547399163
1733704731763649800,6.25564990234375,0.013369672000408173,-0.006373744457960129,0.004185868892818689
1733704731773616600,6.26561669921875,0.015773173421621323,-0.002010420896112919,0.0036404537968337536
1733704731783582700,6.275582763671875,0.016741929575800896,0.001040504314005375,0.00048029155004769564
1733704731793549600,6.285549560546875,0.012271280400454998,0.006881615146994591,-0.0023517138324677944
1733704731803516700,6.2955166015625,0.010497904382646084,0.009429470635950565,-0.00510678393766284
1733704731813483800,6.30548388671875,0.006000091787427664,0.005764960777014494,-0.0012241611257195473
1733704731823450600,6.31545068359375,0.008725542575120926,0.0020943256095051765,0.0048095546662807465
1733704731833416700,6.325416748046875,0.003986980766057968,-0.005369981750845909,0.008907360956072807
1733704731843383600,6.335383544921875,0.0019774523098021746,-0.013704095035791397,0.009824343957006931
1733704731853350700,6.3453505859375,0.0018376363441348076,-0.020722324028611183,0.008875459432601929
1733704731863317800,6.35531787109375,0.0020289276726543903,-0.020154790952801704,0.005982857663184404
1733704731873284600,6.36528466796875,0.003594599897041917,-0.01869351416826248,0.001936184475198388
1733704731883250700,6.375250732421875,0.00356691749766469,-0.020286617800593376,0.004830478224903345
1733704731893217500,6.385217529296875,0.005479333456605673,-0.01916835643351078,0.0041614919900894165
1733704731903184600,6.3951845703125,0.005412338301539421,-0.02116307057440281,0.00021817651577293873
1733704731913151700,6.40515185546875,0.0049995481967926025,-0.018742790445685387,-0.0028018481098115444
1733704731923118600,6.41511865234375,0.0013729599304497242,-0.009888054803013802,-0.0014457118231803179
1733704731933085700,6.425085693359375,-0.001040662988089025,-0.00004075095057487488,-0.0023101738188415766
1733704731943051500,6.435051513671875,-0.0026764364447444677,0.008526643738150597,-0.0014666295610368252
1733704731953018600,6.4450185546875,-0.001817034324631095,0.018441859632730484,-0.0002503639552742243
1733704731962985700,6.45498583984375,-0.0012284459080547094,0.024411331862211227,-0.0007167442236095667
1733704731972952600,6.46495263671875,0.000015516765415668488,0.029393041506409645,-0.00578101072460413
1733704731982919700,6.474919677734375,0.0007099362555891275,0.03151186183094978,-0.00934910960495472
1733704731992885500,6.484885498046875,-0.0013691935455426574,0.03330763429403305,-0.012798968702554703
1733704732002852600,6.4948525390625,-0.00008494406938552856,0.027666784822940826,-0.00923927128314972
1733704732012819700,6.50481982421875,-0.00036963593447580934,0.020924724638462067,-0.007078382186591625
1733704732022786600,6.51478662109375,0.0030379565432667732,0.012574128806591034,-0.008102512918412685
1733704732032753700,6.524753662109375,0.004216671455651522,0.009100302122533321,-0.010152347385883331
1733704732042719500,6.534719482421875,0.00424846401438117,0.006503980606794357,-0.01021647173911333
1733704732052686600,6.5446865234375,0.0023869143333286047,0.006257105618715286,-0.010481455363333225
1733704732062653400,6.5546533203125,0.0009020978468470275,0.009675527922809124,-0.012283415533602238
1733704732072620500,6.56462060546875,0.00020488229347392917,0.01515258476138115,-0.014536716043949127
1733704732082587600,6.574587646484375,0.00009591423440724611,0.019278623163700104,-0.012589321471750736
1733704732092553700,6.5845537109375,-0.0011728156823664904,0.02317456156015396,-0.011615936644375324
1733704732102520800,6.594520751953125,-0.0011408277787268162,0.025463813915848732,-0.010225560516119003
1733704732112487700,6.60448779296875,-0.0028404572512954473,0.02624145708978176,-0.008851636201143265
1733704732122454500,6.61445458984375,-0.0019620712846517563,0.026965050026774406,-0.007780387997627258
1733704732132421600,6.624421630859375,-0.0027714059688150883,0.023762598633766174,-0.007160671055316925
1733704732142387700,6.6343876953125,0.0007882186910137534,0.018168626353144646,-0.008688881993293762
1733704732152354800,6.644354736328125,0.002277191961184144,0.011586356908082962,-0.010781061835587025
1733704732162321700,6.65432177734375,0.003560692071914673,0.004183309618383646,-0.01738860085606575
1733704732172288800,6.664288818359375,0.0037532388232648373,0.0013995077461004257,-0.01902111805975437
1733704732182255900,6.674255859375,0.002250826684758067,0.0012021595612168312,-0.014899106696248055
1733704732192222700,6.68422265625,0.0005733015714213252,-0.0007512690499424934,-0.009299011901021004
1733704732202188800,6.694188720703125,0.001321506453678012,-0.0037712864577770233,-0.007555677555501461
1733704732212155600,6.70415576171875,0.001672510989010334,-0.004075951874256134,-0.008221733383834362
1733704732222122800,6.714122802734375,0.0018720246152952313,-0.0037497160956263542,-0.008589604869484901
1733704732232089900,6.72408984375,0.003085893578827381,-0.004395799711346626,-0.008819702081382275
1733704732242056700,6.734056640625,0.003931000363081694,-0.004750802181661129,-0.012102225795388222
1733704732252022800,6.744022705078125,0.006471123546361923,-0.011990604922175407,-0.01684744656085968
1733704732261989600,6.75398974609375,0.005037365481257439,-0.01774197444319725,-0.022391263395547867
1733704732271956700,6.763956787109375,0.006407028995454311,-0.019379286095499992,-0.024126842617988586
1733704732281923800,6.773923828125,0.002361681079491973,-0.015372548252344131,-0.019964559003710747
1733704732291890700,6.783890625,-0.005770014598965645,-0.010086439549922943,-0.016510970890522003
1733704732301856800,6.793856689453125,-0.00912567786872387,-0.0005944296717643738,-0.013663382269442081
1733704732311823600,6.80382373046875,-0.01105620339512825,0.006531390827149153,-0.009097393602132797
1733704732321790700,6.813790771484375,-0.00960842240601778,0.011922177858650684,-0.010693327523767948
1733704732331757600,6.823757568359375,-0.01069019827991724,0.012439364567399025,-0.015644676983356476
1733704732341724700,6.833724609375,-0.004251424688845873,0.009695520624518394,-0.02347632125020027
1733704732351690800,6.843690673828125,-0.0026679090224206448,0.005933539010584354,-0.023862745612859726
1733704732361657600,6.85365771484375,-0.0025937873870134354,0.003854405600577593,-0.020573651418089867
1733704732371624700,6.863624755859375,-0.0014552860520780087,0.0030610496178269386,-0.015102187171578407
1733704732381591600,6.873591552734375,-0.0037038689479231834,0.009236108511686325,-0.013875657692551613
1733704732391558700,6.88355859375,-0.004715071525424719,0.01317971758544445,-0.009401015937328339
1733704732401525800,6.89352587890625,-0.0031574773602187634,0.023037148639559746,-0.008013062179088593
1733704732411491600,6.90349169921875,-0.005998803768306971,0.03691940754652023,-0.006623690482228994
1733704732421458700,6.913458740234375,-0.004783172160387039,0.04307024925947189,-0.009142299182713032
1733704732431425500,6.923425537109375,-0.0057837218046188354,0.043692633509635925,-0.008565192110836506
1733704732441392600,6.933392578125,-0.008121120743453503,0.03872290253639221,-0.009648685343563557
1733704732451359700,6.94335986328125,-0.007874777540564537,0.03595161810517311,-0.011331004090607166
1733704732461325600,6.95332568359375,-0.003411082550883293,0.02632775530219078,-0.012278497219085693
1733704732471292700,6.963292724609375,-0.0005433907499536872,0.014958187937736511,-0.009980988688766956
1733704732481259500,6.973259521484375,0.0024806286673992872,0.006954855751246214,-0.005893302150070667
1733704732491226600,6.9832265625,0.003156006336212158,0.00533538730815053,-0.002593912184238434
1733704732501193700,6.99319384765625,0.0017858388600870967,0.009022798389196396,-0.0039953263476490974
1733704732511159600,7.00315966796875,0.004660987760871649,0.001772075891494751,-0.0036437895614653826
1733704732521126700,7.013126708984375,0.00853341817855835,-0.001785636879503727,0.004338651429861784
1733704732531093500,7.023093505859375,0.013090086169540882,0.00296517601236701,0.007583180442452431
1733704732541060600,7.033060546875,0.016360055655241013,0.001034388318657875,0.004900576546788216
1733704732551027700,7.04302783203125,0.014443377032876015,-0.001637827605009079,-0.0015048584900796413
1733704732560994600,7.05299462890625,0.016798891127109528,-0.011391662061214447,-0.005407897289842367
1733704732570960600,7.062960693359375,0.01639355719089508,-0.022013945505023003,-0.002328484319150448
1733704732580927500,7.072927490234375,0.014352096244692802,-0.026792198419570923,0.0005592068191617727
1733704732590894600,7.08289453125,0.008557324297726154,-0.03275128826498985,0.006750789936631918
1733704732600861400,7.092861328125,0.008159229531884193,-0.038917556405067444,0.011454114690423012
1733704732610828500,7.10282861328125,0.005401526112109423,-0.04520155116915703,0.014974813908338547
1733704732620795000,7.112794921875,0.0010043239453807473,-0.05128180980682373,0.016881221905350685
1733704732630761700,7.12276171875,0.0016916857566684484,-0.052351340651512146,0.018405349925160408
1733704732640728800,7.132728759765625,0.004378765821456909,-0.052417658269405365,0.016962535679340363
1733704732650695700,7.14269580078125,0.008138616569340229,-0.05222991108894348,0.011305182240903378
1733704732660662500,7.15266259765625,0.013493065722286701,-0.0489313118159771,0.00820174440741539
1733704732670628600,7.162628662109375,0.017595931887626648,-0.04268753156065941,0.007293339818716049
1733704732680595700,7.172595703125,0.024227945134043694,-0.043621499091386795,0.009723858907818794
1733704732690562800,7.182562744140625,0.024700921028852463,-0.04919176548719406,0.009858881123363972
1733704732700529700,7.19252978515625,0.024333223700523376,-0.053107138723134995,0.010857148095965385
1733704732710496800,7.202496826171875,0.020650072023272514,-0.05327598378062248,0.009897877462208271
1733704732720462600,7.212462646484375,0.013658656738698483,-0.05293137580156326,0.01607576385140419
1733704732730429700,7.2224296875,0.005345866084098816,-0.04960562288761139,0.02216082252562046
1733704732740396800,7.232396728515625,0.0035387168172746897,-0.04972120746970177,0.028249990195035934
1733704732750363600,7.24236376953125,0.0030761256348341703,-0.05448586866259575,0.02737567573785782
1733704732760330800,7.252330810546875,0.010167966596782207,-0.05663769692182541,0.021598804742097855
1733704732770297900,7.2622978515625,0.014691878110170364,-0.05316600203514099,0.016966767609119415
1733704732780263700,7.272263671875,0.01771751046180725,-0.04791823774576187,0.01334430743008852
1733704732790230800,7.282230712890625,0.022670457139611244,-0.04739093780517578,0.009834260679781437
1733704732800197600,7.29219775390625,0.027750594541430473,-0.04912279546260834,0.011776978150010109
1733704732810164700,7.302164794921875,0.029752759262919426,-0.05101017653942108,0.011646749451756477
1733704732820131600,7.312131591796875,0.032669663429260254,-0.05141923576593399,0.015824835747480392
1733704732830097700,7.32209765625,0.031701602041721344,-0.049823202192783356,0.015486082062125206
1733704732840064800,7.332064697265625,0.030270373448729515,-0.04863464832305908,0.017051303759217262
1733704732850031600,7.342031494140625,0.027379777282476425,-0.04963759332895279,0.01770590804517269
1733704732859998700,7.351998779296875,0.022445088252425194,-0.05408213287591934,0.01913680136203766
1733704732869965600,7.361965576171875,0.019805096089839935,-0.05871789902448654,0.019228680059313774
1733704732879931600,7.371931640625,0.017594333738088608,-0.057939983904361725,0.01189370732754469
1733704732889898500,7.3818984375,0.012656299397349358,-0.055341534316539764,0.00537056103348732
1733704732899865600,7.391865478515625,0.006102556362748146,-0.04852838069200516,0.0027832170017063618
1733704732909832700,7.401832763671875,0.0005408110446296632,-0.04395093768835068,0.0029853510204702616
1733704732919799600,7.411799560546875,-0.005913726985454559,-0.03508953005075455,0.00474883709102869
1733704732929766700,7.4217666015625,-0.010712742805480957,-0.027321886271238327,0.0044793253764510155
1733704732939732500,7.431732421875,-0.01372053474187851,-0.017790982499718666,0.0008803535019978881
1733704732949699600,7.441699462890625,-0.014578606002032757,-0.00442191306501627,-0.004056082107126713
1733704732959666700,7.451666748046875,-0.018055932596325874,0.012959490530192852,-0.011199384927749634
1733704732969633500,7.461633544921875,-0.016262294724583626,0.02439909800887108,-0.014246041886508465
1733704732979600600,7.4716005859375,-0.014662686735391617,0.03264237940311432,-0.013801796361804008
1733704732989566500,7.48156640625,-0.008685754612088203,0.033649053424596786,-0.009407579898834229
1733704732999533600,7.491533447265625,-0.004049415700137615,0.02442573383450508,-0.009673694148659706
1733704733009500700,7.501500732421875,0.003822621889412403,0.012647902593016624,-0.011109670624136925
1733704733019467500,7.511467529296875,0.00702186394482851,0.005044309422373772,-0.01498320885002613
1733704733029434600,7.5214345703125,0.008270619437098503,0.00014222878962755203,-0.013809554278850555
1733704733039400700,7.531400634765625,0.00964893028140068,-0.00042262766510248184,-0.013647097162902355
1733704733049367600,7.541367431640625,0.005576691124588251,-0.000393865630030632,-0.00838522333651781
1733704733059334700,7.551334716796875,0.0023984606377780437,-0.007094644010066986,-0.005430682096630335
1733704733069301500,7.561301513671875,-0.0005741597851738334,-0.01740161143243313,-0.0017336821183562279
1733704733079268600,7.5712685546875,-0.0030578377190977335,-0.027550918981432915,0.0004903525114059448
1733704733089235500,7.5812353515625,-0.00269058789126575,-0.029699290171265602,0.0015303168911486864
1733704733099201800,7.591201904296875,-0.004959193058311939,-0.022269628942012787,0.002696210751309991
1733704733109168600,7.601168701171875,-0.0011524705914780498,-0.014887876808643341,0.0020115121733397245
1733704733119135700,7.6111357421875,0.004957296419888735,-0.01326572336256504,0.0012909891083836555
1733704733129102600,7.6211025390625,0.009163493290543556,-0.015623686835169792,-0.0006328783929347992
1733704733139069400,7.6310693359375,0.010715077631175518,-0.013654032722115517,-0.004932353273034096
1733704733149035800,7.641035888671875,0.010317733511328697,-0.012680914252996445,-0.00691534299403429
1733704733159002600,7.651002685546875,0.007112578488886356,-0.01337890699505806,-0.0062222909182310104
1733704733168969700,7.6609697265625,0.004752751439809799,-0.012346133589744568,-0.0012669474817812443
1733704733178936800,7.670936767578125,0.002368553075939417,-0.007057102397084236,-0.0009995668660849333
1733704733188903700,7.680903564453125,0.004098009783774614,-0.004550534300506115,0.00010671024210751057
1733704733198869800,7.690869873046875,0.004200845956802368,-0.002835984341800213,0.0013309046626091003
1733704733208836600,7.700836669921875,0.004473820328712463,-0.005752412602305412,0.003147713141515851
1733704733218803700,7.7108037109375,0.003566104220226407,-0.00520513579249382,0.00437617301940918
1733704733228770800,7.720770751953125,0.005720068700611591,-0.0018969569355249405,-0.000009787268936634064
1733704733238737700,7.730737548828125,0.005846433341503143,-0.010259291157126427,-0.0033714985474944115
1733704733248704800,7.740704833984375,0.006372674368321896,-0.01774543523788452,-0.004557936452329159
1733704733258670600,7.750670654296875,0.0060609388165175915,-0.02384832687675953,-0.0051533873192965984
1733704733268637700,7.7606376953125,0.007970425300300121,-0.024256059899926186,-0.004679344594478607
1733704733278604800,7.770604736328125,0.004921287298202515,-0.0289583969861269,-0.003800857113674283
1733704733288571600,7.780571533203125,0.004740724805742502,-0.03419949859380722,0.00000639772042632103
1733704733298538800,7.790538818359375,0.004411907866597176,-0.023891756311058998,-0.0005906017031520605
1733704733308504600,7.800504638671875,0.002556483494117856,-0.00784221664071083,-0.004787743091583252
1733704733318471700,7.8104716796875,-0.0033231577835977077,0.01210168655961752,-0.008130154572427273
1733704733328438800,7.820438720703125,-0.003861116711050272,0.028467876836657524,-0.011869233101606369
1733704733338405600,7.830405517578125,-0.005449228920042515,0.036647237837314606,-0.014529874548316002
1733704733348372700,7.840372802734375,-0.004944027401506901,0.039784178137779236,-0.01081263367086649
1733704733358338600,7.850338623046875,-0.003106107469648123,0.03534761071205139,-0.012426658533513546
1733704733368305700,7.8603056640625,-0.0002607860369607806,0.03346662223339081,-0.016185443848371506
1733704733378272800,7.870272705078125,-0.0017692174296826124,0.0267003383487463,-0.015674859285354614
1733704733388239600,7.880239501953125,-0.0007894404698163271,0.02008877508342266,-0.010750142857432365
1733704733398206700,7.890206787109375,-0.002978124190121889,0.010740276426076889,-0.003858232870697975
1733704733408173600,7.900173583984375,0.0027351551689207554,0.0030996673740446568,0.0018987224902957678
1733704733418139600,7.9101396484375,0.0061669908463954926,-0.00019493233412504196,-0.00008391262963414192
1733704733428106500,7.9201064453125,0.008940672501921654,-0.0018365057185292244,-0.003250943496823311
1733704733438073600,7.930073486328125,0.008355310186743736,0.00008975900709629059,-0.004765749908983707
1733704733448040700,7.940040771484375,0.00413526501506567,0.0030501289293169975,-0.006754332222044468
1733704733458007600,7.950007568359375,-0.0003196850884705782,0.005357471294701099,-0.0038293632678687572
1733704733467973600,7.9599736328125,-0.000610502203926444,0.008200395852327347,0.00037177326157689095
1733704733477940500,7.9699404296875,-0.0006751632899977267,0.008262473158538342,0.0009938066359609365
1733704733487907600,7.979907470703125,0.0012170126428827643,0.004222458228468895,0.0005178997525945306
1733704733497874700,7.989874755859375,0.0005066647427156568,0.0036836969666182995,-0.0019216705113649368
1733704733507841500,7.999841552734375,0.0018385115545243025,0.004521527327597141,-0.004803743679076433
1733704733517807600,8.0098076171875,0.0038569504395127296,0.008099748753011227,-0.003799258731305599
1733704733527774500,8.0197744140625,0.007597093936055899,0.01458587683737278,-0.0021933726966381073
1733704733537741300,8.0297412109375,0.009304460138082504,0.02156149595975876,-0.005612102337181568
1733704733547708200,8.039708251953124,0.008213363587856293,0.026227619498968124,-0.012777336873114109
1733704733557675000,8.049675048828124,0.007713064551353455,0.034183818846940994,-0.017286010086536407
1733704733567642000,8.05964208984375,0.004458948038518429,0.04416428506374359,-0.021122559905052185
1733704733577608200,8.069608154296875,-0.00024982314789667726,0.047223977744579315,-0.02318006008863449
1733704733587575300,8.0795751953125,-0.004329252988100052,0.04300206899642944,-0.02057468891143799
1733704733597542100,8.089542236328125,-0.004281775094568729,0.032035961747169495,-0.014713488519191742
1733704733607509200,8.09950927734375,-0.004189895931631327,0.01708364486694336,-0.009726187214255333
1733704733617476400,8.109476318359375,-0.004509845282882452,0.006383073050528765,-0.006168259307742119
1733704733627442200,8.119442138671875,-0.0065013570711016655,0.000713735818862915,-0.004456114023923874
1733704733637409300,8.1294091796875,-0.006522011011838913,-0.011247595772147179,-0.0037894996348768473
1733704733647376100,8.139376220703125,-0.007724162191152573,-0.01962749846279621,0.0011456044157966971
1733704733657343200,8.14934326171875,-0.006867674645036459,-0.023465914651751518,0.0020720879547297955
1733704733667310000,8.15931005859375,-0.006853559985756874,-0.023993218317627907,0.004276652820408344
1733704733677276200,8.169276123046876,-0.0019291832577437162,-0.02591628208756447,0.005070159677416086
1733704733687243300,8.1792431640625,0.0032266967464238405,-0.02592374011874199,0.008206297643482685
1733704733697210000,8.189210205078124,0.00568543141707778,-0.01873268187046051,0.010858328081667423
1733704733707177200,8.19917724609375,0.009297210723161697,-0.006776154041290283,0.011401080526411533
1733704733717144000,8.20914404296875,0.005469548050314188,0.004488774109631777,0.008697000332176685
1733704733727111200,8.219111083984375,0.0012713411124423146,0.016752364113926888,0.0035283369943499565
1733704733737077000,8.229076904296875,-0.003220557002350688,0.020457088947296143,0.0038094501942396164
1733704733747044000,8.239044189453125,-0.003198452526703477,0.023106668144464493,-0.00015173549763858318
1733704733757011200,8.24901123046875,-0.0016805605264380574,0.021174270659685135,-0.002566747833043337
1733704733766978000,8.25897802734375,0.001126144896261394,0.013431929983198643,-0.005696495063602924
1733704733776945200,8.268945068359375,0.005298657342791557,0.00771093275398016,-0.009883517399430275
1733704733786911000,8.278910888671875,0.001384609378874302,0.006095459219068289,-0.006297570653259754
1733704733796878000,8.288878173828126,-0.0007252412615343928,0.0009166691452264786,-0.004125851672142744
1733704733806845200,8.29884521484375,-0.0037865452468395233,-0.004265043884515762,0.003348043654114008
1733704733816812000,8.30881201171875,-0.004474497400224209,-0.0052605289965868,0.00869286060333252
1733704733826779100,8.318779052734374,-0.0037314756773412228,-0.008125025779008865,0.010715797543525696
1733704733836745000,8.328744873046874,-0.003073453903198242,-0.012086493894457817,0.009763266891241074
1733704733846712000,8.338712158203125,-0.0023599930573254824,-0.01421436108648777,0.011896193027496338
1733704733856679200,8.34867919921875,0.0015080422163009644,-0.015052441507577896,0.009805499576032162
1733704733866646000,8.35864599609375,0.008277797140181065,-0.023541800677776337,0.011481959372758865
1733704733876613000,8.368613037109375,0.011334380134940147,-0.03391455113887787,0.01589440181851387
1733704733886580200,8.378580322265625,0.020629610866308212,-0.04276396706700325,0.014346837997436523
1733704733896546000,8.388546142578125,0.021362721920013428,-0.04828949272632599,0.011894719675183296
1733704733906513200,8.39851318359375,0.018097152933478355,-0.05772320553660393,0.0109516941010952
1733704733916480000,8.40847998046875,0.01582920551300049,-0.060950424522161484,0.011815623380243778
1733704733926447000,8.418447021484376,0.010971332900226116,-0.05791788175702095,0.016237536445260048
1733704733936414000,8.4284140625,0.005484066437929869,-0.055263787508010864,0.015984708443284035
1733704733946380000,8.438380126953126,-0.0017224473413079977,-0.05398333817720413,0.012387309223413467
1733704733956347100,8.44834716796875,0.0008038448286242783,-0.049928661435842514,0.007404778152704239
1733704733966314000,8.45831396484375,-0.003760280553251505,-0.040792688727378845,0.0026030989829450846
1733704733976281000,8.468281005859374,-0.0076402826234698296,-0.026971682906150818,0.0023307460360229015
1733704733986248000,8.478248046875,-0.009851505048573017,-0.012981830164790154,-0.000024819979444146156
1733704733996214300,8.48821435546875,-0.009300116449594498,0.0025939294137060642,-0.006199861876666546
1733704734006181000,8.49818115234375,-0.009447122924029827,0.0222264863550663,-0.013366695493459702
1733704734016148000,8.50814794921875,-0.010247832164168358,0.0338040366768837,-0.01977233961224556
1733704734026115000,8.518114990234375,-0.014812756329774857,0.041679538786411285,-0.01978219300508499
1733704734036082000,8.52808203125,-0.018748775124549866,0.05335511267185211,-0.019610416144132614
1733704734046048300,8.53804833984375,-0.021189294755458832,0.05781137943267822,-0.022427508607506752
1733704734056015000,8.54801513671875,-0.02539682388305664,0.05750458687543869,-0.023029116913676262
1733704734065982200,8.557982177734376,-0.02286415733397007,0.05196254700422287,-0.02637511119246483
1733704734075949300,8.56794921875,-0.02093636989593506,0.043953076004981995,-0.025332875549793243
1733704734085916200,8.577916259765624,-0.01655280776321888,0.03477209433913231,-0.024150963872671127
1733704734095883000,8.587883056640624,-0.01800295151770115,0.02772378921508789,-0.02175559476017952
1733704734105849000,8.59784912109375,-0.016894277185201645,0.021132731810212135,-0.018880710005760193
1733704734115816200,8.607816162109375,-0.01221357099711895,0.018392331898212433,-0.015086652711033821
1733704734125783300,8.617783203125,-0.0073205456137657166,0.015313717536628246,-0.009386423975229263
1733704734135750100,8.627750244140625,-0.004230665974318981,0.01337148156017065,-0.008109851740300655
1733704734145717200,8.63771728515625,-0.00019997148774564266,0.011601012200117111,-0.008223302662372589
1733704734155683000,8.64768310546875,0.0008533172658644617,0.011578893288969994,-0.006214513443410397
1733704734165650200,8.657650146484375,0.0018104573246091604,0.006331134121865034,-0.0030112629756331444
1733704734175617300,8.6676171875,0.004061375744640827,0.004111653659492731,0.0009070156374946237
1733704734185584000,8.677584228515625,0.0037678955122828484,0.004723381716758013,-0.00011244253255426884
1733704734195551200,8.68755126953125,0.004691068083047867,0.009439828805625439,-0.0014445334672927856
1733704734205517000,8.69751708984375,0.0038801354821771383,0.018308421596884727,-0.0049585746601223946
1733704734215484200,8.707484130859376,-0.001068138750270009,0.02413862571120262,-0.006560488138347864
1733704734225451300,8.717451171875,-0.0007259225239977241,0.02263287454843521,-0.007182069588452578
1733704734235418000,8.727418212890624,-0.0022462017368525267,0.01861950010061264,-0.007393490523099899
1733704734245385200,8.73738525390625,-0.0011090319603681564,0.006996134761720896,-0.008318406529724598
1733704734255352000,8.74735205078125,-0.0035768598318099976,-0.0006010588258504868,-0.01294961478561163
1733704734265318100,8.757318115234375,-0.0014676360879093409,-0.0042898040264844894,-0.010818553157150745
1733704734275285000,8.767284912109375,-0.003377821994945407,-0.008611852303147316,-0.008342285640537739
1733704734285252000,8.777252197265625,-0.003402589587494731,-0.01104385033249855,-0.003190134186297655
1733704734295219200,8.78721923828125,-0.004102734848856926,-0.01560904085636139,-0.0014084794092923403
1733704734305186000,8.79718603515625,-0.001763147534802556,-0.024434225633740425,0.0019433749839663506
1733704734315152100,8.807152099609375,0.0043824645690619946,-0.0304335318505764,0.0026161468122154474
1733704734325119000,8.817118896484375,-0.00008339021587744355,-0.041774604469537735,0.003350646700710058
1733704734335086000,8.827086181640626,-0.004999629221856594,-0.05325575917959213,0.005500706844031811
1733704734345053200,8.83705322265625,0.02244557812809944,-0.05100645124912262,-0.005877915769815445
1733704734355020000,8.84702001953125,0.023821352049708366,-0.05269728973507881,-0.001623752061277628
1733704734364986000,8.856986083984374,-0.002710656961426139,-0.024247802793979645,0.010225983336567879
1733704734374953000,8.866952880859374,-0.016880761831998825,-0.013468395918607712,0.012416609562933445
1733704734384920000,8.876920166015625,-0.0334048755466938,-0.0031353309750556946,0.009118018671870232
1733704734394887200,8.88688720703125,-0.048392388969659805,0.015402136370539665,0.012358375824987888
1733704734404854000,8.89685400390625,-0.047063738107681274,0.02217695116996765,0.011415350250899792
1733704734414820000,8.906820068359375,-0.03849714994430542,0.04791560396552086,0.004135599825531244
1733704734424787000,8.916786865234375,-0.02339969016611576,0.07413043081760406,-0.011441228911280632
1733704734434754000,8.926754150390625,0.003542498918250203,0.08442141860723495,-0.021916065365076065
1733704734444721200,8.93672119140625,0.027328787371516228,0.07856353372335434,-0.01880495995283127
1733704734454688000,8.94668798828125,0.03801165521144867,0.05400253087282181,-0.002536505926400423
1733704734464655000,8.956655029296876,0.04872608557343483,0.021023541688919067,0.008442908525466919
1733704734474621200,8.96662109375,0.04831930249929428,-0.009472846984863281,0.011287931352853775
1733704734484588000,8.976588134765626,0.0404328852891922,-0.03887574374675751,0.010239711031317711
1733704734494555000,8.986554931640624,0.031487587839365005,-0.05577510595321655,0.008753401227295399
1733704734504522000,8.99652197265625,0.013781558722257614,-0.0681348368525505,0.009476715698838234
1733704734514489000,9.006489013671874,-0.0015136238653212786,-0.0692530944943428,0.010625310242176056
1733704734524455200,9.016455078125,-0.011084225960075855,-0.06955908983945847,0.006436157040297985
1733704734534422500,9.026422607421875,-0.014085122384130955,-0.07314877957105637,0.0027861115522682667
1733704734544389600,9.0363896484375,-0.015859054401516914,-0.06755800545215607,0.004401318728923798
1733704734554356700,9.046356689453125,-0.019069194793701172,-0.06521813571453094,0.003529879031702876
1733704734564323600,9.056323486328125,-0.013538875617086887,-0.06329640001058578,0.002572206314653158
1733704734574290000,9.0662900390625,-0.0035595069639384747,-0.04664818197488785,0.005067381076514721
1733704734584256800,9.0762568359375,-0.0029874600004404783,-0.03589966148138046,0.007560365833342075
1733704734594223600,9.0862236328125,-0.002116548828780651,-0.026906969025731087,0.0062848604284226894
1733704734604190700,9.096190673828126,0.002794319996610284,-0.030150698497891426,0.009809020906686783
1733704734614157600,9.106157470703126,0.006042975001037121,-0.03724723309278488,0.014459696598351002
1733704734624124700,9.116124755859374,0.0071234190836548805,-0.054909847676754,0.018007293343544006
1733704734634090800,9.1260908203125,0.005012577399611473,-0.07987005263566971,0.02256082557141781
1733704734644057900,9.136057861328124,0.0027973600663244724,-0.09676168113946915,0.026196040213108063
1733704734654025000,9.14602490234375,0.0013761440059170127,-0.10855655372142792,0.029945537447929382
1733704734663991800,9.15599169921875,0.0008381854277104139,-0.1167692095041275,0.03011038526892662
1733704734673958700,9.165958740234375,0.0016848761588335037,-0.12195491790771484,0.027847349643707275
1733704734683924700,9.1759248046875,0.004707563668489456,-0.13230448961257935,0.02746705152094364
1733704734693891800,9.185891845703125,0.016742002218961716,-0.13647980988025665,0.02888435125350952
1733704734703859000,9.19585888671875,0.0035329898819327354,-0.14750796556472778,0.02778925932943821
1733704734713825800,9.20582568359375,0.0012418427504599094,-0.13920636475086212,0.019409948959946632
1733704734723793000,9.21579296875,0.0009060181910172105,-0.12774118781089783,0.014885772950947285
1733704734733758700,9.2257587890625,-0.0013916937168687582,-0.10240837931632996,0.010154818184673786
1733704734743725800,9.235725830078126,-0.005151811055839062,-0.058055296540260315,0.010282916016876698
1733704734753692700,9.245692626953126,-0.00832860916852951,-0.005967866629362106,0.00976395420730114
1733704734763659800,9.25565966796875,-0.012974760495126247,0.04059670493006706,0.00016858498565852642
1733704734773627000,9.265626953125,-0.015437621623277664,0.07813207060098648,-0.013748900964856148
1733704734783592700,9.2755927734375,-0.017423007637262344,0.09875611960887909,-0.027813853695988655
1733704734793559800,9.285559814453125,-0.02160341665148735,0.10463454574346542,-0.03918677940964699
1733704734803526700,9.295526611328125,-0.020744014531373978,0.09646742790937424,-0.039776138961315155
1733704734813493800,9.30549365234375,0.00021855387603864074,0.07393255829811096,-0.03827683627605438
1733704734823460900,9.3154609375,-0.02489798329770565,0.10211892426013947,-0.034508999437093735
1733704734833427700,9.325427734375,-0.02483309991657734,0.047783780843019485,-0.016689827665686607
1733704734843393800,9.335393798828125,0.044379524886608124,0.04823651909828186,-0.05250215530395508
1733704734853360600,9.345360595703125,0.014426044188439846,0.029780006036162376,-0.04679374769330025
1733704734863327700,9.35532763671875,-0.031337447464466095,0.0571940541267395,-0.00890122540295124
1733704734873294800,9.365294921875,-0.019479695707559586,0.015596008859574795,-0.0007386973593384027
1733704734883261700,9.37526171875,-0.021840054541826248,-0.02484489046037197,-0.0017224689945578575
1733704734893227800,9.385227783203124,-0.060526199638843536,0.012304341420531273,0.005982056260108948
1733704734903194600,9.395194580078124,-0.05551280081272125,0.014487868174910545,0.008290750905871391
1733704734913161700,9.40516162109375,-0.03893318399786949,0.0005888203158974648,0.001242749160155654
1733704734923128800,9.41512890625,-0.02020583488047123,0.031466044485569,-0.009114017710089684
1733704734933095700,9.425095703125,0.0048269834369421005,0.04655446857213974,-0.006103367544710636
1733704734943061800,9.435061767578125,0.03495585918426514,0.024999376386404037,0.0011942259734496474
1733704734953028600,9.445028564453125,0.04627491161227226,-0.015682009980082512,0.01446378231048584
1733704734962995700,9.45499560546875,0.0598575659096241,-0.05795969069004059,0.023886047303676605
1733704734972962800,9.464962890625,0.063031405210495,-0.07548169046640396,0.03139985725283623
1733704734982929700,9.4749296875,0.055743131786584854,-0.08708348870277405,0.035413242876529694
1733704734992895700,9.484895751953125,0.04514958709478378,-0.0829438790678978,0.03246701508760452
1733704735002862600,9.494862548828126,0.029410304501652718,-0.06941848248243332,0.026772379875183105
1733704735012829700,9.50482958984375,0.01588103175163269,-0.058231085538864136,0.020769638940691948
1733704735022796500,9.514796630859376,0.008943231776356697,-0.047386422753334045,0.016965312883257866
1733704735032763600,9.524763671875,0.0013956858310848475,-0.049358755350112915,0.01780983805656433
1733704735042730800,9.534730712890624,-0.005288582295179367,-0.045730724930763245,0.022514045238494873
1733704735052696800,9.54469677734375,-0.0060193538665771484,-0.0555117204785347,0.018721969798207283
1733704735062663700,9.55466357421875,0.00427749240770936,-0.054712243378162384,0.002044189954176545
1733704735072630500,9.564630615234375,0.0038216914981603622,-0.03600354120135307,-0.011255107820034027
1733704735082597600,9.57459765625,-0.009083189070224762,-0.013145362958312035,-0.015628816559910774
1733704735092564700,9.584564697265625,-0.015869364142417908,0.00917913019657135,-0.018177103251218796
1733704735102530800,9.59453076171875,-0.03346593677997589,0.019002998247742653,-0.010772982612252235
1733704735112498000,9.604497802734375,-0.0418379046022892,0.038644079118967056,-0.008356312289834023
1733704735122464800,9.61446484375,-0.04155774042010307,0.059091828763484955,-0.015135387890040874
1733704735132432000,9.624431884765626,-0.03158825635910034,0.06434305012226105,-0.020302601158618927
1733704735142398700,9.634398681640626,-0.019010942429304123,0.07073703408241272,-0.024559399113059044
1733704735152364800,9.64436474609375,-0.004073500633239746,0.07022569328546524,-0.01814873144030571
1733704735162332000,9.654331787109374,0.010024741291999817,0.053645119071006775,-0.009851653128862381
1733704735172298800,9.664298828125,0.020000189542770386,0.025743458420038223,-0.0015714354813098907
1733704735182265900,9.674265869140624,0.022594906389713287,-0.009320251643657684,0.007590637542307377
1733704735192233000,9.68423291015625,0.019062340259552002,-0.04348621889948845,0.019071286544203758
1733704735202198800,9.69419873046875,0.015460948459804058,-0.07970999926328659,0.024390418082475662
1733704735212166000,9.704165771484375,0.010025378316640854,-0.09979556500911713,0.025497879832983017
1733704735222132700,9.7141328125,0.004538467153906822,-0.10403850674629211,0.024938350543379784
1733704735232099800,9.724099853515625,-0.0007412494160234928,-0.09519894421100616,0.0248536616563797
1733704735242066700,9.734066650390625,-0.003193488111719489,-0.07954248785972595,0.023811565712094307
1733704735252033800,9.74403369140625,-0.009607386775314808,-0.061037249863147736,0.021945636719465256
1733704735261999900,9.753999755859375,-0.007945574820041656,-0.03897562250494957,0.010995516553521156
1733704735271966700,9.763966796875,-0.009121698327362537,-0.01652943156659603,-0.0007379550952464342
1733704735281933800,9.773933837890626,-0.016132203862071037,0.013559495098888874,-0.01731453463435173
1733704735291900700,9.783900634765626,-0.028692543506622314,0.0517316535115242,-0.024330217391252518
1733704735301867800,9.79386767578125,-0.03532541170716286,0.07881946116685867,-0.02908742055296898
1733704735311833900,9.803833740234374,-0.03729764744639397,0.08547546714544296,-0.033464279025793076
1733704735321800700,9.81380078125,-0.03562598302960396,0.09004758298397064,-0.036963142454624176
1733704735331767800,9.823767822265625,-0.033451348543167114,0.1058657094836235,-0.04620383307337761
1733704735341734700,9.833734619140625,-0.028949806466698647,0.11529969424009323,-0.05187290161848068
1733704735351701800,9.84370166015625,-0.022449322044849396,0.1282290816307068,-0.05174873396754265
1733704735361667600,9.85366748046875,-0.012025443837046623,0.14408394694328308,-0.04509429261088371
1733704735371634700,9.863634765625,-0.00042521144496276975,0.15256527066230774,-0.03719012066721916
1733704735381601800,9.873601806640625,0.014639224857091904,0.15214556455612183,-0.03168456628918648
1733704735391568600,9.883568603515625,0.022423474118113518,0.1436368077993393,-0.025731781497597694
1733704735401535700,9.89353564453125,0.025538573041558266,0.12469799816608429,-0.0181801225990057
1733704735411501600,9.90350146484375,0.02559519372880459,0.08830882608890533,-0.005079564638435841
1733704735421468700,9.91346875,0.021109098568558693,0.04096847027540207,0.012412076815962791
1733704735431435800,9.923435791015624,0.019453899934887886,-0.015727296471595764,0.031565092504024506
1733704735441402600,9.933402587890624,0.02110985293984413,-0.07814300805330276,0.043647050857543945
1733704735451369700,9.94336962890625,0.027629276737570763,-0.13011084496974945,0.05511116236448288
1733704735461336800,9.9533369140625,0.028842080384492874,-0.16361714899539948,0.05832666531205177
1733704735471302700,9.963302734375,0.030664963647723198,-0.17737771570682526,0.05124407634139061
1733704735481269800,9.973269775390625,0.028956014662981033,-0.17811115086078644,0.04252329096198082
1733704735491236600,9.983236572265625,0.02195369265973568,-0.15884289145469666,0.03537791222333908
1733704735501203700,9.99320361328125,0.01105896569788456,-0.129860520362854,0.026619041338562965
1733704735511170600,10.003170654296875,0.0010304657043889165,-0.09921711683273315,0.024006955325603485
1733704735521136600,10.01313671875,-0.011841656640172005,-0.06993646174669266,0.017970368266105652
1733704735531103700,10.023103759765625,-0.0205415990203619,-0.04287049174308777,0.012549621053040028
1733704735541070000,10.033070068359375,-0.022327782586216927,-0.019085001200437546,0.0069250245578587055
1733704735551037200,10.043037109375,-0.022515373304486275,-0.00667974166572094,0.004413333721458912
1733704735561004000,10.053004150390626,-0.021182993426918983,-0.002035188488662243,0.010852856561541557
1733704735570970000,10.06297021484375,-0.016910765320062637,-0.008008657023310661,0.01577014848589897
1733704735580937000,10.07293701171875,-0.011789508163928986,-0.025960227474570274,0.014203144237399101
1733704735590904000,10.082904052734374,-0.0039045088924467564,-0.048268452286720276,0.006071095354855061
1733704735600871200,10.09287109375,-0.0006626426475122571,-0.06967973709106445,-0.0013519332278519869
1733704735610838000,10.102838134765625,-0.0010329659562557936,-0.09461837261915207,-0.00021100416779518127
1733704735620804000,10.11280419921875,-0.006560356821864843,-0.11667680740356445,0.010194499045610428
1733704735630771000,10.12277099609375,-0.01317617017775774,-0.12526631355285645,0.0188345555216074
1733704735640738000,10.132738037109375,-0.013050734996795654,-0.12091070413589478,0.01745717041194439
1733704735650705200,10.142705078125,-0.00872342474758625,-0.11170442402362823,0.015153655782341957
1733704735660672000,10.152672119140625,-0.0011406061239540577,-0.09363088011741638,0.01649562269449234
1733704735670638000,10.16263818359375,0.0027903253212571144,-0.06863950192928314,0.01712951809167862
1733704735680605000,10.17260498046875,0.025340374559164047,-0.029298486188054085,0.022150909528136253
1733704735690572000,10.182572021484376,-0.0006921888561919332,-0.010824678465723991,0.014431526884436607
1733704735700539000,10.192538818359376,-0.012546451762318611,0.020273853093385696,0.002540779300034046
1733704735710506000,10.202506103515624,-0.012820752337574959,0.043065957725048065,-0.009195786900818348
1733704735720472000,10.21247216796875,-0.01060420460999012,0.05282457917928696,-0.011821397580206394
1733704735730439000,10.22243896484375,-0.013110429048538208,0.059823669493198395,-0.011076642200350761
1733704735740406000,10.232406005859374,-0.015609539113938808,0.06284608691930771,-0.007486701011657715
1733704735750372900,10.242372802734375,-0.01584291271865368,0.0574401319026947,-0.0007631382904946804
1733704735760340000,10.252340087890625,-0.014985641464591026,0.041738931089639664,0.008849541656672955
1733704735770307000,10.26230712890625,-0.01104640867561102,0.01887037232518196,0.015617404133081436
1733704735780273000,10.27227294921875,-0.004646566696465015,-0.009763136506080627,0.01853463239967823
1733704735790240000,10.282239990234375,0.000734084052965045,-0.04005952179431915,0.020600711926817894
1733704735800206800,10.292206787109375,0.0076407259330153465,-0.06725092977285385,0.01967180147767067
1733704735810174000,10.302174072265625,0.011040265671908855,-0.08571384847164154,0.019351117312908173
1733704735820141000,10.31214111328125,0.016585765406489372,-0.09317629039287567,0.018022999167442322
1733704735830107000,10.32210693359375,0.02021852321922779,-0.09137412160634995,0.016344796866178513
1733704735840074000,10.332073974609376,0.022222286090254784,-0.0873226523399353,0.018158942461013794
1733704735850040800,10.342040771484376,0.02621030993759632,-0.07805538177490234,0.011487578973174095
1733704735860008000,10.352008056640624,0.026112837716937065,-0.07014259696006775,0.007311476394534111
1733704735869975000,10.36197509765625,0.018268542364239693,-0.06967202574014664,0.00590656790882349
1733704735879940900,10.37194091796875,0.012029287405312061,-0.06240638345479965,0.008873861283063889
1733704735889908000,10.381907958984375,0.007916745729744434,-0.05934587121009827,0.007993068546056747
1733704735899874800,10.391874755859375,0.005600594449788332,-0.05491064488887787,0.01107834093272686
1733704735909842000,10.401842041015625,0.0005887189763598144,-0.04894009977579117,0.015648474916815758
1733704735919809000,10.41180908203125,-0.006707543507218361,-0.039957258850336075,0.01836729608476162
1733704735929775000,10.421775146484375,-0.00836531724780798,-0.045684657990932465,0.016312845051288605
1733704735939742200,10.4317421875,-0.007052911911159754,-0.0436800941824913,0.01580924168229103
1733704735949709000,10.441708984375,-0.0015594015130773187,-0.03119361400604248,0.009998331777751446
1733704735959676000,10.451676025390626,-0.0008009333396330476,-0.014965908601880074,0.0037960964255034924
1733704735969642800,10.461642822265626,0.004569522105157375,0.00890640914440155,-0.004416939802467823
1733704735979609000,10.471609130859376,0.008509136736392975,0.02996029518544674,-0.009436465799808502
1733704735989576200,10.481576171875,0.012940636835992336,0.04803064092993736,-0.01141226477921009
1733704735999543000,10.49154296875,0.012689766474068165,0.05554182082414627,-0.007915535010397434
1733704736009510100,10.50151025390625,0.013637097552418709,0.05089699476957321,-0.007858900353312492
1733704736019477000,10.51147705078125,0.01582302153110504,0.04494137316942215,-0.0070298584178090096
1733704736029444000,10.521444091796875,0.013804612681269646,0.03642566502094269,-0.012407038360834122
1733704736039410000,10.531409912109375,0.01521209254860878,0.027664929628372192,-0.015335716307163239
1733704736049377000,10.541376953125,0.011266843415796757,0.018681291490793228,-0.015354271046817303
1733704736059344100,10.55134423828125,0.009709427133202553,0.015371247194707394,-0.015138554386794567
1733704736069311000,10.56131103515625,0.006398418918251991,0.007684295531362295,-0.012069735676050186
1733704736079278000,10.571278076171875,0.005615183152258396,-0.002153421752154827,-0.007901888340711594
1733704736089244000,10.581243896484375,0.0035680262371897697,-0.009882716462016106,-0.0013167194556444883
1733704736099211000,10.5912109375,0.004857795313000679,-0.017757149413228035,0.00074936100281775
1733704736109178000,10.60117822265625,0.006023770663887262,-0.021666139364242554,0.0019378396682441235
1733704736119145000,10.61114501953125,0.003437841311097145,-0.02283686399459839,0.003674487117677927
1733704736129112000,10.621112060546874,0.0007626523729413748,-0.02200436033308506,0.004874597303569317
1733704736139078000,10.631077880859374,-0.00014655082486569881,-0.02206507883965969,0.0019254129147157073
1733704736149045000,10.641044921875,-0.002285601804032922,-0.023246457800269127,0.0031938764732331038
1733704736159012000,10.65101220703125,-0.003457392565906048,-0.02363315038383007,0.006468232721090317
1733704736168979000,10.66097900390625,-0.003664379008114338,-0.028855355456471443,0.013894567266106606
1733704736178946000,10.670946044921875,-0.0014313184656202793,-0.041612960398197174,0.020641153678297997
1733704736188911900,10.680911865234375,-0.0014945552684366703,-0.05096011608839035,0.021527428179979324
1733704736198879000,10.69087890625,0.0015065609477460384,-0.06376299262046814,0.017801932990550995
1733704736208846000,10.70084619140625,0.0019752774387598038,-0.07354319095611572,0.01722562499344349
1733704736218813000,10.71081298828125,0.0013326565967872739,-0.08131882548332214,0.016588862985372543
1733704736228780000,10.720780029296876,-0.0002042782143689692,-0.08904121816158295,0.01823420822620392
1733704736238745900,10.730745849609375,-0.0012407803442329168,-0.08983643352985382,0.017328467220067978
1733704736248713000,10.740712890625,0.0030611224938184023,-0.09086492657661438,0.017954913899302483
1733704736258680000,10.75068017578125,0.004659285303205252,-0.08517401665449142,0.019170114770531654
1733704736268647000,10.76064697265625,0.007521992549300194,-0.07000596821308136,0.021846449002623558
1733704736278614000,10.770614013671874,0.009858916513621807,-0.049954500049352646,0.022906653583049774
1733704736288579800,10.780579833984374,0.010089151561260223,-0.028256123885512352,0.018387535586953163
1733704736298547000,10.790546875,0.01307455450296402,0.004653091076761484,0.010945331305265427
1733704736308513800,10.800513671875,0.013480047695338726,0.04147952049970627,0.0026774767320603132
1733704736318481000,10.81048095703125,0.011916771531105042,0.07563349604606628,0.0038021295331418514
1733704736328448000,10.820447998046875,0.00040873271063901484,0.0967145636677742,0.004846071824431419
1733704736338414800,10.830414794921875,-0.00845506601035595,0.09855321049690247,0.008951067924499512
1733704736348381000,10.840380859375,-0.011063097044825554,0.07976672053337097,0.008567824959754944
1733704736358347800,10.85034765625,-0.009001278318464756,0.050897784531116486,0.006766995880752802
1733704736368315000,10.86031494140625,-0.009592931717634201,0.024046748876571655,0.004785407334566116
1733704736378282000,10.870281982421876,-0.007147617172449827,0.0012444965541362762,0.005155053921043873
1733704736388248800,10.880248779296876,-0.004227046389132738,-0.014854304492473602,0.006373690441250801
1733704736398215200,10.890215087890626,0.004625567700713873,-0.027738945558667183,0.0022801458835601807
1733704736408182000,10.90018212890625,0.012563991360366344,-0.03394091874361038,-0.0015381781850010157
1733704736418149000,10.910149169921874,0.015149388462305069,-0.03511723875999451,-0.0035376795567572117
1733704736428116000,10.920115966796875,0.013739229179918766,-0.03333478420972824,-0.00031948555260896683
1733704736438082800,10.930082763671875,0.010406816378235817,-0.03246978670358658,0.004004688933491707
1733704736448049200,10.940049072265625,0.004129508510231972,-0.035219501703977585,0.00979593861848116
1733704736458016000,10.95001611328125,0.003891688073053956,-0.040274448692798615,0.012551511637866497
1733704736467983000,10.959983154296875,0.0023726210929453373,-0.03983502835035324,0.011515808291733265
1733704736477950200,10.9699501953125,0.00009535194840282202,-0.033957697451114655,0.010202337056398392
1733704736487917000,10.9799169921875,-0.0009517250582575798,-0.024527698755264282,0.008033580146729946
1733704736497883100,10.989883056640625,-0.00433820066973567,-0.012916849926114082,0.0028292308561503887
1733704736507850000,10.99985009765625,-0.0036743227392435074,-0.001153147779405117,-0.0029417546465992928
1733704736517817000,11.009817138671876,-0.0025784322060644627,0.004568387754261494,-0.006915457546710968
1733704736527784000,11.019783935546876,0.000977036776021123,0.015885764732956886,-0.013288959860801697
1733704736537751600,11.02975146484375,0.0033786753192543983,0.022991877049207687,-0.020147131755948067
1733704736547717600,11.039717529296874,0.0013860396575182676,0.028915798291563988,-0.024579854682087898
1733704736557684500,11.0496845703125,-0.003653460182249546,0.027986355125904083,-0.024978263303637505
1733704736567651600,11.059651611328125,-0.006443062797188759,0.017683397978544235,-0.017727917060256004
1733704736577618700,11.06961865234375,-0.00676770182326436,0.016536373645067215,-0.016279689967632294
1733704736587585500,11.07958544921875,-0.00828357134014368,0.023350849747657776,-0.019512780010700226
1733704736597551600,11.089551513671875,-0.0059274728409945965,0.028835630044341087,-0.023242006078362465
1733704736607518500,11.0995185546875,-0.0034477110020816326,0.03165457397699356,-0.02113349922001362
1733704736617485600,11.109485595703125,-0.003531600348651409,0.034994445741176605,-0.01741119846701622
1733704736627452400,11.119452392578125,-0.0006565750809386373,0.03280749171972275,-0.013936847448348999
1733704736637419500,11.12941943359375,0.004834862891584635,0.027621252462267876,-0.011800992302596569
1733704736647385600,11.139385498046876,0.011153168976306915,0.012724329717457294,-0.007834125310182571
1733704736657352400,11.1493525390625,0.011428805999457836,-0.0005243634805083275,-0.00451422855257988
1733704736667319600,11.159319580078124,0.013538667932152748,-0.012574398890137672,-0.0008456807117909193
1733704736677286400,11.169286376953124,0.011015056632459164,-0.026712054386734962,0.004789035301655531
1733704736687253500,11.17925341796875,0.010071450844407082,-0.03054564818739891,0.005667449906468391
1733704736697220600,11.189220703125,0.00946078822016716,-0.03765708580613136,0.008142059668898582
1733704736707186400,11.1991865234375,0.004620170220732689,-0.03419923037290573,0.011765962466597557
1733704736717153500,11.209153564453125,-0.0004813809646293521,-0.03508686274290085,0.013999821618199348
1733704736727120400,11.219120361328125,0.0021137914154678583,-0.03665468096733093,0.015040974132716656
1733704736737087500,11.22908740234375,0.002261863090097904,-0.030220219865441322,0.013861993327736855
1733704736747054600,11.2390546875,0.003795547876507044,-0.024137556552886963,0.012081996537744999
1733704736757020400,11.2490205078125,0.0032679757568985224,-0.019652526825666428,0.00799430999904871
1733704736766987500,11.258987548828125,0.0018200059421360493,-0.0165473073720932,0.005743419751524925
1733704736776954400,11.268954345703126,0.0009928281651809812,-0.016380593180656433,0.0014935472281649709
1733704736786921500,11.27892138671875,-0.0002990916254930198,-0.010973550379276276,-0.0013754288665950298
1733704736796888600,11.288888671875,0.00021889316849410534,-0.002047167159616947,-0.0032881111837923527
1733704736806854400,11.2988544921875,0.0007550022564828396,0.0039209770038723946,-0.004035158082842827
1733704736816821500,11.308821533203124,0.0034439959563314915,0.005908227991312742,-0.0062173521146178246
1733704736826788400,11.318788330078124,0.0037615946494042873,0.010664907284080982,-0.004796050023287535
1733704736836755500,11.32875537109375,0.003002061042934656,0.013806105591356754,-0.005920170806348324
1733704736846722600,11.33872265625,0.0004894997691735625,0.007275759242475033,-0.0067002130672335625
1733704736856688400,11.3486884765625,-0.0012514085974544287,0.005445901304483414,-0.007755357772111893
1733704736866655500,11.358655517578125,-0.003461299929767847,0.006553776562213898,-0.006168912164866924
1733704736876622300,11.368622314453125,-0.0035377326421439648,0.0012540854513645172,-0.0054434677585959435
1733704736886589400,11.37858935546875,-0.00177585834171623,-0.006919149309396744,-0.004430251196026802
1733704736896556300,11.388556396484375,-0.0010078026680275798,-0.015027409419417381,-0.0029527293518185616
1733704736906522600,11.398522705078125,-0.0017141452990472317,-0.02494874782860279,0.0007390936370939016
1733704736916489700,11.40848974609375,-0.002172741573303938,-0.040501609444618225,0.004665125627070665
1733704736926456600,11.41845654296875,-0.0030283723026514053,-0.05837626755237579,0.0074901096522808075
1733704736936423400,11.42842333984375,-0.0027503380551934242,-0.07012240588665009,0.010651547461748123
1733704736946390300,11.438390380859374,0.0010373271070420742,-0.08047060668468475,0.015160313807427883
1733704736956356600,11.448356689453124,0.0034930279944092035,-0.08000054955482483,0.018438132479786873
1733704736966323500,11.458323486328124,0.0030240302439779043,-0.07374505698680878,0.020086392760276794
1733704736976290600,11.46829052734375,0.004285569768399,-0.05486005172133446,0.018297547474503517
1733704736986257700,11.478257568359375,0.0015301606617867947,-0.03481869027018547,0.014070522040128708
1733704736996224500,11.488224609375,0.00008193368557840586,-0.013350682333111763,0.012127213180065155
1733704737006190600,11.498190673828125,0.001893622800707817,0.008532228879630566,0.008750702254474163
1733704737016157400,11.508157470703125,0.003541054204106331,0.015512640587985516,0.0026203717570751905
1733704737026124500,11.51812451171875,0.006504161283373833,0.018708715215325356,-0.006626530550420284
1733704737036091600,11.528091552734375,0.00714997760951519,0.025803375989198685,-0.014505492523312569
1733704737046058500,11.53805859375,0.007487668190151453,0.03185059130191803,-0.019923441112041473
1733704737056024600,11.548024658203126,0.005071914754807949,0.04336823523044586,-0.02207500860095024
1733704737065991400,11.557991455078126,0.00012334482744336128,0.05335003882646561,-0.021931957453489304
1733704737075958500,11.56795849609375,-0.0034327739849686623,0.056890711188316345,-0.018095673993229866
1733704737085925600,11.577925537109374,-0.0037669246084988117,0.054034218192100525,-0.011662153527140617
1733704737095892500,11.587892578125,-0.006038068328052759,0.04414457082748413,-0.007742778863757849
1733704737105858600,11.597858642578124,-0.008294433355331421,0.02805880457162857,-0.0052066524513065815
1733704737115825400,11.607825439453125,-0.0091623580083251,0.012748290784657001,-0.005548602435737848
1733704737125792500,11.61779248046875,-0.006820936221629381,-0.0026290640234947205,-0.005575439892709255
1733704737135759600,11.627759521484375,-0.002322324551641941,-0.01749110035598278,-0.001617184141650796
1733704737145726500,11.6377265625,0.004308213014155626,-0.0311648678034544,0.000806420692242682
1733704737155692500,11.647692626953125,0.007842760533094406,-0.03695698082447052,0.0060832081362605095
1733704737165659400,11.657659423828125,0.009715904481709003,-0.046030331403017044,0.012239095754921436
1733704737175626500,11.66762646484375,0.010848280973732471,-0.04974464327096939,0.016307607293128967
1733704737185593600,11.677593505859376,0.009601861238479614,-0.047097742557525635,0.01543207187205553
1733704737195560400,11.687560546875,0.007255882490426302,-0.04293042793869972,0.015613432973623276
1733704737205527600,11.697527587890624,0.006132782436907291,-0.04192667827010155,0.018193595111370087
1733704737215493400,11.707493408203124,0.00574822211638093,-0.04183373227715492,0.01742899976670742
1733704737225460500,11.71746044921875,0.005570308305323124,-0.03940146416425705,0.015420208685100079
1733704737235427300,11.72742724609375,0.007530660834163427,-0.03638517111539841,0.0108547518029809
1733704737245394400,11.73739453125,0.008992338553071022,-0.022639010101556778,0.0073665352538228035
1733704737255361500,11.747361572265625,0.012784946709871292,-0.006635809317231178,0.005210972391068935
1733704737265327400,11.757327392578125,0.015633922070264816,0.01433552522212267,0.0063637420535087585
1733704737275294500,11.76729443359375,0.013045062310993671,0.03290042281150818,0.007027934305369854
1733704737285261300,11.77726123046875,0.0056581925600767136,0.04838750511407852,0.008582009933888912
1733704737295228400,11.787228515625,-0.003024245146661997,0.05445738136768341,0.0028407671488821507
1733704737305195500,11.797195556640625,-0.009808670729398727,0.048701509833335876,0.0009249515132978559
1733704737315161300,11.807161376953125,-0.011537861078977585,0.04853878915309906,-0.00014217710122466087
1733704737325128400,11.81712841796875,-0.010976014658808708,0.041212692856788635,0.0027363153640180826
1733704737335095300,11.82709521484375,-0.009535510092973709,0.03401949256658554,0.0032753392588347197
1733704737345062400,11.8370625,-0.002861787099391222,0.019989969208836555,0.006334572099149227
1733704737355029500,11.847029541015624,0.00008260388858616352,0.002644801512360573,0.005037612281739712
1733704737364995600,11.85699560546875,0.004536257591098547,-0.01247534528374672,0.0057823811657726765
1733704737374962700,11.866962646484374,0.009169625118374825,-0.0231892429292202,0.004999145399779081
1733704737384929500,11.876929443359375,0.00690159248188138,-0.028670258820056915,0.004890928976237774
1733704737394896400,11.886896484375,0.007459791377186775,-0.028175976127386093,0.008829744532704353
