time,seconds_elapsed,z,y,x
1733705254779074800,0.01907470703125,-0.02840881608426571,0.14999955892562866,-0.0723487138748169
1733705254789041700,0.029041748046875,-0.053783148527145386,0.23354531824588776,-0.08331720530986786
1733705254799008800,0.0390087890625,-0.044088028371334076,0.24544306099414825,-0.06056002527475357
1733705254808974800,0.048974853515625,-0.019483616575598717,0.2353648543357849,-0.0473313070833683
1733705254818942000,0.05894189453125,0.01521197147667408,0.19727583229541779,-0.040285639464855194
1733705254828908800,0.06890869140625,0.05095851793885231,0.14878340065479279,-0.02298201620578766
1733705254838875000,0.078875,0.08133019506931305,0.10652145743370056,-0.003246800508350134
1733705254848842000,0.088842041015625,0.13133104145526886,0.019679244607686996,0.013377983123064041
1733705254858808800,0.098808837890625,0.1865730583667755,-0.08674684166908264,0.035411253571510315
1733705254868775000,0.10877490234375,0.2268483191728592,-0.18661750853061676,0.05873575061559677
1733705254878741800,0.11874169921875,0.2500883638858795,-0.2768670916557312,0.08485458791255951
1733705254888708900,0.128708984375,0.2641674280166626,-0.3563011884689331,0.10816284269094467
1733705254898674700,0.1386748046875,0.27118194103240967,-0.4050391614437103,0.12473257631063461
1733705254908641800,0.148641845703125,0.2757716178894043,-0.4288973808288574,0.14960862696170807
1733705254918609000,0.15860888671875,0.28097280859947205,-0.4280893802642822,0.16905632615089417
1733705254928574700,0.16857470703125,0.28329989314079285,-0.39568379521369934,0.18452449142932892
1733705254938541800,0.178541748046875,0.28045904636383057,-0.35920336842536926,0.20501714944839478
1733705254948508700,0.1885087890625,0.27014702558517456,-0.3320801258087158,0.23203331232070923
1733705254958475800,0.198475830078125,0.24133288860321045,-0.32096195220947266,0.2618483006954193
1733705254968441600,0.208441650390625,0.1878049522638321,-0.3189435601234436,0.2809428870677948
1733705254978408700,0.21840869140625,0.11687221378087997,-0.3230440318584442,0.2822076082229614
1733705254988375800,0.228375732421875,0.05069825053215027,-0.3233734667301178,0.26208847761154175
1733705254998342000,0.238341796875,0.006331054959446192,-0.310202419757843,0.2277141809463501
1733705255008309000,0.24830908203125,-0.026991482824087143,-0.2695777416229248,0.18141618371009827
1733705255018276000,0.258276123046875,-0.0515039898455143,-0.2052878439426422,0.13185104727745056
1733705255028242000,0.268241943359375,-0.07124333828687668,-0.12465850263834,0.08519326895475388
1733705255038209000,0.278208984375,-0.08877439796924591,-0.035093870013952255,0.043443888425827026
1733705255048175900,0.28817578125,-0.08539431542158127,0.044928260147571564,0.009275799617171288
1733705255058142000,0.298141845703125,-0.06823348253965378,0.10477443784475327,-0.008090516552329063
1733705255068109000,0.308109130859375,-0.040614642202854156,0.13600505888462067,-0.013831492513418198
1733705255078076000,0.318075927734375,-0.009380336850881577,0.1436406373977661,-0.01206946186721325
1733705255088042000,0.3280419921875,0.02139994502067566,0.12901456654071808,0.002370197791606188
1733705255098008800,0.3380087890625,0.0473334938287735,0.09530775249004364,0.01863154210150242
1733705255107976000,0.347975830078125,0.06594473123550415,0.05360797420144081,0.03632079064846039
1733705255117942800,0.35794287109375,0.07631353288888931,0.010758885182440281,0.05082755163311958
1733705255127908900,0.367908935546875,0.08320393413305283,-0.03564935922622681,0.0655210092663765
1733705255137876000,0.3778759765625,0.08528915792703629,-0.07552778720855713,0.07411785423755646
1733705255147842800,0.3878427734375,0.0828118845820427,-0.10700342804193497,0.07721298187971115
1733705255157809000,0.397808837890625,0.0813879445195198,-0.12567713856697083,0.08142966032028198
1733705255167775700,0.407775634765625,0.07604857534170151,-0.12800021469593048,0.08968519419431686
1733705255177742800,0.417742919921875,0.06454889476299286,-0.11927227675914764,0.09207719564437866
1733705255187709000,0.427708984375,0.05163576081395149,-0.0983603447675705,0.09073656052350998
1733705255197676000,0.437676025390625,0.03868153691291809,-0.08236908912658691,0.08637149631977081
1733705255207643100,0.44764306640625,0.021551288664340973,-0.0722046047449112,0.07641047984361649
1733705255217609000,0.45760888671875,0.0030507424380630255,-0.05255682021379471,0.06480405479669571
1733705255227576000,0.467576171875,-0.012675223872065544,-0.028376387432217598,0.04599761217832565
1733705255237543000,0.47754296875,-0.02990523912012577,-0.0003579854965209961,0.024501541629433632
1733705255247509000,0.487509033203125,-0.038360245525836945,0.031042814254760742,0.003829819615930319
1733705255257475800,0.497475830078125,-0.0413544662296772,0.06004532054066658,-0.01065274327993393
1733705255267443000,0.50744287109375,-0.04519208148121834,0.08853927999734879,-0.014517521485686302
1733705255277410000,0.51741015625,-0.0485171303153038,0.10677865147590637,-0.015167244710028172
1733705255287376000,0.5273759765625,-0.04732057452201843,0.10998642444610596,-0.014177081175148487
1733705255297343000,0.537343017578125,-0.03899563103914261,0.1095622330904007,-0.005230406764894724
1733705255307309800,0.547309814453125,-0.03186102584004402,0.10811640322208405,0.00735436100512743
1733705255317276000,0.55727587890625,-0.023925261572003365,0.10104966163635254,0.016839198768138885
1733705255327242800,0.56724267578125,-0.019060997292399406,0.08886010944843292,0.02252930961549282
1733705255337209900,0.5772099609375,-0.00670577259734273,0.06850835680961609,0.028001075610518456
1733705255347176000,0.587176025390625,0.011744873598217964,0.027510860934853554,0.03907795995473862
1733705255357143000,0.59714306640625,0.03159748390316963,-0.020513294264674187,0.049408573657274246
1733705255367110000,0.60710986328125,0.046787090599536896,-0.06763686239719391,0.06435077637434006
1733705255377076000,0.617075927734375,0.053386084735393524,-0.10802221298217773,0.0779251903295517
1733705255387043000,0.62704296875,0.05414402112364769,-0.132023423910141,0.09638488292694092
1733705255397010000,0.637010009765625,0.05115187540650368,-0.15452337265014648,0.11425762623548508
1733705255406976000,0.64697607421875,0.05225548893213272,-0.1726914644241333,0.12052751332521439
1733705255416942800,0.65694287109375,0.04822264984250069,-0.1716511994600296,0.11624051630496979
1733705255426910000,0.666909912109375,0.04804768040776253,-0.16471925377845764,0.11359280347824097
1733705255436877000,0.676876953125,0.0494290366768837,-0.15458646416664124,0.11390150338411331
1733705255446843000,0.6868427734375,0.04918908700346947,-0.1450534164905548,0.10816451907157898
1733705255456810000,0.69681005859375,0.044903382658958435,-0.13697263598442078,0.1006171852350235
1733705255466776800,0.70677685546875,0.03838583081960678,-0.127911776304245,0.08914054930210114
1733705255476743000,0.716742919921875,0.03332998603582382,-0.11929479986429214,0.08052646368741989
1733705255486709800,0.726709716796875,0.024691225960850716,-0.11106403172016144,0.07390157878398895
1733705255496676900,0.7366767578125,0.015483107417821884,-0.09987463802099228,0.07077144831418991
1733705255506643000,0.746642822265625,0.010782095603644848,-0.08407996594905853,0.06575404852628708
1733705255516609800,0.75660986328125,0.011031510308384895,-0.06697947531938553,0.06014339625835419
1733705255526577000,0.766576904296875,0.013125820085406303,-0.05184473097324371,0.04684916511178017
1733705255536543000,0.77654296875,0.01666352152824402,-0.03216475620865822,0.03380599245429039
1733705255546510000,0.786510009765625,0.016756998375058174,-0.014036351814866066,0.023895304650068283
1733705255556477000,0.796476806640625,0.01589256152510643,-0.003194635733962059,0.018224062398076057
1733705255566444000,0.806444091796875,0.013789994642138481,-0.0008768867701292038,0.012371499091386795
1733705255576409900,0.816409912109375,0.013041859492659569,-0.00257821474224329,0.004593103192746639
1733705255586377000,0.826376953125,0.009151780046522617,0.002066871151328087,0.0010835893917828798
1733705255596344000,0.836343994140625,0.006104807369410992,0.0001343749463558197,0.003301098011434078
1733705255606310000,0.846309814453125,0.005386020056903362,-0.0010627154260873795,0.0016842929180711508
1733705255616277000,0.856277099609375,0.005938820540904999,0.007831614464521408,0.001330024329945445
1733705255626243800,0.866243896484375,0.002039153827354312,0.021532246842980385,0.00031802314333617687
1733705255636210000,0.8762099609375,0.0009203590452671051,0.025156142190098763,-0.001169160008430481
1733705255646176800,0.8861767578125,-0.0006373238284140825,0.03165771812200546,-0.006862731650471687
1733705255656144000,0.896143798828125,-0.00010416872100904584,0.03746978938579559,-0.01591440849006176
1733705255666110000,0.90610986328125,-0.003472534939646721,0.04250050336122513,-0.018119772896170616
1733705255676076800,0.916076904296875,-0.004671067465096712,0.04575096070766449,-0.017350055277347565
1733705255686044000,0.9260439453125,-0.0031570608261972666,0.047397859394550323,-0.018067777156829834
1733705255696010000,0.936010009765625,-0.0008485367870889604,0.04594532027840614,-0.018843986093997955
1733705255705977000,0.94597705078125,-0.002634718781337142,0.04573439806699753,-0.019603252410888672
1733705255715944000,0.95594384765625,-0.002547052688896656,0.041863471269607544,-0.019870184361934662
1733705255725910800,0.965910888671875,-0.005152157042175531,0.04839301109313965,-0.020539704710245132
1733705255735877000,0.975877197265625,-0.01072300598025322,0.04815974086523056,-0.01670094020664692
1733705255745844000,0.985843994140625,-0.009615663439035416,0.046692073345184326,-0.018962496891617775
1733705255755811000,0.99581103515625,-0.006665063090622425,0.04371167719364166,-0.018575027585029602
1733705255765777000,1.00577685546875,-0.004323079250752926,0.037414100021123886,-0.01664743199944496
1733705255775744000,1.015743896484375,-0.003380789887160063,0.03594494238495827,-0.012794675305485725
1733705255785710800,1.0257109375,-0.00226625707000494,0.030459895730018616,-0.014111609198153019
1733705255795677000,1.035677001953125,-0.0005914185894653201,0.025910165160894394,-0.015199734829366207
1733705255805644000,1.04564404296875,0.0003958151792176068,0.024001477286219597,-0.014996270649135113
1733705255815611000,1.05561083984375,-0.0002668268862180412,0.020491719245910645,-0.011537007987499237
1733705255825577000,1.065576904296875,-0.002295356709510088,0.014011716470122337,-0.007801391649991274
1733705255835543800,1.075543701171875,0.000060404534451663494,0.0068451836705207825,-0.0060720788314938545
1733705255845511000,1.085510986328125,0.0004715966060757637,-0.00024388451129198074,-0.0002900895196944475
1733705255855477800,1.095477783203125,-0.000976535608060658,-0.010027850046753883,0.005618236027657986
1733705255865443800,1.10544384765625,0.005688557401299477,-0.016591211780905724,0.007709882687777281
1733705255875411000,1.115410888671875,0.007703866809606552,-0.023256884887814522,0.009512411430478096
1733705255885377800,1.125377685546875,0.007637287490069866,-0.023593774065375328,0.010550245642662048
1733705255895344000,1.13534423828125,0.005188900977373123,-0.031046826392412186,0.014582252129912376
1733705255905311000,1.14531103515625,0.0034501231275498867,-0.038678113371133804,0.016915181651711464
1733705255915278000,1.155278076171875,0.005986807867884636,-0.039789196103811264,0.02051200531423092
1733705255925244000,1.165243896484375,0.00800255499780178,-0.041845422238111496,0.023430297151207924
1733705255935211000,1.1752109375,0.00797059666365385,-0.04120013862848282,0.027725443243980408
1733705255945178000,1.18517822265625,0.008694177493453026,-0.03736598789691925,0.02857552468776703
1733705255955144000,1.19514404296875,0.010008236393332481,-0.03956352546811104,0.02527543529868126
1733705255965111000,1.205111083984375,0.010894802398979664,-0.0414530411362648,0.01896054670214653
1733705255975078000,1.215077880859375,0.008155177347362041,-0.045605819672346115,0.017559850588440895
1733705255985045000,1.225044921875,0.0031441734172403812,-0.04237726703286171,0.019234713166952133
1733705255995010800,1.2350107421875,-0.00009715987835079432,-0.03553374484181404,0.0168146975338459
1733705256004978000,1.24497802734375,0.002069055335596204,-0.030798908323049545,0.013464974239468575
1733705256014944300,1.2549443359375,0.005413596052676439,-0.021833449602127075,0.012104117311537266
1733705256024910300,1.264910400390625,0.008014173246920109,-0.009907281026244164,0.00930673349648714
1733705256034877200,1.274877197265625,0.008444588631391525,-0.002303977496922016,0.008859772235155106
1733705256044844300,1.28484423828125,0.0037307930178940296,0.0033424561843276024,0.0030010840855538845
1733705256054810400,1.294810302734375,-0.0010992360766977072,0.002429582178592682,0.005325963720679283
1733705256064777500,1.304777587890625,-0.006348859053105116,-0.0003297189250588417,0.0006755521753802896
1733705256074744300,1.314744384765625,-0.0074927606619894505,-0.004771700128912926,-0.005092652980238199
1733705256084710400,1.32471044921875,-0.008727136068046093,-0.008252184838056564,-0.008555294945836067
1733705256094677200,1.33467724609375,-0.009239806793630123,-0.0025354474782943726,-0.010036667808890343
1733705256104644400,1.344644287109375,-0.013353325426578522,0.005844721570611,-0.008158606477081776
1733705256114611500,1.354611572265625,-0.007870469242334366,0.00977106112986803,-0.004656835459172726
1733705256124577300,1.364577392578125,-0.007194558624178171,0.015320822596549988,-0.005563641898334026
1733705256134544400,1.37454443359375,-0.008894904516637325,0.021303828805685043,-0.008215371519327164
1733705256144511200,1.38451123046875,-0.010627023875713348,0.029838459566235542,-0.01071901060640812
1733705256154477300,1.394477294921875,-0.011162546463310719,0.026003628969192505,-0.01084044761955738
1733705256164444200,1.404444091796875,-0.010074112564325333,0.01917395368218422,-0.011082529090344906
1733705256174411300,1.414411376953125,-0.00751531682908535,0.014318590983748436,-0.00855504721403122
1733705256184377000,1.424377197265625,-0.0060859983786940575,0.007776269689202309,-0.009783030487596989
1733705256194344200,1.43434423828125,-0.006532883271574974,0.004656517878174782,-0.007528315298259258
1733705256204311300,1.444311279296875,-0.009355568327009678,0.001095871441066265,-0.0040555535815656185
1733705256214277400,1.45427734375,-0.010522660799324512,-0.004491926170885563,-0.0020369794219732285
1733705256224244500,1.464244384765625,-0.011728007346391678,-0.008202241733670235,-0.0021797246299684048
1733705256234211300,1.47421142578125,-0.015127499587833881,-0.011220559477806091,-0.003744990099221468
1733705256244178200,1.48417822265625,-0.019109193235635757,-0.00994517095386982,0.001104093506000936
1733705256254144300,1.494144287109375,-0.019454369321465492,-0.007229922339320183,0.008082233369350433
1733705256264111400,1.504111328125,-0.017498543485999107,-0.012731214985251427,0.009546972811222076
1733705256274078500,1.514078369140625,-0.013353819027543068,-0.015544334426522255,0.010854235850274563
1733705256284044300,1.524044189453125,-0.010916228406131268,-0.014621814712882042,0.013867069967091084
1733705256294011400,1.534011474609375,-0.01012656930834055,-0.016593508422374725,0.012984108179807663
1733705256303978200,1.543978271484375,-0.011660817079246044,-0.015348481014370918,0.012230433523654938
1733705256313944300,1.5539443359375,-0.007043629884719849,-0.01190144196152687,0.012960365042090416
1733705256323911200,1.5639111328125,-0.006508600898087025,-0.017706334590911865,0.014473041519522667
1733705256333878300,1.573878173828125,-0.0043333787471055984,-0.024098431691527367,0.017323505133390427
1733705256343845400,1.583845458984375,-0.006578157190233469,-0.025174880400300026,0.023571547120809555
1733705256353811200,1.593811279296875,-0.0034289692994207144,-0.031676724553108215,0.030026517808437347
1733705256363778300,1.6037783203125,0.0018214527517557144,-0.04089498519897461,0.03372218459844589
1733705256373745200,1.6137451171875,0.004177914001047611,-0.04463690519332886,0.03096918575465679
1733705256383711200,1.623711181640625,0.006506315898150206,-0.04355459660291672,0.027387233451008797
1733705256393678000,1.633677978515625,0.007642443757504225,-0.03889394551515579,0.022626984864473343
1733705256403645200,1.643645263671875,0.014968266710639,-0.03731628879904747,0.018257267773151398
1733705256413611500,1.653611572265625,0.014982557855546474,-0.03002784587442875,0.017230436205863953
1733705256423578400,1.663578369140625,0.013767624273896217,-0.024403249844908714,0.019842464476823807
1733705256433545500,1.67354541015625,0.011841822415590286,-0.016806015744805336,0.016725357621908188
1733705256443511300,1.68351123046875,0.00990650337189436,-0.006425280123949051,0.012324483133852482
1733705256453478400,1.693478515625,0.007579445838928223,0.0018420852720737457,0.01292972918599844
1733705256463445200,1.7034453125,0.002911989577114582,0.012291530147194862,0.010818907991051674
1733705256473412400,1.713412353515625,0.0008793738670647144,0.023525871336460114,0.006103812716901302
1733705256483378400,1.72337841796875,-0.00275850435718894,0.027556564658880234,-0.00025421823374927044
1733705256493345300,1.73334521484375,-0.0028545758686959743,0.034894056618213654,-0.004065193235874176
1733705256503312400,1.7433125,-0.0040969401597976685,0.0352352075278759,-0.005363484378904104
1733705256513278200,1.7532783203125,-0.006329504773020744,0.03664124757051468,-0.007163383066654205
1733705256523245300,1.763245361328125,-0.00823153369128704,0.03312108293175697,-0.00589704979211092
1733705256533212200,1.773212158203125,-0.0077931080013513565,0.03078705631196499,-0.0027961870655417442
1733705256543178200,1.78317822265625,-0.00850390549749136,0.02706395648419857,0.003694469342008233
1733705256553145300,1.793145263671875,-0.010619614273309708,0.02422613650560379,0.005813974421471357
1733705256563112200,1.8031123046875,-0.010767685249447823,0.024082325398921967,0.009729087352752686
1733705256573079300,1.813079345703125,-0.007281593047082424,0.023434780538082123,0.008289693854749203
1733705256583045000,1.823045166015625,-0.0048173703253269196,0.02233276329934597,0.00902898795902729
1733705256593012200,1.83301220703125,-0.000515737512614578,0.02347254939377308,0.004482274875044823
1733705256602979000,1.84297900390625,0.004798866808414459,0.025260861963033676,-0.000051224371418356895
1733705256612945400,1.8529453125,0.002117256633937359,0.019695404917001724,0.0006204122910276055
1733705256622912500,1.86291259765625,0.004738339688628912,0.009720801375806332,0.0016012545675039291
1733705256632879400,1.87287939453125,0.0070852674543857574,-0.004765921272337437,0.006969728507101536
1733705256642845400,1.882845458984375,0.008901810273528099,-0.013313069939613342,0.01090215239673853
1733705256652812300,1.892812255859375,0.01209141407161951,-0.016072364524006844,0.011126900091767311
1733705256662779400,1.902779296875,0.011935885064303875,-0.020000526681542397,0.012724263593554497
1733705256672746500,1.91274658203125,0.014297397807240486,-0.026118893176317215,0.01143820583820343
1733705256682712300,1.92271240234375,0.01398660708218813,-0.02926701307296753,0.01323823630809784
1733705256692679400,1.932679443359375,0.007174889091402292,-0.023836899548768997,0.017197217792272568
1733705256702646300,1.942646240234375,0.002956441603600979,-0.018661847338080406,0.020016705617308617
1733705256712612400,1.9526123046875,0.0027487720362842083,-0.021380551159381866,0.023060137405991554
1733705256722579200,1.9625791015625,0.002066203858703375,-0.027792643755674362,0.0251347403973341
1733705256732546300,1.97254638671875,0.006580724380910397,-0.028830712661147118,0.026114637032151222
1733705256742512000,1.98251220703125,0.0013247097376734018,-0.022730210795998573,0.021914832293987274
1733705256752479200,1.992479248046875,-0.005554141942411661,-0.015147967264056206,0.01963047683238983
1733705256762446300,2.0024462890625,-0.009761137887835503,-0.010267991572618484,0.021561002358794212
1733705256772413200,2.0124130859375,-0.01171310804784298,-0.009344073012471199,0.019360408186912537
1733705256782379300,2.022379150390625,-0.010690453462302685,-0.006231637671589851,0.020431000739336014
1733705256792346000,2.03234619140625,-0.0049129328690469265,-0.008311204612255096,0.024755002930760384
1733705256802313200,2.042313232421875,0.0005790378199890256,-0.01043774001300335,0.029643502086400986
1733705256812279300,2.052279296875,0.0014854418113827705,-0.005163819529116154,0.0362398587167263
1733705256822246400,2.062246337890625,0.0025592283345758915,-0.0015445835888385773,0.035338908433914185
1733705256832213500,2.072213623046875,0.001993256388232112,-0.002654546871781349,0.02948443964123726
1733705256842179300,2.082179443359375,0.0025775539688766003,-0.011850707232952118,0.02637067250907421
1733705256852146400,2.092146484375,0.004097697325050831,-0.023340264335274696,0.02784144878387451
1733705256862113300,2.10211328125,0.009901258163154125,-0.03907182067632675,0.03258853033185005
1733705256872080400,2.112080322265625,0.01870262622833252,-0.05044211819767952,0.037296004593372345
1733705256882046200,2.122046142578125,0.02405504696071148,-0.05247757211327553,0.039281390607357025
1733705256892013300,2.132013427734375,0.03014959953725338,-0.0449083149433136,0.04410519450902939
1733705256901980400,2.14198046875,0.03339412808418274,-0.036230139434337616,0.043014898896217346
1733705256911946200,2.1519462890625,0.037989724427461624,-0.03541097044944763,0.04895633086562157
1733705256921913300,2.161913330078125,0.044158935546875,-0.03533799946308136,0.04760344699025154
1733705256931880200,2.171880126953125,0.04821476712822914,-0.03101505897939205,0.04450341686606407
1733705256941846300,2.18184619140625,0.04694284126162529,-0.003974652849137783,0.04425281658768654
1733705256951813000,2.191813232421875,0.033022694289684296,0.0271444171667099,0.04053542762994766
1733705256961780200,2.2017802734375,0.0244425218552351,0.03819866478443146,0.03341813385486603
1733705256971747300,2.211747314453125,0.034707676619291306,0.02846081741154194,0.028202597051858902
1733705256981713400,2.22171337890625,0.05454849451780319,0.006113700568675995,0.026283789426088333
1733705256991680300,2.23168017578125,0.07848822325468063,-0.019126035273075104,0.03127788379788399
1733705257001647400,2.2416474609375,0.08197589963674545,-0.041036661714315414,0.047747936099767685
1733705257011613400,2.251613525390625,0.07660225033760071,-0.05308631807565689,0.06746603548526764
1733705257021580500,2.26158056640625,0.06383425742387772,-0.06923706084489822,0.0822303369641304
1733705257031547600,2.271547607421875,0.05713583901524544,-0.09028410911560059,0.08986348658800125
1733705257041513500,2.281513427734375,0.04921666532754898,-0.09992794692516327,0.08647008240222931
1733705257051480600,2.29148046875,0.045677121728658676,-0.08938613533973694,0.0641714483499527
1733705257061447400,2.301447509765625,0.04303339868783951,-0.0628751665353775,0.036190420389175415
1733705257071414500,2.31141455078125,0.05082465335726738,-0.01990715228021145,-0.0028761313296854496
1733705257081380400,2.32138037109375,0.051407888531684875,0.04134182631969452,-0.04985349625349045
1733705257091347500,2.331347412109375,0.05032818019390106,0.12935015559196472,-0.10262838751077652
1733705257101314600,2.341314453125,0.03925875201821327,0.23624198138713837,-0.1463761329650879
1733705257111280400,2.3512802734375,0.015813669189810753,0.3419593274593353,-0.1795007586479187
1733705257121247500,2.36124755859375,-0.007020806893706322,0.43947336077690125,-0.20924560725688934
1733705257131214300,2.37121435546875,-0.0448957122862339,0.5118455290794373,-0.22364552319049835
1733705257141180400,2.381180419921875,-0.0869198590517044,0.5618098974227905,-0.23142941296100616
1733705257151147300,2.391147216796875,-0.10902837663888931,0.5822086930274963,-0.23960860073566437
1733705257161114400,2.4011142578125,-0.11422233283519745,0.5898447632789612,-0.2552592158317566
1733705257171081500,2.41108154296875,-0.09915834665298462,0.5845067501068115,-0.2811565399169922
1733705257181047600,2.421047607421875,-0.07790152728557587,0.589625895023346,-0.32312849164009094
1733705257191014700,2.4310146484375,-0.05821241810917854,0.622020423412323,-0.37914443016052246
1733705257200981500,2.4409814453125,-0.053914874792099,0.6928948760032654,-0.4439210295677185
1733705257210947600,2.450947509765625,-0.05278481915593147,0.7747544646263123,-0.5053767561912537
1733705257220914400,2.46091455078125,-0.0621223971247673,0.8440485596656799,-0.5563323497772217
1733705257230881500,2.470881591796875,-0.08758493512868881,0.8780110478401184,-0.5977426767349243
1733705257240848600,2.4808486328125,-0.1152770146727562,0.8750136494636536,-0.6170649528503418
1733705257250814500,2.490814453125,-0.1455114185810089,0.8291608691215515,-0.6107102036476135
1733705257260781600,2.500781494140625,-0.1851554960012436,0.768670916557312,-0.5849385857582092
1733705257270748400,2.51074853515625,-0.2158547341823578,0.7181469202041626,-0.5568265914916992
1733705257280714500,2.520714599609375,-0.23895739018917084,0.6595515608787537,-0.5480664372444153
1733705257290681300,2.530681396484375,-0.25250738859176636,0.6268492937088013,-0.5522719025611877
1733705257300648400,2.5406484375,-0.2511414587497711,0.6290459036827087,-0.5496422648429871
1733705257310614300,2.5506142578125,-0.24811504781246185,0.6594011187553406,-0.5326309204101562
1733705257320581400,2.560581298828125,-0.25667789578437805,0.7058075070381165,-0.46766313910484314
1733705257330548500,2.570548583984375,-0.2874021530151367,0.766196072101593,-0.35495269298553467
1733705257340515300,2.580515380859375,-0.34243664145469666,0.841583251953125,-0.23709291219711304
1733705257350481400,2.5904814453125,-0.3960416615009308,0.9339116811752319,-0.12566247582435608
1733705257360448300,2.6004482421875,-0.43268251419067383,1.0090851783752441,-0.05687622353434563
1733705257370415400,2.610415283203125,-0.44310227036476135,0.99814772605896,-0.034186914563179016
1733705257380381400,2.62038134765625,-0.42340153455734253,0.8618441820144653,-0.014150356873869896
1733705257390348500,2.6303486328125,-0.3664695620536804,0.6349912285804749,0.03624880313873291
1733705257400315600,2.640315673828125,-0.23761625587940216,0.3568991422653198,0.12159033119678497
1733705257410281500,2.650281494140625,-0.07178506255149841,0.023519614711403847,0.24765487015247345
1733705257420248600,2.66024853515625,0.08192753046751022,-0.33229973912239075,0.3869480490684509
1733705257430215400,2.67021533203125,0.16137896478176117,-0.6481847167015076,0.5195898413658142
1733705257440182500,2.6801826171875,0.17883305251598358,-0.8943332433700562,0.608748197555542
1733705257450148400,2.6901484375,0.17003686726093292,-1.0217161178588867,0.597978949546814
1733705257460115500,2.700115478515625,0.16042205691337585,-0.9957624077796936,0.5055806040763855
1733705257470082600,2.71008251953125,0.12889766693115234,-0.8390606641769409,0.3770061433315277
1733705257480048400,2.72004833984375,0.07997086644172668,-0.5979140996932983,0.23523275554180145
1733705257490015500,2.730015380859375,0.046583276242017746,-0.3322071135044098,0.11143151670694351
1733705257499982300,2.739982421875,0.024783173575997353,-0.1273368000984192,0.03489759564399719
1733705257509949400,2.749949462890625,0.002390204928815365,0.0002422090619802475,0.037631407380104065
1733705257519915300,2.759915283203125,-0.01799655891954899,0.06457751989364624,0.09031086415052414
1733705257529882400,2.76988232421875,-0.02976255863904953,0.09561209380626678,0.12637147307395935
1733705257539849500,2.779849365234375,-0.024968337267637253,0.10175387561321259,0.14333286881446838
1733705257549815300,2.789815185546875,-0.014413365162909031,0.09513173997402191,0.1378476470708847
1733705257559782400,2.799782470703125,0.0018135422142222524,0.08480000495910645,0.13760530948638916
1733705257569749200,2.809749267578125,0.008849043399095535,0.06260207295417786,0.14745013415813446
1733705257579715600,2.819715576171875,0.012173200957477093,0.030415374785661697,0.15150558948516846
1733705257589682400,2.829682373046875,0.012741359882056713,-0.01216849684715271,0.14925231039524078
1733705257599649500,2.8396494140625,0.012642556801438332,-0.06638327240943909,0.1483372449874878
1733705257609616600,2.84961669921875,0.013847502879798412,-0.14035505056381226,0.15849897265434265
1733705257619582500,2.85958251953125,0.01662677712738514,-0.22446727752685547,0.188040092587471
1733705257629549600,2.869549560546875,0.030185263603925705,-0.3216991424560547,0.22555731236934662
1733705257639516400,2.879516357421875,0.05139867216348648,-0.41893914341926575,0.2459843009710312
1733705257649482500,2.889482421875,0.07847145199775696,-0.5109933614730835,0.24299189448356628
1733705257659449300,2.899449462890625,0.11073058843612671,-0.5961077213287354,0.2291109710931778
1733705257669416400,2.90941650390625,0.1340516060590744,-0.6683564782142639,0.20394232869148254
1733705257679383600,2.919383544921875,0.13792836666107178,-0.716829776763916,0.166680708527565
1733705257689349400,2.929349365234375,0.12616890668869019,-0.7363949418067932,0.1291406750679016
1733705257699316500,2.93931640625,0.1035994291305542,-0.7247045040130615,0.07956913113594055
1733705257709283300,2.949283447265625,0.07444671541452408,-0.6678298115730286,0.01648690365254879
1733705257719249400,2.95924951171875,0.0395614318549633,-0.5778477191925049,-0.05375050753355026
1733705257729216300,2.96921630859375,0.013613808900117874,-0.44022250175476074,-0.11885003745555878
1733705257739183400,2.979183349609375,-0.006080533843487501,-0.2889903783798218,-0.18193019926548004
1733705257749149400,2.9891494140625,-0.036919452250003815,-0.1285591572523117,-0.233040452003479
1733705257759116300,2.9991162109375,-0.08282169699668884,0.051869746297597885,-0.253368616104126
1733705257769083400,3.00908349609375,-0.12543036043643951,0.20908719301223755,-0.26407667994499207
1733705257779050200,3.01905029296875,-0.14716841280460358,0.3122255504131317,-0.26530173420906067
1733705257789016600,3.0290166015625,-0.14446477591991425,0.36599239706993103,-0.2555851936340332
1733705257798983400,3.0389833984375,-0.1258857697248459,0.3923448920249939,-0.22868406772613525
1733705257808950500,3.048950439453125,-0.11464446783065796,0.4032824635505676,-0.19445516169071198
1733705257818916400,3.058916259765625,-0.10429275780916214,0.39998573064804077,-0.1626112014055252
1733705257828883500,3.068883544921875,-0.09279601275920868,0.38054630160331726,-0.13255536556243896
1733705257838850600,3.0788505859375,-0.08645422756671906,0.32872331142425537,-0.12108486890792847
1733705257848817400,3.0888173828125,-0.07809009402990341,0.26485419273376465,-0.10506509244441986
1733705257858783500,3.098783447265625,-0.06626592576503754,0.17243771255016327,-0.06759627908468246
1733705257868750300,3.108750244140625,-0.0682026743888855,0.07209719717502594,-0.017730768769979477
1733705257878717400,3.118717529296875,-0.09075751900672913,-0.013465376570820808,0.038432635366916656
1733705257888683300,3.128683349609375,-0.13575859367847443,-0.10844379663467407,0.09002187103033066
1733705257898650400,3.138650390625,-0.17333365976810455,-0.22303536534309387,0.13256241381168365
1733705257908617500,3.148617431640625,-0.18885767459869385,-0.3451852798461914,0.18293380737304688
1733705257918584300,3.158584228515625,-0.18817271292209625,-0.45614880323410034,0.23446890711784363
1733705257928550400,3.16855029296875,-0.1790187805891037,-0.5323180556297302,0.2865137457847595
1733705257938517200,3.178517333984375,-0.16821379959583282,-0.5632099509239197,0.3382245898246765
1733705257948484400,3.188484375,-0.15061558783054352,-0.5625890493392944,0.38500940799713135
1733705257958450400,3.198450439453125,-0.12193014472723007,-0.5358914136886597,0.4072124660015106
1733705257968417300,3.208417236328125,-0.07063045352697372,-0.49294543266296387,0.4091327488422394
1733705257978384400,3.21838427734375,-0.016100099310278893,-0.43495428562164307,0.40683549642562866
1733705257988351200,3.228351318359375,0.023428067564964294,-0.36224836111068726,0.39889299869537354
1733705257998317600,3.238317626953125,0.047503575682640076,-0.2914023995399475,0.38527414202690125
1733705258008284400,3.248284423828125,0.05835074558854103,-0.21767085790634155,0.35611385107040405
1733705258018251500,3.25825146484375,0.0666414350271225,-0.1447702795267105,0.31653982400894165
1733705258028217300,3.26821728515625,0.07131634652614594,-0.07604394853115082,0.2714785933494568
1733705258038184400,3.278184326171875,0.0750354528427124,-0.02360258623957634,0.2260165810585022
1733705258048151600,3.288151611328125,0.08280257880687714,0.006257861852645874,0.1735856831073761
1733705258058118400,3.298118408203125,0.10232861340045929,0.02218622714281082,0.12571296095848083
1733705258068084500,3.30808447265625,0.11668668687343597,0.02166718617081642,0.09173186123371124
1733705258078051300,3.31805126953125,0.11725819855928421,0.022648826241493225,0.06037313863635063
1733705258088018400,3.328018310546875,0.1065155491232872,0.016645563766360283,0.04767584800720215
1733705258097984300,3.337984375,0.08820284903049469,-0.0047353580594062805,0.054881829768419266
1733705258107951400,3.347951416015625,0.08201741427183151,-0.026854287832975388,0.05980211868882179
1733705258117918500,3.35791845703125,0.08384992927312851,-0.02126884087920189,0.0453355610370636
1733705258127885300,3.36788525390625,0.09333322942256927,0.006686610169708729,0.02518574148416519
1733705258137851400,3.377851318359375,0.09906595200300217,0.028879530727863312,0.015243361704051495
1733705258147818200,3.387818359375,0.10359133034944534,0.01726660504937172,0.01370934583246708
1733705258157785300,3.397785400390625,0.09658881276845932,-0.01961764320731163,0.021639708429574966
1733705258167751400,3.40775146484375,0.08194275945425034,-0.07667852938175201,0.03677205368876457
1733705258177718500,3.417718505859375,0.05464695766568184,-0.1224617287516594,0.049117136746644974
1733705258187685400,3.427685302734375,0.02131711319088936,-0.15681296586990356,0.05664435774087906
1733705258197652200,3.43765234375,-0.013493863865733147,-0.17430061101913452,0.06249132752418518
1733705258207618600,3.44761865234375,-0.04327164217829704,-0.16235411167144775,0.05773097276687622
1733705258217585400,3.45758544921875,-0.06282510608434677,-0.10334912687540054,0.03330392763018608
1733705258227552500,3.467552490234375,-0.0656643882393837,-0.009249335154891014,-0.0035422849468886852
1733705258237518300,3.477518310546875,-0.059147901833057404,0.09282483160495758,-0.0348898246884346
1733705258247485400,3.4874853515625,-0.04688368737697601,0.184147909283638,-0.05034063383936882
1733705258257452500,3.49745263671875,-0.04982328414916992,0.24439792335033417,-0.041821714490652084
1733705258267419400,3.50741943359375,-0.059792205691337585,0.278820663690567,-0.01900690421462059
1733705258277385500,3.517385498046875,-0.062486257404088974,0.2820795774459839,-0.0009498733561486006
1733705258287352300,3.527352294921875,-0.06026576831936836,0.2537689805030823,0.01292283833026886
1733705258297319400,3.5373193359375,-0.04381275922060013,0.20217902958393097,0.03217775747179985
1733705258307285200,3.54728515625,-0.02706434391438961,0.12625707685947418,0.060804497450590134
1733705258317252400,3.55725244140625,-0.009817979298532009,0.033078134059906006,0.09151154011487961
1733705258327219500,3.567219482421875,0.00954192690551281,-0.039875298738479614,0.1107935830950737
1733705258337186300,3.577186279296875,0.02854863926768303,-0.09083515405654907,0.11787492781877518
1733705258347152400,3.58715234375,0.04934042692184448,-0.142119899392128,0.12378936260938644
1733705258357119200,3.597119140625,0.06372015923261642,-0.18656538426876068,0.13169202208518982
1733705258367086300,3.60708642578125,0.07484392076730728,-0.2259368747472763,0.13811802864074707
1733705258377052700,3.617052734375,0.07843998819589615,-0.26205652952194214,0.1419287472963333
1733705258387019500,3.62701953125,0.08217380940914154,-0.2895359992980957,0.14475364983081818
1733705258396986400,3.636986328125,0.08838775753974915,-0.3016669750213623,0.14002414047718048
1733705258406953200,3.646953125,0.09410521388053894,-0.29015249013900757,0.12675562500953674
1733705258416919600,3.65691943359375,0.10195168107748032,-0.2668495774269104,0.11811153590679169
1733705258426886400,3.666886474609375,0.11564168334007263,-0.23571854829788208,0.11341581493616104
1733705258436853500,3.676853515625,0.1300176978111267,-0.20880891382694244,0.10315678268671036
1733705258446819600,3.686819580078125,0.13230466842651367,-0.18827959895133972,0.09487302601337433
1733705258456786400,3.696786376953125,0.12682761251926422,-0.1808730810880661,0.09822115302085876
1733705258466753500,3.70675341796875,0.11385726183652878,-0.17789356410503387,0.10186055302619934
1733705258476720400,3.716720458984375,0.09911374002695084,-0.17422504723072052,0.09684821963310242
1733705258486686500,3.7266865234375,0.0874067097902298,-0.16437113285064697,0.09620501101016998
1733705258496653300,3.7366533203125,0.07833705097436905,-0.15712787210941315,0.09184221923351288
1733705258506620400,3.746620361328125,0.0771271139383316,-0.1600576490163803,0.08393876254558563
1733705258516586500,3.75658642578125,0.07813113182783127,-0.16377408802509308,0.07768113166093826
1733705258526553300,3.76655322265625,0.08220969140529633,-0.1624821573495865,0.06939083337783813
1733705258536520400,3.7765205078125,0.08252634108066559,-0.15691854059696198,0.06220375373959541
1733705258546487300,3.7864873046875,0.07960403710603714,-0.14283280074596405,0.05105100944638252
1733705258556453400,3.796453369140625,0.07123718410730362,-0.13125790655612946,0.03462809696793556
1733705258566420200,3.806420166015625,0.05596273019909859,-0.12008946388959885,0.018586084246635437
1733705258576387300,3.81638720703125,0.03907615691423416,-0.10792174935340881,0.009317218326032162
1733705258586353700,3.826353759765625,0.02855638600885868,-0.09754659235477448,0.0008689110400155187
1733705258596320500,3.836320556640625,0.018522392958402634,-0.08014123886823654,-0.001525270752608776
1733705258606287400,3.846287353515625,0.016618667170405388,-0.06269392371177673,0.004652315750718117
1733705258616254200,3.856254150390625,0.022963648661971092,-0.047172486782073975,0.01108331698924303
1733705258626220500,3.866220458984375,0.02527904137969017,-0.03468307852745056,0.016786668449640274
1733705258636187400,3.8761875,0.030860494822263718,-0.02077098749577999,0.019368071109056473
1733705258646154500,3.886154541015625,0.04253903031349182,-0.012302953749895096,0.01848968118429184
1733705258656120600,3.89612060546875,0.0489543192088604,0.0018341708928346634,0.013882680796086788
1733705258666087400,3.90608740234375,0.049701157957315445,0.010717110708355904,0.013183980248868465
1733705258676054500,3.916054443359375,0.04982792213559151,0.007139686495065689,0.010448914021253586
1733705258686021400,3.926021484375,0.047810330986976624,0.0007451614364981651,0.0018327509751543403
1733705258695987500,3.935987548828125,0.0464547835290432,-0.01255439966917038,-0.0047188918106257915
1733705258705954300,3.945954345703125,0.049973390996456146,-0.029650157317519188,-0.009287286549806595
1733705258715921400,3.95592138671875,0.051477812230587006,-0.04518198221921921,-0.015349440276622772
1733705258725888500,3.965888427734375,0.05277998745441437,-0.04825522005558014,-0.022122463211417198
1733705258735854300,3.975854248046875,0.05346947908401489,-0.04535024240612984,-0.0219405684620142
1733705258745821400,3.985821533203125,0.054255109280347824,-0.04085402935743332,-0.02333659864962101
1733705258755788300,3.995788330078125,0.05316880717873573,-0.03950008004903793,-0.021097945049405098
1733705258765754400,4.00575439453125,0.04835101589560509,-0.03544174134731293,-0.03102724254131317
1733705258775721200,4.01572119140625,0.045444708317518234,-0.026713233441114426,-0.041458845138549805
1733705258785688300,4.025688232421875,0.039274975657463074,-0.012609981000423431,-0.05292549356818199
1733705258795655400,4.035655517578125,0.03390577808022499,0.01230628788471222,-0.0592355877161026
1733705258805621500,4.04562158203125,0.03308171406388283,0.030039776116609573,-0.06113613396883011
1733705258815588400,4.05558837890625,0.03490970656275749,0.038770683109760284,-0.05721382796764374
1733705258825555200,4.06555517578125,0.03733077272772789,0.032748110592365265,-0.04442232474684715
1733705258835521500,4.075521484375,0.03506042808294296,0.02699142135679722,-0.035172369331121445
1733705258845488400,4.08548828125,0.027086425572633743,0.02724584750831127,-0.03429923206567764
1733705258855455500,4.09545556640625,0.02074144408106804,0.028570502996444702,-0.034005217254161835
1733705258865422600,4.105422607421875,0.01902761682868004,0.017251770943403244,-0.03694502264261246
1733705258875388400,4.115388427734375,0.02252461388707161,0.00934085063636303,-0.036453936249017715
1733705258885355500,4.12535546875,0.02609439752995968,0.004053974989801645,-0.03849130868911743
1733705258895322400,4.135322265625,0.02629014104604721,-0.008023461326956749,-0.03529152274131775
1733705258905288400,4.145288330078125,0.024899661540985107,-0.010611237958073616,-0.023482194170355797
1733705258915255300,4.15525537109375,0.024293258786201477,-0.01044931635260582,-0.017829369753599167
1733705258925222400,4.165222412109375,0.024886419996619225,-0.006528748199343681,-0.021923255175352097
1733705258935189500,4.175189453125,0.022356417030096054,0.006714886054396629,-0.030053352937102318
1733705258945155300,4.1851552734375,0.018481269478797913,0.020764004439115524,-0.03716209903359413
1733705258955122400,4.195122314453125,0.016373643651604652,0.031888559460639954,-0.042354464530944824
1733705258965089300,4.20508935546875,0.019098389893770218,0.03341905027627945,-0.03937636688351631
1733705258975055400,4.215055419921875,0.02531207725405693,0.02422049269080162,-0.030974896624684334
1733705258985022500,4.2250224609375,0.03560257703065872,0.008164122700691223,-0.020312540233135223
1733705258994989300,4.2349892578125,0.04407302662730217,-0.002259223721921444,-0.006099250167608261
1733705259004956400,4.244956298828125,0.045441266149282455,-0.005554426461458206,0.00006618909537792206
1733705259014922500,4.254922607421875,0.04872148483991623,-0.0115398820489645,0.006572025362402201
1733705259024888800,4.264888916015625,0.051704537123441696,-0.020769240334630013,0.009813748300075531
1733705259034856000,4.27485595703125,0.05029119551181793,-0.02442442812025547,0.00986701063811779
1733705259044823000,4.284822998046875,0.0570056326687336,-0.03310785070061684,0.009658564813435078
1733705259054788900,4.294788818359375,0.06831101328134537,-0.048145923763513565,0.013178996741771698
1733705259064756000,4.304755859375,0.07620075345039368,-0.06188799813389778,0.02078242599964142
1733705259074722800,4.314722900390625,0.08081867545843124,-0.07743260264396667,0.02668585628271103
1733705259084689000,4.32468896484375,0.0845801830291748,-0.09095647186040878,0.031824737787246704
1733705259094655700,4.33465576171875,0.0817606970667839,-0.09965115785598755,0.03522559627890587
1733705259104622800,4.344622802734375,0.07513915747404099,-0.10245084762573242,0.03674659878015518
1733705259114590000,4.35458984375,0.07062137126922607,-0.10196322202682495,0.03312789276242256
1733705259124555800,4.3645556640625,0.0632491186261177,-0.1047925278544426,0.025208603590726852
1733705259134523000,4.37452294921875,0.05319754779338837,-0.10089578479528427,0.023311104625463486
1733705259144489700,4.38448974609375,0.04406260699033737,-0.09333521127700806,0.021704955026507378
1733705259154455800,4.394455810546875,0.031212853267788887,-0.09047631174325943,0.019993608817458153
1733705259164422700,4.404422607421875,0.018713466823101044,-0.08381996303796768,0.015727680176496506
1733705259174389800,4.4143896484375,0.01165688969194889,-0.07837352901697159,0.016025422140955925
1733705259184356900,4.42435693359375,0.007839865051209927,-0.0797932967543602,0.015952832996845245
1733705259194323000,4.434322998046875,0.005052600521594286,-0.07485366612672806,0.01760931685566902
1733705259204289800,4.444289794921875,0.0019952396396547556,-0.06394198536872864,0.021565327420830727
1733705259214256600,4.454256591796875,0.0027326690033078194,-0.04829404503107071,0.028298864141106606
1733705259224223700,4.4642236328125,0.0008275809232145548,-0.020689796656370163,0.03533037379384041
1733705259234189800,4.47418994140625,-0.0017743274802342057,0.007835321128368378,0.04799530282616615
1733705259244157000,4.484156982421875,-0.002996376482769847,0.03128106892108917,0.06410989910364151
1733705259254124000,4.4941240234375,-0.004440608900040388,0.052849747240543365,0.07942067831754684
1733705259264089900,4.50408984375,-0.0011068054009228945,0.06243747100234032,0.084554024040699
1733705259274057000,4.514056884765625,0.00383815192617476,0.06495442241430283,0.0789472758769989
1733705259284023800,4.52402392578125,0.008166998624801636,0.05677233636379242,0.07546945661306381
1733705259293991000,4.533990966796875,0.00554538331925869,0.03705722093582153,0.06583600491285324
1733705259303956700,4.543956787109375,0.0035924240946769714,0.014270493760704994,0.05494443699717522
1733705259313923800,4.553923828125,0.001211824594065547,-0.006042767316102982,0.04535359516739845
1733705259323891000,4.563890869140625,-0.0016026388620957732,-0.024033894762396812,0.030407138168811798
1733705259333856800,4.573856689453125,-0.00474703311920166,-0.03907089680433273,0.0226522795855999
1733705259343824000,4.583823974609375,-0.004634966142475605,-0.03802516311407089,0.02097623609006405
1733705259353790700,4.593790771484375,-0.009344500489532948,-0.023909077048301697,0.02176399901509285
1733705259363757800,4.6037578125,-0.019003359600901604,0.004179858602583408,0.026971736922860146
1733705259373723600,4.6137236328125,-0.021896351128816605,0.03432684391736984,0.022952226921916008
1733705259383690800,4.623690673828125,-0.019560152664780617,0.056671373546123505,0.019286196678876877
1733705259393657900,4.633657958984375,-0.009176220744848251,0.063583604991436,0.020946677774190903
1733705259403624700,4.643624755859375,0.0022744121961295605,0.06414655596017838,0.022776611149311066
1733705259413590800,4.6535908203125,0.007988756522536278,0.05653311312198639,0.023600859567523003
1733705259423557600,4.6635576171875,0.00859723798930645,0.05055156350135803,0.016760414466261864
1733705259433524700,4.673524658203125,0.007067251484841108,0.04335516691207886,0.0038962806575000286
1733705259443490800,4.68349072265625,0.0005472044576890767,0.023840203881263733,-0.0075650508515536785
1733705259453458000,4.6934580078125,-0.005004154518246651,0.0050153834745287895,-0.01257924921810627
1733705259463425000,4.703425048828125,-0.007625853642821312,-0.014559082686901093,-0.01713683269917965
1733705259473391900,4.713391845703125,-0.010420042090117931,-0.0373525470495224,-0.022237585857510567
1733705259483358000,4.72335791015625,-0.012352327816188335,-0.04965212941169739,-0.026982728391885757
1733705259493324800,4.73332470703125,-0.010223929770290852,-0.04418998956680298,-0.029559070244431496
1733705259503292000,4.7432919921875,-0.007619707845151424,-0.02219756878912449,-0.03367616608738899
1733705259513259000,4.753259033203125,-0.0002110600471496582,0.0170222707092762,-0.034055933356285095
1733705259523224800,4.763224853515625,0.006769583094865084,0.04975935071706772,-0.021847087889909744
1733705259533192000,4.77319189453125,0.013477286323904991,0.06100960820913315,-0.005383958108723164
1733705259543158800,4.78315869140625,0.022772450000047684,0.0605868324637413,0.004262347240000963
1733705259553124900,4.793124755859375,0.026922186836600304,0.04697434976696968,0.006754000671207905
1733705259563091700,4.803091796875,0.034882910549640656,0.021230529993772507,0.005192900076508522
1733705259573058800,4.813058837890625,0.037877101451158524,-0.002919812686741352,0.008274976164102554
1733705259583026000,4.82302587890625,0.03336336836218834,-0.0192883163690567,0.006775193847715855
1733705259592991700,4.83299169921875,0.03300730511546135,-0.033686429262161255,0.005017241463065147
1733705259602958800,4.842958740234375,0.033262357115745544,-0.03671105578541756,-0.004610690753906965
1733705259612925700,4.85292578125,0.031394682824611664,-0.035863373428583145,-0.015752824023365974
1733705259622892800,4.862892822265625,0.027785558253526688,-0.043708883225917816,-0.023024510592222214
1733705259632859000,4.87285888671875,0.019564911723136902,-0.04801388084888458,-0.031085632741451263
1733705259642825700,4.88282568359375,0.014251439832150936,-0.04873941093683243,-0.03562602028250694
1733705259652792800,4.892792724609375,0.012221844866871834,-0.04496091604232788,-0.03855469822883606
1733705259662759000,4.902759033203125,0.01834484376013279,-0.04764463007450104,-0.03405045345425606
1733705259672726000,4.91272607421875,0.025341499596834183,-0.047033168375492096,-0.02304547280073166
1733705259682692900,4.92269287109375,0.032560039311647415,-0.0541483536362648,-0.014142867177724838
1733705259692660000,4.932659912109375,0.0378328338265419,-0.057900212705135345,-0.005024470388889313
1733705259702625800,4.942625732421875,0.038604043424129486,-0.057915911078453064,0.005769929848611355
1733705259712593000,4.952593017578125,0.03726021200418472,-0.05492384731769562,0.022239184007048607
1733705259722560000,4.96256005859375,0.037717290222644806,-0.048421669751405716,0.033768877387046814
1733705259732525800,4.97252587890625,0.03773033991456032,-0.040466275066137314,0.03596145659685135
1733705259742493000,4.982492919921875,0.035025469958782196,-0.040804266929626465,0.029810169711709023
1733705259752459800,4.992459716796875,0.03312423825263977,-0.041844502091407776,0.019407061859965324
1733705259762427000,5.002427001953125,0.02785033918917179,-0.040757916867733,0.009549979120492935
1733705259772392700,5.012392822265625,0.02171228639781475,-0.04156032204627991,0.006369898561388254
1733705259782359800,5.02235986328125,0.008404050953686237,-0.05004051327705383,0.009708821773529053
1733705259792327000,5.032326904296875,-0.002270431723445654,-0.05903454124927521,0.01471609715372324
1733705259802293800,5.042293701171875,-0.007936091162264347,-0.07339683920145035,0.014158466830849648
1733705259812259800,5.052259765625,-0.006274545099586248,-0.09511465579271317,0.01141008548438549
1733705259822226700,5.062226806640625,0.002654809271916747,-0.11833743751049042,0.014847351238131523
1733705259832193800,5.07219384765625,0.020777620375156403,-0.13471481204032898,0.021172890439629555
1733705259842159900,5.082159912109375,0.03370103985071182,-0.14205177128314972,0.025571823120117188
1733705259852126700,5.092126708984375,0.03757806867361069,-0.14471226930618286,0.03266754746437073
1733705259862093800,5.10209375,0.033950209617614746,-0.14380952715873718,0.04927818104624748
1733705259872060700,5.112060791015625,0.02375642955303192,-0.13801422715187073,0.07062741369009018
1733705259882027000,5.122027099609375,0.012439880520105362,-0.1370576173067093,0.0853370800614357
1733705259891993900,5.131993896484375,0.001961406320333481,-0.1305302083492279,0.08854486048221588
1733705259901961000,5.1419609375,-0.0023709461092948914,-0.12180031090974808,0.07984331995248795
1733705259911928000,5.151927978515625,-0.0014066152507439256,-0.11357539892196655,0.06528168171644211
1733705259921894000,5.161893798828125,0.0022380431182682514,-0.10891880095005035,0.05716542899608612
1733705259931861000,5.171861083984375,-0.0013252663193270564,-0.11332634091377258,0.061164963990449905
1733705259941827800,5.181827880859375,-0.006186492741107941,-0.13143117725849152,0.0665193721652031
1733705259951794000,5.1917939453125,-0.011194300837814808,-0.16046202182769775,0.06713296473026276
1733705259961760800,5.2017607421875,-0.01179654709994793,-0.171639546751976,0.05576146021485329
1733705259971728000,5.211727783203125,-0.00848890095949173,-0.16051046550273895,0.036067914217710495
1733705259981695000,5.221695068359375,-0.001101683359593153,-0.13701440393924713,0.015586299821734428
1733705259991660800,5.231660888671875,0.009598897770047188,-0.10765598714351654,0.010980895720422268
1733705260001628000,5.2416279296875,0.01871352642774582,-0.08028720319271088,0.019892439246177673
1733705260011594800,5.2515947265625,0.016805371269583702,-0.06712904572486877,0.03466073423624039
1733705260021562600,5.261562744140625,0.017236927524209023,-0.06049303710460663,0.0456140898168087
1733705260031528400,5.271528564453125,0.01643931120634079,-0.05257705599069595,0.054013434797525406
1733705260041495600,5.28149560546875,0.009506568312644958,-0.047169141471385956,0.05319233238697052
1733705260051462400,5.29146240234375,0.004105677362531424,-0.0443832091987133,0.041017960757017136
1733705260061428500,5.301428466796875,0.0013180235400795937,-0.040243376046419144,0.02348397858440876
1733705260071395300,5.311395263671875,-0.0074347215704619884,-0.04400881752371788,0.0020138404797762632
1733705260081362400,5.321362548828125,-0.02340511791408062,-0.05838761478662491,-0.010797061026096344
1733705260091329500,5.33132958984375,-0.0398235060274601,-0.07025545835494995,-0.02257249504327774
1733705260101295400,5.34129541015625,-0.05499035865068436,-0.07883679866790771,-0.03371254354715347
1733705260111262500,5.351262451171875,-0.06783211976289749,-0.0855487734079361,-0.04976901039481163
1733705260121229300,5.361229248046875,-0.07666482031345367,-0.0848228707909584,-0.06636486947536469
1733705260131196400,5.371196533203125,-0.08568228781223297,-0.08204199373722076,-0.07780181616544724
1733705260141162500,5.38116259765625,-0.09441360086202621,-0.06686395406723022,-0.08738499879837036
1733705260151129600,5.391129638671875,-0.10643910616636276,-0.04439699649810791,-0.08718046545982361
1733705260161096400,5.401096435546875,-0.12499969452619553,-0.019816771149635315,-0.08601344376802444
1733705260171063300,5.411063232421875,-0.13992992043495178,0.006506446283310652,-0.0842653438448906
1733705260181029600,5.421029541015625,-0.15294384956359863,0.03741045296192169,-0.08893927931785583
1733705260190996500,5.43099658203125,-0.15878069400787354,0.06353206932544708,-0.09748110175132751
1733705260200963600,5.440963623046875,-0.16589510440826416,0.08226045221090317,-0.10960913449525833
1733705260210929400,5.450929443359375,-0.17027547955513,0.09829827398061752,-0.12272785604000092
1733705260220896500,5.460896484375,-0.172995463013649,0.10030415654182434,-0.13200601935386658
1733705260230863600,5.470863525390625,-0.1759401261806488,0.08866587281227112,-0.13364732265472412
1733705260240830500,5.48083056640625,-0.178758904337883,0.07170370221138,-0.1398661583662033
1733705260250796500,5.490796630859375,-0.17561423778533936,0.06006542220711708,-0.14288005232810974
1733705260260763400,5.500763427734375,-0.17427048087120056,0.045945897698402405,-0.13772618770599365
1733705260270730500,5.51073046875,-0.17196445167064667,0.03647276759147644,-0.13210824131965637
1733705260280697600,5.520697509765625,-0.17368674278259277,0.030087944120168686,-0.13420173525810242
1733705260290663400,5.530663330078125,-0.1700105220079422,0.02476481720805168,-0.1431904435157776
1733705260300630500,5.540630615234375,-0.16747258603572845,0.02567768096923828,-0.15333639085292816
1733705260310597400,5.550597412109375,-0.1660507321357727,0.03901798650622368,-0.16669560968875885
1733705260320563500,5.5605634765625,-0.16761764883995056,0.060823820531368256,-0.1767193078994751
1733705260330530300,5.5705302734375,-0.17298391461372375,0.07246023416519165,-0.1894494742155075
1733705260340497400,5.580497314453125,-0.18188312649726868,0.08359970897436142,-0.20370830595493317
1733705260350464500,5.590464599609375,-0.1889580935239792,0.09458231925964355,-0.22235043346881866
1733705260360430600,5.6004306640625,-0.19555677473545074,0.09284955263137817,-0.23946872353553772
1733705260370397400,5.6103974609375,-0.20311589539051056,0.08797436952590942,-0.24643954634666443
1733705260380364500,5.620364501953125,-0.20341603457927704,0.07515063136816025,-0.24983927607536316
1733705260390331400,5.630331298828125,-0.19706253707408905,0.06303137540817261,-0.24734896421432495
1733705260400297500,5.64029736328125,-0.19316621124744415,0.05550338327884674,-0.24238288402557373
1733705260410264600,5.6502646484375,-0.1890564262866974,0.05897800996899605,-0.24345189332962036
1733705260420231700,5.660231689453125,-0.183726504445076,0.0679188221693039,-0.25076231360435486
1733705260430198500,5.670198486328125,-0.1833219677209854,0.08971306681632996,-0.25861862301826477
1733705260440164600,5.68016455078125,-0.18981780111789703,0.11627830564975739,-0.2687985301017761
1733705260450131500,5.69013134765625,-0.20888149738311768,0.140794575214386,-0.2787204384803772
1733705260460098600,5.7000986328125,-0.23364649713039398,0.16104906797409058,-0.29198920726776123
1733705260470064400,5.710064453125,-0.26022589206695557,0.1759324073791504,-0.30202504992485046
1733705260480031500,5.720031494140625,-0.269052118062973,0.1786631941795349,-0.30965933203697205
1733705260489998600,5.72999853515625,-0.27734652161598206,0.17195363342761993,-0.31229478120803833
1733705260499965400,5.73996533203125,-0.28305625915527344,0.16723591089248657,-0.31377196311950684
1733705260509931500,5.749931640625,-0.2870451509952545,0.167462557554245,-0.316416472196579
1733705260519898400,5.7598984375,-0.29525846242904663,0.16845139861106873,-0.3177032172679901
1733705260529865500,5.769865478515625,-0.3066788911819458,0.17016220092773438,-0.3148972988128662
1733705260539832300,5.779832275390625,-0.31015557050704956,0.16213232278823853,-0.30093616247177124
1733705260549798400,5.78979833984375,-0.31325122714042664,0.15908753871917725,-0.2843041718006134
1733705260559765500,5.799765625,-0.31520625948905945,0.16435828804969788,-0.2730129361152649
1733705260569732400,5.809732421875,-0.31557244062423706,0.18391866981983185,-0.2688640058040619
1733705260579699500,5.819699462890625,-0.3291146755218506,0.2034217268228531,-0.2759864926338196
1733705260589665500,5.82966552734375,-0.34755733609199524,0.22767353057861328,-0.2828769087791443
1733705260599632400,5.83963232421875,-0.36517444252967834,0.24545007944107056,-0.2808670103549957
1733705260609599200,5.84959912109375,-0.37493252754211426,0.23585204780101776,-0.2820686101913452
1733705260619565600,5.859565673828125,-0.36520668864250183,0.2159804105758667,-0.284728467464447
1733705260629532700,5.86953271484375,-0.34855395555496216,0.19898784160614014,-0.275497704744339
1733705260639499500,5.87949951171875,-0.3424857258796692,0.17590971291065216,-0.259799599647522
1733705260649466600,5.889466552734375,-0.3325401544570923,0.1546768695116043,-0.24057289958000183
1733705260659432400,5.899432373046875,-0.3319714367389679,0.1318114548921585,-0.22115305066108704
1733705260669399600,5.909399658203125,-0.33469587564468384,0.10563603788614273,-0.2175830900669098
1733705260679366400,5.919366455078125,-0.3319857120513916,0.07429804652929306,-0.22724366188049316
1733705260689333500,5.92933349609375,-0.316562294960022,0.048614516854286194,-0.23941057920455933
1733705260699299600,5.939299560546875,-0.30429598689079285,0.03340119495987892,-0.24271802604198456
1733705260709266400,5.949266357421875,-0.294352263212204,0.03446485847234726,-0.22851991653442383
1733705260719233500,5.959233642578125,-0.2973698377609253,0.039413630962371826,-0.218525230884552
1733705260729200400,5.969200439453125,-0.2970838248729706,0.041747357696294785,-0.2190820872783661
1733705260739166500,5.97916650390625,-0.2891162931919098,0.026543408632278442,-0.22784557938575745
1733705260749133600,5.989133544921875,-0.27894169092178345,0.023258399218320847,-0.2311667948961258
1733705260759100400,5.999100341796875,-0.2772616147994995,0.024066448211669922,-0.22490175068378448
1733705260769066500,6.00906640625,-0.27937108278274536,0.03261040151119232,-0.21670295298099518
1733705260779033300,6.019033447265625,-0.2834185063838959,0.055711790919303894,-0.20745639503002167
1733705260789000400,6.02900048828125,-0.2847535312175751,0.08486514538526535,-0.20090635120868683
1733705260798967300,6.03896728515625,-0.2899594008922577,0.12007761001586914,-0.20844079554080963
1733705260808933400,6.048933349609375,-0.2860400080680847,0.16066871583461761,-0.21180808544158936
1733705260818900500,6.058900390625,-0.2784164547920227,0.20145314931869507,-0.20841765403747559
1733705260828867300,6.068867431640625,-0.27336710691452026,0.23766733705997467,-0.20662668347358704
1733705260838834400,6.07883447265625,-0.26554641127586365,0.2677992582321167,-0.19196687638759613
1733705260848800500,6.088800537109375,-0.2512654662132263,0.2663406431674957,-0.17124401032924652
1733705260858767600,6.098767578125,-0.23515558242797852,0.24962106347084045,-0.15097907185554504
1733705260868734500,6.108734375,-0.21446308493614197,0.2209119200706482,-0.12931372225284576
1733705260878701600,6.11870166015625,-0.18577943742275238,0.18942630290985107,-0.10432218760251999
1733705260888667600,6.128667724609375,-0.1489625722169876,0.15219637751579285,-0.07528014481067657
1733705260898634500,6.138634521484375,-0.10921139270067215,0.11535222828388214,-0.05359774827957153
1733705260908601600,6.1486015625,-0.07432877272367477,0.08241505175828934,-0.02746335044503212
1733705260918568400,6.158568359375,-0.043906405568122864,0.05084843188524246,-0.004980493802577257
1733705260928534500,6.168534423828125,-0.026089858263731003,0.02874872460961342,-0.001811864785850048
1733705260938501400,6.17850146484375,-0.009865613654255867,0.027722442522644997,-0.00914306566119194
1733705260948468500,6.188468505859375,0.004652875941246748,0.03111957013607025,-0.013543674722313881
1733705260958434600,6.1984345703125,0.02115810289978981,0.03257568180561066,-0.011230438947677612
1733705260968401400,6.2084013671875,0.04005109891295433,0.021181611344218254,-0.0018891342915594578
1733705260978368500,6.218368408203125,0.052719246596097946,-0.002248520962893963,0.02845962904393673
1733705260988335400,6.22833544921875,0.0653839111328125,-0.026174625381827354,0.0669335201382637
1733705260998301400,6.238301513671875,0.08338802307844162,-0.04399466887116432,0.09167839586734772
1733705261008268300,6.248268310546875,0.10180458426475525,-0.04349159449338913,0.10307273268699646
1733705261018235400,6.2582353515625,0.11894650757312775,-0.023016400635242462,0.10791842639446259
1733705261028202000,6.268201904296875,0.136581689119339,0.010356203652918339,0.10435139387845993
1733705261038168000,6.27816796875,0.15310190618038177,0.040613673627376556,0.11378518491983414
1733705261048135200,6.28813525390625,0.16829577088356018,0.05598011240363121,0.13700608909130096
1733705261058102000,6.29810205078125,0.18615341186523438,0.04033171758055687,0.16102737188339233
1733705261068068000,6.308068115234375,0.2095426321029663,0.005272000562399626,0.18659478425979614
1733705261078035200,6.31803515625,0.2366596907377243,-0.03302929922938347,0.21922416985034943
1733705261088002000,6.328001953125,0.2601085603237152,-0.06379546225070953,0.2438805252313614
1733705261097969200,6.33796923828125,0.284245103597641,-0.09356430172920227,0.2456039935350418
1733705261107935000,6.34793505859375,0.30278149247169495,-0.09959343075752258,0.24410250782966614
1733705261117902000,6.357902099609375,0.32276204228401184,-0.10606302320957184,0.2519880533218384
1733705261127869200,6.367869140625,0.3494066894054413,-0.11401201784610748,0.25630930066108704
1733705261137836000,6.3778359375,0.3690565228462219,-0.13359475135803223,0.26619768142700195
1733705261147802000,6.387802001953125,0.37757304310798645,-0.16040585935115814,0.2772846817970276
1733705261157769000,6.39776904296875,0.37566328048706055,-0.19016225636005402,0.2749563753604889
1733705261167736000,6.407736083984375,0.3660018742084503,-0.20840410888195038,0.26471251249313354
1733705261177703200,6.417703125,0.3619699776172638,-0.2366924285888672,0.25669029355049133
1733705261187669000,6.4276689453125,0.3591017425060272,-0.27518200874328613,0.25462260842323303
1733705261197636000,6.437635986328125,0.3480411171913147,-0.3190467059612274,0.26376330852508545
1733705261207603000,6.44760302734375,0.3361053764820099,-0.34603649377822876,0.28733041882514954
1733705261217570000,6.457570068359375,0.3214903771877289,-0.35256388783454895,0.3110135495662689
1733705261227536000,6.467535888671875,0.31270140409469604,-0.3240976333618164,0.3300924301147461
1733705261237503000,6.4775029296875,0.2952593266963959,-0.27631011605262756,0.34661707282066345
1733705261247470000,6.487469970703125,0.26995715498924255,-0.23062360286712646,0.3519876003265381
1733705261257436200,6.497436279296875,0.23131780326366425,-0.19266125559806824,0.3354037404060364
1733705261267403000,6.507403076171875,0.18110576272010803,-0.15595118701457977,0.29223737120628357
1733705261277369900,6.517369873046875,0.11564099043607712,-0.12101336568593979,0.23814119398593903
1733705261287337000,6.5273369140625,0.0501360185444355,-0.08474777638912201,0.18854941427707672
1733705261297303000,6.537302978515625,-0.004593659657984972,-0.05242511257529259,0.14247609674930573
1733705261307270100,6.547270263671875,-0.034094296395778656,-0.022320471704006195,0.11916490644216537
1733705261317237200,6.5572373046875,-0.043632034212350845,0.010536068119108677,0.1058049201965332
1733705261327204000,6.5672041015625,-0.04105782136321068,0.04002418369054794,0.10643076151609421
1733705261337170200,6.577170166015625,-0.045049574226140976,0.07301992923021317,0.11765055358409882
1733705261347137000,6.587136962890625,-0.055154137313365936,0.09640461206436157,0.12814100086688995
1733705261357104000,6.597104248046875,-0.06630205363035202,0.11810445785522461,0.11551247537136078
1733705261367071200,6.6070712890625,-0.06956442445516586,0.1485542356967926,0.0899256244301796
1733705261377037000,6.617037109375,-0.074545718729496,0.1815541535615921,0.06808680295944214
1733705261387004200,6.627004150390625,-0.08171813935041428,0.20057924091815948,0.050610605627298355
1733705261396971000,6.636970947265625,-0.08873990178108215,0.19997186958789825,0.04661768302321434
1733705261406937000,6.64693701171875,-0.09587104618549347,0.18001146614551544,0.046404361724853516
1733705261416904000,6.656904052734375,-0.0914316177368164,0.14041145145893097,0.05279973894357681
1733705261426871000,6.66687109375,-0.06826478242874146,0.08161018788814545,0.0674268826842308
1733705261436838100,6.676838134765625,-0.03565133735537529,0.016491428017616272,0.08650845289230347
1733705261446804000,6.686803955078125,0.0002877555671148002,-0.04034069553017616,0.11118476837873459
1733705261456771000,6.69677099609375,0.029694681987166405,-0.08607073873281479,0.13158990442752838
1733705261466738000,6.706738037109375,0.05678994953632355,-0.12683095037937164,0.14241725206375122
1733705261476705000,6.716705078125,0.07121981680393219,-0.1631125509738922,0.14381715655326843
1733705261486670800,6.7266708984375,0.07522201538085938,-0.1846199780702591,0.1394018977880478
1733705261496638000,6.736637939453125,0.07614398002624512,-0.19872352480888367,0.13290169835090637
1733705261506605000,6.74660498046875,0.08049425482749939,-0.20522484183311462,0.125702902674675
1733705261516572000,6.756572021484375,0.08468892425298691,-0.21678896248340607,0.11810553073883057
1733705261526538200,6.766538330078125,0.0868426263332367,-0.23412400484085083,0.1102025955915451
1733705261536505000,6.776505126953125,0.08749271929264069,-0.245145782828331,0.1128430888056755
1733705261546472200,6.78647216796875,0.07972641289234161,-0.24935756623744965,0.12068051099777222
1733705261556438000,6.79643798828125,0.06542062014341354,-0.24848970770835876,0.1262163519859314
1733705261566405000,6.806405029296875,0.049357227981090546,-0.23551079630851746,0.12222188711166382
1733705261576372200,6.816372314453125,0.02505008690059185,-0.2054719477891922,0.10126056522130966
1733705261586339000,6.826339111328125,-0.0004382285987958312,-0.1814129501581192,0.06724879890680313
1733705261596305200,6.83630517578125,-0.024644944816827774,-0.15548862516880035,0.028671642765402794
1733705261606272000,6.84627197265625,-0.04344499856233597,-0.12140628695487976,-0.0020939926616847515
1733705261616239000,6.856239013671875,-0.0605926439166069,-0.0810147076845169,-0.030450062826275826
1733705261626206200,6.866206298828125,-0.07973890751600266,-0.04325854778289795,-0.04363883286714554
1733705261636172000,6.876172119140625,-0.095653235912323,-0.014776451513171196,-0.05492176115512848
1733705261646139100,6.88613916015625,-0.11487912386655807,0.0014339443296194077,-0.06570090353488922
1733705261656106000,6.89610595703125,-0.13983330130577087,0.016486069187521935,-0.0786183625459671
1733705261666073000,6.906072998046875,-0.1685221940279007,0.020831547677516937,-0.1040467619895935
1733705261676039000,6.916038818359375,-0.1899379938840866,0.018562793731689453,-0.12865546345710754
1733705261686006000,6.926006103515625,-0.19972191751003265,0.025210842490196228,-0.1481330245733261
1733705261695973000,6.93597314453125,-0.20145799219608307,0.049398988485336304,-0.1711694449186325
1733705261705940000,6.94593994140625,-0.2006947249174118,0.08037315309047699,-0.17891205847263336
1733705261715906000,6.955906005859375,-0.20401839911937714,0.1071680337190628,-0.17219282686710358
1733705261725873000,6.965872802734375,-0.22028765082359314,0.11911976337432861,-0.16353942453861237
1733705261735840000,6.975840087890625,-0.22763629257678986,0.1235930472612381,-0.1621864140033722
1733705261745806000,6.98580615234375,-0.22579097747802734,0.12242311984300613,-0.17464521527290344
1733705261755773200,6.995773193359375,-0.22172921895980835,0.10260656476020813,-0.19054439663887024
1733705261765740000,7.005739990234375,-0.21994996070861816,0.059254296123981476,-0.20211637020111084
1733705261775707000,7.015706787109375,-0.22155340015888214,0.011198962107300758,-0.20706306397914886
1733705261785673200,7.025673095703125,-0.2302028089761734,-0.03453363850712776,-0.2092851996421814
1733705261795640000,7.03564013671875,-0.24173638224601746,-0.0589623898267746,-0.20885701477527618
1733705261805607200,7.045607177734375,-0.2592535614967346,-0.06892980635166168,-0.19671033322811127
1733705261815574300,7.05557421875,-0.2757846415042877,-0.08370447903871536,-0.1817675679922104
1733705261825540000,7.0655400390625,-0.2876303791999817,-0.08993814140558243,-0.17787988483905792
1733705261835507200,7.075507080078125,-0.29098978638648987,-0.08350925147533417,-0.1849277913570404
1733705261845474000,7.08547412109375,-0.2887372672557831,-0.04866684228181839,-0.19263924658298492
1733705261855441200,7.095441162109375,-0.2837264835834503,-0.01135331578552723,-0.1881449967622757
1733705261865407000,7.105406982421875,-0.28243350982666016,0.003636287059634924,-0.16399279236793518
1733705261875374000,7.1153740234375,-0.29135096073150635,0.011937403120100498,-0.12869052588939667
1733705261885341200,7.125341064453125,-0.3079797327518463,0.012421032413840294,-0.10638653486967087
1733705261895308000,7.13530810546875,-0.31715941429138184,0.01915040612220764,-0.11715608835220337
1733705261905274000,7.145274169921875,-0.3219919800758362,0.03400764986872673,-0.13319844007492065
1733705261915241000,7.155240966796875,-0.32186782360076904,0.027717219665646553,-0.1415652632713318
1733705261925208000,7.1652080078125,-0.31575027108192444,0.028314033523201942,-0.1508447825908661
1733705261935175000,7.1751748046875,-0.3069353401660919,0.03065536729991436,-0.15838482975959778
1733705261945141000,7.18514111328125,-0.2841096520423889,0.045308344066143036,-0.15697148442268372
1733705261955108000,7.195108154296875,-0.25662216544151306,0.05500626564025879,-0.14916111528873444
1733705261965075000,7.205074951171875,-0.2270008772611618,0.05755464732646942,-0.14392241835594177
1733705261975041000,7.215041015625,-0.18829819560050964,0.05938795208930969,-0.14067183434963226
1733705261985008000,7.225008056640625,-0.1509324461221695,0.08020748198032379,-0.13069376349449158
1733705261994975000,7.23497509765625,-0.11212866008281708,0.11654278635978699,-0.11801052838563919
1733705262004941800,7.24494189453125,-0.07992438971996307,0.15000593662261963,-0.09619950503110886
1733705262014908200,7.254908203125,-0.04169165715575218,0.15687720477581024,-0.06623469293117523
1733705262024875500,7.26487548828125,-0.005870012100785971,0.14033499360084534,-0.026002317667007446
1733705262034842600,7.274842529296875,0.01244540698826313,0.10481664538383484,0.00556029099971056
1733705262044809500,7.2848095703125,0.024789957329630852,0.06415870040655136,0.017174869775772095
1733705262054775800,7.29477587890625,0.040842205286026,0.03564431518316269,0.02188081108033657
1733705262064742700,7.30474267578125,0.07266750931739807,-0.0016881413757801056,0.03523523360490799
1733705262074709800,7.314709716796875,0.11185942590236664,-0.05712335556745529,0.07084106653928757
1733705262084676900,7.3246767578125,0.15977048873901367,-0.12457937002182007,0.1159621998667717
1733705262094642700,7.334642578125,0.21080803871154785,-0.17582762241363525,0.15658244490623474
1733705262104609800,7.34460986328125,0.2609233856201172,-0.20251062512397766,0.19476418197155
1733705262114576600,7.35457666015625,0.31935977935791016,-0.20392894744873047,0.22094076871871948
1733705262124543700,7.364543701171875,0.369988352060318,-0.1881110966205597,0.23285575211048126
1733705262134509600,7.374509521484375,0.404669851064682,-0.1695583313703537,0.23398739099502563
1733705262144476700,7.3844765625,0.422669917345047,-0.15042778849601746,0.22891061007976532
1733705262154443800,7.39444384765625,0.4246460497379303,-0.14055627584457397,0.21608464419841766
1733705262164410600,7.40441064453125,0.4183623194694519,-0.1389746218919754,0.20509298145771027
1733705262174376700,7.414376708984375,0.4024285078048706,-0.1473851054906845,0.2003730833530426
1733705262184343600,7.424343505859375,0.3889331817626953,-0.16420350968837738,0.20014750957489014
1733705262194310700,7.434310546875,0.3926033079624176,-0.17544108629226685,0.19165946543216705
1733705262204276500,7.4442763671875,0.4030444920063019,-0.1680244505405426,0.19200541079044342
1733705262214243600,7.45424365234375,0.4104575216770172,-0.14694032073020935,0.19522380828857422
1733705262224210700,7.464210693359375,0.3997606635093689,-0.11587721109390259,0.19739960134029388
1733705262234177500,7.474177490234375,0.388246089220047,-0.11310702562332153,0.20746345818042755
1733705262244143600,7.4841435546875,0.4050178825855255,-0.15354952216148376,0.2387412190437317
1733705262254110500,7.4941103515625,0.4384852945804596,-0.2188989669084549,0.2821877598762512
1733705262264077600,7.50407763671875,0.46431130170822144,-0.2672255039215088,0.3051261007785797
1733705262274044700,7.514044677734375,0.47887417674064636,-0.28347137570381165,0.3021640479564667
1733705262284010800,7.5240107421875,0.482933908700943,-0.27957648038864136,0.2784901559352875
1733705262293977900,7.533977783203125,0.4739675521850586,-0.2629866898059845,0.23938116431236267
1733705262303944700,7.54394482421875,0.45202043652534485,-0.24610625207424164,0.20205563306808472
1733705262313911600,7.55391162109375,0.436011403799057,-0.23460546135902405,0.19693641364574432
1733705262323877600,7.563877685546875,0.4258652925491333,-0.25330883264541626,0.22819341719150543
1733705262333844700,7.5738447265625,0.427312970161438,-0.2971024811267853,0.27874746918678284
1733705262343811800,7.583811767578125,0.4405944049358368,-0.34562769532203674,0.32695841789245605
1733705262353778700,7.59377880859375,0.4542652368545532,-0.38205093145370483,0.36438247561454773
1733705262363744800,7.603744873046875,0.4710303544998169,-0.4158320724964142,0.3885860741138458
1733705262373711600,7.613711669921875,0.47582289576530457,-0.45010045170783997,0.39210981130599976
1733705262383678700,7.6236787109375,0.47748470306396484,-0.48381978273391724,0.3761816918849945
1733705262393645800,7.633645751953125,0.47152402997016907,-0.5028529763221741,0.34344401955604553
1733705262403611600,7.643611572265625,0.45893073081970215,-0.5034928917884827,0.31684038043022156
1733705262413578800,7.653578857421875,0.442691832780838,-0.4782771170139313,0.2996046841144562
1733705262423545600,7.663545654296875,0.4142322540283203,-0.42978522181510925,0.2799857258796692
1733705262433511700,7.67351171875,0.37766513228416443,-0.3703441619873047,0.2611241936683655
1733705262443478500,7.683478515625,0.3410738408565521,-0.317124605178833,0.25343698263168335
1733705262453445600,7.693445556640625,0.3017318546772003,-0.2758067548274994,0.26090967655181885
1733705262463412700,7.703412841796875,0.26994675397872925,-0.23754939436912537,0.26949384808540344
1733705262473378600,7.713378662109375,0.24586531519889832,-0.1963365226984024,0.26876404881477356
1733705262483345700,7.723345703125,0.23064588010311127,-0.14909684658050537,0.24817194044589996
1733705262493312500,7.7333125,0.2198473960161209,-0.10062902420759201,0.213677316904068
1733705262503279600,7.743279541015625,0.21119292080402374,-0.06026162952184677,0.16736947000026703
1733705262513245700,7.75324560546875,0.19886331260204315,-0.03189745917916298,0.12869906425476074
1733705262523212500,7.763212646484375,0.1846311092376709,-0.018914014101028442,0.11176082491874695
1733705262533179600,7.7731796875,0.16399924457073212,-0.027862567454576492,0.11002145707607269
1733705262543146500,7.783146484375,0.13365599513053894,-0.044254060834646225,0.11481913924217224
1733705262553112800,7.79311279296875,0.10951711982488632,-0.05416758731007576,0.11401396989822388
1733705262563079700,7.80307958984375,0.09737097471952438,-0.05845767632126808,0.11385231465101242
1733705262573046800,7.813046875,0.10027101635932922,-0.049331508576869965,0.11074439436197281
1733705262583014000,7.823013916015625,0.11153805255889893,-0.03796273469924927,0.11133907735347748
1733705262592979700,7.832979736328125,0.11695723235607147,-0.031250037252902985,0.12092027068138123
1733705262602946800,7.84294677734375,0.11946938931941986,-0.03885362669825554,0.1323803812265396
1733705262612913700,7.85291357421875,0.10786261409521103,-0.05302220582962036,0.1422475129365921
1733705262622880800,7.862880859375,0.0970350056886673,-0.08173587173223495,0.13699708878993988
1733705262632846600,7.8728466796875,0.0910634696483612,-0.10531596839427948,0.12029357999563217
1733705262642813700,7.882813720703125,0.08804983645677567,-0.11860513687133789,0.09895899891853333
1733705262652780800,7.89278076171875,0.08167798817157745,-0.1155463308095932,0.08621229976415634
1733705262662747600,7.90274755859375,0.07129192352294922,-0.09775242954492569,0.0868421345949173
1733705262672713700,7.912713623046875,0.06318943947553635,-0.08817646652460098,0.08627236634492874
1733705262682680600,7.9226806640625,0.05165635794401169,-0.08314895629882812,0.08770115673542023
1733705262692647700,7.932647705078125,0.029497573152184486,-0.08158586919307709,0.08947122097015381
1733705262702613500,7.942613525390625,0.004361060447990894,-0.08415208756923676,0.09250082820653915
1733705262712580600,7.95258056640625,-0.013353982008993626,-0.09016818553209305,0.09308852255344391
1733705262722547700,7.962547607421875,-0.0193673986941576,-0.09978246688842773,0.08773264288902283
1733705262732514600,7.9725146484375,-0.023299822583794594,-0.1072414442896843,0.09144508838653564
1733705262742480600,7.982480712890625,-0.029550794512033463,-0.10855039209127426,0.08713822066783905
1733705262752447500,7.992447509765625,-0.04162687808275223,-0.0992993712425232,0.08399538695812225
1733705262762414600,8.00241455078125,-0.05975981056690216,-0.08386635780334473,0.07958732545375824
1733705262772381700,8.012381591796874,-0.08090320974588394,-0.06204511597752571,0.07878544926643372
1733705262782347800,8.02234765625,-0.09605446457862854,-0.04174596816301346,0.06931950896978378
1733705262792315000,8.03231494140625,-0.10852378606796265,-0.0135610681027174,0.05926988646388054
1733705262802281700,8.04228173828125,-0.11252571642398834,0.004152681212872267,0.057199012488126755
1733705262812248800,8.052248779296875,-0.10793087631464005,0.014116961508989334,0.056557513773441315
1733705262822214700,8.062214599609375,-0.10111744701862335,0.015085553750395775,0.05996955931186676
1733705262832181800,8.072181640625,-0.0884547010064125,0.011686750687658787,0.06608990579843521
1733705262842148900,8.08214892578125,-0.07810858637094498,-0.00006071850657463074,0.06993524730205536
1733705262852115700,8.09211572265625,-0.06617483496665955,-0.015035891905426979,0.06657778471708298
1733705262862081800,8.102081787109375,-0.054778631776571274,-0.026758594438433647,0.0625859722495079
1733705262872048600,8.112048583984375,-0.044819269329309464,-0.039862390607595444,0.059970855712890625
1733705262882015700,8.122015625,-0.03794671595096588,-0.04429442435503006,0.04849449545145035
1733705262891982800,8.13198291015625,-0.03384887054562569,-0.03368706256151199,0.03634348139166832
1733705262901948700,8.14194873046875,-0.02713770419359207,-0.021808570250868797,0.030794788151979446
1733705262911915800,8.151915771484376,-0.01976657472550869,-0.007448457181453705,0.024676339700818062
1733705262921882600,8.161882568359376,-0.012621047906577587,0.0048633357509970665,0.01773960329592228
1733705262931849700,8.171849609375,-0.009966219775378704,0.010148935951292515,0.012575610540807247
1733705262941815600,8.181815673828124,-0.009743046946823597,0.01050686463713646,0.006709732115268707
1733705262951782700,8.19178271484375,-0.01501450128853321,0.0023899907246232033,0.006084986496716738
1733705262961749800,8.201749755859375,-0.012452807277441025,-0.0015152683481574059,0.0061499676667153835
1733705262971716600,8.211716552734375,-0.00220028730109334,-0.007800288498401642,0.001092307735234499
1733705262981682700,8.2216826171875,0.011335761286318302,-0.010840551927685738,-0.005101139657199383
1733705262991649500,8.2316494140625,0.021640747785568237,-0.01719641499221325,-0.00698777474462986
1733705263001616600,8.24161669921875,0.029160449281334877,-0.04361257702112198,-0.0020859609358012676
1733705263011582700,8.251582763671875,0.03165231645107269,-0.055854663252830505,0.004807770252227783
1733705263021549300,8.26154931640625,0.0235656276345253,-0.052304938435554504,0.006176901515573263
1733705263031516400,8.271516357421875,0.01704305410385132,-0.04628860205411911,0.004176795482635498
1733705263041483500,8.2814833984375,0.01772429049015045,-0.02319287322461605,-0.00575546408072114
1733705263051449300,8.291449462890625,0.019978754222393036,0.0022796951234340668,-0.01852656714618206
1733705263061416400,8.30141650390625,0.028323769569396973,0.025562912225723267,-0.02400415763258934
1733705263071383300,8.31138330078125,0.027426384389400482,0.04348941147327423,-0.016665734350681305
1733705263081350400,8.321350341796874,0.02428811602294445,0.04112266004085541,-0.0029240893200039864
1733705263091316200,8.331316162109376,0.025410538539290428,0.01643919013440609,0.013227365911006927
1733705263101283300,8.341283447265624,0.024264313280582428,-0.010781511664390564,0.0224568173289299
1733705263111250400,8.35125048828125,0.014079607091844082,-0.023312490433454514,0.021985666826367378
1733705263121217300,8.36121728515625,0.014534208923578262,-0.027536530047655106,0.022639473900198936
1733705263131183400,8.371183349609375,0.02818610519170761,-0.0305648110806942,0.022564105689525604
1733705263141150200,8.381150146484375,0.035131361335515976,-0.03724215552210808,0.0125831114128232
1733705263151117300,8.391117431640625,0.03591754660010338,-0.03438752144575119,-0.000753503292798996
1733705263161084400,8.40108447265625,0.02552163228392601,-0.00489753857254982,-0.01245277002453804
1733705263171050200,8.41105029296875,0.015875503420829773,0.019024893641471863,-0.01774497888982296
1733705263181017300,8.421017333984375,0.021187445148825645,0.0198478102684021,-0.020603083074092865
1733705263190984200,8.430984130859375,0.015851281583309174,0.033272091299295425,-0.022502250969409943
1733705263200951300,8.440951416015626,0.0018041727598756552,0.048307761549949646,-0.02314460650086403
1733705263210917000,8.450917236328126,-0.013482125476002693,0.06187373399734497,-0.026604991406202316
1733705263220884200,8.46088427734375,-0.020836444571614265,0.06700990349054337,-0.027750151231884956
1733705263230851300,8.470851318359376,-0.019884780049324036,0.058273814618587494,-0.0191431175917387
1733705263240818200,8.480818115234374,-0.017237598076462746,0.04157473146915436,-0.008192998357117176
1733705263250784500,8.490784423828124,-0.016097193583846092,0.01759827882051468,0.007589888293296099
1733705263260751400,8.50075146484375,-0.016552859917283058,-0.012318607419729233,0.02744215726852417
1733705263270718500,8.510718505859375,-0.025518033653497696,-0.026276178658008575,0.04212155565619469
1733705263280685300,8.520685302734375,-0.032439589500427246,-0.032952189445495605,0.04573972523212433
1733705263290651400,8.5306513671875,-0.034151047468185425,-0.03623112291097641,0.046391114592552185
1733705263300618500,8.540618408203125,-0.030184004455804825,-0.028501564636826515,0.04045812413096428
1733705263310585300,8.55058544921875,-0.018416795879602432,-0.0215044803917408,0.03531262278556824
1733705263320552400,8.560552490234375,-0.008376147598028183,-0.018163276836276054,0.033982373774051666
1733705263330518300,8.570518310546875,-0.009524473920464516,-0.014346083626151085,0.04478245973587036
1733705263340485400,8.5804853515625,-0.015792755410075188,-0.019720610231161118,0.05416663736104965
1733705263350452200,8.5904521484375,-0.018033066764473915,-0.03501592576503754,0.06027417257428169
1733705263360418300,8.600418212890625,-0.01811988465487957,-0.04388531297445297,0.058838728815317154
1733705263370385400,8.610385498046876,-0.013619882985949516,-0.03680132329463959,0.05426117777824402
1733705263380352300,8.620352294921876,-0.018960585817694664,-0.015070730820298195,0.04911302775144577
1733705263390319400,8.6303193359375,-0.0277460478246212,0.007838564924895763,0.05228291451931
1733705263400285200,8.64028515625,-0.04056037962436676,0.024229522794485092,0.05288399010896683
1733705263410252300,8.650252197265624,-0.04344218596816063,0.040433794260025024,0.047018907964229584
1733705263420219400,8.660219482421875,-0.03996356576681137,0.050513856112957,0.03635774180293083
1733705263430186200,8.670186279296875,-0.026418758556246758,0.05974206328392029,0.028573205694556236
1733705263440152300,8.68015234375,-0.008122840896248817,0.055020011961460114,0.02467646822333336
1733705263450119200,8.690119140625,0.01723523624241352,0.03877439349889755,0.030282611027359962
1733705263460086300,8.700086181640625,0.042100101709365845,0.009728625416755676,0.045233599841594696
1733705263470053000,8.71005322265625,0.061351191252470016,-0.025850459933280945,0.05938401445746422
1733705263480019500,8.72001953125,0.07826945185661316,-0.04449605196714401,0.0645766481757164
1733705263489986300,8.729986328125,0.0863771066069603,-0.04846857488155365,0.05701734125614166
1733705263499953200,8.739953125,0.09916321188211441,-0.053988248109817505,0.053918223828077316
1733705263509920300,8.749920166015626,0.11435205489397049,-0.06376800686120987,0.06089223548769951
1733705263519886300,8.75988623046875,0.1281791776418686,-0.07764067500829697,0.07403147965669632
1733705263529853400,8.769853515625,0.1422429084777832,-0.09663428366184235,0.08500158786773682
1733705263539820300,8.7798203125,0.15382394194602966,-0.1136055439710617,0.0925079733133316
1733705263549787400,8.789787353515624,0.16557680070400238,-0.12335780262947083,0.1040683463215828
1733705263559753500,8.79975341796875,0.17139101028442383,-0.13333719968795776,0.11100614815950394
1733705263569720300,8.80972021484375,0.17408967018127441,-0.14044663310050964,0.10544831305742264
1733705263579687400,8.8196875,0.1773805320262909,-0.14940336346626282,0.09825751185417175
1733705263589654300,8.829654296875,0.1798083484172821,-0.14823506772518158,0.0921785831451416
1733705263599620400,8.839620361328125,0.1745920181274414,-0.14579029381275177,0.0890408456325531
1733705263609587200,8.849587158203125,0.17109009623527527,-0.1457470953464508,0.09469244629144669
1733705263619554300,8.85955419921875,0.16684608161449432,-0.15148061513900757,0.10652247816324234
1733705263629521400,8.869521484375,0.1595691740512848,-0.15830111503601074,0.12022748589515686
1733705263639487200,8.8794873046875,0.15061163902282715,-0.16773375868797302,0.13564053177833557
1733705263649454300,8.889454345703125,0.14623942971229553,-0.17476829886436462,0.15192489326000214
1733705263659421200,8.899421142578126,0.14534488320350647,-0.17956490814685822,0.1645866334438324
1733705263669388300,8.90938818359375,0.14678382873535156,-0.19150762259960175,0.17363141477108002
1733705263679354000,8.91935400390625,0.13551120460033417,-0.1926005780696869,0.18701167404651642
1733705263689321200,8.9293212890625,0.11679281294345856,-0.19484169781208038,0.1962655931711197
1733705263699288300,8.939288330078124,0.09713122248649597,-0.20476755499839783,0.20456986129283905
1733705263709254100,8.949254150390624,0.07811322808265686,-0.21226386725902557,0.20711860060691833
1733705263719221200,8.95922119140625,0.06521580368280411,-0.2111932784318924,0.20813007652759552
1733705263729188000,8.96918798828125,0.05541336536407471,-0.20129311084747314,0.20797117054462433
1733705263739155200,8.9791552734375,0.042882394045591354,-0.19049905240535736,0.2046952098608017
1733705263749121300,8.989121337890625,0.0328512042760849,-0.17934125661849976,0.2024477869272232
1733705263759088400,8.99908837890625,0.02159961499273777,-0.16065597534179688,0.20215190947055817
1733705263769055500,9.009055419921875,0.008340693078935146,-0.1407383382320404,0.19500653445720673
1733705263779022300,9.019022216796875,-0.009722462855279446,-0.10985711961984634,0.18397119641304016
1733705263788988400,9.028988525390625,-0.01974940299987793,-0.08954809606075287,0.168723925948143
1733705263798955300,9.038955322265625,-0.02437531389296055,-0.07473213225603104,0.15169726312160492
1733705263808922400,9.04892236328125,-0.02812473103404045,-0.06894490122795105,0.13726700842380524
1733705263818889500,9.058889404296876,-0.032125864177942276,-0.05630047619342804,0.1225075051188469
1733705263828855300,9.068855224609376,-0.02655632048845291,-0.05094338580965996,0.11063637584447861
1733705263838822400,9.078822509765626,-0.02142174541950226,-0.044075895100831985,0.10842568427324295
1733705263848789200,9.088789306640624,-0.023806868121027946,-0.03475739806890488,0.10926000028848648
1733705263858756400,9.09875634765625,-0.03009459190070629,-0.01715070754289627,0.10383886843919754
1733705263868722200,9.10872216796875,-0.031872089952230453,-0.002651004120707512,0.0967736467719078
1733705263878689300,9.118689208984375,-0.031525611877441406,0.0021469462662935257,0.08889015763998032
1733705263888656400,9.128656494140625,-0.024779396131634712,-0.0026684580370783806,0.07718930393457413
1733705263898623200,9.138623291015625,-0.008385508321225643,-0.02405763790011406,0.07910917699337006
1733705263908589300,9.14858935546875,0.012060830369591713,-0.03871963918209076,0.08153732866048813
1733705263918556200,9.15855615234375,0.029703473672270775,-0.05148044228553772,0.09108396619558334
1733705263928523300,9.168523193359375,0.04810454323887825,-0.048414599150419235,0.1062624529004097
1733705263938490400,9.178490478515625,0.06400015950202942,-0.056242696940898895,0.1091834083199501
1733705263948456200,9.188456298828125,0.08188187330961227,-0.08290357142686844,0.11649632453918457
1733705263958423300,9.19842333984375,0.10126515477895737,-0.10129669308662415,0.11837652325630188
1733705263968390100,9.20839013671875,0.12052865326404572,-0.11715894192457199,0.120070680975914
1733705263978357200,9.218357177734376,0.13752388954162598,-0.1165381595492363,0.12553416192531586
1733705263988323300,9.2283232421875,0.15260635316371918,-0.11312298476696014,0.11783993244171143
1733705263998290200,9.238290283203124,0.17074275016784668,-0.10656149685382843,0.11174289137125015
1733705264008257300,9.24825732421875,0.1792658418416977,-0.08997058868408203,0.10632196068763733
1733705264018224000,9.25822412109375,0.18084216117858887,-0.08320961892604828,0.10654806345701218
1733705264028191000,9.26819091796875,0.17894327640533447,-0.09041985124349594,0.11127901822328568
1733705264038157800,9.27815771484375,0.1703745573759079,-0.1003102958202362,0.12121100723743439
1733705264048124700,9.288124755859375,0.15957552194595337,-0.11443591117858887,0.13324882090091705
1733705264058091800,9.298091796875,0.15533897280693054,-0.13377737998962402,0.14142978191375732
1733705264068057900,9.308057861328125,0.14761248230934143,-0.1338253766298294,0.13709759712219238
1733705264078025000,9.31802490234375,0.13907518982887268,-0.12384597957134247,0.12464438378810883
1733705264087991800,9.32799169921875,0.1275893747806549,-0.1054655909538269,0.11072696000337601
1733705264097958000,9.3379580078125,0.10668383538722992,-0.08928342163562775,0.09327846020460129
1733705264107924700,9.3479248046875,0.07895764708518982,-0.07353571057319641,0.07033032923936844
1733705264117891800,9.357891845703126,0.054678142070770264,-0.05848458781838417,0.046847641468048096
1733705264127859000,9.36785888671875,0.04036514833569527,-0.033628910779953,0.028019778430461884
1733705264137824800,9.37782470703125,0.025502311065793037,0.0022523896768689156,0.009412005543708801
1733705264147792000,9.3877919921875,0.01832718960940838,0.03643478453159332,-0.004880809690803289
1733705264157758700,9.3977587890625,0.01303815096616745,0.07883816957473755,-0.010251074098050594
1733705264167725800,9.407725830078125,0.002355335745960474,0.11255460977554321,-0.027081042528152466
1733705264177691600,9.417691650390625,-0.006332161836326122,0.1396283060312271,-0.04628962650895119
1733705264187658800,9.42765869140625,-0.01389816403388977,0.16170376539230347,-0.06363166868686676
1733705264197625900,9.4376259765625,-0.014329063706099987,0.18635530769824982,-0.08033154904842377
1733705264207592700,9.4475927734375,-0.005893883295357227,0.20474208891391754,-0.10027468204498291
1733705264217558800,9.457558837890625,0.0031185199040919542,0.21303942799568176,-0.1189572885632515
1733705264227525600,9.467525634765625,0.013924353756010532,0.21555984020233154,-0.12067700922489166
1733705264237492700,9.47749267578125,0.014644739218056202,0.20453514158725739,-0.11389393359422684
1733705264247459800,9.4874599609375,0.007230876944959164,0.1873631328344345,-0.10617740452289581
1733705264257425700,9.49742578125,-0.0037948761601001024,0.16879023611545563,-0.10228652507066727
1733705264267392800,9.507392822265626,-0.002398861339315772,0.13787910342216492,-0.09676039963960648
1733705264277359600,9.517359619140626,-0.0016702204011380672,0.12059733271598816,-0.090323805809021
1733705264287326700,9.52732666015625,-0.005916877184063196,0.10756008327007294,-0.08603615313768387
1733705264297292800,9.537292724609374,-0.010077266953885555,0.09215263277292252,-0.07679551839828491
1733705264307260000,9.547260009765624,-0.017103079706430435,0.07659067213535309,-0.055060118436813354
1733705264317227000,9.55722705078125,-0.02243073284626007,0.07067019492387772,-0.04245750606060028
1733705264327193900,9.56719384765625,-0.033600278198719025,0.08032254874706268,-0.04608796164393425
1733705264337160000,9.577159912109375,-0.04216047748923302,0.1036425232887268,-0.05576881766319275
1733705264347126800,9.587126708984375,-0.04733308404684067,0.12889069318771362,-0.07141076028347015
1733705264357094000,9.597093994140625,-0.0480838306248188,0.1572277843952179,-0.08323226869106293
1733705264367061000,9.60706103515625,-0.042922090739011765,0.170220285654068,-0.08663924783468246
1733705264377026800,9.61702685546875,-0.03351367637515068,0.15320640802383423,-0.07792698591947556
1733705264386994000,9.626993896484375,-0.025673290714621544,0.12439899146556854,-0.0628032311797142
1733705264396960800,9.636960693359375,-0.02528313919901848,0.09967127442359924,-0.04600347578525543
1733705264406928000,9.646927978515626,-0.027791211381554604,0.07711675763130188,-0.022867476567626
1733705264416893700,9.656893798828126,-0.03326267749071121,0.06410348415374756,-0.006063196342438459
1733705264426860800,9.66686083984375,-0.033411718904972076,0.061338648200035095,0.005443043075501919
1733705264436828000,9.676827880859374,-0.02736421301960945,0.05904540419578552,0.017425669357180595
1733705264446794800,9.686794677734374,-0.0216040201485157,0.04576811194419861,0.027607964351773262
1733705264456760800,9.6967607421875,-0.02086552605032921,0.030988899990916252,0.04491851106286049
1733705264466727700,9.706727783203124,-0.02451392635703087,-0.00011597666889429092,0.07938086986541748
1733705264476694800,9.71669482421875,-0.021956225857138634,-0.04449888691306114,0.12051845341920853
1733705264486662000,9.726661865234375,-0.01813788153231144,-0.09453646093606949,0.15889877080917358
1733705264496627700,9.736627685546875,-0.00983734056353569,-0.14367765188217163,0.1854560822248459
1733705264506594800,9.7465947265625,0.0013841732870787382,-0.19316743314266205,0.20109598338603973
1733705264516561700,9.756561767578125,0.01497295219451189,-0.22178150713443756,0.1985449492931366
1733705264526528000,9.766528076171875,0.022017205134034157,-0.22778157889842987,0.17731863260269165
1733705264536494800,9.776494873046875,0.02860186994075775,-0.19298045337200165,0.15432968735694885
1733705264546461700,9.786461669921875,0.038094453513622284,-0.16089674830436707,0.1396418809890747
1733705264556428800,9.7964287109375,0.03592131659388542,-0.1271558254957199,0.1252450942993164
1733705264566395000,9.806394775390626,0.03092983365058899,-0.09378572553396225,0.11379886418581009
1733705264576362000,9.816362060546876,0.024947043508291245,-0.06188904494047165,0.0945759043097496
1733705264586328800,9.826328857421874,0.020855162292718887,-0.03082285076379776,0.07966931164264679
1733705264596296000,9.8362958984375,0.012284309603273869,0.007939992472529411,0.06572473794221878
1733705264606261800,9.84626171875,0.0013211716432124376,0.0340299978852272,0.05453776195645332
1733705264616228900,9.856228759765624,-0.007580443751066923,0.0535469725728035,0.05022770166397095
1733705264626196000,9.866196044921875,-0.00567677803337574,0.05893826112151146,0.05419840291142464
1733705264636162800,9.876162841796875,-0.0029984365683048964,0.04458622261881828,0.057810716331005096
1733705264646129000,9.88612890625,0.000369377521565184,0.020162377506494522,0.054731335490942
1733705264656095700,9.896095703125,0.005271990783512592,0.01598494127392769,0.052637290209531784
1733705264666062800,9.906062744140625,0.001407648902386427,0.031015669927001,0.048058658838272095
1733705264676030000,9.916030029296875,-0.006433496251702309,0.05869230628013611,0.04243379831314087
1733705264685995800,9.925995849609375,-0.01700780726969242,0.07639744132757187,0.03370179235935211
1733705264695963000,9.935962890625,-0.0150128323584795,0.08468040078878403,0.02182995341718197
1733705264705929700,9.9459296875,-0.006674305070191622,0.07681851834058762,0.013859556056559086
1733705264715896800,9.955896728515626,0.005368775688111782,0.05665865167975426,0.006269014440476894
1733705264725862700,9.965862548828126,0.016542257741093636,0.04662361741065979,-0.009775059297680855
1733705264735829800,9.975829833984376,0.02488008141517639,0.04490135610103607,-0.0293682012706995
1733705264745796900,9.985796875,0.023653531447052956,0.04871354624629021,-0.05426384136080742
1733705264755763700,9.995763671875,0.021740317344665527,0.057119015604257584,-0.07532412558794022
1733705264765729800,10.005729736328124,0.0134578263387084,0.0724058449268341,-0.08448981493711472
1733705264775696600,10.015696533203124,0.0059178853407502174,0.09039656817913055,-0.100393146276474
1733705264785663700,10.025663818359375,0.002419648692011833,0.10689596831798553,-0.11162310838699341
1733705264795630600,10.035630615234375,-0.0010680269915610552,0.13278935849666595,-0.11762294173240662
1733705264805597000,10.045596923828125,-0.002451877575367689,0.15811754763126373,-0.1115422397851944
1733705264815564000,10.05556396484375,0.002037679310888052,0.18128278851509094,-0.10726626962423325
1733705264825531000,10.06553076171875,0.009532386437058449,0.19329096376895905,-0.10952603816986084
1733705264835498000,10.075498046875,0.012423514388501644,0.19315780699253082,-0.11189278215169907
1733705264845463800,10.0854638671875,0.009686465375125408,0.18383225798606873,-0.11428622156381607
1733705264855431000,10.095430908203125,0.005833936855196953,0.15626615285873413,-0.11662846803665161
1733705264865397800,10.105397705078126,0.004667523317039013,0.12907542288303375,-0.11138740926980972
1733705264875364900,10.11536474609375,-0.002041245810687542,0.09351290762424469,-0.10318008065223694
1733705264885331000,10.1253310546875,-0.0025556422770023346,0.050112754106521606,-0.09131065011024475
1733705264895297800,10.1352978515625,-0.0029005215037614107,0.01570391096174717,-0.07721161097288132
1733705264905265000,10.145264892578124,-0.0009865474421530962,-0.01295994222164154,-0.05857447162270546
1733705264915230700,10.155230712890624,-0.0027492938097566366,-0.025274930521845818,-0.03770380839705467
1733705264925197800,10.16519775390625,-0.002711269538849592,-0.02843315713107586,-0.022600382566452026
1733705264935164700,10.17516455078125,0.0038275897968560457,-0.03524472564458847,-0.01576298289000988
1733705264945131800,10.1851318359375,0.01697140745818615,-0.04160428047180176,-0.0035296250134706497
1733705264955097900,10.195097900390625,0.023403208702802658,-0.046100229024887085,0.005620996467769146
1733705264965064700,10.205064697265625,0.03461610898375511,-0.04573996365070343,0.012303043156862259
1733705264975031800,10.21503173828125,0.04093658924102783,-0.049020446836948395,0.012583473697304726
1733705264984998700,10.22499853515625,0.04063156619668007,-0.05627629533410072,0.015419414266943932
1733705264994964700,10.23496484375,0.03793085366487503,-0.07375621795654297,0.024578824639320374
1733705265004931600,10.244931640625,0.03608741611242294,-0.08540807664394379,0.036018699407577515
1733705265014898700,10.254898681640626,0.03593508154153824,-0.09006860852241516,0.044624168425798416
1733705265024865500,10.264865478515626,0.03803648054599762,-0.08828496932983398,0.052889175713062286
1733705265034832000,10.274831787109376,0.04237983003258705,-0.07883527129888535,0.05458907410502434
1733705265044798700,10.284798828125,0.04435916990041733,-0.06203234940767288,0.050300974398851395
1733705265054765800,10.294765869140624,0.043627332895994186,-0.04690399393439293,0.045983992516994476
1733705265064732700,10.304732666015624,0.04244266077876091,-0.042299628257751465,0.03878191486001015
1733705265074698800,10.31469873046875,0.03570752590894699,-0.03967294842004776,0.03481806442141533
1733705265084665900,10.324665771484375,0.027733899652957916,-0.03183940052986145,0.034426361322402954
1733705265094632700,10.3346328125,0.017572076991200447,-0.01872652769088745,0.03164015710353851
1733705265104599800,10.344599853515625,0.007077313959598541,-0.009015126153826714,0.017662419006228447
1733705265114565600,10.354565673828125,0.00038985026185400784,0.013051825575530529,-0.001937380526214838
1733705265124532700,10.36453271484375,-0.007353978231549263,0.03746224567294121,-0.010458195582032204
1733705265134499800,10.374499755859375,-0.010773477144539356,0.05492166429758072,-0.017695069313049316
1733705265144466700,10.384466796875,-0.01876376010477543,0.07036346942186356,-0.03450867161154747
1733705265154432800,10.394432861328125,-0.024391816928982735,0.08536452800035477,-0.04417328163981438
1733705265164399600,10.404399658203126,-0.022968318313360214,0.092310830950737,-0.048309773206710815
1733705265174366700,10.41436669921875,-0.0237819142639637,0.10382208228111267,-0.05567741394042969
1733705265184333600,10.42433349609375,-0.02875645086169243,0.12029160559177399,-0.060018062591552734
1733705265194299600,10.434299560546876,-0.032049983739852905,0.11538686603307724,-0.05885319411754608
1733705265204266800,10.444266845703124,-0.02912140265107155,0.09800976514816284,-0.05430487170815468
1733705265214233600,10.454233642578124,-0.02245071716606617,0.07870451360940933,-0.04295341297984123
1733705265224200700,10.46420068359375,-0.016683630645275116,0.06722193956375122,-0.03624860942363739
1733705265234166500,10.47416650390625,-0.012051595374941826,0.06255447864532471,-0.03461982309818268
1733705265244133600,10.484133544921875,-0.0072212740778923035,0.056267865002155304,-0.029169175773859024
1733705265254100500,10.4941005859375,-0.005312053486704826,0.05376023054122925,-0.028203515335917473
1733705265264067600,10.504067626953125,-0.004536401946097612,0.05034547671675682,-0.02816089242696762
1733705265274033700,10.51403369140625,-0.00632498087361455,0.04943520948290825,-0.026337694376707077
1733705265284000500,10.52400048828125,-0.004847696982324123,0.059897519648075104,-0.017186369746923447
1733705265293967600,10.533967529296875,-0.002416763221845031,0.0700170025229454,-0.0132640665397048
1733705265303933700,10.54393359375,0.003130181459710002,0.07253009080886841,-0.01861877739429474
1733705265313900800,10.55390087890625,0.006730508990585804,0.06548149883747101,-0.021430011838674545
1733705265323867600,10.56386767578125,0.0074892290867865086,0.05159880965948105,-0.014677319675683975
1733705265333834800,10.573834716796876,0.0031594617757946253,0.04346205294132233,-0.010582709684967995
1733705265343800800,10.58380078125,-0.004147680010646582,0.03205572068691254,-0.009486891329288483
1733705265353767700,10.593767578125,-0.009252959862351418,0.011903846636414528,-0.006291098427027464
1733705265363734800,10.60373486328125,-0.009778973646461964,-0.008428040891885757,-0.0020171846263110638
1733705265373701600,10.61370166015625,-0.009734499268233776,-0.017270002514123917,0.0034436271525919437
1733705265383667700,10.623667724609374,-0.00812531728297472,-0.019396038725972176,0.004002443049103022
1733705265393634800,10.633634765625,-0.005997185595333576,-0.016323283314704895,0.0015510031953454018
1733705265403601700,10.6436015625,-0.004421226214617491,-0.016819927841424942,0.0009948504157364368
1733705265413568800,10.65356884765625,0.0002230603713542223,-0.024407273158431053,0.0038058171048760414
1733705265423534600,10.66353466796875,0.0008244417840614915,-0.03580109030008316,0.008228722028434277
1733705265433501700,10.673501708984375,-0.0002717153402045369,-0.0401737317442894,0.018375631421804428
1733705265443468500,10.683468505859375,0.0016334836836904287,-0.05295627936720848,0.02327132597565651
1733705265453435600,10.693435546875,0.0026428215205669403,-0.05871669575572014,0.019171126186847687
1733705265463401700,10.703401611328125,0.004016604740172625,-0.050784699618816376,0.016823679208755493
1733705265473368600,10.71336865234375,0.001797658740542829,-0.040797311812639236,0.01655416749417782
1733705265483335700,10.723335693359376,0.0004554953193292022,-0.03485483676195145,0.009795906953513622
1733705265493302500,10.733302490234376,-0.001150923315435648,-0.03524525463581085,0.005259212106466293
1733705265503268600,10.7432685546875,-0.008516655303537846,-0.03792440891265869,0.010436326265335083
1733705265513235500,10.7532353515625,-0.002788195386528969,-0.04058011248707771,0.013213204219937325
1733705265523202600,10.76320263671875,0.005416856613010168,-0.025879770517349243,0.01102067157626152
1733705265533169700,10.773169677734375,0.011289126239717007,-0.0010074442252516747,0.007351101841777563
1733705265543135700,10.7831357421875,0.010726261883974075,0.015012316405773163,0.0026705835480242968
1733705265553102800,10.793102783203125,0.011126002296805382,0.0045194621197879314,0.00007826252840459347
1733705265563069700,10.803069580078125,0.012053227052092552,-0.01608574576675892,0.0023091319017112255
1733705265573036500,10.81303662109375,0.010486223734915257,-0.03083379939198494,0.01183153036981821
1733705265583002600,10.823002685546875,0.015093269757926464,-0.03366617113351822,0.01938142627477646
1733705265592969700,10.8329697265625,0.015383288264274597,-0.025573357939720154,0.01704370230436325
1733705265602936800,10.842936767578125,0.010905792936682701,-0.017852796241641045,0.01588677242398262
1733705265612902700,10.852902587890625,0.0078937578946352,-0.010358927771449089,0.01371895894408226
1733705265622869800,10.862869873046876,0.005741702392697334,0.0024331137537956238,0.004667276982218027
1733705265632836600,10.872836669921876,0.004311318509280682,0.009701679460704327,0.0018539135344326496
1733705265642803700,10.8828037109375,0.005036794580519199,0.014126335270702839,-0.0011491673067212105
1733705265652769500,10.89276953125,0.0060024568811059,0.013833653181791306,-0.005278931464999914
1733705265662736600,10.902736572265624,0.00764045724645257,0.008160535246133804,-0.00021788105368614197
1733705265672703700,10.912703857421874,0.007289452478289604,0.008104342967271805,-0.0031614727340638638
1733705265682670600,10.922670654296875,0.0017600901192054152,0.014547538943588734,-0.005128774326294661
1733705265692636700,10.93263671875,-0.0011017427314072847,0.011407406069338322,-0.0064920466393232346
1733705265702603500,10.942603515625,-0.0046884906478226185,0.010349767282605171,-0.008505608886480331
1733705265712570600,10.952570556640625,-0.006591585464775562,0.017167460173368454,-0.009159415028989315
1733705265722537700,10.962537841796875,-0.008233095519244671,0.022618228569626808,-0.005585882347077131
1733705265732503600,10.972503662109375,-0.0023552323691546917,0.026431342586874962,-0.008132928982377052
1733705265742470700,10.982470703125,-0.005590380169451237,0.029903016984462738,-0.01233524177223444
1733705265752437500,10.9924375,-0.00007816927973181009,0.024000119417905807,-0.008126914501190186
1733705265762404600,11.002404541015625,0.002258633729070425,0.01030938420444727,-0.008891021832823753
1733705265772370700,11.01237060546875,-0.0020503606647253036,0.0009180130437016487,-0.008815121836960316
1733705265782337800,11.022337890625,-0.007830001413822174,-0.005366671830415726,-0.009465686976909637
1733705265792304600,11.0323046875,-0.006943968124687672,-0.011750536039471626,-0.008769802749156952
1733705265802271500,11.042271484375,-0.005146730225533247,-0.008977167308330536,-0.0009041416924446821
1733705265812237800,11.05223779296875,-0.000657972355838865,-0.000742672011256218,0.0022746073082089424
1733705265822204700,11.06220458984375,-0.0029328721575438976,0.007283214014023542,0.00243955384939909
1733705265832171800,11.072171875,-0.004802410956472158,0.006987603381276131,0.006693420931696892
1733705265842139000,11.082138916015625,-0.00007854681462049484,-0.0004435712471604347,0.0020545078441500664
1733705265852104700,11.092104736328125,0.007376706227660179,-0.00574113242328167,0.0008323831716552377
1733705265862071800,11.10207177734375,0.01125545147806406,-0.008019773289561272,0.004839958623051643
1733705265872038700,11.11203857421875,0.011382751166820526,-0.01594454236328602,0.009657351300120354
1733705265882004700,11.122004638671875,0.006827653851360083,-0.03022768907248974,0.01878543011844158
1733705265891971600,11.1319716796875,0.005983698181807995,-0.04371926188468933,0.02707425318658352
1733705265901938700,11.141938720703125,0.003509134752675891,-0.04751498997211456,0.02825683169066906
1733705265911905800,11.15190576171875,0.003241753438487649,-0.03917902708053589,0.021429019048810005
1733705265921871600,11.16187158203125,0.002051440067589283,-0.030286777764558792,0.011933299712836742
1733705265931838700,11.171838623046876,-0.0016306465258821845,-0.015540055930614471,0.0021605640649795532
1733705265941805600,11.1818056640625,-0.0043319109827280045,-0.0009168973192572594,-0.00441527646034956
1733705265951772700,11.191772705078124,-0.005100233014672995,0.007059536408632994,-0.011743763461709023
1733705265961738500,11.201738525390626,-0.008711645379662514,0.016388287767767906,-0.020111065357923508
1733705265971705600,11.21170556640625,-0.01085495762526989,0.03255713731050491,-0.02199684828519821
1733705265981672700,11.221672607421874,-0.014469964429736137,0.04572151601314545,-0.021188834682106972
1733705265991639600,11.2316396484375,-0.014775961637496948,0.06431863456964493,-0.025920739397406578
1733705266001605600,11.241605712890625,-0.005870749708265066,0.06997743993997574,-0.02606714516878128
1733705266011572500,11.251572509765625,0.0059579466469585896,0.0724368691444397,-0.02496832236647606
1733705266021539600,11.26153955078125,0.012756403535604477,0.06595795601606369,-0.02156735584139824
1733705266031506000,11.271505859375,0.01331247016787529,0.036917515099048615,-0.013518217951059341
1733705266041471700,11.2814716796875,0.00803433172404766,-0.009349573403596878,-0.0037129544652998447
1733705266051438800,11.29143896484375,0.00636106776073575,-0.05075453966856003,0.011140827089548111
1733705266061405700,11.30140576171875,0.010124102234840393,-0.07033506035804749,0.02172846533358097
1733705266071372800,11.311372802734375,0.016465621069073677,-0.06778242439031601,0.02803909219801426
1733705266081338600,11.321338623046875,0.020097140222787857,-0.05200996249914169,0.030791455879807472
1733705266091305700,11.3313056640625,0.01487947441637516,-0.04284229129552841,0.03144899010658264
1733705266101272800,11.34127294921875,0.0028224345296621323,-0.03595442697405815,0.028776932507753372
1733705266111239700,11.35123974609375,-0.0030415798537433147,-0.03472830727696419,0.027389690279960632
1733705266121205800,11.361205810546876,-0.002876227255910635,-0.03580563887953758,0.01865888386964798
1733705266131172600,11.371172607421874,-0.004465867765247822,-0.027773279696702957,0.009432895109057426
1733705266141139700,11.3811396484375,-0.007767398376017809,-0.011971583589911461,0.004843441769480705
1733705266151105500,11.39110546875,-0.011336034163832664,0.012947081588208675,-0.0014474773779511452
1733705266161072600,11.40107275390625,-0.00620827404782176,0.03432947397232056,-0.009548968635499477
1733705266171039700,11.411039794921875,-0.0007661042618565261,0.04378022998571396,-0.01795949786901474
1733705266181006600,11.421006591796875,-0.006700955796986818,0.05560271441936493,-0.020938601344823837
1733705266190973000,11.430972900390625,-0.014403882436454296,0.04521478712558746,-0.013932624831795692
1733705266200939800,11.440939697265625,-0.009616711176931858,0.025151632726192474,-0.009600359946489334
1733705266210906600,11.45090673828125,-0.002695954404771328,0.015220703557133675,-0.010305032134056091
1733705266220873700,11.460873779296875,0.003317061811685562,0.01425518561154604,-0.011520033702254295
1733705266230839800,11.47083984375,0.003969270270317793,0.015338825061917305,-0.010119210928678513
1733705266240807000,11.480806884765625,0.006870427634567022,0.005175512284040451,-0.009469406679272652
1733705266250773800,11.490773681640626,0.0062626940198242664,-0.0009132735431194305,-0.005303689744323492
1733705266260740900,11.500740966796876,0.00518580200150609,-0.0007599834352731705,-0.002990195993334055
1733705266270706700,11.510706787109376,0.004908300470560789,-0.0013128556311130524,-0.0054450975731015205
1733705266280673800,11.520673828125,0.002753310138359666,-0.0011389637365937233,-0.006712034810334444
1733705266290641000,11.530640869140624,-0.00397090520709753,-0.0008854307234287262,-0.008938170969486237
1733705266300607700,11.540607666015624,-0.0036116051487624645,-0.008290629833936691,0.0018185297958552837
1733705266310573800,11.55057373046875,0.002623919863253832,-0.009677337482571602,0.006248964462429285
1733705266320540700,11.560540771484375,0.006749669089913368,-0.00881260260939598,0.009822430089116096
1733705266330507800,11.5705078125,0.01069993618875742,-0.004568321630358696,0.008239448070526123
1733705266340474600,11.580474609375,0.009773542173206806,-0.007188383489847183,0.007802204228937626
1733705266350440700,11.590440673828125,0.008913340978324413,-0.009545279666781425,0.009492512792348862
1733705266360407800,11.60040771484375,0.007687568198889494,-0.015683628618717194,0.013021853752434254
1733705266370374700,11.610374755859375,-0.00034798792330548167,-0.021959366276860237,0.00947798602283001
1733705266380341800,11.620341796875,-0.004697591066360474,-0.026263698935508728,0.010482454672455788
1733705266390307600,11.6303076171875,-0.0035686774645000696,-0.024366460740566254,0.013043085113167763
1733705266400274700,11.640274658203126,-0.006591913290321827,-0.01913406513631344,0.006064124405384064
1733705266410241500,11.650241455078126,-0.004070432856678963,-0.010424196720123291,-0.003893168643116951
1733705266420207600,11.66020751953125,-0.00039667688542976975,0.005552494432777166,-0.010721158236265182
1733705266430174700,11.6701748046875,0.0007293076487258077,0.016523653641343117,-0.011323831975460052
1733705266440141600,11.6801416015625,0.003459368832409382,0.011174311861395836,-0.0027924473397433758
1733705266450108700,11.690108642578124,0.006052755285054445,0.002154984511435032,0.012515668757259846
1733705266460074800,11.70007470703125,0.0023955884389579296,-0.007181921973824501,0.023660093545913696
1733705266470041900,11.710041748046875,0.0017548317555338144,0.008852171711623669,0.017413649708032608
1733705266480008700,11.7200087890625,0.0027361568063497543,0.02291109226644039,0.005907648243010044
1733705266489975800,11.729975830078125,0.00761293713003397,0.03450756147503853,-0.002583308145403862
1733705266499942000,11.73994189453125,0.006252023857086897,0.03281337022781372,-0.0029063294641673565
1733705266509908700,11.74990869140625,0.008320501074194908,0.017690610140562057,0.002212265972048044
1733705266519875800,11.759875732421875,0.008988705463707447,-0.003869914449751377,0.002219740068539977
1733705266529842700,11.7698427734375,0.005870942957699299,-0.018802525475621223,0.003739872481673956
1733705266539808800,11.779808837890625,0.0030789882875978947,-0.027227474376559258,0.004594826605170965
1733705266549775600,11.789775634765626,-0.0009258731151930988,-0.030046163126826286,0.0020768078975379467
1733705266559742700,11.79974267578125,-0.0020409561693668365,-0.026870591565966606,0.003238905454054475
1733705266569709800,11.809709716796876,-0.0011067194864153862,-0.020706970244646072,0.006304203998297453
1733705266579675600,11.819675537109376,-0.0035851432476192713,-0.013391248881816864,0.005581714678555727
1733705266589642800,11.829642822265624,0.0009243874810636044,-0.010679084807634354,0.006309556309133768
1733705266599609600,11.839609619140624,0.00440759863704443,-0.006691457703709602,0.0057535916566848755
1733705266609576700,11.84957666015625,0.004944225773215294,-0.004137219861149788,0.002369246445596218
1733705266619542800,11.859542724609375,-0.000050613307394087315,-0.0068333763629198074,0.0005421977257356048
1733705266629509600,11.869509521484375,-0.002027477603405714,-0.00654921680688858,-0.003824321087449789
1733705266639476700,11.879476806640625,-0.00515595730394125,-0.009514188393950462,-0.007370155304670334
1733705266649442600,11.889442626953125,-0.00563825573772192,-0.01214885339140892,-0.006107550114393234
1733705266659409700,11.89940966796875,-0.006062312051653862,-0.01598244160413742,-0.0026724576018750668
1733705266669376500,11.90937646484375,-0.005311300978064537,-0.008532248437404633,0.00043678306974470615
1733705266679343600,11.919343505859375,-0.0011926956940442324,0.003354321699589491,0.0025328623596578836
1733705266689310000,11.92931005859375,0.002301105298101902,0.010687335394322872,-0.001980663277208805
1733705266699276800,11.93927685546875,0.0027901208959519863,0.010793042369186878,-0.004435141105204821
1733705266709243600,11.94924365234375,0.0025520343333482742,0.0038690902292728424,0.0010389862582087517
1733705266719210800,11.959210693359376,0.000527558964677155,-0.0016434071585536003,0.00415584072470665
1733705266729176800,11.9691767578125,0.0005890780012123287,-0.0096182432025671,0.003718017367646098
1733705266739143700,11.979143798828124,0.003780491417273879,-0.01438339613378048,0.006327334325760603
1733705266749110800,11.98911083984375,0.005060140043497086,-0.014802845194935799,0.005552087910473347
1733705266759078000,11.999077880859375,0.009476312436163425,-0.010889369994401932,0.008257376030087471
1733705266769043700,12.009043701171874,0.010770343244075775,-0.007945777848362923,0.008332476019859314
1733705266779010800,12.0190107421875,0.014219895005226135,-0.011615065857768059,0.009826049208641052
1733705266788977700,12.028977783203125,0.01199429202824831,-0.014702202752232552,0.011055631563067436
1733705266798944800,12.03894482421875,0.00977671705186367,-0.019032251089811325,0.011244643479585648
