time,seconds_elapsed,z,y,x
1733860879886638600,0.011638671875,0.0035383403301239014,-0.0333220511674881,-0.009330268949270248
1733860879896589600,0.021589599609375,0.0042556896805763245,-0.031058717519044876,-0.007096690591424704
1733860879906540500,0.03154052734375,-0.0001899253111332655,-0.02682029828429222,-0.0016244271537289023
1733860879916491500,0.041491455078125,0.002773494925349951,-0.01698167994618416,0.006784421857446432
1733860879926441500,0.05144140625,0.0031162439845502377,-0.01187826506793499,0.006359913852065802
1733860879936392400,0.061392333984375,0.002908159978687763,-0.01320725679397583,0.008329261094331741
1733860879946343400,0.071343505859375,0.005565461702644825,-0.021719783544540405,0.010073099285364151
1733860879956294700,0.081294677734375,0.004260263871401548,-0.04034538194537163,0.005315319634974003
1733860879966244400,0.091244384765625,0.0019363895989954472,-0.06402035057544708,-0.0068971384316682816
1733860879976195600,0.101195556640625,0.00034658098593354225,-0.10218044370412827,-0.02158408612012863
1733860879986146600,0.111146484375,0.0037216050550341606,-0.1495029628276825,-0.03227268159389496
1733860879996097500,0.12109765625,0.005068293772637844,-0.209710955619812,-0.04893692955374718
1733860880006048500,0.131048583984375,0.0056890761479735374,-0.27932652831077576,-0.06344982236623764
1733860880015998700,0.140998779296875,-0.0054588280618190765,-0.3408665060997009,-0.0793052688241005
1733860880025949400,0.150949462890625,-0.03316449373960495,-0.41890591382980347,-0.10008591413497925
1733860880035900700,0.160900634765625,-0.07374458760023117,-0.5370060801506042,-0.1311623603105545
1733860880045851400,0.170851318359375,-0.117552250623703,-0.6733623147010803,-0.1717851459980011
1733860880055802600,0.180802734375,-0.15341122448444366,-0.8046311736106873,-0.2188628613948822
1733860880065752600,0.190752685546875,-0.16968926787376404,-0.9174402952194214,-0.261095255613327
1733860880075703600,0.20070361328125,-0.1564915031194687,-1.004953145980835,-0.2969655990600586
1733860880085654500,0.210654541015625,-0.1422148197889328,-1.0785921812057495,-0.319983571767807
1733860880095605500,0.22060546875,-0.1479814201593399,-1.1284468173980713,-0.33664998412132263
1733860880105556500,0.230556396484375,-0.16611835360527039,-1.1746177673339844,-0.35080575942993164
1733860880115506700,0.240506591796875,-0.1820291429758072,-1.206318974494934,-0.36295998096466064
1733860880125457400,0.25045751953125,-0.23065713047981262,-1.240291953086853,-0.3630044460296631
1733860880135408600,0.26040869140625,-0.3013228476047516,-1.3049037456512451,-0.38346269726753235
1733860880145359600,0.270359619140625,-0.294649213552475,-1.3160864114761353,-0.39035627245903015
1733860880155310600,0.280310546875,-0.3333659768104553,-1.3633018732070923,-0.3981044888496399
1733860880165260500,0.290260498046875,-0.38550347089767456,-1.47331702709198,-0.4169655442237854
1733860880175211500,0.30021142578125,-0.4277486503124237,-1.5852677822113037,-0.4442971646785736
1733860880185162500,0.31016259765625,-0.4405169188976288,-1.6644840240478516,-0.4663843512535095
1733860880195113500,0.320113525390625,-0.4177434742450714,-1.675201416015625,-0.4697698950767517
1733860880205064400,0.330064453125,-0.3577355444431305,-1.6127889156341553,-0.43729159235954285
1733860880215014400,0.340014404296875,-0.26642632484436035,-1.479401707649231,-0.38253292441368103
1733860880224965600,0.349965576171875,-0.1948288083076477,-1.296777606010437,-0.3176910877227783
1733860880234916400,0.359916259765625,-0.1560598909854889,-1.1181410551071167,-0.25204259157180786
1733860880244867600,0.36986767578125,-0.14435289800167084,-0.9645338654518127,-0.20828740298748016
1733860880254818600,0.379818603515625,-0.13060562312602997,-0.8709999322891235,-0.1870214343070984
1733860880264768500,0.3897685546875,-0.09405479580163956,-0.8487103581428528,-0.16812656819820404
1733860880274719500,0.399719482421875,-0.036197077482938766,-0.8749962449073792,-0.14668801426887512
1733860880284670500,0.40967041015625,0.028920672833919525,-0.9321274161338806,-0.12492919713258743
1733860880294621400,0.419621337890625,0.1062082052230835,-0.9516844153404236,-0.10442038625478745
1733860880304572700,0.42957275390625,0.17101436853408813,-0.9233489036560059,-0.08040905743837357
1733860880314522600,0.439522705078125,0.13654163479804993,-0.9100882411003113,-0.08022128790616989
1733860880324473600,0.4494736328125,-0.1894756257534027,-0.8768115043640137,-0.017536606639623642
1733860880334424600,0.459424560546875,-0.2663802206516266,-0.8524395227432251,-0.03869139403104782
1733860880344375600,0.46937548828125,-0.21997089684009552,-0.8232163786888123,-0.045395899564027786
1733860880354326500,0.479326416015625,-0.1780659258365631,-0.8590391874313354,-0.06219685822725296
1733860880364276700,0.48927685546875,-0.148464635014534,-0.9308992624282837,-0.09763181954622269
1733860880374227500,0.4992275390625,-0.13847880065441132,-0.9663265347480774,-0.1144794300198555
1733860880384178700,0.5091787109375,-0.15163294970989227,-0.9478098154067993,-0.10181130468845367
1733860880394129400,0.51912939453125,-0.17458510398864746,-0.9054958820343018,-0.07290693372488022
1733860880404080600,0.52908056640625,-0.19094836711883545,-0.8268926739692688,-0.04436903074383736
1733860880414030600,0.539030517578125,-0.1974765956401825,-0.7380059957504272,-0.023598045110702515
1733860880423981300,0.548981201171875,-0.19806595146656036,-0.6614832878112793,-0.010839372873306274
1733860880433932500,0.5589326171875,-0.19719670712947845,-0.60884028673172,-0.01457999274134636
1733860880443883500,0.568883544921875,-0.19750270247459412,-0.5857256650924683,-0.02583690918982029
1733860880453834500,0.57883447265625,-0.19903266429901123,-0.5802085995674133,-0.05869828164577484
1733860880463784400,0.588784423828125,-0.20209264755249023,-0.5989285111427307,-0.12330177426338196
1733860880473735700,0.598735595703125,-0.212862029671669,-0.6781100630760193,-0.18641874194145203
1733860880483686400,0.608686279296875,-0.23064395785331726,-0.7859947085380554,-0.2226305603981018
1733860880493637600,0.6186376953125,-0.2616097331047058,-0.8838260173797607,-0.2599678635597229
1733860880503588400,0.62858837890625,-0.30180826783180237,-0.9266546964645386,-0.30606693029403687
1733860880513538600,0.63853857421875,-0.3506290912628174,-0.9191743731498718,-0.3445500433444977
1733860880523489500,0.648489501953125,-0.41515642404556274,-0.8865615725517273,-0.3803272247314453
1733860880533440500,0.6584404296875,-0.48086968064308167,-0.8620474338531494,-0.4147176146507263
1733860880543391500,0.6683916015625,-0.5381515622138977,-0.8359109163284302,-0.44993314146995544
1733860880553342500,0.678342529296875,-0.586969792842865,-0.8393226861953735,-0.4534071981906891
1733860880563292400,0.68829248046875,-0.6137396097183228,-0.8793463110923767,-0.4101409614086151
1733860880573243600,0.69824365234375,-0.6107392311096191,-0.8918375968933105,-0.35045433044433594
1733860880583194400,0.7081943359375,-0.5826700329780579,-0.8378915190696716,-0.3119868338108063
1733860880593145600,0.7181455078125,-0.5360586047172546,-0.7388514876365662,-0.27725183963775635
1733860880603096600,0.7280966796875,-0.4933031499385834,-0.6440783739089966,-0.2301759421825409
1733860880613046500,0.738046630859375,-0.45684289932250977,-0.5673868060112,-0.1879839301109314
1733860880622996700,0.747996826171875,-0.4320265054702759,-0.5304887294769287,-0.16234435141086578
1733860880632947700,0.75794775390625,-0.4161173403263092,-0.5110100507736206,-0.1415330320596695
1733860880642898700,0.767898681640625,-0.3980261981487274,-0.4795054495334625,-0.11215437948703766
1733860880652848600,0.7778486328125,-0.3806666135787964,-0.4271535277366638,-0.07261433452367783
1733860880662799600,0.787799560546875,-0.36712923645973206,-0.3613761067390442,-0.0359354205429554
1733860880672750600,0.79775048828125,-0.36075276136398315,-0.2925117611885071,-0.017396854236721992
1733860880682701600,0.80770166015625,-0.3636191189289093,-0.2136547863483429,-0.019508473575115204
1733860880692652800,0.81765283203125,-0.3713083267211914,-0.13215894997119904,-0.027106549590826035
1733860880702602800,0.827602783203125,-0.3821071684360504,-0.056334756314754486,-0.05331205576658249
1733860880712553700,0.8375537109375,-0.3915511667728424,0.008272532373666763,-0.0889744982123375
1733860880722504700,0.847504638671875,-0.39198315143585205,0.0667606070637703,-0.12326642870903015
1733860880732455700,0.85745556640625,-0.39111095666885376,0.127461776137352,-0.1496681421995163
1733860880742406700,0.86740673828125,-0.39042919874191284,0.17324338853359222,-0.16807831823825836
1733860880752356900,0.87735693359375,-0.39117148518562317,0.19871434569358826,-0.1759156584739685
1733860880762307600,0.8873076171875,-0.3909547030925751,0.2053871601819992,-0.17377127707004547
1733860880772258800,0.8972587890625,-0.3814464211463928,0.1928655058145523,-0.16346842050552368
1733860880782209500,0.90720947265625,-0.3639720678329468,0.17433257400989532,-0.14782260358333588
1733860880792160800,0.917160888671875,-0.34513238072395325,0.16187001764774323,-0.12572260200977325
1733860880802110700,0.92711083984375,-0.3198981285095215,0.16013123095035553,-0.10140874236822128
1733860880812061700,0.937061767578125,-0.29398977756500244,0.1691545993089676,-0.06961764395236969
1733860880822012700,0.9470126953125,-0.2650638520717621,0.18338146805763245,-0.037475161254405975
1733860880831964000,0.9569638671875,-0.23539164662361145,0.19623501598834991,-0.006932857912033796
1733860880841914600,0.96691455078125,-0.20049943029880524,0.20473982393741608,0.023432504385709763
1733860880851864800,0.97686474609375,-0.16130952537059784,0.21158671379089355,0.05326521396636963
1733860880861815800,0.98681591796875,-0.12259382009506226,0.21964597702026367,0.07476544380187988
1733860880871766800,0.996766845703125,-0.08790779858827591,0.22228778898715973,0.08508697897195816
1733860880881717800,1.0067177734375,-0.05830782651901245,0.219541534781456,0.08595037460327148
1733860880891668700,1.016668701171875,-0.036868274211883545,0.20970439910888672,0.08014737069606781
1733860880901618700,1.02661865234375,-0.019489016383886337,0.1920337826013565,0.0702420100569725
1733860880911569700,1.036569580078125,-0.007934066466987133,0.17078657448291779,0.059281039983034134
1733860880921520600,1.046520751953125,-0.005897280760109425,0.14485111832618713,0.03885592892765999
1733860880931471600,1.0564716796875,-0.008419578894972801,0.11238770186901093,0.020533686503767967
1733860880941422600,1.066422607421875,-0.017278051003813744,0.07784916460514069,0.00043054961133748293
1733860880951372500,1.07637255859375,-0.03186525031924248,0.0414072684943676,-0.01489061675965786
1733860880961323800,1.08632373046875,-0.0378754697740078,0.01023869775235653,-0.029010962694883347
1733860880971274500,1.0962744140625,-0.045056696981191635,-0.014156664721667767,-0.041183315217494965
1733860880981225700,1.106225830078125,-0.0482194647192955,-0.03376498445868492,-0.05049745738506317
1733860880991176700,1.1161767578125,-0.04898633435368538,-0.04563353955745697,-0.05706734210252762
1733860881001126700,1.126126708984375,-0.0480949729681015,-0.0531950518488884,-0.06358995288610458
1733860881011077600,1.13607763671875,-0.047568053007125854,-0.061697814613580704,-0.06537142395973206
1733860881021028900,1.14602880859375,-0.04309181123971939,-0.06745796650648117,-0.06709129363298416
1733860881030979600,1.1559794921875,-0.041267260909080505,-0.07135389000177383,-0.06498584151268005
1733860881040930800,1.165930908203125,-0.04309791699051857,-0.07217414677143097,-0.06685831397771835
1733860881050880800,1.175880859375,-0.04640850052237511,-0.07238507270812988,-0.063959039747715
1733860881060831700,1.185831787109375,-0.048611998558044434,-0.07039009779691696,-0.05837172269821167
1733860881070782700,1.19578271484375,-0.049415960907936096,-0.06889895349740982,-0.05563656985759735
1733860881080733700,1.205733642578125,-0.04992169514298439,-0.06965848803520203,-0.04992462322115898
1733860881090684700,1.2156845703125,-0.0519728884100914,-0.06671997904777527,-0.048381660133600235
1733860881100635000,1.225634765625,-0.05291910842061043,-0.06351539492607117,-0.0488855317234993
1733860881110585600,1.235585693359375,-0.055896297097206116,-0.058168068528175354,-0.045486241579055786
1733860881120536800,1.245536865234375,-0.055057134479284286,-0.053171444684267044,-0.04804127663373947
1733860881130487800,1.25548779296875,-0.05553041025996208,-0.050000447779893875,-0.04680356755852699
1733860881140438800,1.265438720703125,-0.05311785265803337,-0.043985433876514435,-0.042306020855903625
1733860881150388700,1.275388671875,-0.049834929406642914,-0.03910301998257637,-0.03244617208838463
1733860881160339700,1.285339599609375,-0.042385268956422806,-0.03318573907017708,-0.02402925305068493
1733860881170290700,1.295290771484375,-0.03504912555217743,-0.025332678109407425,-0.016777558252215385
1733860881180241700,1.30524169921875,-0.0298857893794775,-0.013696262612938881,-0.01295805349946022
1733860881190192600,1.315192626953125,-0.02241366356611252,-0.005079782567918301,-0.009192712604999542
1733860881200142600,1.325142578125,-0.017284683883190155,0.0035991929471492767,-0.007475771941244602
1733860881210093800,1.33509375,-0.012857167050242424,0.00827384740114212,-0.008438925258815289
1733860881220044500,1.34504443359375,-0.006330026313662529,0.01188589259982109,-0.00796887744218111
1733860881229995800,1.354995849609375,-0.000812276266515255,0.011086631566286087,-0.005640083458274603
1733860881239946500,1.364946533203125,0.0062488289549946785,0.010161183774471283,-0.006326380185782909
1733860881249896700,1.374896728515625,0.010713662020862103,0.006171273998916149,-0.004282109439373016
1733860881259847700,1.38484765625,0.01532652322202921,0.0022606882266700268,-0.0033103222958743572
1733860881269798700,1.394798583984375,0.017023233696818352,-0.0027758749201893806,-0.0011314774164929986
1733860881279749600,1.40474951171875,0.01995750516653061,-0.005802556872367859,-0.0002542323200032115
1733860881289700900,1.414700927734375,0.019942834973335266,-0.006217496003955603,0.0011492387857288122
1733860881299650600,1.424650634765625,0.02382146194577217,-0.004569798242300749,-0.001415385166183114
1733860881309601800,1.434601806640625,0.026207655668258667,-0.0038155908696353436,-0.0011698417365550995
1733860881319552800,1.444552734375,0.02893446385860443,-0.003965526819229126,-0.0030763987451791763
1733860881329503700,1.454503662109375,0.028585398569703102,-0.0043340520933270454,-0.0036190468817949295
1733860881339454700,1.464454833984375,0.033529557287693024,-0.008267008699476719,-0.005663556046783924
1733860881349405000,1.474405029296875,0.03225944936275482,-0.011096918024122715,-0.004163430072367191
1733860881359355600,1.484355712890625,0.033598221838474274,-0.01603894680738449,-0.008374154567718506
1733860881369307000,1.494306884765625,0.03405733406543732,-0.021098962053656578,-0.008485376834869385
1733860881379257600,1.504257568359375,0.031092438846826553,-0.023687288165092468,-0.012750162743031979
1733860881389208800,1.514208740234375,0.03248494118452072,-0.022736862301826477,-0.014806641265749931
1733860881399158800,1.52415869140625,0.03212541341781616,-0.018569014966487885,-0.020722320303320885
1733860881409109500,1.534109619140625,0.03415130451321602,-0.012478344142436981,-0.022136978805065155
1733860881419060700,1.544060791015625,0.03278589993715286,-0.008479341864585876,-0.02703985758125782
1733860881429011500,1.554011474609375,0.03606308251619339,-0.007253375370055437,-0.03178561106324196
1733860881438962700,1.563962646484375,0.03808548301458359,-0.006175593938678503,-0.03626211732625961
1733860881448912600,1.57391259765625,0.03785385191440582,-0.010858654975891113,-0.04162447527050972
1733860881458863600,1.583863525390625,0.0398179329931736,-0.013448312878608704,-0.049234189093112946
1733860881468814600,1.593814697265625,0.0420260950922966,-0.018726849928498268,-0.058411624282598495
1733860881478765800,1.603765869140625,0.040360018610954285,-0.026303542777895927,-0.06990981847047806
1733860881488716500,1.613716552734375,0.03866567462682724,-0.03662092611193657,-0.07809395343065262
1733860881498666800,1.623666748046875,0.037001997232437134,-0.04955323785543442,-0.0878286063671112
1733860881508617700,1.63361767578125,0.03142162412405014,-0.06477771699428558,-0.09472762793302536
1733860881518568700,1.643568603515625,0.025061462074518204,-0.07788100093603134,-0.10265186429023743
1733860881528519700,1.653519775390625,0.014135753735899925,-0.0879662036895752,-0.10304473340511322
1733860881538470700,1.663470703125,0.0030263783410191536,-0.10174673795700073,-0.0992707684636116
1733860881548420600,1.673420654296875,-0.009202207438647747,-0.11283630132675171,-0.09385643154382706
1733860881558371800,1.683371826171875,-0.019998129457235336,-0.11853360384702682,-0.0866379365324974
1733860881568322600,1.693322509765625,-0.03387065231800079,-0.1248115748167038,-0.0774373784661293
1733860881578273800,1.703273681640625,-0.043689996004104614,-0.12688617408275604,-0.07057121396064758
1733860881588224800,1.713224853515625,-0.05257906764745712,-0.12983107566833496,-0.06629516929388046
1733860881598174700,1.7231748046875,-0.05779886245727539,-0.13556140661239624,-0.06057177856564522
1733860881608125700,1.733125732421875,-0.05982580780982971,-0.14373864233493805,-0.056873880326747894
1733860881618077000,1.743076904296875,-0.058758944272994995,-0.1504756361246109,-0.05203278362751007
1733860881628028000,1.75302783203125,-0.056698381900787354,-0.15627488493919373,-0.05374956876039505
1733860881637979100,1.762979248046875,-0.050741422921419144,-0.1588647961616516,-0.050350043922662735
1733860881647928800,1.7729287109375,-0.0418071523308754,-0.16069795191287994,-0.04730387404561043
1733860881657880000,1.782880126953125,-0.030852770432829857,-0.159853994846344,-0.043689433485269547
1733860881667831000,1.7928310546875,-0.01846817322075367,-0.15966933965682983,-0.040540024638175964
1733860881677782000,1.802781982421875,-0.007348143495619297,-0.1545637995004654,-0.03966943919658661
1733860881687733000,1.81273291015625,0.0018010837957262993,-0.14749795198440552,-0.039185795933008194
1733860881697683000,1.822682861328125,0.009621189907193184,-0.1388743817806244,-0.042197562754154205
1733860881707634000,1.832634033203125,0.011622114107012749,-0.12666796147823334,-0.0403231680393219
1733860881717585000,1.8425849609375,0.015159323811531067,-0.11547709256410599,-0.03706718608736992
1733860881727535900,1.852535888671875,0.019322294741868973,-0.10381118208169937,-0.027580423280596733
1733860881737486800,1.86248681640625,0.02111140638589859,-0.08974942564964294,-0.01215779222548008
1733860881747437000,1.87243701171875,0.017032237723469734,-0.07383731007575989,0.007844355888664722
1733860881757387800,1.8823876953125,0.011627886444330215,-0.053119778633117676,0.028516877442598343
1733860881767339000,1.892339111328125,0.009573379531502724,-0.02578819915652275,0.05033176392316818
1733860881777290000,1.9022900390625,0.0065823826007544994,0.0037617040798068047,0.06939120590686798
1733860881787241000,1.912240966796875,0.005050483625382185,0.03333207964897156,0.08803995698690414
1733860881797191000,1.92219091796875,0.011613311246037483,0.0611242949962616,0.10343276709318161
1733860881807142100,1.93214208984375,0.018755540251731873,0.08385935425758362,0.11036182194948196
1733860881817092900,1.9420927734375,0.03143724799156189,0.10156936943531036,0.11152082681655884
1733860881827044000,1.952044189453125,0.041223324835300446,0.11437946557998657,0.11176776885986328
1733860881836994800,1.961994873046875,0.052525512874126434,0.12268799543380737,0.10460919141769409
1733860881846945000,1.971945068359375,0.06258084625005722,0.1275956928730011,0.09704519808292389
1733860881856896000,1.98189599609375,0.06725629419088364,0.13325704634189606,0.08918967097997665
1733860881866847000,1.991846923828125,0.07181292772293091,0.1382507085800171,0.08254703879356384
1733860881876798000,2.0017978515625,0.0721340999007225,0.1442635953426361,0.07732777297496796
1733860881886749000,2.0117490234375,0.06812900304794312,0.15032337605953217,0.0710425153374672
1733860881896699000,2.021698974609375,0.05996933951973915,0.15719778835773468,0.06241680309176445
1733860881906650000,2.031650146484375,0.04649053141474724,0.1616939902305603,0.05447236821055412
1733860881916600800,2.041600830078125,0.027867313474416733,0.16283728182315826,0.04670259729027748
1733860881926552000,2.051552001953125,0.003874612506479025,0.16022232174873352,0.03935124725103378
1733860881936503000,2.0615029296875,-0.01895400509238243,0.15091963112354279,0.034179385751485825
1733860881946452700,2.07145263671875,-0.04312801733613014,0.13712182641029358,0.028717637062072754
1733860881956404000,2.081404052734375,-0.06716038286685944,0.11995960026979446,0.021068239584565163
1733860881966355000,2.09135498046875,-0.08488292992115021,0.10045487433671951,0.012832357548177242
1733860881976306000,2.101305908203125,-0.09691083431243896,0.08164869993925095,0.005294813308864832
1733860881986257000,2.1112568359375,-0.10597914457321167,0.06471499800682068,-0.0018119299784302711
1733860881996207000,2.12120703125,-0.11499101668596268,0.05028519406914711,-0.010296228341758251
1733860882006157800,2.13115771484375,-0.11529328674077988,0.034179992973804474,-0.018769342452287674
1733860882016109000,2.141109130859375,-0.11280722171068192,0.019559506326913834,-0.025379039347171783
1733860882026059800,2.151059814453125,-0.10911635309457779,0.005360056646168232,-0.03357982262969017
1733860882036011000,2.161010986328125,-0.10405848175287247,-0.0049509042873978615,-0.03766218200325966
1733860882045961000,2.1709609375,-0.09562137722969055,-0.01480785384774208,-0.04170937091112137
1733860882055912000,2.180911865234375,-0.08694293349981308,-0.024230649694800377,-0.043389562517404556
1733860882065863000,2.19086279296875,-0.07773907482624054,-0.03270351514220238,-0.04056156426668167
1733860882075814000,2.20081396484375,-0.06550717353820801,-0.040818702429533005,-0.04092881456017494
1733860882085764900,2.210764892578125,-0.051662132143974304,-0.04544667527079582,-0.03785756230354309
1733860882095715000,2.220715087890625,-0.03625335171818733,-0.04828081279993057,-0.03328491374850273
1733860882105666000,2.230666015625,-0.01956387236714363,-0.05011708289384842,-0.02759961225092411
1733860882115617000,2.240616943359375,-0.00394310150295496,-0.055505458265542984,-0.02205810695886612
1733860882125568000,2.250568115234375,0.006161787547171116,-0.06336172670125961,-0.02188320830464363
1733860882135519000,2.26051904296875,0.012876947410404682,-0.0703999325633049,-0.020094363018870354
1733860882145469000,2.270468994140625,0.021400079131126404,-0.07563894987106323,-0.021678227931261063
1733860882155420200,2.280420166015625,0.023475483059883118,-0.07917429506778717,-0.020669955760240555
1733860882165371000,2.290370849609375,0.024815043434500694,-0.08164092153310776,-0.02163972333073616
1733860882175322000,2.300322021484375,0.025965528562664986,-0.08508705347776413,-0.022524159401655197
1733860882185272800,2.31027294921875,0.024292277172207832,-0.09103547036647797,-0.02272159792482853
1733860882195222800,2.320222900390625,0.025815073400735855,-0.09226052463054657,-0.020454982295632362
1733860882205174000,2.330174072265625,0.023454656824469566,-0.0942251980304718,-0.020546307787299156
1733860882215124700,2.340124755859375,0.02672049030661583,-0.08834227919578552,-0.018295403569936752
1733860882225076000,2.350075927734375,0.026176773011684418,-0.08164139837026596,-0.016487909480929375
1733860882235027000,2.36002685546875,0.023039836436510086,-0.06898792088031769,-0.01393313892185688
1733860882244977000,2.369976806640625,0.0219313595443964,-0.05557577684521675,-0.013283690437674522
1733860882254928000,2.379927978515625,0.01843223161995411,-0.04532020911574364,-0.015100233256816864
1733860882264879000,2.389879150390625,0.012385820969939232,-0.03793949633836746,-0.01332378014922142
1733860882274829800,2.399829833984375,0.004195003304630518,-0.0346723273396492,-0.015560835599899292
1733860882284781000,2.409781005859375,-0.0036716992035508156,-0.03163978084921837,-0.01990140974521637
1733860882294731000,2.41973095703125,-0.014369617216289043,-0.035111743956804276,-0.02705838903784752
1733860882304682000,2.429681884765625,-0.024022798985242844,-0.04351723566651344,-0.030300268903374672
1733860882314633000,2.439633056640625,-0.02989320456981659,-0.05079325661063194,-0.035667870193719864
1733860882324584000,2.449583984375,-0.03556674346327782,-0.05528542026877403,-0.03514217585325241
1733860882334535000,2.459534912109375,-0.039940450340509415,-0.053068872541189194,-0.03434722125530243
1733860882344486000,2.46948583984375,-0.04154638946056366,-0.044224824756383896,-0.03155823424458504
1733860882354435800,2.479435791015625,-0.037009429186582565,-0.032726094126701355,-0.02687186934053898
1733860882364387000,2.489386962890625,-0.03488423675298691,-0.024860993027687073,-0.022520430386066437
1733860882374337800,2.499337890625,-0.0321345254778862,-0.01817246526479721,-0.019101198762655258
1733860882384289000,2.5092890625,-0.029757875949144363,-0.008679056540131569,-0.01656903699040413
1733860882394240000,2.519239990234375,-0.027829747647047043,0.0031903868075460196,-0.012583350762724876
1733860882404190000,2.52918994140625,-0.02338208444416523,0.013019504025578499,-0.009728703647851944
1733860882414141000,2.539140869140625,-0.01892714947462082,0.02188090607523918,-0.004631946329027414
1733860882424092200,2.549092041015625,-0.01805630326271057,0.02637391723692417,-0.0014695532154291868
1733860882434043000,2.55904296875,-0.012732643634080887,0.02865597978234291,0.002927858382463455
1733860882443994000,2.568994140625,-0.008973764255642891,0.029437175020575523,0.005701436195522547
1733860882453944000,2.578944091796875,-0.00241013802587986,0.032634831964969635,0.010462901555001736
1733860882463894800,2.588894775390625,0.00016829092055559158,0.03402096778154373,0.016000118106603622
1733860882473846000,2.598845947265625,0.0028743287548422813,0.03525161370635033,0.018176455050706863
1733860882483796700,2.608796630859375,0.005610266234725714,0.03544768691062927,0.02014489471912384
1733860882493748000,2.618748046875,0.0075346664525568485,0.03613744303584099,0.020360078662633896
1733860882503698000,2.628697998046875,0.008996162563562393,0.029652344062924385,0.015890199691057205
1733860882513649000,2.63864892578125,0.006967100780457258,0.019708367064595222,0.01362677849829197
1733860882523600000,2.648599853515625,0.009670454077422619,0.008414678275585175,0.011333251371979713
1733860882533551000,2.658551025390625,0.009720254689455032,-0.001741552259773016,0.009108979254961014
1733860882543501800,2.668501708984375,0.010593252256512642,-0.008493985049426556,0.006810040213167667
1733860882553452000,2.6784521484375,0.012023103423416615,-0.012450910173356533,0.004534368868917227
1733860882563403000,2.688403076171875,0.012713293544948101,-0.012196952477097511,0.0022056447342038155
1733860882573354000,2.69835400390625,0.011701292358338833,-0.010094919241964817,-0.0005568522028625011
1733860882583305000,2.708304931640625,0.011185001581907272,-0.003813217394053936,0.00018563726916909218
1733860882593256000,2.718255859375,0.007955387234687805,-0.003263274673372507,0.0010013635037466884
1733860882603206000,2.728205810546875,0.007581732701510191,-0.002281645778566599,0.0015407521277666092
1733860882613157000,2.7381572265625,0.006716205272823572,-0.004139200318604708,0.0018297052010893822
1733860882623108400,2.7481083984375,0.0045987521298229694,-0.006012444384396076,0.0016361626330763102
1733860882633059600,2.7580595703125,0.003934026230126619,-0.006305924616754055,0.00019006617367267609
1733860882643010300,2.76801025390625,0.004984584636986256,-0.00870282668620348,-0.0012972911354154348
1733860882652960300,2.777960205078125,0.005949980579316616,-0.010936685837805271,-0.002836065599694848
1733860882662911500,2.787911376953125,0.005761686712503433,-0.012216875329613686,-0.003999445587396622
1733860882672862200,2.7978623046875,0.003083611838519573,-0.009347319602966309,-0.005344075616449118
1733860882682813400,2.8078134765625,0.0025254422798752785,-0.0037799521815031767,-0.004212908446788788
1733860882692764400,2.817764404296875,-0.0006280068773776293,0.0012773905182257295,-0.0030903860460966825
1733860882702714400,2.82771435546875,-0.003649612655863166,0.0019447952508926392,-0.002177231013774872
1733860882712665300,2.837665283203125,-0.001897785346955061,0.0010760719887912273,-0.0009665581164881587
1733860882722616300,2.8476162109375,-0.0034592915326356888,-0.0037435556296259165,-0.00033778417855501175
1733860882732567300,2.8575673828125,-0.00441669812425971,-0.007320447824895382,-0.0007404540665447712
1733860882742518500,2.8675185546875,-0.0035942683462053537,-0.01129302941262722,0.00009857129771262407
1733860882752468200,2.87746826171875,-0.0008019439410418272,-0.013303449377417564,0.00016834610141813755
1733860882762419500,2.88741943359375,-0.0006087846122682095,-0.013564628548920155,0.00033931550569832325
1733860882772370400,2.897370361328125,0.002237335778772831,-0.014341739006340504,-0.0007653636857867241
1733860882782321400,2.9073212890625,0.0039079454727470875,-0.013046369887888432,0.002275013132020831
1733860882792272400,2.9172724609375,0.004272265825420618,-0.007520045153796673,0.004092887043952942
1733860882802222600,2.92722265625,0.005853569600731134,-0.0012853944208472967,0.0044438960030674934
1733860882812173300,2.93717333984375,0.005628266837447882,0.001792154391296208,0.004336570389568806
1733860882822124500,2.94712451171875,0.005843770690262318,0.004003963433206081,0.005060077179223299
1733860882832075300,2.9570751953125,0.005070121958851814,0.0030604053754359484,0.005936522968113422
1733860882842026500,2.967026611328125,0.003958738874644041,0.0014616647968068719,0.005118319299072027
1733860882851976400,2.9769765625,0.0015618940815329552,0.0037003178149461746,0.005416859872639179
1733860882861927400,2.986927490234375,0.001149107702076435,0.003982617054134607,0.007475805003196001
1733860882871878400,2.99687841796875,0.001185060478746891,0.0036531840451061726,0.0068475655280053616
1733860882881829400,3.006829345703125,0.001422880683094263,0.006770680658519268,0.0073373205959796906
1733860882891780400,3.0167802734375,0.0026647127233445644,0.01241365261375904,0.006222787778824568
1733860882901731600,3.026731689453125,0.000631445087492466,0.018901964649558067,0.009065106511116028
1733860882911681500,3.036681640625,0.0001765773631632328,0.02211133949458599,0.00961931049823761
1733860882921632500,3.046632568359375,-0.0022644847631454468,0.02509726770222187,0.009570462629199028
1733860882931583500,3.05658349609375,-0.0047271098010241985,0.02978762611746788,0.00982665829360485
1733860882941534500,3.066534423828125,-0.006840155925601721,0.031321778893470764,0.01031513512134552
1733860882951485400,3.0764853515625,-0.007309937849640846,0.033247243613004684,0.011174004524946213
1733860882961435400,3.086435302734375,-0.006416686344891787,0.03088931180536747,0.011550430208444595
1733860882971386400,3.096386474609375,-0.007468368858098984,0.0278818029910326,0.011830594390630722
1733860882981337300,3.10633740234375,-0.00657636858522892,0.022783279418945312,0.011816279031336308
1733860882991288300,3.116288330078125,-0.0038160020485520363,0.019080955535173416,0.009225022979080677
1733860883001239300,3.1262392578125,-0.005225675646215677,0.01421663723886013,0.0068178060464560986
1733860883011189500,3.136189453125,-0.008444372564554214,0.010792344808578491,0.0054324292577803135
1733860883021140200,3.14614013671875,-0.007774840109050274,0.007549425587058067,0.003864794271066785
1733860883031091500,3.156091552734375,-0.008653150871396065,0.009367831982672215,0.0025934011209756136
1733860883041042400,3.16604248046875,-0.01047750934958458,0.010644452646374702,0.003472831565886736
1733860883050993400,3.175993408203125,-0.0101185142993927,0.014867426827549934,0.003191335592418909
1733860883060943400,3.185943359375,-0.012290255166590214,0.012581976130604744,0.0051108188927173615
1733860883070894600,3.19589453125,-0.011777597479522228,0.00675471406430006,0.0013706751633435488
1733860883080845300,3.20584521484375,-0.011777948588132858,-0.0010242112912237644,0.0024062269367277622
1733860883090796500,3.215796630859375,-0.01034490205347538,-0.004066073801368475,0.001055205357261002
1733860883100747300,3.225747314453125,-0.007469946518540382,-0.007981633767485619,0.0016304327873513103
1733860883110697500,3.235697509765625,-0.002931920113041997,-0.010271419771015644,-0.00011180713772773743
1733860883120648400,3.2456484375,-0.0016897388268262148,-0.011215702630579472,0.0037279361858963966
1733860883130599400,3.255599365234375,-0.00012087076902389526,-0.011909455992281437,0.004396656062453985
1733860883140550400,3.26555029296875,0.0019373875111341476,-0.01145894080400467,0.005171682219952345
1733860883150501400,3.27550146484375,0.004791497252881527,-0.0097140371799469,0.00512907188385725
1733860883160451300,3.285451416015625,0.005256264470517635,-0.005277697928249836,0.0062370263040065765
1733860883170402600,3.295402587890625,0.004792874678969383,-0.0005023835692554712,0.005645804572850466
1733860883180353300,3.305353271484375,0.004744680132716894,0.0006760731339454651,0.004293296951800585
1733860883190304500,3.315304443359375,0.002925741020590067,-0.0019247699528932571,0.0036125928163528442
1733860883200255500,3.32525537109375,-0.002078630728647113,-0.006749377585947514,0.0011831887532025576
1733860883210205400,3.335205322265625,-0.006872586905956268,-0.003194855758920312,0.00004655157681554556
1733860883220156400,3.345156494140625,-0.014264684170484543,0.0005125668831169605,-0.0011364542879164219
1733860883230107400,3.355107421875,-0.01815769262611866,0.0033333871979266405,-0.0003590777050703764
1733860883240058400,3.365058349609375,-0.01875266060233116,0.007130506448447704,0.000844980007968843
1733860883250009300,3.37500927734375,-0.01736382208764553,0.01297374814748764,0.0014678933657705784
1733860883259959600,3.38495947265625,-0.014016346074640751,0.019897036254405975,0.00199779961258173
1733860883269910300,3.39491015625,-0.011685547418892384,0.021565772593021393,0.0047573670744895935
1733860883279861500,3.404861572265625,-0.008421709761023521,0.019464686512947083,0.0067827217280864716
1733860883289812200,3.414812255859375,-0.005329512991011143,0.015796449035406113,0.008449593558907509
1733860883299763500,3.424763427734375,-0.002925054170191288,0.010399702936410904,0.011407132260501385
1733860883309714400,3.43471435546875,-0.002648884430527687,0.00311835459433496,0.011556535959243774
1733860883319664400,3.444664306640625,-0.0023223143070936203,-0.003549593035131693,0.007947295904159546
1733860883329615400,3.454615478515625,-0.006515727378427982,-0.006549377925693989,0.0046356553211808205
1733860883339566600,3.464566650390625,-0.006383663043379784,-0.007195224054157734,0.00037181167863309383
1733860883349517300,3.474517333984375,-0.0059626176953315735,-0.0062117185443639755,0.0009025796898640692
1733860883359468500,3.484468505859375,-0.008151140995323658,-0.0028787103947252035,0.0017289951210841537
1733860883369418500,3.49441845703125,-0.006702114827930927,0.0013173663755878806,0.004250476136803627
1733860883379369500,3.504369384765625,-0.006962824612855911,0.003140578046441078,0.005647472105920315
1733860883389320400,3.514320556640625,-0.005786506459116936,0.00998490210622549,0.006014455575495958
1733860883399271400,3.524271484375,-0.0024144253693521023,0.016346117481589317,0.004941300023347139
1733860883409222400,3.534222412109375,-0.0012727284338325262,0.021487347781658173,0.006914435885846615
1733860883419172600,3.544172607421875,0.00208679074421525,0.02163190022110939,0.006800737697631121
1733860883429123300,3.554123291015625,0.0025288756005465984,0.02265348844230175,0.0083477683365345
1733860883439074600,3.564074462890625,0.0012825881130993366,0.022611482068896294,0.010249946266412735
1733860883449025300,3.574025390625,0.00025567319244146347,0.021413592621684074,0.009386017918586731
1733860883458976500,3.5839765625,-0.002425939543172717,0.01830800622701645,0.00760735385119915
1733860883468926500,3.593926513671875,-0.0035279556177556515,0.011302294209599495,0.0051559144631028175
1733860883478877200,3.603877197265625,-0.006026845425367355,0.0043958635069429874,0.0029802480712532997
1733860883488828400,3.613828369140625,-0.00881863757967949,-0.0012511031236499548,-0.00018731551244854927
1733860883498779400,3.623779296875,-0.008598560467362404,-0.002313595497980714,-0.0033324542455375195
1733860883508730400,3.63373046875,-0.012226318009197712,0.0008499736431986094,-0.00298917293548584
1733860883518680300,3.643680419921875,-0.010390596464276314,0.0052801463752985,0.0006484946934506297
1733860883528631600,3.653631591796875,-0.008674455806612968,0.008853308856487274,-0.0007126468699425459
1733860883538582300,3.663582275390625,-0.007422233931720257,0.009971841238439083,0.0013588157016783953
1733860883548533500,3.673533447265625,-0.006617692299187183,0.006673249416053295,0.001310612540692091
1733860883558484200,3.683484130859375,-0.00819617323577404,0.0060867974534630775,0.004393418785184622
1733860883568435500,3.693435546875,-0.0058770934119820595,0.0011245294008404016,0.004086888860911131
1733860883578385400,3.703385498046875,-0.003889871295541525,-0.003997291438281536,0.003913394175469875
1733860883588336400,3.71333642578125,-0.0019457635935395956,-0.010781960561871529,0.0011535603553056717
1733860883598287400,3.723287353515625,-0.0006493681576102972,-0.019515832886099815,-0.0015739594819024205
1733860883608238300,3.73323828125,0.001886493992060423,-0.023912711068987846,-0.004601973574608564
1733860883618189300,3.743189208984375,0.006208073813468218,-0.02423035353422165,-0.005103834439069033
1733860883628138500,3.753138427734375,0.005315648857504129,-0.022165870293974876,-0.005603709723800421
1733860883638089700,3.76308984375,0.007016004994511604,-0.01931343786418438,-0.0025961357168853283
1733860883648040700,3.773040771484375,0.006232236512005329,-0.013438504189252853,-0.0015162240015342832
1733860883657991700,3.78299169921875,0.005569718778133392,-0.010295892134308815,0.0014888764126226306
1733860883667942700,3.792942626953125,0.005155064165592194,-0.009140612557530403,0.0012683667009696364
1733860883677892600,3.802892578125,0.006252029445022345,-0.004596453160047531,0.0005358429625630379
1733860883687843600,3.812843505859375,0.007726621348410845,0.0012992528500035405,-0.0026724673807621002
1733860883697794600,3.822794677734375,0.008444292470812798,0.004186335951089859,-0.0025871158577501774
1733860883707745500,3.83274560546875,0.007907932624220848,0.0056875599548220634,-0.0031607607379555702
1733860883717696800,3.84269677734375,0.00635480135679245,0.004901153966784477,-0.002180650131776929
1733860883727646500,3.852646484375,0.001835949718952179,0.0028009850066155195,-0.0018043452873826027
1733860883737597700,3.86259765625,0.00035369955003261566,-0.0003699823282659054,-0.0010761964367702603
1733860883747548700,3.872548583984375,0.0008080345578491688,-0.0004139244556427002,-0.0000021435553207993507
1733860883757499600,3.882499755859375,-0.00021710572764277458,-0.0006411757785826921,0.002453981898725033
1733860883767450600,3.89245068359375,-0.00022829114459455013,-0.0006475674454122782,0.0010297233238816261
1733860883777400800,3.90240087890625,0.0008450220339000225,-0.0008440513629466295,-0.0002344975946471095
1733860883787351600,3.9123515625,-0.0010796445421874523,-0.0022624509874731302,-0.0015322560211643577
1733860883797302800,3.922302734375,-0.002515092957764864,-0.004784202203154564,-0.0042023975402116776
1733860883807253500,3.93225341796875,-0.00371751026250422,-0.0071938298642635345,-0.00449001882225275
1733860883817204700,3.942204833984375,-0.0055724442936480045,-0.012067988514900208,-0.007442690432071686
1733860883827154700,3.95215478515625,-0.007282992824912071,-0.014546326361596584,-0.006273829378187656
1733860883837105700,3.962105712890625,-0.006244556978344917,-0.018283741548657417,-0.007073747925460339
1733860883847056600,3.972056640625,-0.004504447802901268,-0.01967524364590645,-0.008358189836144447
1733860883857007600,3.982007568359375,-0.004048630595207214,-0.018700111657381058,-0.008179453201591969
1733860883866958600,3.99195849609375,-0.003109333571046591,-0.015778623521327972,-0.00885216798633337
1733860883876908800,4.00190869140625,-0.0009782288689166307,-0.013789992779493332,-0.006988410372287035
1733860883886859800,4.01185986328125,0.0017754798755049706,-0.010360905900597572,-0.006257639732211828
1733860883896810800,4.021810791015625,0.002912455704063177,-0.007398604415357113,-0.0051887622103095055
1733860883906761700,4.03176171875,0.003512732218950987,-0.00596901960670948,-0.002758094808086753
1733860883916712700,4.041712646484375,0.0037126587703824043,-0.0018310719169676304,-0.0009809075854718685
1733860883926663700,4.05166357421875,0.005745716392993927,-0.001987665891647339,0.0013600109377875924
1733860883936613600,4.061613525390625,0.006792080122977495,-0.0008976254612207413,0.0006637052865698934
1733860883946564600,4.071564697265625,0.006004050839692354,-0.00435121264308691,0.0010059215128421783
1733860883956515600,4.081515625,0.0035345437936484814,-0.005825764499604702,0.0005630631931126118
1733860883966466600,4.091466552734375,0.002333458047360182,-0.0045282719656825066,-0.002672677394002676
1733860883976417500,4.10141748046875,0.0032476098276674747,-0.0059800827875733376,-0.0027141780592501163
1733860883986367700,4.11136767578125,0.00292004132643342,-0.008148428983986378,-0.005968827288597822
1733860883996318500,4.121318359375,0.001092050690203905,-0.012080049142241478,-0.007871599867939949
1733860884006269700,4.131269775390625,-0.0019657909870147705,-0.011573249474167824,-0.007391165941953659
1733860884016220700,4.141220703125,-0.005444059148430824,-0.005125107243657112,-0.007699407637119293
1733860884026171600,4.151171630859375,-0.00794796273112297,0.00028377328999340534,-0.007387018762528896
1733860884036121600,4.16112158203125,-0.00789581798017025,0.0065589239820837975,-0.005695567931979895
1733860884046072800,4.17107275390625,-0.007584494072943926,0.01231747679412365,-0.004519249778240919
1733860884056023600,4.1810234375,-0.005757259204983711,0.013022725470364094,-0.002569793723523617
1733860884065974800,4.190974853515625,-0.0025558732450008392,0.010452775284647942,-0.0015937450807541609
1733860884075925500,4.200925537109375,-0.0008785889949649572,0.0034241850953549147,-0.002658141776919365
1733860884085875700,4.210875732421875,0.000513711478561163,-0.00048613431863486767,-0.0015172437997534871
1733860884095826700,4.22082666015625,-0.0018379290122538805,-0.006827192381024361,-0.0002305506495758891
1733860884105777700,4.230777587890625,-0.0027476646937429905,-0.011896786279976368,0.000012329663150012493
1733860884115728600,4.240728759765625,-0.00209590676240623,-0.01725791208446026,0.0001394101418554783
1733860884125679600,4.2506796875,-0.002245310228317976,-0.021561581641435623,-0.003750935662537813
1733860884135629600,4.260629638671875,-0.00021520862355828285,-0.024439416825771332,-0.008502350188791752
1733860884145580800,4.270580810546875,0.001687886193394661,-0.02496645599603653,-0.010815039277076721
1733860884155531500,4.280531494140625,0.003818115685135126,-0.026266111060976982,-0.010453294962644577
1733860884165482800,4.290482666015625,0.005607227329164743,-0.023170718923211098,-0.01008231658488512
1733860884175433700,4.300433837890625,0.005902830511331558,-0.019876930862665176,-0.008874949999153614
1733860884185383700,4.3103837890625,0.005507350899279118,-0.016141846776008606,-0.005700195673853159
1733860884195334700,4.320334716796875,0.005109045188874006,-0.010410361923277378,-0.006596340332180262
1733860884205285600,4.33028564453125,0.004931412171572447,-0.004745818674564362,-0.003853550646454096
1733860884215236600,4.340236572265625,0.00571160763502121,0.003315997775644064,-0.0021055717952549458
1733860884225187800,4.350187744140625,0.007243191823363304,0.009466568008065224,0.000899273029062897
1733860884235138600,4.360138671875,0.00561119057238102,0.013845053501427174,0.0012836124515160918
1733860884245088500,4.370088623046875,0.007800042629241943,0.01478594820946455,0.003230116795748472
1733860884255039700,4.380039794921875,0.007190409116446972,0.012204231694340706,0.003120909444987774
1733860884264990500,4.389990478515625,0.006790135987102985,0.009429484605789185,0.00020421564113348722
1733860884274941700,4.399941650390625,0.00727706216275692,0.0062772175297141075,0.001094883307814598
1733860884284892700,4.409892578125,0.003054087981581688,0.002811379497870803,0.0013556067133322358
1733860884294842600,4.419842529296875,0.00018206704407930374,0.0025119667407125235,-0.0015191534766927361
1733860884304793600,4.429793701171875,-0.0014091716147959232,0.004919464699923992,-0.003430503886193037
1733860884314744800,4.439744873046875,-0.0032938055228441954,0.004956039600074291,-0.004508716519922018
1733860884324695600,4.449695556640625,-0.004782246425747871,0.0031647973228245974,-0.007165752351284027
1733860884334646800,4.459646728515625,-0.005608105566352606,0.004142964258790016,-0.004415940027683973
1733860884344596700,4.4695966796875,-0.007256601937115192,-0.0016137249767780304,-0.005283597856760025
1733860884354547700,4.479547607421875,-0.0072260284796357155,-0.003565610386431217,-0.00497273076325655
1733860884364498700,4.489498779296875,-0.008655879646539688,-0.004624483175575733,-0.0035532661713659763
1733860884374449700,4.49944970703125,-0.009909935295581818,-0.004707010928541422,-0.0015991826076060534
1733860884384400600,4.509400634765625,-0.008386872708797455,-0.0038582617416977882,0.0011324216611683369
1733860884394350800,4.519350830078125,-0.007902964018285275,-0.00347049324773252,0.0007456312887370586
1733860884404301600,4.529301513671875,-0.004136987961828709,-0.004116842523217201,0.0008737293537706137
1733860884414252800,4.539252685546875,0.0005121487192809582,-0.0015258013736456633,0.0017714094137772918
1733860884424203500,4.54920361328125,0.0034187226556241512,-0.0015361879486590624,0.0016334576066583395
1733860884434154800,4.55915478515625,0.008007567375898361,0.0003436943516135216,0.00087144406279549
1733860884444104700,4.569104736328125,0.010806017555296421,-0.00016124104149639606,0.0008109903428703547
1733860884454055400,4.579055419921875,0.010665926150977612,-0.00035459455102682114,0.0005094088846817613
1733860884464006700,4.589006591796875,0.011634518392384052,-0.0006962781772017479,0.0014851911691948771
1733860884473958000,4.5989580078125,0.009426679462194443,0.00016383430920541286,0.0010364069603383541
1733860884483908600,4.60890869140625,0.009718295186758041,0.0023494907654821873,-0.00028638518415391445
1733860884493858600,4.618858642578125,0.007780006155371666,0.002839186694473028,0.00006982102058827877
1733860884503809800,4.628809814453125,0.005711794830858707,0.005201144143939018,0.0008168376516550779
1733860884513760500,4.638760498046875,0.008495645597577095,0.007622558623552322,-0.000988018000498414
1733860884523711700,4.648711669921875,0.0074290502816438675,0.005704017356038094,0.0018604990327730775
1733860884533662500,4.658662353515625,0.006847481708973646,0.00511580053716898,0.00146143336314708
1733860884543613700,4.66861376953125,0.004730002488940954,0.005070793442428112,0.0010803350014612079
1733860884553563600,4.678563720703125,0.0013275123201310635,0.0045016370713710785,0.0005719705950468779
1733860884563514600,4.6885146484375,0.0020468318834900856,0.0039208014495670795,0.0013469504192471504
1733860884573465600,4.698465576171875,-0.00044296146370470524,0.0015990531537681818,0.0006590005941689014
1733860884583416600,4.70841650390625,0.00021830154582858086,0.0009316650684922934,0.0002315632300451398
1733860884593367600,4.718367431640625,0.0009681005030870438,-0.0009366958402097225,-0.0009567741071805358
1733860884603317800,4.72831787109375,0.0025889002718031406,-0.005237434059381485,-0.0008774119196459651
1733860884613268700,4.738268798828125,0.002471642103046179,-0.006373075768351555,-0.002228908706456423
1733860884623220200,4.74822021484375,0.004112948197871447,-0.008385094814002514,-0.00003499689046293497
1733860884633171200,4.758171142578125,0.0032090311869978905,-0.007096700835973024,-0.0015239923959597945
1733860884643122200,4.7681220703125,0.002000222448259592,-0.00667645363137126,-0.0020028287544846535
1733860884653072100,4.778072021484375,0.002450881991535425,-0.006264407187700272,-0.0004473533481359482
1733860884663023400,4.7880234375,0.0021219816990196705,-0.00211866432800889,0.0016818440053611994
1733860884672974000,4.79797412109375,0.0022442289628088474,0.0003042879980057478,0.004268683958798647
1733860884682925300,4.80792529296875,0.0030812607146799564,-0.0012533948756754398,0.00475551001727581
1733860884692876000,4.8178759765625,0.002711001317948103,-0.005791241303086281,0.0023413095623254776
1733860884702826200,4.827826171875,0.004972557537257671,-0.007519367150962353,0.003110430669039488
1733860884712777200,4.837777099609375,0.0034761582501232624,-0.00830922368913889,0.0011172303929924965
1733860884722728200,4.847728271484375,0.00440613366663456,-0.007640770636498928,0.004696519114077091
1733860884732679200,4.85767919921875,0.003953118342906237,-0.0005527809262275696,0.005038036499172449
1733860884742630100,4.867630126953125,0.0011472119949758053,0.0027242386713624,0.00710438285022974
1733860884752581000,4.8775810546875,0.0023592482320964336,0.0037067136727273464,0.0063144005835056305
1733860884762531000,4.887531005859375,0.0019400669261813164,0.004880102351307869,0.00736608263105154
1733860884772482000,4.89748193359375,-0.0006173541769385338,0.006452178582549095,0.004901493899524212
1733860884782433300,4.907433349609375,0.0027227825485169888,0.009780331514775753,0.0061886003240942955
1733860884792384300,4.91738427734375,0.003132909070700407,0.008703082799911499,0.0061766160652041435
1733860884802335200,4.927335205078125,0.002579770516604185,0.006017817184329033,0.00543359387665987
1733860884812285200,4.93728515625,0.004398514050990343,0.002289986703544855,0.002833380363881588
1733860884822236200,4.947236083984375,0.0031617414206266403,0.004193347878754139,0.0040280744433403015
1733860884832187100,4.957187255859375,0.0035337149165570736,0.006277209147810936,0.004500688519328833
1733860884842138000,4.96713818359375,0.001579753588885069,0.010480476543307304,0.0035187809262424707
1733860884852089000,4.977089111328125,0.0009379154071211815,0.010586187243461609,0.004602997563779354
1733860884862039000,4.9870390625,-0.0011465407442301512,0.00963517278432846,0.003198979189619422
1733860884871990300,4.996990234375,-0.003251731861382723,0.009821631014347076,0.004784061573445797
1733860884881941000,5.00694091796875,-0.005575073417276144,0.013496260158717632,0.005060231313109398
1733860884891892200,5.016892333984375,-0.004743668716400862,0.01475723460316658,0.005302932113409042
1733860884901843000,5.026843017578125,-0.0028746621683239937,0.014922617003321648,0.005992424208670855
1733860884911793200,5.036793212890625,-0.0014778377953916788,0.017364731058478355,0.0025696740485727787
1733860884921744100,5.046744140625,-0.003412357997149229,0.015257637947797775,0.0023592845536768436
1733860884931695000,5.056695068359375,0.0010130126029253006,0.012840814888477325,0.0025224806740880013
1733860884941646000,5.06664599609375,-0.0008096550591289997,0.008255118504166603,0.0020268664229661226
1733860884951597300,5.076597412109375,0.0013099233619868755,0.0002786489203572273,0.0020887411665171385
1733860884961547300,5.08654736328125,0.0015892889350652695,-0.005507867783308029,0.000689250067807734
1733860884971498200,5.096498291015625,0.00297444686293602,-0.009133175946772099,0.0005101521965116262
1733860884981449200,5.10644921875,0.0030636629089713097,-0.01188289001584053,-0.003735725302249193
1733860884991400200,5.116400146484375,0.0036324975080788136,-0.015041150152683258,-0.0044677844271063805
1733860885001351200,5.12635107421875,0.002504116389900446,-0.014704525470733643,-0.00446671899408102
1733860885011302100,5.13630224609375,0.004107537679374218,-0.01302548497915268,-0.006348703522235155
1733860885021252000,5.146252197265625,0.00022571394219994545,-0.011711214669048786,-0.0015377033269032836
1733860885031203300,5.156203369140625,-0.00019309134222567081,-0.006797825917601585,0.0008572305087000132
1733860885041154000,5.166154052734375,-0.0020067039877176285,-0.0037019012961536646,0.0003693393664434552
1733860885051105300,5.176105224609375,-0.0028371550142765045,-0.001337361754849553,0.0013722956646233797
1733860885061056300,5.18605615234375,-0.003332236548885703,0.0006853092927485704,-0.004134056158363819
1733860885071006000,5.196005859375,-0.0022482741624116898,0.002302441280335188,-0.006581789813935757
1733860885080957200,5.205957275390625,0.0008436557836830616,-0.002472873078659177,-0.007733607664704323
1733860885090908200,5.215908203125,0.004360574297606945,-0.005702810361981392,-0.009356992319226265
1733860885100859100,5.225859130859375,0.006684182211756706,-0.008955329656600952,-0.009363916702568531
1733860885110810000,5.23581005859375,0.0068725585006177425,-0.006981302052736282,-0.008286243304610252
1733860885120760300,5.24576025390625,0.008929850533604622,-0.0040470315143466,-0.006785019300878048
1733860885130711000,5.2557109375,0.007401685696095228,0.0005609963554888964,-0.0050318860448896885
1733860885140662300,5.265662353515625,0.007236036937683821,0.0009583397768437862,-0.004642265383154154
1733860885150613000,5.275613037109375,0.0052453503012657166,-0.0010118421632796526,-0.002675984986126423
1733860885160564200,5.285564208984375,0.0017941594123840332,-0.0026419630739837885,-0.004225945100188255
1733860885170514200,5.29551416015625,-0.0012567625381052494,-0.001733030192553997,-0.0038371793925762177
1733860885180465200,5.305465087890625,-0.0038219192065298557,-0.0031785941682755947,-0.006414586678147316
1733860885190416100,5.315416015625,-0.00582624739035964,-0.009538255631923676,-0.006437402684241533
1733860885200367000,5.3253671875,-0.00972298439592123,-0.014232076704502106,-0.01025930605828762
1733860885210318000,5.335318115234375,-0.012488914653658867,-0.017091484740376472,-0.012852834537625313
1733860885220268300,5.345268310546875,-0.017228808254003525,-0.016020361334085464,-0.010176624171435833
1733860885230219000,5.355218994140625,-0.02188989892601967,-0.011101260781288147,-0.00692630372941494
1733860885240170200,5.365170166015625,-0.02442922256886959,-0.009848776273429394,-0.005550248548388481
1733860885250121200,5.375121337890625,-0.02553395926952362,-0.009468277916312218,-0.005220579914748669
1733860885260072200,5.385072265625,-0.024670295417308807,-0.009547373279929161,-0.004311643075197935
1733860885270023200,5.395023193359375,-0.02169819176197052,-0.006422663107514381,-0.003953970968723297
1733860885279973400,5.404973388671875,-0.014254655689001083,-0.003622882068157196,-0.0022303732112050056
1733860885289924000,5.414924072265625,-0.0079953633248806,-0.003012416884303093,0.0002310095587745309
1733860885299875300,5.424875244140625,0.0015733744949102402,-0.007209292147308588,-0.00011253822594881058
1733860885309826000,5.434825927734375,0.005546052008867264,-0.01271001622080803,-0.0009104500059038401
1733860885319777300,5.44477734375,0.01009845919907093,-0.021595653146505356,-0.0009770288597792387
1733860885329727200,5.454727294921875,0.015251298435032368,-0.02545308880507946,-0.0015063703758642077
1733860885339678000,5.464677978515625,0.018415134400129318,-0.022527340799570084,-0.0012275372864678502
1733860885349629200,5.474629150390625,0.02261314168572426,-0.016830500215291977,-0.0007834441494196653
1733860885359580200,5.484580078125,0.023209689185023308,-0.006128852255642414,0.0021939699072390795
1733860885369531100,5.49453125,0.024701843038201332,0.0029386624228209257,0.0025828348007053137
1733860885379481000,5.504481201171875,0.021184604614973068,0.010125469416379929,0.002112520392984152
1733860885389432000,5.51443212890625,0.020651213824748993,0.015963686630129814,0.0009481562883593142
1733860885399383000,5.524383056640625,0.015725694596767426,0.013219033367931843,0.002256300998851657
1733860885409334300,5.534334228515625,0.009057627990841866,0.011478878557682037,0.0031774076633155346
1733860885419285000,5.544284912109375,-0.0011052617337554693,0.007601582445204258,0.0026149479672312737
1733860885429235200,5.554235107421875,-0.006229732185602188,0.004507771227508783,0.0013238918036222458
1733860885439186200,5.564186279296875,-0.012241286225616932,0.00453360378742218,0.0005076328525319695
1733860885449137200,5.57413720703125,-0.012802887707948685,0.005435141734778881,0.0009315887000411749
1733860885459088100,5.584088134765625,-0.014326749369502068,0.010326836258172989,0.0010485014645382762
1733860885469039000,5.5940390625,-0.014562202617526054,0.014264557510614395,0.0018433306831866503
1733860885478989000,5.603989013671875,-0.011106218211352825,0.015549000352621078,0.0028087266255170107
1733860885488940300,5.613940185546875,-0.00918874703347683,0.01609174907207489,0.0025641927495598793
1733860885498891000,5.62389111328125,-0.007647574879229069,0.014108492992818356,0.0025040050968527794
1733860885508842200,5.63384228515625,-0.006955455522984266,0.011247685179114342,0.00195196527056396
1733860885518793200,5.643793212890625,-0.004440366290509701,0.007475051563233137,-0.0011468889424577355
1733860885528744200,5.653744140625,-0.004994558170437813,0.003072593593969941,-0.0022838925942778587
1733860885538694100,5.663694091796875,-0.003383878618478775,0.00021475553512573242,-0.0038112155161798
1733860885548645400,5.673645263671875,-0.002420080592855811,-0.002879304811358452,-0.003557948861271143
1733860885558596000,5.68359619140625,-0.00417060311883688,-0.002989591332152486,-0.0028613866306841373
1733860885568547300,5.69354736328125,-0.0017030863091349602,-0.0019766895566135645,-0.002800930058583617
1733860885578498000,5.703498046875,-0.0013124006800353527,-0.002403860678896308,-0.000711413798853755
1733860885588448000,5.713447998046875,-0.00037925923243165016,-0.0010169143788516521,0.0009763725684024394
1733860885598399200,5.723399169921875,0.0005035786889493465,0.0007490275893360376,0.002820345340296626
1733860885608350200,5.73335009765625,0.0005059000104665756,-0.00010353303514420986,0.0033676368184387684
1733860885618301200,5.74330126953125,0.0015975297428667545,-0.00046172807924449444,0.003937286790460348
1733860885628252000,5.753251953125,0.00013259192928671837,0.00002171006053686142,0.0047310516238212585
1733860885638201900,5.763201904296875,-0.0010016483720391989,0.0011050840839743614,0.0034311627969145775
1733860885648153000,5.773153076171875,-0.0017833230085670948,0.00013272580690681934,0.004135069437325001
1733860885658104000,5.78310400390625,-0.0023335320875048637,-0.0003684812691062689,0.0028157392516732216
1733860885668055000,5.793054931640625,-0.003592865541577339,0.00013599591329693794,0.0035933195613324642
1733860885678006000,5.803006103515625,-0.003951859660446644,-0.0005223373882472515,0.0017703860066831112
1733860885687956000,5.8129560546875,-0.0030863750725984573,0.0033692996948957443,-0.0010741623118519783
1733860885697907000,5.822906982421875,-0.0033990303054451942,0.005956560373306274,0.0004933743039146066
1733860885707858200,5.832858154296875,-0.0013026415836066008,0.004353014752268791,-0.001044789212755859
1733860885717809000,5.842808837890625,0.0017903540283441544,0.00473704282194376,-0.0035529546439647675
1733860885727760100,5.852760009765625,-0.0000690764281898737,0.010130195878446102,-0.005670066457241774
1733860885737710800,5.8627109375,-0.0029863030649721622,0.01478433609008789,-0.004524374846369028
1733860885747661000,5.8726611328125,-0.008059065788984299,0.015752160921692848,-0.005832931958138943
1733860885757612000,5.882612060546875,-0.0069762240163981915,0.016935402527451515,-0.004419592209160328
1733860885767563000,5.89256298828125,-0.0069876560010015965,0.019048910588026047,-0.003452853998169303
1733860885777514000,5.902513916015625,-0.005779113620519638,0.021322449669241905,-0.0007153905462473631
1733860885787465200,5.91246533203125,-0.004795091692358255,0.02336241491138935,0.0016133219469338655
1733860885797415000,5.922414794921875,-0.001420866698026657,0.02738378755748272,0.0017648558132350445
1733860885807366100,5.9323662109375,-0.0023420988582074642,0.024853995069861412,0.0025780557189136744
1733860885817317000,5.942317138671875,0.0008142795413732529,0.018728192895650864,0.0034510400146245956
1733860885827268000,5.95226806640625,0.0014207148924469948,0.008380522951483727,0.003931970335543156
1733860885837219000,5.962218994140625,0.001419383566826582,0.0012349948519840837,0.0028033223934471607
1733860885847169000,5.9721689453125,0.0009904992766678333,-0.00596951600164175,-0.0018105109920725226
1733860885857120000,5.9821201171875,-0.0008393584284931421,-0.012770963832736015,-0.006773312110453844
1733860885867071200,5.9920712890625,0.002371576614677906,-0.014005367644131184,-0.006240597926080227
1733860885877022000,6.00202197265625,-0.0003728107549250126,-0.011792014352977276,-0.004488238133490086
1733860885886973200,6.01197314453125,0.0008642007596790791,-0.010316911153495312,-0.0022248884197324514
1733860885896923100,6.021923095703125,0.0000663180835545063,-0.003979919478297234,-0.002271227305755019
1733860885906873900,6.031873779296875,-0.0029103360138833523,-0.0011234490666538477,0.00006652530282735825
1733860885916825000,6.0418251953125,0.00009104656055569649,0.0042609297670423985,0.002220223657786846
1733860885926775800,6.05177587890625,0.001685981173068285,0.0106735210865736,0.002404602477326989
1733860885936727000,6.06172705078125,0.0023837294429540634,0.015438982285559177,0.0028754493687301874
1733860885946677000,6.071677001953125,0.004215750843286514,0.017590051516890526,-0.0007148461882025003
1733860885956628000,6.0816279296875,0.004021340049803257,0.017334388568997383,0.0014409826835617423
1733860885966579000,6.091578857421875,0.0024119666777551174,0.01526109129190445,0.003266778774559498
1733860885976530200,6.1015302734375,0.0024654963053762913,0.01399981789290905,0.001862493809312582
1733860885986481000,6.11148095703125,0.0005294028669595718,0.011789419688284397,0.004878590814769268
1733860885996432100,6.12143212890625,-0.0017257619183510542,0.006393855437636375,0.005245574750006199
1733860886006382000,6.131382080078125,-0.003395047504454851,0.003237194148823619,0.005955351050943136
1733860886016333000,6.1413330078125,-0.0017918245866894722,0.0027538305148482323,0.0028977757319808006
1733860886026284000,6.151283935546875,-0.004147898405790329,0.0025298832915723324,-0.0004324396140873432
1733860886036235000,6.161235107421875,-0.00134891620837152,0.004450554959475994,-0.00014748144894838333
1733860886046186000,6.17118603515625,-0.0041511026211082935,0.006065754219889641,0.0016298007685691118
1733860886056136200,6.18113623046875,-0.004249906167387962,0.004340558312833309,0.0010604169219732285
1733860886066087000,6.1910869140625,-0.005633954890072346,0.0015080163720995188,0.000387646839953959
1733860886076038100,6.2010380859375,-0.008348515257239342,-0.0009894962422549725,0.0011607625056058168
1733860886085989000,6.210989013671875,-0.00822814367711544,-0.0028446579817682505,0.0007814725395292044
1733860886095940000,6.220940185546875,-0.008462236262857914,-0.007232215255498886,0.0038435752503573895
1733860886105890000,6.23089013671875,-0.007973287254571915,-0.00949910655617714,0.004063973668962717
1733860886115841000,6.240841064453125,-0.006034240126609802,-0.013762827962636948,0.0035164279397577047
1733860886125792000,6.2507919921875,-0.003447273513302207,-0.012655515223741531,0.0007399606984108686
1733860886135743200,6.2607431640625,-0.0020424560643732548,-0.01156548410654068,-0.0006704494589939713
1733860886145694000,6.27069384765625,-0.000426366925239563,-0.01115341018885374,0.0005711645353585482
1733860886155644000,6.280643798828125,-0.00001677265390753746,-0.004869681783020496,-0.001541521167382598
1733860886165595100,6.29059521484375,-0.00009192503057420254,-0.002042784821242094,-0.00019969139248132706
1733860886175545900,6.3005458984375,-0.0005973931401968002,-0.0010592793114483356,0.0005414662882685661
1733860886185497000,6.3104970703125,-0.0007992524188011885,0.00045553501695394516,0.002672905335202813
1733860886195447800,6.32044775390625,-0.001443204702809453,0.003864647587761283,0.0018342758994549513
1733860886205399000,6.33039892578125,-0.0010168764274567366,0.0068856896832585335,0.0017878591315820813
1733860886215349000,6.340348876953125,0.002691042609512806,0.007832976058125496,0.0007590800523757935
1733860886225300000,6.350300048828125,0.002609619405120611,0.01140567846596241,-0.00010470324195921421
1733860886235251000,6.3602509765625,0.0022207978181540966,0.011766004376113415,0.0005179437575861812
1733860886245202200,6.3702021484375,0.000044974032789468765,0.01105358824133873,0.001586124999448657
1733860886255153000,6.38015283203125,0.0013797502033412457,0.006553112529218197,0.0024836102966219187
1733860886265103000,6.39010302734375,-0.003041866235435009,0.005399193614721298,0.004488562699407339
1733860886275054000,6.40005419921875,-0.0039561293087899685,0.006595485378056765,0.0059767370112240314
1733860886285005000,6.410005126953125,-0.0051342942751944065,0.006375789642333984,0.003451219294220209
1733860886294956000,6.4199560546875,-0.0032053666654974222,0.006540905684232712,0.004325268790125847
1733860886304907000,6.429906982421875,-0.005909845698624849,0.0049230000004172325,0.0023122141137719154
1733860886314857000,6.43985693359375,-0.006310917902737856,0.0062460582703351974,0.0018911684164777398
1733860886324808200,6.44980810546875,-0.005123204551637173,0.006958127953112125,0.0010296571999788284
1733860886334759000,6.459759033203125,-0.003416384570300579,0.006591943092644215,0.0014605566393584013
1733860886344710100,6.469710205078125,-0.005923440679907799,0.005864415317773819,0.0007636852096766233
1733860886354660900,6.479660888671875,-0.005720773711800575,0.0010811116080731153,0.001660637790337205
1733860886364611000,6.489611083984375,-0.004258939065039158,-0.0016318259295076132,0.0018095768755301833
1733860886374562000,6.49956201171875,-0.005937529727816582,-0.0018677820917218924,0.0036964265163987875
1733860886384513000,6.509512939453125,-0.005004042759537697,-0.002648845547810197,0.0018890234641730785
1733860886394464000,6.519464111328125,-0.003130509052425623,-0.0008709190879017115,0.0008906043949536979
1733860886404415200,6.529415283203125,-0.001782714854925871,0.001210847869515419,0.0016667890595272183
1733860886414365000,6.539364990234375,0.0005494151264429092,0.0026998212561011314,-0.0005076820962131023
1733860886424316000,6.54931591796875,0.0006607398390769958,0.0036052996292710304,-0.000041306368075311184
1733860886434267100,6.55926708984375,-0.00009666290134191513,0.0016686489107087255,0.0011392729356884956
1733860886444217900,6.5692177734375,0.0007914453744888306,0.0010992127936333418,0.0028866459615528584
1733860886454169000,6.579169189453125,0.00006946222856640816,0.002244904637336731,0.003283989615738392
1733860886464120000,6.5891201171875,-0.00012112827971577644,0.004848492797464132,0.003472918178886175
1733860886474070000,6.599070068359375,-0.002660186029970646,0.0077316309325397015,0.004624468740075827
1733860886484021000,6.60902099609375,-0.003748673480004072,0.006117444019764662,0.004200085997581482
1733860886493972000,6.618971923828125,-0.003414180362597108,0.005055641755461693,0.004140963777899742
1733860886503923000,6.6289228515625,-0.0034602913074195385,0.007010897621512413,0.002425120212137699
1733860886513874200,6.638874267578125,-0.0025231249164789915,0.01066182553768158,0.0008914056234061718
1733860886523823900,6.648823974609375,0.00020630937069654465,0.0069045936688780785,0.0010144220432266593
1733860886533775000,6.658775146484375,0.0032106214202940464,0.003057391382753849,0.0003419738495722413
1733860886543726000,6.66872607421875,0.003865515813231468,0.0010075827594846487,-0.000840403838083148
1733860886553677000,6.678677001953125,0.004844760522246361,0.0009471289813518524,-0.0021392274647951126
1733860886563628000,6.6886279296875,0.006054892670363188,0.0020877523347735405,0.0001083696261048317
1733860886573578200,6.698578125,0.007389668840914965,0.0018528614891692996,-0.00013424432836472988
1733860886583529000,6.708529052734375,0.004811499267816544,0.0033035234082490206,0.00009821681305766106
1733860886593480200,6.718480224609375,0.0011696266010403633,-0.000788423465564847,-0.0016791769303381443
1733860886603431000,6.728430908203125,-0.003717230400070548,-0.0009074269328266382,-0.004516215994954109
1733860886613382100,6.738382080078125,-0.010149030946195126,0.0011610504006966949,-0.0033066081814467907
1733860886623332000,6.74833203125,-0.011140036396682262,0.007862056605517864,-0.0035891958978027105
1733860886633282800,6.75828271484375,-0.010668124072253704,0.010044516995549202,-0.004244865849614143
1733860886643234000,6.768234130859375,-0.010401812382042408,0.010063953697681427,-0.004041190259158611
1733860886653184800,6.778184814453125,-0.008737070485949516,0.007844209671020508,-0.005068903788924217
1733860886663136000,6.788135986328125,-0.0046280184760689735,-0.000586238456889987,-0.0032092344481498003
1733860886673086000,6.7980859375,-0.0008971961215138435,-0.009978142566978931,-0.002988991094753146
1733860886683037000,6.808036865234375,0.0010401969775557518,-0.01554127037525177,-0.004064303822815418
1733860886692988000,6.81798779296875,0.0029699238948524,-0.01722279004752636,-0.0033537724521011114
1733860886702939000,6.82793896484375,0.0032858396880328655,-0.021367674693465233,-0.003928175661712885
1733860886712889900,6.837889892578125,0.0027926224283874035,-0.021443841978907585,-0.0035265707410871983
1733860886722841000,6.847841064453125,0.002186147030442953,-0.01953655295073986,-0.006082025822252035
1733860886732791000,6.857791015625,0.001682010479271412,-0.015595873817801476,-0.006087618414312601
1733860886742741800,6.86774169921875,0.0007835207507014275,-0.013026399537920952,-0.005175502505153418
1733860886752693000,6.87769287109375,0.00038937292993068695,-0.007214317563921213,-0.0008033907506614923
1733860886762643700,6.887643798828125,-0.0007259896956384182,-0.0019213117193430662,-0.00037155195605009794
1733860886772595000,6.897594970703125,-0.0008671372197568417,0.0021474657114595175,0.0021312867756932974
1733860886782545000,6.907544921875,-0.00011479435488581657,0.007900426164269447,-0.0005265480140224099
1733860886792495900,6.917495849609375,-0.0017321319319307804,0.008539319038391113,-0.0038850600831210613
1733860886802446800,6.92744677734375,-0.0005721619818359613,0.009266780689358711,-0.0018670264398679137
1733860886812398000,6.937398193359375,0.003680639900267124,0.009860132820904255,-0.0018478516722097993
1733860886822348800,6.947348876953125,0.005062889773398638,0.01000002957880497,-0.001563230063766241
1733860886832299000,6.957299072265625,0.004312943201512098,0.008225565776228905,-0.003156599123030901
1733860886842250000,6.96725,0.005959218833595514,0.003411791753023863,-0.0026639068964868784
1733860886852201000,6.977200927734375,0.00917072594165802,0.00035741226747632027,-0.0030934747774153948
1733860886862152000,6.98715185546875,0.007113256957381964,0.0015293132746592164,-0.0019837431609630585
1733860886872103000,6.99710302734375,0.004947307985275984,0.0031514447182416916,0.0005132367368787527
1733860886882052900,7.007052978515625,0.0009464751929044724,-0.0020350285340100527,0.002879901323467493
1733860886892004000,7.017004150390625,0.00010598171502351761,-0.0034813915845006704,-0.000634139752946794
1733860886901954800,7.026954833984375,-0.002624375745654106,-0.003779755672439933,-0.001161279738880694
1733860886911906000,7.036906005859375,-0.0031402301974594593,-0.004497211426496506,-0.003322435077279806
1733860886921856800,7.046856689453125,-0.003225690918043256,-0.004107825458049774,-0.00046074786223471165
1733860886931808000,7.05680810546875,-0.004367388319224119,-0.007603490725159645,-0.0027830242179334164
1733860886941758000,7.066758056640625,-0.0019519163761287928,-0.010379055514931679,-0.0017472760519012809
1733860886951708700,7.076708740234375,0.000026279594749212265,-0.009873321279883385,-0.0019933520816266537
1733860886961660000,7.086659912109375,-0.0004570914898067713,-0.008134552277624607,-0.0008323242655023932
1733860886971611100,7.096611083984375,0.002049209550023079,-0.00400185864418745,0.0009224326349794865
1733860886981561900,7.106561767578125,0.001773657277226448,-0.002168449107557535,0.00001918966881930828
1733860886991511800,7.11651171875,0.004376098047941923,0.0002989696804434061,-0.001980844186618924
1733860887001463000,7.126463134765625,0.0036098770797252655,-0.000005724374204874039,-0.0031133447773754597
1733860887011413800,7.136413818359375,0.005288467276841402,0.0033812837209552526,-0.003785792738199234
1733860887021365000,7.146364990234375,0.00802143756300211,0.00435709860175848,-0.0008081983542069793
1733860887031315700,7.156315673828125,0.0074248891323804855,0.002367983339354396,0.0008610709337517619
1733860887041266000,7.166265869140625,0.004968863911926746,0.003745312336832285,0.0011337974574416876
1733860887051217000,7.176216796875,0.004271647892892361,0.002344223205000162,0.0014698883751407266
1733860887061167900,7.18616796875,0.005080959759652615,0.004472595173865557,0.002424033125862479
1733860887071118800,7.196118896484375,0.004253248684108257,0.003170042997226119,0.003402212169021368
1733860887081069800,7.20606982421875,0.0034226570278406143,0.0032228257041424513,0.001741065294481814
1733860887091019800,7.216019775390625,0.003994970116764307,0.0007229163311421871,0.0018846096936613321
1733860887100971000,7.225970947265625,0.004992599133402109,-0.001208932138979435,0.0012170665431767702
1733860887110922000,7.235921875,0.005490609910339117,-0.0017133350484073162,-0.001987515017390251
1733860887120873000,7.245873046875,0.006818386726081371,-0.001906231278553605,0.001323605771176517
1733860887130824000,7.255823974609375,0.006383492611348629,-0.00255231442861259,0.0021193583961576223
1733860887140775000,7.26577490234375,0.00903070904314518,-0.000710164662450552,0.0016343608731403947
1733860887150724900,7.275724853515625,0.007599260192364454,0.0018446056637912989,0.0021190561819821596
1733860887160676000,7.285676025390625,0.008020849898457527,0.0008866796270012856,0.0032561260741204023
1733860887170626800,7.295626708984375,0.0045731221325695515,-0.00013144686818122864,0.0019722161814570427
1733860887180578000,7.305578125,0.0022937068715691566,-0.0005250794347375631,0.00015412061475217342
1733860887190528800,7.31552880859375,0.000616714358329773,-0.0011208285577595234,0.0003527924418449402
1733860887200478700,7.325478759765625,0.00006624683737754822,-0.0009056362323462963,-0.00029131537303328514
1733860887210430000,7.335429931640625,-0.0019420431926846504,0.0023122611455619335,-0.0021728388965129852
1733860887220381000,7.345380859375,-0.0035561269614845514,0.0021181749179959297,0.0007478306069970131
1733860887230332000,7.355331787109375,-0.001754231983795762,0.0015221594367176294,-0.0006378120742738247
1733860887240283100,7.365283203125,-0.002877849619835615,0.0021106896456331015,-0.0007327450439333916
1733860887250232800,7.37523291015625,-0.00295108649879694,0.0011042810510843992,0.000015070545487105846
1733860887260183800,7.385183837890625,-0.001878115115687251,0.0002363400999456644,0.00039434863720089197
1733860887270135000,7.395135009765625,0.00015334412455558777,-0.0036356295458972454,-0.0003318954259157181
1733860887280085800,7.405085693359375,0.0009328010492026806,-0.0026292793918401003,-0.00020904350094497204
1733860887290037000,7.415037109375,0.002681699115782976,0.0009577320888638496,0.0006274555344134569
1733860887299987000,7.424987060546875,0.0014132619835436344,0.002878968371078372,-0.0011815099278464913
1733860887309938000,7.43493798828125,-0.0005332424771040678,0.00531149934977293,-0.0009639296913519502
1733860887319889000,7.444888916015625,-0.0007406910881400108,0.007820211350917816,-0.002203731331974268
1733860887329839900,7.45483984375,-0.0004213782958686352,0.008060693740844727,-0.0009909279178828
1733860887339790800,7.464790771484375,0.00001622457057237625,0.005479871295392513,0.001653403858654201
1733860887349741800,7.474741943359375,-0.001975287450477481,0.006261508911848068,0.002433177549391985
1733860887359691800,7.48469189453125,-0.002934877062216401,0.007358409930020571,0.003021013457328081
1733860887369643000,7.49464306640625,0.0012582698836922646,0.008386123925447464,0.0026977057568728924
1733860887379593700,7.50459375,0.001117170788347721,0.007103596348315477,0.0024320564698427916
1733860887389545000,7.514544921875,0.0008561811409890652,0.004751492291688919,0.003532740753144026
1733860887399496000,7.524495849609375,0.0030916687101125717,0.00287985079921782,0.0022950286511331797
1733860887409446000,7.53444580078125,0.005340441595762968,0.0023986175656318665,0.000549859250895679
1733860887419396900,7.54439697265625,0.006960618309676647,0.003338887356221676,-0.0011499290121719241
1733860887429348000,7.55434814453125,0.007170475088059902,0.0034749750047922134,-0.00041276600677520037
1733860887439298800,7.564298828125,0.009502613916993141,0.0020938683301210403,0.0008456881623715162
1733860887449250000,7.57425,0.00991353951394558,-0.0008949972689151764,-0.0015013556694611907
1733860887459200000,7.584199951171875,0.009177564643323421,-0.002015804871916771,0.0005631482927128673
1733860887469151000,7.59415087890625,0.009348805993795395,-0.003235266078263521,0.0029030016157776117
1733860887479102000,7.60410205078125,0.006556386593729258,-0.0042430926114320755,-0.0004122672835364938
1733860887489053000,7.614052978515625,0.004241033922880888,-0.009270874783396721,-0.0027342773973941803
1733860887499004000,7.62400390625,0.0027397978119552135,-0.01080380380153656,-0.0032686740159988403
1733860887508953900,7.633953857421875,-0.0008192507084459066,-0.007524120155721903,-0.003419675398617983
1733860887518904800,7.64390478515625,-0.004030457232147455,-0.004337347578257322,-0.001952095073647797
1733860887528855800,7.653855712890625,-0.0042488365434110165,-0.000019031809642910957,-0.0018823201535269618
1733860887538807000,7.66380712890625,-0.0039753783494234085,0.002777235582470894,-0.0038902112282812595
1733860887548757800,7.6737578125,-0.003176430007442832,0.005273682996630669,-0.0006400892743840814
1733860887558709000,7.683708984375,0.002254272811114788,0.008618861436843872,-0.0013215468497946858
1733860887568659000,7.693658935546875,0.001236679032444954,0.008586637675762177,0.0011999339330941439
1733860887578610000,7.70360986328125,0.0040191966108977795,0.009568864479660988,0.0026879741344600916
1733860887588561000,7.713560791015625,0.004733456764370203,0.0064010340720415115,0.0051828231662511826
1733860887598511900,7.723511962890625,0.004069220274686813,0.004102411214262247,0.004837334621697664
1733860887608462800,7.733462890625,0.004401849582791328,-0.0007272313814610243,0.0023387568071484566
1733860887618413000,7.7434130859375,0.005445299670100212,-0.00819231104105711,0.0008344027446582913
1733860887628364000,7.753364013671875,0.006622150540351868,-0.010794485919177532,-0.003262604121118784
1733860887638315300,7.763315185546875,0.006906087975949049,-0.015919160097837448,-0.0032782377675175667
1733860887648266000,7.773265869140625,0.008465634658932686,-0.018008943647146225,-0.0048894500359892845
1733860887658217200,7.78321728515625,0.009429189376533031,-0.014000332914292812,-0.00451552914455533
1733860887668167200,7.793167236328125,0.010105365887284279,-0.010600275360047817,-0.004818330518901348
1733860887678118100,7.8031181640625,0.009822232648730278,-0.007895605638623238,-0.0037125558592379093
1733860887688069000,7.813069091796875,0.00995246134698391,-0.0030755503103137016,-0.002476849127560854
1733860887698020000,7.82302001953125,0.008546292781829834,0.0030845864675939083,-0.00034340249840170145
1733860887707971000,7.83297119140625,0.008972397074103355,0.005227099638432264,0.00290378974750638
1733860887717921300,7.84292138671875,0.008608885109424591,0.009698023088276386,0.0026964405551552773
1733860887727872300,7.852872314453125,0.010065633803606033,0.011048246175050735,0.0003030578373000026
1733860887737823200,7.8628232421875,0.01086670346558094,0.010075650177896023,-0.001790830516256392
1733860887747774200,7.872774169921875,0.01026642695069313,0.007727009244263172,0.0023194923996925354
1733860887757725200,7.88272509765625,0.007980355061590672,0.006163982208818197,-0.00017398083582520485
1733860887767676200,7.89267626953125,0.005194688215851784,0.006242278963327408,-0.0026366058737039566
1733860887777626400,7.90262646484375,0.0015762588009238243,0.004867563955485821,-0.0010279458947479725
1733860887787577000,7.9125771484375,-0.0038968033622950315,0.0008033141493797302,-0.0009661605581641197
1733860887797528300,7.9225283203125,-0.005628128536045551,-0.0013280182611197233,-0.0020165666937828064
1733860887807479000,7.93247900390625,-0.005938120186328888,-0.0024880908895283937,-0.0015939229633659124
1733860887817430300,7.94243017578125,-0.003653409890830517,-0.00020045368000864983,-0.003768614958971739
1733860887827380200,7.952380126953125,-0.002987886080518365,0.00010101613588631153,-0.004920965060591698
1733860887837331000,7.9623310546875,-0.0023567089810967445,-0.0003394617233425379,-0.005465737544000149
1733860887847282200,7.9722822265625,-0.002246720250695944,-0.0005607705097645521,-0.004506999161094427
1733860887857233200,7.982233154296875,-0.00214118929579854,-0.0022733774967491627,-0.00022901687771081924
1733860887867184000,7.99218408203125,-0.0033300244249403477,-0.0034915073774755,0.00021626357920467854
1733860887877134000,8.002134033203125,-0.0036467325408011675,-0.008385124616324902,-0.0004540346562862396
1733860887887085300,8.012085205078124,-0.0036736305337399244,-0.011392897926270962,-0.0028554070740938187
1733860887897036000,8.0220361328125,-0.00020913174375891685,-0.013947678729891777,-0.003141275141388178
1733860887906987300,8.0319873046875,0.0012516123242676258,-0.011175593361258507,-0.002045916859060526
1733860887916938000,8.04193798828125,0.0034165484830737114,-0.009357664734125137,-0.001921889721415937
1733860887926888200,8.05188818359375,0.005126830656081438,-0.006524594034999609,-0.0033117933198809624
1733860887936839200,8.061839111328124,0.0034939893521368504,-0.003667348064482212,-0.004150402266532183
1733860887946790100,8.0717900390625,0.004978968296200037,-0.0034561590291559696,-0.0033999234437942505
1733860887956741000,8.0817412109375,0.00281488336622715,0.001403310801833868,-0.0019013624405488372
1733860887966692000,8.091692138671876,0.003379473462700844,0.0042073531076312065,-0.00246328953653574
1733860887976643000,8.10164306640625,0.0031720371916890144,0.005436961073428392,0.0009975547436624765
1733860887986593300,8.11159326171875,0.0031813583336770535,0.0053762411698699,-0.0010386982467025518
1733860887996544000,8.1215439453125,0.0009638029150664806,0.00687139667570591,-0.0019931932911276817
1733860888006495200,8.1314951171875,0.002215755172073841,0.00655687740072608,-0.0012491061352193356
1733860888016446200,8.1414462890625,0.0016660154797136784,0.00369578180834651,-0.00152318284381181
1733860888026397200,8.151397216796875,-0.00007462664507329464,0.001914659864269197,-0.004335214849561453
1733860888036347100,8.16134716796875,0.0009195394814014435,0.0008563282899558544,-0.0047960965894162655
1733860888046298400,8.17129833984375,0.0011296630837023258,-0.0003367678727954626,-0.001988059841096401
1733860888056249000,8.1812490234375,-0.002000155858695507,0.000008024973794817924,-0.0010948196286335588
1733860888066200300,8.191200439453125,-0.0010139874648302794,0.002858672756701708,0.00039042532444000244
1733860888076151000,8.201151123046875,-0.0013830172829329967,0.004678243305534124,0.000572203891351819
1733860888086101000,8.21110107421875,-0.002397415228188038,0.0034113775473088026,0.0023828870616853237
1733860888096052200,8.22105224609375,-0.0018919473513960838,0.004774116910994053,-0.00018493272364139557
1733860888106003000,8.2310029296875,-0.0038280654698610306,0.004902215208858252,-0.0017359578050673008
1733860888115954200,8.2409541015625,-0.004477912560105324,-0.002281700726598501,-0.006241460330784321
1733860888125905200,8.2509052734375,-0.0037889527156949043,-0.0035554906353354454,-0.006304844282567501
1733860888135855000,8.260855224609376,-0.0019194104243069887,-0.009109774604439735,-0.004132980480790138
1733860888145806000,8.27080615234375,-0.002823819871991873,-0.008923619985580444,-0.006372432690113783
1733860888155757300,8.28075732421875,-0.004236086271703243,-0.006794414017349482,-0.002335502300411463
1733860888165708000,8.2907080078125,-0.003979623783379793,-0.002966119907796383,-0.0007027185056358576
1733860888175659300,8.3006591796875,-0.003879742929711938,-0.0008837813511490822,0.001295351656153798
1733860888185610000,8.31060986328125,-0.004888282157480717,0.001214789692312479,0.002035177778452635
1733860888195560200,8.320560302734375,-0.00492344843223691,0.0015418129041790962,0.0007068926934152842
1733860888205511200,8.33051123046875,-0.0034824118483811617,-0.000273930374532938,0.0003723996924236417
1733860888215462100,8.340462158203126,-0.002600626554340124,-0.0021812734194099903,-0.0004109357250854373
1733860888225413000,8.3504130859375,-0.002939913421869278,-0.0031288261525332928,-0.002443992532789707
1733860888235364000,8.360364013671875,0.00015759281814098358,-0.007727855816483498,-0.004847451578825712
1733860888245314000,8.37031396484375,0.004640758037567139,-0.007600024342536926,-0.004653307143598795
1733860888255265300,8.380265380859376,0.003398934379220009,-0.005321415141224861,-0.0014792407164350152
1733860888265216000,8.390216064453124,0.002798125147819519,-0.0006611496210098267,-0.0012600625632330775
1733860888275167200,8.400167236328125,0.0014409585855901241,0.005906982347369194,0.0028995180036872625
1733860888285118200,8.4101181640625,0.003068416379392147,0.009811708703637123,0.0030537149868905544
1733860888295068200,8.420068115234375,-0.00021176738664507866,0.010279927402734756,0.0021279111970216036
1733860888305019100,8.43001904296875,-0.0007478618063032627,0.010582995600998402,0.0028208657167851925
1733860888314970400,8.439970458984375,-0.0009553462732583284,0.012465025298297405,0.003519346471875906
1733860888324921000,8.449921142578125,-0.0007343038450926542,0.011323860846459866,0.005638157017529011
1733860888334872300,8.459872314453126,0.00020578084513545036,0.01135314255952835,0.000561473541893065
1733860888344822300,8.469822265625,0.003447114024311304,0.005094714462757111,0.00195723632350564
1733860888354773000,8.47977294921875,0.004072222858667374,-0.0003258159849792719,-0.0014736239099875093
1733860888364724200,8.48972412109375,0.004669037647545338,-0.0017913533374667168,-0.0010464530205354095
1733860888374675200,8.49967529296875,0.004042030777782202,-0.000695838825777173,-0.002244396600872278
1733860888384626200,8.509626220703124,0.0038135317154228687,-0.0036117341369390488,-0.0014917870284989476
1733860888394577200,8.5195771484375,0.0004657013341784477,-0.0037824055179953575,-0.00045724085066467524
1733860888404527000,8.529527099609375,-0.0022406030911952257,-0.00527084618806839,-0.0026410329155623913
1733860888414478000,8.53947802734375,-0.005477967672049999,-0.00399442482739687,0.0007732865633442998
1733860888424429000,8.549428955078126,-0.005875311326235533,-0.001466286601498723,0.0003184187225997448
1733860888434380000,8.559380126953124,-0.0056374454870820045,0.00015749759040772915,-0.00042021251283586025
1733860888444331300,8.569331298828125,-0.0043095932342112064,0.006511533632874489,-0.002745151985436678
1733860888454281200,8.57928125,-0.0003779360558837652,0.0071882763877511024,-0.0008690431714057922
1733860888464232200,8.589232177734376,0.0006772084161639214,0.011315909214317799,-0.0005222996696829796
1733860888474183200,8.59918310546875,0.002470032311975956,0.014347102493047714,-0.0001635280204936862
1733860888484134100,8.609134033203125,0.0019243503920733929,0.011030934751033783,0.00344319106079638
1733860888494085000,8.619085205078125,0.0018550688400864601,0.006925095804035664,0.001985621638596058
1733860888504035300,8.629035400390626,-0.00004269974306225777,-0.00232645939104259,0.004142782185226679
1733860888513986000,8.638986083984374,-0.001786534208804369,-0.010380387306213379,0.002917783334851265
1733860888523937300,8.648937255859375,-0.003517056116834283,-0.015522152185440063,-0.0008758896728977561
1733860888533888000,8.658887939453125,-0.00038841087371110916,-0.016352571547031403,-0.0036232247948646545
1733860888543839200,8.668839111328126,0.002766636200249195,-0.015607153996825218,-0.005797163117676973
1733860888553790200,8.678790283203124,0.0038817417807877064,-0.015564757399260998,-0.004925170913338661
1733860888563740200,8.688740234375,0.004807190503925085,-0.01028424222022295,-0.004353656899183989
1733860888573691100,8.698691162109375,0.00516940001398325,-0.0036667976528406143,-0.00009871344082057476
1733860888583642400,8.708642333984375,0.0048048123717308044,0.00390297151170671,0.002116237534210086
1733860888593593000,8.718593017578126,0.003422072622925043,0.007367180660367012,0.0011363396188244224
1733860888603544300,8.72854443359375,0.004683878272771835,0.011087349615991116,0.004086323082447052
1733860888613494300,8.738494384765625,0.0047550201416015625,0.01576976105570793,0.004111855290830135
1733860888623444500,8.748444580078125,0.003843686543405056,0.016762053593993187,0.005277520976960659
1733860888633395700,8.758395751953126,0.005596625152975321,0.018118180334568024,0.004490370862185955
1733860888643346400,8.768346435546874,0.004381424281746149,0.01610483042895794,0.004366001114249229
1733860888653297700,8.778297607421875,0.004731815308332443,0.012600824236869812,0.0033808518201112747
1733860888663247600,8.78824755859375,0.0025456263683736324,0.008442298509180546,0.003065267112106085
1733860888673198600,8.798198486328126,0.0006691943854093552,0.004195657558739185,0.004066792316734791
1733860888683149600,8.808149658203124,-0.0027463098522275686,0.003101630602031946,0.003234554547816515
1733860888693100800,8.818100830078125,-0.002654743380844593,0.001954819541424513,-0.00023301178589463234
1733860888703051500,8.828051513671875,-0.0031556838657706976,-0.0015911792870610952,-0.0026000295765697956
1733860888713001700,8.838001708984375,-0.0017617740668356419,-0.0022130135912448168,-0.0022480604238808155
1733860888722952700,8.84795263671875,-0.0025905498769134283,-0.0022641464602202177,-0.00406460277736187
1733860888732903700,8.857903564453125,-0.003561268327757716,-0.004878566600382328,-0.0035111429169774055
1733860888742854700,8.867854736328125,-0.003918664529919624,-0.00880300160497427,-0.003649627324193716
1733860888752805600,8.8778056640625,-0.0052304817363619804,-0.009114264510571957,-0.0011385551188141108
1733860888762756600,8.887756591796874,-0.0070419637486338615,-0.010894054546952248,-0.0008986042812466621
1733860888772706800,8.897706787109374,-0.00763289351016283,-0.01078910194337368,-0.0010069261770695448
1733860888782657500,8.907657470703125,-0.004863739013671875,-0.010520122945308685,-0.00037868646904826164
1733860888792608800,8.91760888671875,-0.005839271936565638,-0.008720108307898045,0.001519391080364585
1733860888802559500,8.9275595703125,-0.0021444023586809635,-0.005863867700099945,-0.0012180721387267113
1733860888812510700,8.9375107421875,-0.001147052738815546,-0.0031426534987986088,0.000916129385586828
1733860888822460700,8.947460693359375,0.00040477095171809196,0.0003056074492633343,-0.0011648646323010325
1733860888832411600,8.95741162109375,0.0009155245497822762,-0.0030803780537098646,-0.0010841938201338053
1733860888842362600,8.967362548828126,0.0020553572103381157,-0.002921120962128043,0.00001222954597324133
1733860888852313900,8.97731396484375,-0.0002933505456894636,0.001502038910984993,0.0009595900191925466
1733860888862264600,8.9872646484375,0.0002896157093346119,0.003973186016082764,0.0020648017525672913
1733860888872214500,8.997214599609375,0.0016851704567670822,0.0062942057847976685,0.0019972389563918114
1733860888882165800,9.007165771484376,0.0003085825592279434,0.009708911180496216,0.003187139518558979
1733860888892116500,9.017116455078124,-0.0006954174023121595,0.011295103468000889,0.0013832802651450038
1733860888902067700,9.027067626953125,-0.0010631999466568232,0.00820663571357727,0.00012174085713922977
1733860888912018700,9.037018798828125,-0.0027743191458284855,0.009219390340149403,-0.0006953366100788116
1733860888921968600,9.04696875,-0.0034733989741653204,0.003505578264594078,-0.0036208191886544228
1733860888931919600,9.056919677734374,-0.005551396869122982,-0.001404683105647564,-0.0006581766065210104
1733860888941870600,9.06687060546875,-0.003852300113067031,-0.005726460367441177,-0.0033562248572707176
1733860888951821600,9.076821533203125,-0.003352436935529113,-0.007640753407031298,-0.003532959148287773
1733860888961772800,9.086772705078126,-0.0029351196717470884,-0.007841821759939194,-0.0014053600607439876
1733860888971723500,9.0967236328125,-0.0017838629428297281,-0.004881483037024736,-0.0014198628487065434
1733860888981673700,9.106673828125,-0.00041180243715643883,0.0005503003485500813,0.0002158506540581584
1733860888991624700,9.116624755859375,-0.0007459891494363546,0.002850249409675598,0.0005298596806824207
1733860889001575700,9.12657568359375,-0.0015017942059785128,0.004315254278481007,0.003926455043256283
1733860889011526700,9.136526611328126,-0.004507936537265778,0.0053009227849543095,0.0037540628109127283
1733860889021477600,9.1464775390625,-0.004395551048219204,0.006998687982559204,0.0035135792568325996
1733860889031427600,9.156427490234375,-0.008428767323493958,0.00563048105686903,0.00236824550665915
1733860889041378800,9.16637890625,-0.008546745404601097,0.0021388104651123285,0.0018377437954768538
1733860889051329500,9.17632958984375,-0.0082625113427639,-0.004034837707877159,-0.0037034570705145597
1733860889061280800,9.18628076171875,-0.008359184488654137,-0.005695318803191185,-0.005900831893086433
1733860889071231500,9.1962314453125,-0.005120585672557354,-0.005657322239130735,-0.008749597705900669
1733860889081181700,9.206181640625,-0.003213229589164257,-0.006003799382597208,-0.00631972961127758
1733860889091132700,9.216132568359376,-0.003744208486750722,-0.004577074199914932,-0.0027987370267510414
1733860889101083600,9.226083740234374,-0.0019114210736006498,0.00018412480130791664,-0.0003137413877993822
1733860889111034600,9.23603466796875,-0.0016227646265178919,0.0070451898500323296,0.003965516574680805
1733860889120985900,9.24598583984375,-0.0014134400989860296,0.012659399770200253,0.0056755319237709045
1733860889130936600,9.2559365234375,-0.004552222788333893,0.015193421393632889,0.0057810028083622456
1733860889140886500,9.265886474609376,-0.002110104076564312,0.01480513159185648,0.0063285487703979015
1733860889150837800,9.275837646484375,-0.002316491212695837,0.01209670677781105,0.008627500385046005
1733860889160788700,9.285788818359375,-0.00237268372438848,0.007582115475088358,0.007530277594923973
1733860889170739700,9.29573974609375,-0.0023063751868903637,0.003262463491410017,0.004948820453137159
1733860889180690700,9.305690673828124,-0.0038949507288634777,0.0008602922316640615,0.004822053946554661
1733860889190640600,9.315640625,-0.0029609648045152426,0.0001918564084917307,0.0020656376145780087
1733860889200591600,9.325591552734375,-0.0018560192547738552,0.0032201369758695364,0.0015263473615050316
1733860889210542600,9.33554248046875,-0.0047479537315666676,0.0068958234041929245,0.002081505721434951
1733860889220493600,9.34549365234375,-0.003621703013777733,0.008687331341207027,0.002124116290360689
1733860889230444500,9.355444580078125,-0.004207045305520296,0.008052455261349678,0.0037569114938378334
1733860889240394500,9.36539453125,-0.0037955869920551777,0.00596080906689167,0.0052642603404819965
1733860889250345700,9.375345703125,-0.005054451059550047,0.0043504079803824425,0.006100659724324942
1733860889260296700,9.385296630859376,-0.002704744227230549,0.0018017629627138376,0.003888904582709074
1733860889270247700,9.39524755859375,-0.0016216845251619816,0.0005705314688384533,0.001418157247826457
1733860889280198700,9.40519873046875,-0.00342570967040956,-0.00037062959745526314,0.0018277514027431607
1733860889290148600,9.415148681640625,0.0007581599056720734,-0.0009096052963286638,-0.0011170950019732118
1733860889300099600,9.425099609375,-0.0024381657131016254,-0.0029003180097788572,-0.0019205707358196378
1733860889310050800,9.43505078125,-0.002327890135347843,-0.0060755847953259945,0.0008776250761002302
1733860889320001500,9.44500146484375,-0.0043510934337973595,-0.0060268486849963665,0.0020179906859993935
1733860889329952800,9.454952880859375,-0.005176459439098835,-0.001530955545604229,0.0022817200515419245
1733860889339903500,9.464903564453126,-0.004233434330672026,0.0013327416963875294,0.0032026409171521664
1733860889349853700,9.474853759765624,-0.004207565914839506,0.0061975764110684395,0.0006539629539474845
1733860889359804700,9.4848046875,-0.006934909150004387,0.0041195121593773365,-0.0008619083091616631
1733860889369755600,9.494755615234375,-0.009014079347252846,0.0013548412825912237,-0.0023061628453433514
1733860889379706600,9.50470654296875,-0.014020288363099098,0.003544758539646864,-0.005578388925641775
1733860889389657900,9.514657958984374,-0.01713358238339424,0.007034223526716232,-0.003795750206336379
1733860889399607600,9.524607666015624,-0.015488281846046448,0.010972506366670132,-0.0045640720054507256
1733860889409558800,9.534558837890625,-0.011205041781067848,0.011914297007024288,-0.001398014253936708
1733860889419509800,9.544509765625,-0.007945332676172256,0.014957224950194359,0.0012899142457172275
1733860889429460700,9.554460693359376,-0.004440330434590578,0.01467228401452303,0.004460895899683237
1733860889439411700,9.56441162109375,-0.0006224226672202349,0.015877896919846535,0.005661715287715197
1733860889449361700,9.574361572265625,0.003564320970326662,0.009754211641848087,0.008527110330760479
1733860889459312600,9.584312744140625,0.002519030123949051,0.0022238572128117085,0.008584368042647839
1733860889469263600,9.594263671875,0.0008276030421257019,-0.005276999436318874,0.007324984297156334
1733860889479214600,9.604214599609374,-0.00186245609074831,-0.011743687093257904,0.005051976069808006
1733860889489165600,9.61416552734375,-0.0038293928373605013,-0.01698097586631775,0.001574140740558505
1733860889499115800,9.62411572265625,-0.004185989964753389,-0.016899483278393745,-0.00013880454935133457
1733860889509066500,9.63406640625,-0.0032993981149047613,-0.015499435365200043,-0.0007283596787601709
1733860889519017700,9.644017822265624,-0.006375349126756191,-0.010756878182291985,-0.0013965466059744358
1733860889528968400,9.653968505859375,-0.002022733213379979,-0.004281188827008009,-0.00021535996347665787
1733860889538919700,9.663919677734375,-0.0030264786910265684,-0.00005794805474579334,-0.001268640160560608
1733860889548870700,9.67387060546875,-0.004221716430038214,0.004263284150511026,0.00036957033444195986
1733860889558820600,9.683820556640624,-0.0017457755748182535,0.007099550683051348,0.0009301656973548234
1733860889568771600,9.693771484375,-0.0013723645824939013,0.009499629959464073,0.0001373096602037549
1733860889578722800,9.703722900390625,-0.0011254895944148302,0.010638397186994553,0.0021892753429710865
1733860889588673500,9.713673583984376,0.0004244302399456501,0.015787310898303986,0.003144795075058937
1733860889598624800,9.723624755859374,0.0008478728123009205,0.018008919432759285,0.0047725192271173
1733860889608574700,9.73357470703125,0.00042551057413220406,0.01773037016391754,0.003678980516269803
1733860889618525700,9.743525634765625,-0.0003856881521642208,0.01699214242398739,0.0023330189287662506
1733860889628477000,9.753476806640625,-0.0024602822959423065,0.016208115965127945,0.00132299296092242
1733860889638427600,9.763427734375,-0.0017156624235212803,0.010921474546194077,-0.0007585338316857815
1733860889648379000,9.77337890625,-0.004807309713214636,0.004619653802365065,-0.0013444731011986732
1733860889658328800,9.783328857421875,-0.00707579031586647,-0.0019940403290092945,-0.0031301225535571575
1733860889668279800,9.79327978515625,-0.008997594006359577,-0.007243739441037178,-0.003841328900307417
1733860889678230800,9.803230712890626,-0.006871325895190239,-0.005344904959201813,-0.004234411288052797
1733860889688181800,9.813181640625,-0.007761786691844463,-0.0030656640883535147,-0.0005687802331522107
1733860889698132700,9.8231328125,-0.005970810540020466,0.0015879435231909156,0.001334314700216055
1733860889708082700,9.833082763671875,-0.005947197787463665,0.004568459931761026,0.0019259117543697357
1733860889718033700,9.84303369140625,-0.004118937999010086,0.005612418986856937,-0.00021793285850435495
1733860889727984600,9.852984619140624,-0.0036376973148435354,0.00031087337993085384,0.0024432078935205936
1733860889737936000,9.862935791015625,-0.002405452774837613,-0.002596499864012003,0.003113259095698595
1733860889747886800,9.872886962890625,-0.002853348385542631,-0.0062393853440880775,0.004421536810696125
1733860889757837800,9.882837890625,-0.003707157913595438,-0.0067349998280406,0.0016121682710945606
1733860889767787800,9.892787841796874,-0.0021031838841736317,-0.008266369812190533,-0.00015577103476971388
1733860889777738800,9.90273876953125,-0.0014126263558864594,-0.007943062111735344,0.0005859193624928594
1733860889787689700,9.912689697265625,-0.0018664326053112745,-0.006424265913665295,-0.0029042083770036697
1733860889797640700,9.922640625,0.0009402725845575333,-0.0011022042017430067,-0.000017075450159609318
1733860889807591700,9.932591796875,0.0034139477647840977,0.006722555495798588,-0.00018951750826090574
1733860889817542000,9.9425419921875,0.003600635100156069,0.008177174255251884,0.0020382169168442488
1733860889827492600,9.95249267578125,0.0046100979670882225,0.009853227064013481,0.00006105599459260702
1733860889837443800,9.96244384765625,0.005723564885556698,0.009850298054516315,0.0021870573982596397
1733860889847394800,9.972394775390624,0.003965913318097591,0.010810142382979393,0.0033095446415245533
1733860889857345800,9.982345703125,0.005861817859113216,0.009238876402378082,0.0034629427827894688
1733860889867295700,9.992295654296875,0.005317233502864838,0.005945113021880388,0.0011909118620678782
1733860889877247000,10.0022470703125,0.006882905960083008,0.0035719701554626226,0.0004502867814153433
1733860889887197700,10.01219775390625,0.003809852059930563,0.0033290560822933912,-0.00023538898676633835
1733860889897149000,10.02214892578125,0.002251903060823679,0.000724750803783536,-0.0015845464076846838
1733860889907099600,10.032099609375,0.0021227598190307617,-0.0014358502812683582,-0.0018404650036245584
1733860889917051000,10.04205078125,0.000944577157497406,-0.0013535586185753345,-0.00006227241829037666
1733860889927000800,10.052000732421876,0.0013278573751449585,-0.0011082326527684927,0.002343231812119484
1733860889936951800,10.061951904296874,0.0016684755682945251,-0.0022643108386546373,0.000012699631042778492
1733860889946902800,10.07190283203125,-0.001319109695032239,-0.003900605719536543,-0.001006096601486206
1733860889956853800,10.081853759765625,0.00032619107514619827,-0.0074751004576683044,-0.0046314578503370285
1733860889966804700,10.0918046875,0.004278584849089384,-0.012662677094340324,-0.0075348918326199055
1733860889976755000,10.1017548828125,0.003670584876090288,-0.018386874347925186,-0.007662190590053797
1733860889986705700,10.11170556640625,0.005065269768238068,-0.020036449655890465,-0.006550221238285303
1733860889996657000,10.121656982421875,0.004845559597015381,-0.017500055953860283,-0.005368576385080814
1733860890006608000,10.13160791015625,0.004301433451473713,-0.012592698447406292,-0.004314572550356388
1733860890016558800,10.141558837890624,0.00500876922160387,-0.00833377055823803,-0.005735635291785002
1733860890026508800,10.1515087890625,0.002362652216106653,-0.007718847133219242,-0.006426192820072174
1733860890036459800,10.161459716796875,0.0014760857447981834,-0.008777187205851078,-0.006436312571167946
1733860890046410800,10.17141064453125,0.001672693993896246,-0.011224023997783661,-0.009241810068488121
1733860890056361700,10.18136181640625,-0.0007244176231324673,-0.012520983815193176,-0.006346688140183687
1733860890066312700,10.191312744140625,0.0013408474624156952,-0.012417669408023357,-0.006223074160516262
1733860890076262700,10.2012626953125,-0.002068531233817339,-0.009778210893273354,-0.004224903881549835
1733860890086214000,10.2112138671875,-0.0007939585484564304,-0.0025629259180277586,-0.00614313455298543
1733860890096164600,10.22116455078125,0.000893153715878725,0.0007809391245245934,-0.00787259079515934
1733860890106115800,10.23111572265625,0.0018985094502568245,0.0004368717782199383,-0.007233533076941967
1733860890116066800,10.24106689453125,0.001486518420279026,-0.003612464526668191,-0.006968015804886818
1733860890126017800,10.251017822265625,0.0024684215895831585,-0.004315543454140425,-0.005519577767699957
1733860890135967700,10.2609677734375,0.0033464659936726093,-0.0006835246458649635,-0.005243940744549036
1733860890145918700,10.270918701171874,0.003925688099116087,0.001483471947722137,-0.0012350395554676652
1733860890155869700,10.28086962890625,0.002855097409337759,0.0011907905573025346,-0.002190049272030592
1733860890165821000,10.290821044921875,0.0016401223838329315,0.0002623617183417082,-0.003654328640550375
1733860890175771600,10.300771728515626,0.0023354734294116497,-0.004515881650149822,-0.004504409618675709
1733860890185721900,10.310721923828124,0.000643082894384861,-0.004611163400113583,-0.002342537511140108
1733860890195672800,10.3206728515625,0.0007828990928828716,-0.0025645236019045115,-0.0032301689498126507
1733860890205623800,10.330623779296875,0.0018585864454507828,0.0011149377096444368,-0.0038355381693691015
1733860890215574800,10.34057470703125,0.0039028292521834373,-0.0004472725559026003,-0.004290140233933926
1733860890225525800,10.35052587890625,0.0027342094108462334,0.0009828198235481977,-0.005125640891492367
1733860890235475700,10.360475830078125,0.0032322201877832413,-0.0031205785926431417,-0.005446551833301783
1733860890245427000,10.370427001953125,0.0005781864747405052,-0.0023127731401473284,-0.0014812215231359005
1733860890255377700,10.380377685546875,0.002510842401534319,-0.0007934398017823696,-0.0001112914178520441
1733860890265329000,10.390328857421874,0.0012510870583355427,-0.0027328310534358025,-0.002192013431340456
1733860890275280000,10.40027978515625,-0.00010872306302189827,-0.006220772862434387,-0.00566211249679327
1733860890285229600,10.4102294921875,-0.001837038667872548,-0.004407885484397411,-0.006878439802676439
1733860890295180800,10.420180908203125,-0.0034133638255298138,0.001962129259482026,-0.005175348371267319
1733860890305131800,10.4301318359375,-0.006749867461621761,0.010666841641068459,-0.006456010974943638
1733860890315082800,10.440082763671874,-0.00567528186365962,0.014881027862429619,-0.0096275694668293
1733860890325034000,10.450033935546875,-0.0034163068048655987,0.014294417575001717,-0.008828042075037956
1733860890334984700,10.459984619140625,-0.004667726345360279,0.013302923180162907,-0.005782451014965773
1733860890344934700,10.4699345703125,-0.0035484167747199535,0.011432036757469177,-0.0046332539059221745
1733860890354886000,10.479885986328124,-0.0037052768748253584,0.006706522777676582,-0.004430853761732578
1733860890364836600,10.489836669921875,-0.001484213164076209,0.001987922005355358,-0.00473542045801878
1733860890374787800,10.499787841796875,-0.0010621021501719952,-0.0013106695841997862,-0.0007097863126546144
1733860890384738600,10.509738525390626,0.002740088850259781,-0.004812464118003845,0.0008038989035412669
1733860890394688800,10.519688720703124,0.002930238377302885,-0.009490306489169598,0.0006156134186312556
1733860890404639700,10.5296396484375,0.003835672978311777,-0.008806183934211731,-0.0022787326015532017
1733860890414590700,10.5395908203125,0.005280438344925642,-0.010619530454277992,-0.004895554389804602
1733860890424541700,10.549541748046876,0.00520241167396307,-0.01696503907442093,-0.006756516173481941
1733860890434493000,10.559492919921874,0.009278379380702972,-0.018276913091540337,-0.007155723869800568
1733860890444442600,10.569442626953125,0.010378055274486542,-0.01857565902173519,-0.005782618653029203
1733860890454393900,10.579393798828125,0.009615326300263405,-0.012802992016077042,-0.0038643437437713146
1733860890464344800,10.5893447265625,0.009825965389609337,-0.007788009941577911,-0.002353489166125655
1733860890474295800,10.5992958984375,0.009677627123892307,-0.002954106079414487,-0.0005073859356343746
1733860890484246800,10.609246826171875,0.009022211655974388,0.0015929627697914839,-0.001413293881341815
1733860890494197000,10.619197021484375,0.00831487588584423,0.002390046836808324,-0.0014990477357059717
1733860890504147700,10.629147705078125,0.008231518790125847,0.005106737837195396,-0.0033158562146127224
1733860890514099000,10.639098876953126,0.006964385975152254,0.008244739845395088,-0.002826633397489786
1733860890524049700,10.649049560546874,0.007908781990408897,0.006894287653267384,-0.0007896122988313437
1733860890534001000,10.6590009765625,0.007930886000394821,0.00584819819778204,0.0012053616810590029
1733860890543952000,10.668951904296875,0.0029523069970309734,0.004322672728449106,0.002193303080275655
1733860890553901600,10.678901611328126,0.004588819108903408,0.00523240864276886,0.0024692064616829157
1733860890563852800,10.688852783203124,0.0009949360974133015,0.003118712455034256,0.0033575608395040035
1733860890573803800,10.6988037109375,0.00032781437039375305,0.003130696713924408,-0.0008081559790298343
1733860890583754800,10.708754638671875,-0.0031319630797952414,0.0036651245318353176,-0.0023211869411170483
1733860890593706000,10.7187060546875,-0.003387094009667635,0.0018104992341250181,-0.0033662114292383194
1733860890603656000,10.728656005859374,-0.004665943793952465,-0.002858554944396019,-0.004403246566653252
1733860890613606700,10.738606689453125,-0.003488294081762433,-0.00968982931226492,-0.004446123261004686
1733860890623558000,10.748557861328125,-0.0019324016757309437,-0.010545692406594753,-0.0027265851385891438
1733860890633509400,10.75850927734375,-0.0019481144845485687,-0.014239763841032982,-0.00180566415656358
1733860890643460600,10.768460693359375,-0.0003124265931546688,-0.014024604111909866,-0.0017545998562127352
1733860890653410600,10.77841064453125,-0.0002538368571549654,-0.012259727343916893,-0.0042529115453362465
1733860890663361300,10.788361328125,0.0007136566564440727,-0.01218040008097887,-0.0005526270251721144
1733860890673312500,10.7983125,-0.00016758311539888382,-0.009672767482697964,-0.0018168294336646795
1733860890683263200,10.80826318359375,0.001981929410248995,-0.009636473841965199,-0.000857088714838028
1733860890693214500,10.81821435546875,0.0021590297110378742,-0.008693980984389782,-0.001261356519535184
1733860890703164400,10.828164306640625,0.0016006864607334137,-0.009733842685818672,0.0010615342762321234
1733860890713115400,10.838115478515626,0.005806882865726948,-0.010811356827616692,-0.0003720453241840005
1733860890723066400,10.84806640625,0.007493502460420132,-0.006774751469492912,0.0005998134147375822
1733860890733017300,10.858017333984375,0.00778352003544569,-0.006773419678211212,-0.00018075911793857813
1733860890742968300,10.86796826171875,0.008841299451887608,-0.010145818814635277,-0.0019087911350652575
1733860890752919600,10.87791943359375,0.004846290685236454,-0.009285352192819118,-0.004450245760381222
1733860890762869200,10.887869140625,0.005329205188900232,-0.0048950305208563805,-0.005403242073953152
1733860890772820500,10.897820556640625,0.003788566682487726,-0.0015554260462522507,-0.00501708360388875
1733860890782771500,10.907771484375,0.0003847973421216011,0.0053315251134335995,-0.005533780436962843
1733860890792722400,10.917722412109375,0.002884174231439829,0.011613655835390091,-0.0019097508629783988
1733860890802673400,10.92767333984375,0.0009434460662305355,0.014242635108530521,0.003181583248078823
1733860890812623600,10.93762353515625,0.002977302297949791,0.010155215859413147,0.0033349813893437386
1733860890822574300,10.94757421875,0.0016843872144818306,0.007546974811702967,0.0031359619460999966
1733860890832525600,10.957525634765625,0.0015762625262141228,0.003710158634930849,0.0011713480344042182
1733860890842476300,10.967476318359376,0.002902017440646887,0.0036049976479262114,-0.0005249070236459374
1733860890852427500,10.977427490234374,0.002532104030251503,0.004031636286526918,-0.0025361264124512672
1733860890862377500,10.98737744140625,0.0015807822346687317,0.0063333637081086636,-0.0013566352427005768
1733860890872328400,10.997328369140625,0.0000020600855350494385,0.002505868673324585,-0.002123625483363867
1733860890882279400,11.007279541015626,-0.0006985638756304979,-0.002194023225456476,-0.003940510097891092
1733860890892230400,11.01723046875,0.00005564326420426369,-0.005525371991097927,-0.001446459791623056
1733860890902181400,11.027181396484375,-0.0008836660999804735,-0.008294005878269672,-0.001475655590184033
1733860890912132600,11.037132568359375,0.0002138223499059677,-0.008042603731155396,-0.002396310679614544
1733860890922082300,11.047082275390625,0.0037054489366710186,-0.007981130853295326,-0.0011108808685094118
1733860890932033300,11.057033203125,0.0025589577853679657,-0.008616294711828232,0.001452677883207798
1733860890941984500,11.066984619140625,0.0042921509593725204,-0.010023500770330429,-0.00010063312947750092
1733860890951935200,11.076935302734375,0.00483144074678421,-0.009019755758345127,-0.0025837644934654236
1733860890961886500,11.086886474609376,0.005300955846905708,-0.003419926855713129,-0.0028940229676663876
1733860890971836400,11.09683642578125,0.006816294975578785,-0.003737641964107752,-0.0018753637559711933
1733860890981787400,11.106787353515625,0.008066927082836628,-0.0036851647309958935,-0.0009111328981816769
1733860890991738400,11.11673828125,0.007011516019701958,-0.003489422146230936,0.0034878766164183617
1733860891001689300,11.126689453125,0.007605656050145626,-0.007025580853223801,0.00208502309396863
1733860891011640300,11.136640380859374,0.006617888808250427,-0.0075536854565143585,0.0007089679129421711
1733860891021590500,11.146590576171874,0.006936457008123398,-0.004492327570915222,-0.0018512042006477714
1733860891031541200,11.156541259765625,0.0073870643973350525,0.001289128907956183,-0.004392925184220076
1733860891041492500,11.166492431640625,0.00795716606080532,0.004031566437333822,-0.0013654889771714807
1733860891051443500,11.176443359375,0.0060836318880319595,0.0035130491014569998,0.0013802300672978163
1733860891061394400,11.18639453125,0.004564337432384491,0.0006083836778998375,0.0014550858177244663
1733860891071344400,11.196344482421875,0.0028964001685380936,0.001011852640658617,0.0032207616604864597
1733860891081295600,11.206295654296875,0.002420207019895315,0.005130142904818058,0.0035374003928154707
1733860891091246300,11.216246337890626,0.0026452443562448025,0.0047780731692910194,0.0033784096594899893
1733860891101197600,11.226197509765624,0.0023214523680508137,0.005678805056959391,0.0005734363803640008
1733860891111148300,11.236148193359375,0.0026319767348468304,0.006174152716994286,0.0012416234239935875
1733860891121099500,11.246099609375,0.0047406465746462345,0.004829236306250095,0.0034461761824786663
1733860891131049500,11.256049560546876,0.005690862890332937,0.008101461455225945,0.00483847688883543
1733860891141000400,11.26600048828125,0.0095643550157547,0.007305352948606014,0.00579158216714859
1733860891150951400,11.275951416015625,0.011867988854646683,0.0066259801387786865,0.006052571814507246
1733860891160902400,11.28590234375,0.008493832312524319,0.002907490823417902,0.004754476249217987
1733860891170853400,11.295853271484376,0.010780954733490944,-0.002738943323493004,0.002557634375989437
1733860891180803300,11.30580322265625,0.012852074578404427,-0.006376044359058142,0.00459360983222723
1733860891190754300,11.31575439453125,0.013333842158317566,-0.005154719110578299,0.004701468162238598
1733860891200705500,11.32570556640625,0.012138587422668934,-0.004388825036585331,0.004466723185032606
1733860891210656500,11.335656494140625,0.007414672523736954,-0.0020673477556556463,0.0048994868993759155
1733860891220607500,11.345607421875,0.003469782881438732,0.00345557346008718,0.005756945349276066
1733860891230557400,11.355557373046874,0.0005602794699370861,0.011536136269569397,0.004095132928341627
1733860891240508400,11.36550830078125,-0.0019454204011708498,0.01706092804670334,0.003695753403007984
1733860891250459400,11.37545947265625,-0.0038312049582600594,0.01641804166138172,0.0022893380373716354
1733860891260410400,11.385410400390626,-0.005362348631024361,0.012825347483158112,-0.0011548229958862066
1733860891270361300,11.395361328125,-0.004748756065964699,0.00989746768027544,0.0010028700344264507
1733860891280311300,11.405311279296875,-0.0038101747632026672,0.004788009449839592,-0.0023175100795924664
1733860891290262500,11.415262451171875,-0.003307370003312826,-0.00016839965246617794,0.0015286270063370466
1733860891300213200,11.425213134765626,-0.0010328958742320538,-0.004092710092663765,0.00006152503192424774
1733860891310164500,11.43516455078125,-0.0017080071847885847,-0.008983605541288853,-0.0019840491004288197
1733860891320115200,11.445115234375,-0.0014935669023543596,-0.013588940724730492,-0.004897785373032093
1733860891330066400,11.45506640625,-0.0014554837252944708,-0.01646169275045395,-0.006815261207520962
1733860891340016400,11.465016357421876,0.00041249021887779236,-0.018574610352516174,-0.006011607125401497
1733860891349967400,11.47496728515625,0.0029571405611932278,-0.017018260434269905,-0.004945543594658375
1733860891359918300,11.48491845703125,0.0019283327274024487,-0.019150683656334877,-0.0030249948613345623
1733860891369869600,11.49486962890625,0.0024007773026823997,-0.013055505231022835,-0.004021016880869865
1733860891379820300,11.5048203125,0.0007134112529456615,-0.00530835660174489,-0.0024639666080474854
1733860891389770500,11.5147705078125,0.0012620221823453903,0.0007231701165437698,-0.0016666160663589835
1733860891399721500,11.524721435546875,0.0007439940236508846,0.009437783621251583,0.0005455953069031239
1733860891409672400,11.53467236328125,0.001169833354651928,0.009492645040154457,-0.0017487179720774293
1733860891419623400,11.54462353515625,0.002089153043925762,0.007138405926525593,-0.0022462517954409122
1733860891429574400,11.554574462890624,0.005486547946929932,0.004516256973147392,-0.002020948100835085
1733860891439524400,11.5645244140625,0.008261795155704021,0.0027417500969022512,-0.0036459709517657757
1733860891449475600,11.5744755859375,0.008773121982812881,0.0028341617435216904,-0.005417772103101015
1733860891459426300,11.58442626953125,0.009320750832557678,0.0011013431940227747,-0.0038716578856110573
1733860891469377500,11.59437744140625,0.008563881739974022,-0.00003875605762004852,-0.0029262355528771877
1733860891479328500,11.60432861328125,0.008230761624872684,-0.0012658999767154455,-0.002399703487753868
1733860891489278200,11.6142783203125,0.004489020444452763,-0.0006190179847180843,0.0012056839186698198
1733860891499229400,11.6242294921875,-0.0002831437159329653,-0.0015719421207904816,0.002785123884677887
1733860891509180400,11.634180419921876,-0.0014599948190152645,-0.0010619466193020344,0.0013379622250795364
1733860891519131400,11.64413134765625,-0.0023124306462705135,-0.0026321052573621273,-0.00027908431366086006
1733860891529082400,11.654082275390625,-0.003989689517766237,-0.0015758955851197243,-0.0008596533443778753
1733860891539033300,11.664033447265625,-0.0038632629439234734,-0.0007365432102233171,-0.0002694326685741544
1733860891548983300,11.6739833984375,-0.004729589447379112,0.000290105352178216,0.0010887794196605682
1733860891558934500,11.6839345703125,-0.007093947846442461,0.00018064468167722225,0.0017830103170126677
