time,seconds_elapsed,z,y,x
1733861064264143600,0.0161435546875,-0.053624920547008514,-0.008921187371015549,-0.06952345371246338
1733861064274093600,0.026093505859375,-0.045927852392196655,-0.011046122759580612,-0.06503043323755264
1733861064284044500,0.03604443359375,-0.033711664378643036,-0.012567587196826935,-0.06329378485679626
1733861064293995500,0.04599560546875,-0.026585016399621964,-0.009891640394926071,-0.06567467749118805
1733861064303946500,0.055946533203125,-0.02795361541211605,-0.01969260349869728,-0.06507227569818497
1733861064313896700,0.065896728515625,-0.03639567270874977,-0.037559233605861664,-0.07210072129964828
1733861064323847400,0.075847412109375,-0.045452285557985306,-0.06263316422700882,-0.0863552838563919
1733861064333798700,0.085798583984375,-0.04867757111787796,-0.10316140949726105,-0.10105320811271667
1733861064343749600,0.09574951171875,-0.05113593488931656,-0.1588028222322464,-0.09456788003444672
1733861064353699600,0.105699462890625,-0.05144941061735153,-0.22056101262569427,-0.10205553472042084
1733861064363650600,0.115650634765625,-0.05742980167269707,-0.2662680447101593,-0.13248933851718903
1733861064373601800,0.125601806640625,-0.07100802659988403,-0.32561659812927246,-0.16699407994747162
1733861064383552500,0.135552490234375,-0.08516165614128113,-0.3795429468154907,-0.18785488605499268
1733861064393502700,0.145502685546875,-0.09783632308244705,-0.4296598732471466,-0.21281643211841583
1733861064403453700,0.15545361328125,-0.11442994326353073,-0.45061418414115906,-0.2359108328819275
1733861064413404700,0.16540478515625,-0.13523134589195251,-0.4887690246105194,-0.26798614859580994
1733861064423355600,0.175355712890625,-0.15723145008087158,-0.5166957378387451,-0.30198806524276733
1733861064433305600,0.1853056640625,-0.17893840372562408,-0.522970974445343,-0.33764076232910156
1733861064443256600,0.195256591796875,-0.19013486802577972,-0.5331093668937683,-0.3640638291835785
1733861064453207600,0.20520751953125,-0.19622811675071716,-0.5466176867485046,-0.4015386998653412
1733861064463158500,0.215158447265625,-0.20237548649311066,-0.5591830015182495,-0.44317349791526794
1733861064473108500,0.2251083984375,-0.332071989774704,-0.7339407205581665,-0.568131685256958
1733861064483059700,0.235059814453125,-0.40279942750930786,-0.8651738166809082,-0.6337636709213257
1733861064493010400,0.245010498046875,-0.3882785737514496,-0.9072706699371338,-0.6872736215591431
1733861064502961700,0.254961669921875,-0.36856985092163086,-1.0019404888153076,-0.7402077317237854
1733861064512911600,0.26491162109375,-0.3120808005332947,-0.9311898946762085,-0.7027773261070251
1733861064522862600,0.274862548828125,-0.2868281602859497,-0.8045206069946289,-0.6683700680732727
1733861064532813600,0.2848134765625,-0.2177443653345108,-0.818038284778595,-0.7033037543296814
1733861064542764500,0.2947646484375,-0.08125310391187668,-0.96478271484375,-0.7450900673866272
1733861064552714500,0.304714599609375,0.06812357157468796,-1.0894091129302979,-0.7897418737411499
1733861064562665700,0.314665771484375,0.20241107046604156,-1.1366881132125854,-0.8477660417556763
1733861064572616700,0.32461669921875,-0.023647626861929893,-1.272709608078003,-0.9498021602630615
1733861064582567700,0.334567626953125,-0.5092790722846985,-1.2498749494552612,-0.8890171051025391
1733861064592517600,0.344517578125,-0.6738996505737305,-1.016615867614746,-0.7817442417144775
1733861064602468600,0.354468505859375,-0.6012856364250183,-0.889530599117279,-0.8073185682296753
1733861064612419600,0.364419677734375,-0.4586758315563202,-1.0128761529922485,-0.8943184018135071
1733861064622370600,0.37437060546875,-0.34197425842285156,-1.2385820150375366,-0.91681969165802
1733861064632320800,0.38432080078125,-0.3210268020629883,-1.4201350212097168,-0.8980875611305237
1733861064642271500,0.394271484375,-0.38285741209983826,-1.4950311183929443,-0.8853477835655212
1733861064652222700,0.40422265625,-0.47452425956726074,-1.458816647529602,-0.8995489478111267
1733861064662173400,0.41417333984375,-0.5470192432403564,-1.4332830905914307,-0.9116466045379639
1733861064672123600,0.42412353515625,-0.5869823098182678,-1.4510170221328735,-0.915313720703125
1733861064682074600,0.43407470703125,-0.6006123423576355,-1.4439924955368042,-0.9260395765304565
1733861064692025600,0.444025634765625,-0.5947886109352112,-1.442456603050232,-0.9179677367210388
1733861064701976600,0.4539765625,-0.5893131494522095,-1.47554349899292,-0.8762365579605103
1733861064711926800,0.4639267578125,-0.6066992878913879,-1.4853236675262451,-0.8408218026161194
1733861064721877500,0.47387744140625,-0.6310973167419434,-1.4989089965820312,-0.781902015209198
1733861064731828700,0.483828857421875,-0.6626232862472534,-1.482556939125061,-0.7350813150405884
1733861064741779500,0.493779541015625,-0.6955394148826599,-1.4147828817367554,-0.7467275857925415
1733861064751729400,0.5037294921875,-0.7096304893493652,-1.347703456878662,-0.7479053139686584
1733861064761680600,0.5136806640625,-0.70951247215271,-1.3087973594665527,-0.7458884716033936
1733861064771631400,0.52363134765625,-0.6888181567192078,-1.2807273864746094,-0.7581828236579895
1733861064781582600,0.53358251953125,-0.655635416507721,-1.2688931226730347,-0.7351978421211243
1733861064791533800,0.543533935546875,-0.6355250477790833,-1.278157114982605,-0.680994987487793
1733861064801483500,0.5534833984375,-0.6293038725852966,-1.2872473001480103,-0.6368094086647034
1733861064811434200,0.563434326171875,-0.6398451924324036,-1.2712699174880981,-0.6110649108886719
1733861064821385500,0.573385498046875,-0.6641505360603333,-1.2273530960083008,-0.5599862337112427
1733861064831336200,0.583336181640625,-0.7096329927444458,-1.1413404941558838,-0.5044860243797302
1733861064841286400,0.593286376953125,-0.779476523399353,-1.0612869262695312,-0.4545571208000183
1733861064851237400,0.6032373046875,-0.8508650660514832,-0.9908918142318726,-0.4088803827762604
1733861064861188400,0.613188232421875,-0.9024696946144104,-0.9538533687591553,-0.3610808849334717
1733861064871139300,0.623139404296875,-0.9313655495643616,-0.9503563642501831,-0.31603601574897766
1733861064881089500,0.633089599609375,-0.9349141716957092,-0.9700731039047241,-0.2774886190891266
1733861064891040300,0.643040283203125,-0.9181147217750549,-0.9746193885803223,-0.27430596947669983
1733861064900991500,0.652991455078125,-0.8815699815750122,-0.9469443559646606,-0.3068329989910126
1733861064910942200,0.662942138671875,-0.8467659950256348,-0.9025995135307312,-0.32078641653060913
1733861064920892200,0.67289208984375,-0.8364220261573792,-0.8485434651374817,-0.3062439560890198
1733861064930843400,0.682843505859375,-0.8598607778549194,-0.7973442077636719,-0.26731863617897034
1733861064940794000,0.692794189453125,-0.8969367742538452,-0.7301313281059265,-0.22411547601222992
1733861064950745300,0.702745361328125,-0.9214494228363037,-0.6452366709709167,-0.20697787404060364
1733861064960695300,0.7126953125,-0.9111387133598328,-0.5685597658157349,-0.17426519095897675
1733861064970646300,0.722646240234375,-0.8784288763999939,-0.4852733612060547,-0.1299954056739807
1733861064980597200,0.73259716796875,-0.8459827899932861,-0.3856183886528015,-0.10613801330327988
1733861064990548500,0.742548583984375,-0.8030046820640564,-0.28032606840133667,-0.09637060761451721
1733861065000498200,0.752498291015625,-0.7537825703620911,-0.18571993708610535,-0.08471821248531342
1733861065010449400,0.762449462890625,-0.7135387063026428,-0.112477146089077,-0.0665581151843071
1733861065020400400,0.772400390625,-0.6866775155067444,-0.05863095819950104,-0.056961413472890854
1733861065030351400,0.782351318359375,-0.6733116507530212,-0.02453690953552723,-0.06328985840082169
1733861065040301300,0.79230126953125,-0.6689369082450867,-0.011465847492218018,-0.0644262284040451
1733861065050252500,0.80225244140625,-0.6649757027626038,-0.019764788448810577,-0.05865935981273651
1733861065060203300,0.812203369140625,-0.6493168473243713,-0.020236967131495476,-0.05911475419998169
1733861065070154500,0.822154541015625,-0.6303348541259766,-0.009390169754624367,-0.061415933072566986
1733861065080104400,0.8321044921875,-0.6111382246017456,0.020955219864845276,-0.06101538985967636
1733861065090055200,0.84205517578125,-0.6062902212142944,0.077921561896801,-0.05635302886366844
1733861065100006400,0.85200634765625,-0.616855263710022,0.15352603793144226,-0.04756992310285568
1733861065109957400,0.861957275390625,-0.6405262351036072,0.23116998374462128,-0.03642204776406288
1733861065119907300,0.8719072265625,-0.6752147078514099,0.2927153706550598,-0.03211811184883118
1733861065129858300,0.8818583984375,-0.7080081105232239,0.3368423581123352,-0.031732697039842606
1733861065139809300,0.891809326171875,-0.7364029884338379,0.36304253339767456,-0.026917167007923126
1733861065149760300,0.90176025390625,-0.7537547945976257,0.36319220066070557,-0.026109548285603523
1733861065159710500,0.91171044921875,-0.7464553117752075,0.3446243703365326,-0.037969671189785004
1733861065169661200,0.9216611328125,-0.7200987339019775,0.3163304030895233,-0.056151218712329865
1733861065179612400,0.9316123046875,-0.6809537410736084,0.2862209677696228,-0.07709245383739471
1733861065189563400,0.9415634765625,-0.6347469091415405,0.26632049679756165,-0.10114677250385284
1733861065199513300,0.951513427734375,-0.5839939713478088,0.25590595602989197,-0.11852043867111206
1733861065209464300,0.96146435546875,-0.5298272967338562,0.23225492238998413,-0.10971809923648834
1733861065219415600,0.97141552734375,-0.47853773832321167,0.2064496874809265,-0.09272926300764084
1733861065229366300,0.9813662109375,-0.42752569913864136,0.1927807480096817,-0.07927686721086502
1733861065239317500,0.9913173828125,-0.3758065700531006,0.20005357265472412,-0.0654422789812088
1733861065249267500,1.001267333984375,-0.31948819756507874,0.23188264667987823,-0.05352213606238365
1733861065259218400,1.011218505859375,-0.2695360779762268,0.2799375057220459,-0.036813464015722275
1733861065269169400,1.02116943359375,-0.22213862836360931,0.32603469491004944,-0.008482205681502819
1733861065279120400,1.031120361328125,-0.17826144397258759,0.35784509778022766,0.03390812873840332
1733861065289070300,1.0410703125,-0.14692914485931396,0.383567750453949,0.07450707256793976
1733861065299021300,1.051021240234375,-0.12561240792274475,0.388649046421051,0.11212848871946335
1733861065308972300,1.06097216796875,-0.11122380942106247,0.38702455163002014,0.13139225542545319
1733861065318923300,1.07092333984375,-0.09672609716653824,0.3734128773212433,0.13807839155197144
1733861065328873500,1.08087353515625,-0.08073603361845016,0.34389781951904297,0.140139639377594
1733861065338824200,1.09082421875,-0.06314612179994583,0.30941149592399597,0.1440877765417099
1733861065348775400,1.100775390625,-0.04604519158601761,0.27552860975265503,0.14381510019302368
1733861065358726100,1.11072607421875,-0.029593247920274734,0.23762944340705872,0.1318007856607437
1733861065368676400,1.12067626953125,-0.015239950269460678,0.19551478326320648,0.113653264939785
1733861065378627300,1.13062744140625,-0.007871249690651894,0.1599607765674591,0.08110623806715012
1733861065388578300,1.140578369140625,0.0019025364890694618,0.13815748691558838,0.05605323240160942
1733861065398529300,1.150529296875,0.017827706411480904,0.13743309676647186,0.04594041034579277
1733861065408479500,1.1604794921875,0.0446728877723217,0.15080243349075317,0.049818653613328934
1733861065418430200,1.17043017578125,0.0806649774312973,0.14973770081996918,0.06128862127661705
1733861065428381400,1.18038134765625,0.1269930601119995,0.1187310442328453,0.04273352026939392
1733861065438332400,1.19033251953125,0.1993972212076187,0.05315177142620087,0.0008499858668074012
1733861065448282400,1.200282470703125,0.2882229685783386,-0.02427510917186737,-0.049591291695833206
1733861065458233300,1.2102333984375,0.3727668821811676,-0.1105966866016388,-0.10476266592741013
1733861065468184300,1.220184326171875,0.4592016041278839,-0.1949339509010315,-0.17247642576694489
1733861065478135300,1.23013525390625,0.5481075644493103,-0.25498127937316895,-0.23481357097625732
1733861065488085200,1.240085205078125,0.6146355271339417,-0.2838619351387024,-0.26224780082702637
1733861065498036500,1.250036376953125,0.634030818939209,-0.293007493019104,-0.2441316395998001
1733861065507987200,1.2599873046875,0.6269243359565735,-0.28108930587768555,-0.19808627665042877
1733861065517938400,1.2699384765625,0.5818178057670593,-0.2501298189163208,-0.11712485551834106
1733861065527888400,1.279888427734375,0.48273810744285583,-0.20734718441963196,-0.011107487604022026
1733861065537839400,1.28983935546875,0.3545210361480713,-0.1572968065738678,0.08959116041660309
1733861065547790300,1.299790283203125,0.22504134476184845,-0.10300267487764359,0.17492103576660156
1733861065557741300,1.3097412109375,0.13059233129024506,-0.04294147342443466,0.2329917997121811
1733861065567691300,1.319691162109375,0.07739698141813278,0.019428690895438194,0.27066344022750854
1733861065577642500,1.329642578125,0.050470031797885895,0.08415815234184265,0.30472099781036377
1733861065587593200,1.33959326171875,0.034868113696575165,0.14546038210391998,0.320525586605072
1733861065597544400,1.34954443359375,0.02147294580936432,0.19436347484588623,0.31023406982421875
1733861065607494400,1.359494384765625,0.005928892642259598,0.20521026849746704,0.2902882397174835
1733861065617445000,1.369445068359375,-0.010039420798420906,0.19202522933483124,0.26486650109291077
1733861065627396400,1.379396240234375,-0.013553980737924576,0.1694117933511734,0.22491975128650665
1733861065637347600,1.38934765625,-0.005713368766009808,0.1369449347257614,0.1874203085899353
1733861065647297300,1.39929736328125,0.0010602008551359177,0.09895734488964081,0.15233920514583588
1733861065657248300,1.409248291015625,-0.00107006193138659,0.06988894194364548,0.1153806522488594
1733861065667199500,1.419199462890625,-0.010399690829217434,0.057041317224502563,0.08529163151979446
1733861065677150200,1.429150146484375,-0.02906392142176628,0.0554700531065464,0.06531472504138947
1733861065687101400,1.439101318359375,-0.04427529126405716,0.06312824785709381,0.04669344052672386
1733861065697051400,1.449051513671875,-0.05479824170470238,0.07770851999521255,0.027527201920747757
1733861065707002400,1.45900244140625,-0.05442263185977936,0.07660701125860214,0.005671666469424963
1733861065716953300,1.468953369140625,-0.053623951971530914,0.05122203007340431,-0.014819493517279625
1733861065726904300,1.478904296875,-0.053541868925094604,0.004055325407534838,-0.046802252531051636
1733861065736854300,1.488854248046875,-0.05527745187282562,-0.06130078062415123,-0.08529132604598999
1733861065746805500,1.498805419921875,-0.07240449637174606,-0.13730287551879883,-0.13145549595355988
1733861065756756200,1.508756103515625,-0.10022414475679398,-0.21282638609409332,-0.17792606353759766
1733861065766707500,1.51870751953125,-0.1339654177427292,-0.268044114112854,-0.21862632036209106
1733861065776657400,1.528657470703125,-0.16184258460998535,-0.30161112546920776,-0.2515009343624115
1733861065786608400,1.5386083984375,-0.18500350415706635,-0.309632807970047,-0.2710781395435333
1733861065796559000,1.54855908203125,-0.19778987765312195,-0.3032204508781433,-0.2861601710319519
1733861065806510000,1.558510009765625,-0.21071253716945648,-0.2879192531108856,-0.299757719039917
1733861065816460000,1.5684599609375,-0.222516730427742,-0.26198992133140564,-0.30982980132102966
1733861065826411000,1.578410888671875,-0.2346412092447281,-0.2246313989162445,-0.31171998381614685
1733861065836362200,1.5883623046875,-0.2407691329717636,-0.17226752638816833,-0.30313846468925476
1733861065846313000,1.59831298828125,-0.23905499279499054,-0.10697478801012039,-0.2863055467605591
1733861065856263200,1.60826318359375,-0.2313358187675476,-0.02391958050429821,-0.2674591541290283
1733861065866214100,1.618214111328125,-0.22802315652370453,0.055456992238759995,-0.24340587854385376
1733861065876165000,1.6281650390625,-0.23428025841712952,0.12148793786764145,-0.21361443400382996
1733861065886116000,1.6381162109375,-0.2485686093568802,0.18404026329517365,-0.18296262621879578
1733861065896066000,1.648066162109375,-0.2602686583995819,0.24881979823112488,-0.15405908226966858
1733861065906017000,1.65801708984375,-0.2791382074356079,0.32358381152153015,-0.12978099286556244
1733861065915968000,1.667968017578125,-0.2908305525779724,0.39356979727745056,-0.10156133770942688
1733861065925919000,1.6779189453125,-0.29458996653556824,0.4334056079387665,-0.06681061536073685
1733861065935869000,1.687868896484375,-0.28384408354759216,0.44426465034484863,-0.031352218240499496
1733861065945820200,1.697820068359375,-0.2588393986225128,0.4361574649810791,-0.009519536979496479
1733861065955771000,1.70777099609375,-0.22964051365852356,0.4064190089702606,0.012563927099108696
1733861065965722000,1.71772216796875,-0.20136450231075287,0.3657730519771576,0.023283246904611588
1733861065975672000,1.727672119140625,-0.1825346201658249,0.31252530217170715,0.02607104368507862
1733861065985623000,1.737623046875,-0.17028670012950897,0.24423888325691223,0.02717435732483864
1733861065995574000,1.747573974609375,-0.17052559554576874,0.1505749672651291,0.038576945662498474
1733861066005525000,1.75752490234375,-0.17954827845096588,0.03954487666487694,0.046103719621896744
1733861066015475000,1.767474853515625,-0.1853259950876236,-0.07016084343194962,0.0390804298222065
1733861066025426200,1.77742626953125,-0.1956634372472763,-0.16624106466770172,0.031803786754608154
1733861066035377200,1.787377197265625,-0.19638222455978394,-0.2403821349143982,0.026149630546569824
1733861066045328100,1.797328125,-0.18380305171012878,-0.2875533699989319,0.023437675088644028
1733861066055278000,1.807278076171875,-0.17154131829738617,-0.30886319279670715,0.021337240934371948
1733861066065229000,1.81722900390625,-0.1633785516023636,-0.3150360882282257,0.020976385101675987
1733861066075180000,1.827179931640625,-0.15312990546226501,-0.31709420680999756,0.018081795424222946
1733861066085131300,1.83713134765625,-0.1404215544462204,-0.3177405297756195,0.005757544655352831
1733861066095081200,1.847081298828125,-0.12010776251554489,-0.2996038794517517,-0.014740006998181343
1733861066105032000,1.857031982421875,-0.0961121916770935,-0.2656312584877014,-0.03788669779896736
1733861066114983200,1.866983154296875,-0.06997565925121307,-0.21301759779453278,-0.0498589389026165
1733861066124934000,1.876933837890625,-0.05183034390211105,-0.15043732523918152,-0.04585014283657074
1733861066134885000,1.886885009765625,-0.026444029062986374,-0.08316721767187119,-0.03755892440676689
1733861066144835000,1.8968349609375,0.0015397649258375168,-0.004348544403910637,-0.02911747246980667
1733861066154786000,1.9067861328125,0.036242350935935974,0.08660213649272919,-0.023439880460500717
1733861066164737000,1.916737060546875,0.07523550093173981,0.19676512479782104,-0.025391651317477226
1733861066174688000,1.92668798828125,0.11259725689888,0.3338840901851654,-0.04667803272604942
1733861066184638000,1.936637939453125,0.14134852588176727,0.41687220335006714,-0.034036923199892044
1733861066194589200,1.946589111328125,0.147663414478302,0.4631020128726959,-0.006404762156307697
1733861066204540000,1.956539794921875,0.13276457786560059,0.4853295087814331,-0.0015388421015813947
1733861066214491100,1.9664912109375,0.10232410579919815,0.4942236840724945,-0.014876218512654305
1733861066224441000,1.976441162109375,0.06217348575592041,0.49308252334594727,-0.031909532845020294
1733861066234392000,1.98639208984375,0.015394264832139015,0.46863096952438354,-0.0585443377494812
1733861066244343000,1.996343017578125,-0.032415006309747696,0.4459962546825409,-0.10134267061948776
1733861066254294300,2.006294189453125,-0.0917062982916832,0.41047343611717224,-0.15147213637828827
1733861066264244000,2.016243896484375,-0.16246718168258667,0.3603487014770508,-0.19980832934379578
1733861066274195000,2.02619482421875,-0.2361624389886856,0.31065306067466736,-0.23492291569709778
1733861066284146200,2.036146240234375,-0.29436245560646057,0.2649580240249634,-0.26181504130363464
1733861066294097000,2.046096923828125,-0.32141590118408203,0.23199662566184998,-0.28480878472328186
1733861066304047000,2.056047119140625,-0.3154510259628296,0.22686602175235748,-0.30810341238975525
1733861066313998000,2.065998046875,-0.29603418707847595,0.2604585886001587,-0.338051974773407
1733861066323949000,2.075948974609375,-0.27403855323791504,0.3255697190761566,-0.3653295338153839
1733861066333900000,2.085900146484375,-0.2579866051673889,0.3848381042480469,-0.38170742988586426
1733861066343850200,2.095850341796875,-0.24291639029979706,0.43370282649993896,-0.3909359276294708
1733861066353801000,2.105801025390625,-0.21898096799850464,0.47350427508354187,-0.3937666118144989
1733861066363752200,2.115752197265625,-0.18398775160312653,0.511191189289093,-0.398271769285202
1733861066373703000,2.125702880859375,-0.15447033941745758,0.5774312019348145,-0.39434918761253357
1733861066383653000,2.135653076171875,-0.11888941377401352,0.6796066164970398,-0.3728666305541992
1733861066393604000,2.14560400390625,-0.08468324691057205,0.802806556224823,-0.33981919288635254
1733861066403555000,2.15555517578125,-0.03736899048089981,0.9353094696998596,-0.29165247082710266
1733861066413506000,2.165506103515625,0.03815368935465813,1.0281909704208374,-0.23777492344379425
1733861066423456000,2.1754560546875,0.0955786481499672,1.0736109018325806,-0.16782575845718384
1733861066433407000,2.185406982421875,0.13525229692459106,1.057062029838562,-0.10220227390527725
1733861066443358000,2.19535791015625,0.14850834012031555,0.9645472764968872,-0.05119084566831589
1733861066453309200,2.20530908203125,0.14044588804244995,0.829479992389679,-0.02262870967388153
1733861066463259000,2.2152587890625,0.12512260675430298,0.6766259670257568,-0.01390673965215683
1733861066473210000,2.225210205078125,0.09989794343709946,0.4934108853340149,-0.016161104664206505
1733861066483161000,2.2351611328125,0.051097571849823,0.29040268063545227,-0.02147090807557106
1733861066493112000,2.245112060546875,-0.01430167444050312,0.08582290261983871,-0.02067994885146618
1733861066503063000,2.25506298828125,-0.07378354668617249,-0.10204848647117615,-0.012157664634287357
1733861066513013200,2.26501318359375,-0.12230447679758072,-0.2556614875793457,0.021956097334623337
1733861066522964000,2.2749638671875,-0.1539345681667328,-0.3578033149242401,0.07430165261030197
1733861066532915200,2.284915283203125,-0.1576414257287979,-0.4063490033149719,0.12772972881793976
1733861066542866000,2.294865966796875,-0.12580013275146484,-0.4110287129878998,0.1614633947610855
1733861066552816000,2.304816162109375,-0.06894058734178543,-0.37582385540008545,0.18428614735603333
1733861066562767000,2.31476708984375,-0.0038066261913627386,-0.3164297640323639,0.19523757696151733
1733861066572718000,2.324718017578125,0.05372137948870659,-0.26724010705947876,0.20870783925056458
1733861066582669000,2.3346689453125,0.09213507920503616,-0.22951723635196686,0.21068118512630463
1733861066592619000,2.344618896484375,0.10841578245162964,-0.19950634241104126,0.20242618024349213
1733861066602570000,2.354570068359375,0.10316385328769684,-0.16764453053474426,0.19132164120674133
1733861066612521000,2.36452099609375,0.08473184704780579,-0.13190704584121704,0.18320006132125854
1733861066622472000,2.374471923828125,0.06317096203565598,-0.0901835486292839,0.1684541404247284
1733861066632422000,2.384421875,0.04178471118211746,-0.051619645208120346,0.1583746075630188
1733861066642373000,2.394373046875,0.026273613795638084,-0.020935242995619774,0.15507400035858154
1733861066652323800,2.40432373046875,0.009082643315196037,-0.004214053973555565,0.15263454616069794
1733861066662275000,2.414275146484375,-0.007423017639666796,-0.009612804278731346,0.14646172523498535
1733861066672225000,2.42422509765625,-0.021318592131137848,-0.03450830280780792,0.13260716199874878
1733861066682176000,2.434176025390625,-0.03729228675365448,-0.0698857381939888,0.11571484804153442
1733861066692127000,2.444126953125,-0.0592561736702919,-0.1081702783703804,0.101075179874897
1733861066702078200,2.454078125,-0.07485032826662064,-0.1486431360244751,0.08656749129295349
1733861066712028000,2.46402783203125,-0.08717090636491776,-0.1831425130367279,0.08113997429609299
1733861066721979100,2.473979248046875,-0.08443664759397507,-0.20864707231521606,0.08612667769193649
1733861066731930000,2.48393017578125,-0.07112856954336166,-0.2235434651374817,0.09538809210062027
1733861066741881000,2.493881103515625,-0.048449546098709106,-0.23732319474220276,0.10630790889263153
1733861066751831000,2.5038310546875,-0.01934812031686306,-0.25388726592063904,0.1177067756652832
1733861066761782300,2.5137822265625,0.01267094537615776,-0.2733669579029083,0.13252359628677368
1733861066771733000,2.52373291015625,0.0395214706659317,-0.28688594698905945,0.14729854464530945
1733861066781684200,2.533684326171875,0.06413231045007706,-0.2897741496562958,0.1617335081100464
1733861066791635000,2.543635009765625,0.0901535227894783,-0.29169028997421265,0.182271808385849
1733861066801584600,2.553584716796875,0.10654102265834808,-0.29053953289985657,0.20245429873466492
1733861066811536000,2.563535888671875,0.11618486046791077,-0.2852315902709961,0.22472764551639557
1733861066821486600,2.573486572265625,0.11603403836488724,-0.2723163664340973,0.24429450929164886
1733861066831437800,2.583437744140625,0.11327926814556122,-0.2499958723783493,0.2554081380367279
1733861066841387800,2.5933876953125,0.11122896522283554,-0.21459633111953735,0.25700077414512634
1733861066851338800,2.6033388671875,0.10699533671140671,-0.1652655303478241,0.24257975816726685
1733861066861289700,2.613289794921875,0.0978696197271347,-0.1044517382979393,0.22319656610488892
1733861066871241000,2.623240966796875,0.07954706996679306,-0.045255258679389954,0.201952263712883
1733861066881190700,2.633190673828125,0.054452501237392426,0.012798482552170753,0.1871345490217209
1733861066891142000,2.643141845703125,0.02468395233154297,0.05037648230791092,0.17648030817508698
1733861066901092900,2.6530927734375,-0.003057998139411211,0.06306856125593185,0.16032685339450836
1733861066911043800,2.6630439453125,-0.02819078043103218,0.05659948289394379,0.14019735157489777
1733861066920993800,2.672993896484375,-0.0424436554312706,0.04532020911574364,0.11626860499382019
1733861066930945000,2.682945068359375,-0.05311520770192146,0.03275701403617859,0.0933116227388382
1733861066940895700,2.692895751953125,-0.05741821601986885,0.03101634792983532,0.07010392099618912
1733861066950847000,2.702846923828125,-0.058400124311447144,0.032916512340307236,0.05092277005314827
1733861066960797000,2.712796875,-0.0670720785856247,0.03925192356109619,0.03600723296403885
1733861066970747600,2.72274755859375,-0.08125288039445877,0.04871387034654617,0.02614021860063076
1733861066980699000,2.732698974609375,-0.10245884209871292,0.06548352539539337,0.017322907224297523
1733861066990649600,2.742649658203125,-0.12566909193992615,0.08663541823625565,0.013563589192926884
1733861067000599800,2.752599853515625,-0.14270980656147003,0.10397233814001083,0.010785587131977081
1733861067010550800,2.76255078125,-0.15426579117774963,0.11025659739971161,0.016104454174637794
1733861067020501800,2.772501708984375,-0.15939132869243622,0.10410789400339127,0.0188735481351614
1733861067030452700,2.78245263671875,-0.15921901166439056,0.09442117810249329,0.021784117445349693
1733861067040403000,2.79240283203125,-0.15260249376296997,0.08762530237436295,0.014678922481834888
1733861067050353700,2.802353759765625,-0.1451730728149414,0.07743844389915466,0.0025948290713131428
1733861067060305000,2.812304931640625,-0.14255104959011078,0.06304967403411865,-0.009523379616439342
1733861067070255900,2.822255859375,-0.14229539036750793,0.04877220466732979,-0.024540146812796593
1733861067080205800,2.832205810546875,-0.1414201557636261,0.03604067116975784,-0.04448553919792175
1733861067090156800,2.84215673828125,-0.14090563356876373,0.02344605140388012,-0.07023164629936218
1733861067100108000,2.85210791015625,-0.1419476866722107,0.014137511141598225,-0.09608052670955658
1733861067110058800,2.862058837890625,-0.14437595009803772,0.0008272987324744463,-0.12481603026390076
1733861067120010000,2.872010009765625,-0.1530144065618515,-0.01724676601588726,-0.14964047074317932
1733861067129960000,2.8819599609375,-0.16269844770431519,-0.03580474108457565,-0.1684754192829132
1733861067139910700,2.89191064453125,-0.17470403015613556,-0.05313872918486595,-0.17608001828193665
1733861067149862000,2.90186181640625,-0.18436944484710693,-0.06752965599298477,-0.17749574780464172
1733861067159812600,2.9118125,-0.19125163555145264,-0.07788003981113434,-0.17830157279968262
1733861067169762800,2.9217626953125,-0.19623415172100067,-0.09203873574733734,-0.18241508305072784
1733861067179713800,2.9317138671875,-0.19219310581684113,-0.10402777045965195,-0.18737195432186127
1733861067189664800,2.941664794921875,-0.18732431530952454,-0.10752689838409424,-0.1843351572751999
1733861067199615700,2.95161572265625,-0.17772617936134338,-0.10813087224960327,-0.16710318624973297
1733861067209566000,2.96156591796875,-0.16283991932868958,-0.10508288443088531,-0.1315332055091858
1733861067219516700,2.9715166015625,-0.1389857977628708,-0.10171134769916534,-0.08143071085214615
1733861067229468000,2.981468017578125,-0.10325949639081955,-0.09321533143520355,-0.02795230597257614
1733861067239418600,2.991418701171875,-0.049811456352472305,-0.06823274493217468,0.02362966164946556
1733861067249368800,3.001368896484375,0.016082342714071274,-0.03255145251750946,0.07101209461688995
1733861067259319800,3.01131982421875,0.07749270647764206,0.011750500649213791,0.11262025684118271
1733861067269270800,3.021270751953125,0.12475423514842987,0.05061427503824234,0.14054322242736816
1733861067279221800,3.0312216796875,0.14508365094661713,0.06751152873039246,0.15991048514842987
1733861067289171700,3.041171630859375,0.14608579874038696,0.06571869552135468,0.1723535656929016
1733861067299122700,3.051122802734375,0.12740258872509003,0.04454043135046959,0.17503122985363007
1733861067309073700,3.06107373046875,0.10842704772949219,0.015356447547674179,0.16886068880558014
1733861067319025000,3.07102490234375,0.09098871052265167,-0.012855474837124348,0.15099023282527924
1733861067328974800,3.080974853515625,0.07500814646482468,-0.036636970937252045,0.12341691553592682
1733861067338925800,3.09092578125,0.05349664390087128,-0.04748004674911499,0.0997273251414299
1733861067348876800,3.100876708984375,0.03166325017809868,-0.045397721230983734,0.08047454059123993
1733861067358827800,3.110827880859375,0.011028727516531944,-0.03054981864988804,0.0672069638967514
1733861067368777700,3.12077783203125,-0.0037696599029004574,-0.005365636199712753,0.05901854485273361
1733861067378729000,3.13072900390625,-0.012589211575686932,0.03120889514684677,0.05014923959970474
1733861067388679700,3.1406796875,-0.014695239253342152,0.07154487073421478,0.03881988674402237
1733861067398631000,3.150630859375,-0.0139151057228446,0.11289419233798981,0.02758323960006237
1733861067408581600,3.16058154296875,-0.015103674493730068,0.14912410080432892,0.02216850034892559
1733861067418531800,3.17053173828125,-0.02975858375430107,0.17585130035877228,0.02117721177637577
1733861067428482800,3.18048291015625,-0.038938768208026886,0.18747706711292267,0.026246804744005203
1733861067438433800,3.190433837890625,-0.05146866664290428,0.1867247372865677,0.03088396042585373
1733861067448384800,3.200384765625,-0.052819687873125076,0.17323502898216248,0.030000589787960052
1733861067458334700,3.210334716796875,-0.051042549312114716,0.15307942032814026,0.0252821184694767
1733861067468285700,3.22028564453125,-0.0492507740855217,0.1302928775548935,0.01812354288995266
1733861067478237000,3.23023681640625,-0.045993171632289886,0.10355794429779053,0.012395527213811874
1733861067488188000,3.24018798828125,-0.05095703899860382,0.07587625086307526,0.015806769952178
1733861067498137600,3.2501376953125,-0.06539565324783325,0.04518650844693184,0.01906289905309677
1733861067508088800,3.2600888671875,-0.08193015307188034,0.01805821806192398,0.020954009145498276
1733861067518039800,3.270039794921875,-0.09484030306339264,-0.004238555673509836,0.023095663636922836
1733861067527990800,3.27999072265625,-0.10191099345684052,-0.024308137595653534,0.024112727493047714
1733861067537940700,3.289940673828125,-0.10494854301214218,-0.035213567316532135,0.020747538655996323
1733861067547892000,3.29989208984375,-0.10261241346597672,-0.03833186253905296,0.014975136145949364
1733861067557842700,3.3098427734375,-0.09785635769367218,-0.03296607732772827,0.004807233810424805
1733861067567794000,3.3197939453125,-0.09590079635381699,-0.021933667361736298,-0.0031649386510252953
1733861067577744000,3.329743896484375,-0.09798794239759445,-0.0031826216727495193,-0.00585709884762764
1733861067587694800,3.33969482421875,-0.1020926758646965,0.01287836953997612,0.0004466035170480609
1733861067597645800,3.349645751953125,-0.103155218064785,0.026357971131801605,0.005924194119870663
1733861067607596800,3.3595966796875,-0.09374440461397171,0.039408259093761444,0.010175664909183979
1733861067617546800,3.369546630859375,-0.07634174078702927,0.05679602921009064,0.008052296005189419
1733861067627498000,3.379498046875,-0.05730866640806198,0.07809359580278397,0.005041858647018671
1733861067637448700,3.38944873046875,-0.046142276376485825,0.09140514582395554,0.004872126970440149
1733861067647400000,3.39939990234375,-0.04092168062925339,0.09613252431154251,0.007134215906262398
1733861067657350000,3.409349853515625,-0.03641348332166672,0.09166933596134186,0.010242924094200134
1733861067667300600,3.419300537109375,-0.03412343189120293,0.08554832637310028,0.012947630137205124
1733861067677251800,3.429251953125,-0.028677061200141907,0.07740569114685059,0.016643298789858818
1733861067687202800,3.439202880859375,-0.019442817196249962,0.06967400759458542,0.020606348291039467
1733861067697153800,3.44915380859375,-0.011548181995749474,0.06274738162755966,0.022183384746313095
1733861067707103700,3.459103759765625,-0.006756622344255447,0.05152801424264908,0.023980487138032913
1733861067717054700,3.4690546875,-0.004616739694029093,0.038585592061281204,0.022006047889590263
1733861067727005700,3.479005615234375,-0.007456202059984207,0.02814626879990101,0.01975221373140812
1733861067736957000,3.48895703125,-0.012385918758809566,0.020941363647580147,0.02156156674027443
1733861067746907000,3.498906982421875,-0.0198957659304142,0.017743173986673355,0.02245851792395115
1733861067756857900,3.50885791015625,-0.024318557232618332,0.014712214469909668,0.022894300520420074
1733861067766808800,3.518808837890625,-0.028690937906503677,0.015332996845245361,0.022849826142191887
1733861067776759800,3.528759765625,-0.026354804635047913,0.016103185713291168,0.022390488535165787
1733861067786709800,3.538709716796875,-0.021076953038573265,0.016747936606407166,0.020979279652237892
1733861067796661500,3.54866162109375,-0.016271088272333145,0.020426275208592415,0.01825602538883686
1733861067806612500,3.558612548828125,-0.01191415823996067,0.02328970469534397,0.015622159466147423
1733861067816563500,3.5685634765625,-0.008817337453365326,0.022007683292031288,0.012949228286743164
1733861067826513400,3.578513427734375,-0.004216460045427084,0.02046198584139347,0.008406407199800014
1733861067836464400,3.58846435546875,-0.00030773202888667583,0.021743500605225563,0.0055307853035628796
1733861067846415600,3.59841552734375,0.0015391702763736248,0.021410604938864708,0.002357362536713481
1733861067856366300,3.608366455078125,0.0039655230939388275,0.025222906842827797,0.004009116441011429
1733861067866316300,3.61831640625,0.00637035770341754,0.025013050064444542,0.0035201599821448326
1733861067876267500,3.628267578125,0.00558642391115427,0.02554117515683174,0.001029392471536994
1733861067886218200,3.63821826171875,0.004367228597402573,0.02529270201921463,0.0017630932852625847
1733861067896169500,3.64816943359375,0.0009383480064570904,0.020101390779018402,0.0012749356683343649
1733861067906120400,3.658120361328125,-0.0008078867103904486,0.015016085468232632,-0.0001309470972046256
1733861067916070400,3.6680703125,-0.006764987483620644,0.011519907042384148,-0.006445564329624176
1733861067926021400,3.678021484375,-0.0061857495456933975,0.009536119177937508,-0.007782471366226673
1733861067935972400,3.687972412109375,-0.00802534632384777,0.011208558455109596,-0.0033080673310905695
1733861067945923300,3.69792333984375,-0.010682914406061172,0.010559013113379478,0.0010352819226682186
1733861067955873500,3.70787353515625,-0.009480789303779602,0.008282003924250603,0.0002906931331381202
1733861067965824300,3.71782421875,-0.009312477894127369,0.0073616160079836845,-0.0006448752246797085
1733861067975775500,3.727775390625,-0.009964476339519024,0.007190092466771603,0.0015903214225545526
1733861067985726500,3.7377265625,-0.009475253522396088,0.008700903505086899,0.00041320419404655695
1733861067995676400,3.747676513671875,-0.011955119669437408,0.007778403349220753,0.001382174203172326
1733861068005627400,3.75762744140625,-0.015771429985761642,0.003863024292513728,0.0019603464752435684
1733861068015578600,3.76757861328125,-0.015243742614984512,0.00009520608000457287,0.0038737673312425613
1733861068025529300,3.777529296875,-0.016802489757537842,0.0013205265859141946,0.00437577348202467
1733861068035479600,3.7874794921875,-0.016536181792616844,0.0018662071088328958,0.006027406081557274
1733861068045430500,3.797430419921875,-0.013043446466326714,0.0010299745481461287,0.008972596377134323
1733861068055381500,3.807381591796875,-0.01546860858798027,0.00577571103349328,0.011988123878836632
1733861068065332500,3.81733251953125,-0.01702256314456463,0.010760616511106491,0.013922110199928284
1733861068075282400,3.827282470703125,-0.020252197980880737,0.016775626689195633,0.013892905786633492
1733861068085233400,3.8372333984375,-0.020590152591466904,0.021004725247621536,0.014328865334391594
1733861068095184400,3.847184326171875,-0.022706832736730576,0.023951780050992966,0.012176498770713806
1733861068105135400,3.85713525390625,-0.021674592047929764,0.024259109050035477,0.012608995661139488
1733861068115085300,3.867085205078125,-0.019280219450592995,0.0220625139772892,0.010936626233160496
1733861068125036500,3.87703662109375,-0.01926104538142681,0.019387900829315186,0.009390927851200104
1733861068134987300,3.8869873046875,-0.015128243714571,0.018424930050969124,0.011113659478724003
1733861068144938500,3.8969384765625,-0.013308504596352577,0.02085799351334572,0.013138193637132645
1733861068154888400,3.906888427734375,-0.016766412183642387,0.017121031880378723,0.01046678051352501
1733861068164839400,3.91683935546875,-0.017719024792313576,0.010322781279683113,0.00604806374758482
1733861068174790400,3.926790283203125,-0.01752636581659317,0.003219089936465025,0.0012138308957219124
1733861068184741400,3.936741455078125,-0.014181967824697495,0.0003314244095236063,-0.004827816504985094
1733861068194692400,3.9466923828125,-0.01190216839313507,-0.0010281491558998823,-0.004638311918824911
1733861068204642600,3.956642578125,-0.008238989859819412,0.0014946635346859694,-0.0062713623046875
1733861068214593500,3.966593505859375,-0.004831512458622456,0.008259347639977932,-0.004996325355023146
1733861068224544500,3.97654443359375,-0.0026264151092618704,0.01447729580104351,-0.0034650075249373913
1733861068234495500,3.98649560546875,-0.004175265785306692,0.01745099574327469,-0.002638752106577158
1733861068244445400,3.996445556640625,-0.002347538247704506,0.020658239722251892,0.00004970887675881386
1733861068254396400,4.006396484375,-0.001750031253322959,0.026219485327601433,-0.0012724658008664846
1733861068264347400,4.016347412109375,-0.0034240942914038897,0.030883746221661568,0.00035898666828870773
1733861068274298400,4.02629833984375,-0.0040978738106787205,0.0368950329720974,-0.001053287647664547
1733861068284248300,4.036248291015625,-0.00504249706864357,0.04050601273775101,-0.00359021476469934
1733861068294199600,4.046199462890625,-0.009876523166894913,0.036169297993183136,-0.003224561922252178
1733861068304150300,4.056150390625,-0.00820885132998228,0.027442917227745056,-0.005160946398973465
1733861068314101500,4.0661015625,-0.007050090003758669,0.019041182473301888,-0.0043130856938660145
1733861068324051500,4.076051513671875,-0.0034249951131641865,0.01292336918413639,-0.00472294632345438
1733861068334002400,4.08600244140625,-0.000851387158036232,0.012461026199162006,-0.00459815701469779
1733861068343953400,4.095953369140625,0.0003060228191316128,0.012921753339469433,-0.004803486634045839
1733861068353904400,4.105904296875,-0.0012060357257723808,0.016810521483421326,-0.007251500152051449
1733861068363854300,4.115854248046875,-0.005462033674120903,0.01894664205610752,-0.007039512507617474
1733861068373805600,4.1258056640625,-0.0082761961966753,0.014290372841060162,-0.006601688452064991
1733861068383756300,4.13575634765625,-0.010357456281781197,0.011197644285857677,-0.00692419707775116
1733861068393707500,4.14570751953125,-0.008292941376566887,0.007079604547470808,-0.005759567953646183
1733861068403657500,4.155657470703125,-0.009740369394421577,0.007206903770565987,-0.007505269721150398
1733861068413608200,4.165608154296875,-0.010206940583884716,0.009449287317693233,-0.006286488380283117
1733861068423559400,4.175559326171875,-0.00891184527426958,0.00609130784869194,-0.007261738646775484
1733861068433510700,4.1855107421875,-0.007472487166523933,0.0036475746892392635,-0.007616114802658558
1733861068443461400,4.19546142578125,-0.0058937654830515385,0.0028582136146724224,-0.009575668722391129
1733861068453411300,4.205411376953125,-0.003205570625141263,0.0032891130540519953,-0.007865918800234795
1733861068463362600,4.215362548828125,-0.0014854350592941046,0.0041985828429460526,-0.004559870809316635
1733861068473313300,4.225313232421875,0.0005493704229593277,0.004813533276319504,-0.001302321208640933
1733861068483264500,4.235264404296875,0.0011461847461760044,0.00609877472743392,0.0007339316653087735
1733861068493214500,4.24521435546875,-0.0005735810846090317,0.0074218036606907845,0.00324147567152977
1733861068503165400,4.25516552734375,-0.0021962453611195087,0.010095084086060524,0.0007884380174800754
1733861068513116400,4.265116455078125,-0.007565171457827091,0.008037794381380081,-0.0015532209072262049
1733861068523067400,4.2750673828125,-0.006611759774386883,0.003704032162204385,0.00011951057240366936
1733861068533017300,4.285017333984375,-0.006774932146072388,0.00013408157974481583,-0.0004947055131196976
1733861068542968600,4.294968505859375,-0.004290468990802765,0.0014033440966159105,-0.0002225304488092661
1733861068552919300,4.304919189453125,-0.0021309047006070614,0.003766634501516819,0.0024164551869034767
1733861068562870500,4.31487060546875,-0.0022896290756762028,0.00464441254734993,0.0014393413439393044
1733861068572820500,4.324820556640625,-0.0020699722226709127,0.008072689175605774,0.004470344632863998
1733861068582771500,4.334771484375,-0.005905989557504654,0.009138752706348896,0.004924946464598179
1733861068592722400,4.344722412109375,-0.005695033818483353,0.009518260136246681,0.005903953220695257
1733861068602673400,4.35467333984375,-0.0033511854708194733,0.006398633122444153,0.003925224766135216
1733861068612623400,4.364623291015625,0.00036920374259352684,0.005122169852256775,0.005953608080744743
1733861068622574300,4.37457421875,0.0011391239240765572,0.0004946612752974033,0.003448904724791646
1733861068632525600,4.384525634765625,0.0005513443611562252,-0.001972229452803731,-0.0004935490433126688
1733861068642476300,4.394476318359375,-0.0018436361569911242,-0.004200495779514313,-0.0010549435392022133
1733861068652427500,4.404427490234375,-0.004479627124965191,-0.0031003428157418966,-0.00014381716027855873
1733861068662377500,4.41437744140625,-0.005049010738730431,-0.004234583117067814,0.00024207495152950287
1733861068672328400,4.424328369140625,-0.005635464563965797,0.0008118341211229563,0.005483473651111126
1733861068682279400,4.434279541015625,-0.005178465973585844,0.006937903352081776,0.005020350217819214
1733861068692230400,4.44423046875,-0.004622683394700289,0.015505819581449032,0.006244163028895855
1733861068702180400,4.454180419921875,-0.0009094378910958767,0.01919296570122242,0.00403320649638772
1733861068712131600,4.464131591796875,-0.0026472709141671658,0.02060740254819393,0.002150583313778043
1733861068722082300,4.474082275390625,-0.001664564711973071,0.018167948350310326,0.0008522922289557755
1733861068732033500,4.484033447265625,-0.00180768349673599,0.012744398787617683,0.0009429599740542471
1733861068741983500,4.4939833984375,-0.003974963910877705,0.00899280421435833,0.00125188659876585
1733861068751934500,4.5039345703125,-0.005301438271999359,0.005581570789217949,-0.002681189915165305
1733861068761885400,4.513885498046875,-0.006496132351458073,-0.0003689960576593876,-0.001155731501057744
1733861068771836400,4.52383642578125,-0.006768132094293833,-0.00509000476449728,-0.0023541776463389397
1733861068781786400,4.533786376953125,-0.006436035968363285,-0.012014755979180336,-0.0005091394996270537
1733861068791737300,4.5437373046875,-0.0029656770639121532,-0.015152493491768837,-0.004952149465680122
1733861068801688300,4.553688232421875,-0.0008159736171364784,-0.014735976234078407,-0.00548158586025238
1733861068811639000,4.56363916015625,-0.00007770047523081303,-0.011629918590188026,-0.010649572126567364
1733861068821589000,4.573589111328125,0.00043895281851291656,-0.009497791528701782,-0.010347835719585419
1733861068831540200,4.583540283203125,0.0020175077952444553,-0.007925973273813725,-0.006972726434469223
1733861068841491000,4.593490966796875,-0.00012660305947065353,-0.002139989286661148,-0.00380995636805892
1733861068851442200,4.603442138671875,0.001406645867973566,0.0013505651149898767,0.00141600938513875
1733861068861393000,4.613392822265625,0.005751326680183411,0.007435355335474014,0.0014450378948822618
1733861068871343000,4.623343017578125,0.010740664787590504,0.015745529904961586,0.0029121581465005875
1733861068881294000,4.633294189453125,0.012020846828818321,0.018618812784552574,0.005098347086459398
1733861068891245000,4.6432451171875,0.01148893404752016,0.01873357780277729,0.006511778570711613
1733861068901196000,4.653196044921875,0.008286482654511929,0.01464536041021347,0.005214819218963385
1733861068911146200,4.663146240234375,0.00517663499340415,0.011605072766542435,0.004134472459554672
1733861068921097000,4.673096923828125,0.0031126849353313446,0.006526424549520016,0.003987998701632023
1733861068931048200,4.683048095703125,0.0005233944393694401,0.0068010250106453896,0.0016006120713427663
1733861068940999000,4.6929990234375,0.0033330293372273445,0.0063104708679020405,0.0010991387534886599
1733861068950949000,4.70294921875,0.005331997759640217,0.0077070328406989574,-0.0011778639163821936
1733861068960900000,4.712900146484375,0.0027970499359071255,0.006439389660954475,-0.0037886204663664103
1733861068970851000,4.72285107421875,-0.000058972276747226715,0.005409270990639925,-0.005458039231598377
1733861068980802000,4.732802001953125,-0.00003074272535741329,0.0012281080707907677,-0.0036332409363240004
1733861068990752000,4.742751953125,-0.0017467036377638578,0.0018914829706773162,-0.005584772676229477
1733861069000703000,4.752702880859375,-0.0031467273365706205,0.002346617169678211,-0.0043970029801130295
1733861069010654200,4.762654296875,-0.00705968402326107,0.007172271143645048,-0.005098776891827583
1733861069020605200,4.772605224609375,-0.010639771819114685,0.008666304871439934,-0.0025583875831216574
1733861069030555100,4.78255517578125,-0.013263867236673832,0.009353644214570522,-0.0021021515130996704
1733861069040506000,4.792506103515625,-0.011214298196136951,0.011670860461890697,-0.0002475260989740491
1733861069050457000,4.80245703125,-0.008549395948648453,0.011606446467339993,-0.00025928206741809845
1733861069060408000,4.812407958984375,-0.002415603492408991,0.011968104168772697,-0.0015770141035318375
1733861069070359000,4.822359130859375,0.0014704209752380848,0.014141230843961239,0.00005071121267974377
1733861069080309200,4.832309326171875,0.0010328637436032295,0.012669567950069904,0.004935481585562229
1733861069090260000,4.842260009765625,0.0017132563516497612,0.008462028577923775,0.0069223204627633095
1733861069100211200,4.852211181640625,-0.0005861171521246433,0.006907009519636631,0.0066823698580265045
1733861069110162000,4.862161865234375,-0.0015574563294649124,0.0061592282727360725,0.0074903713539242744
1733861069120112000,4.872112060546875,-0.0008557133842259645,0.008573650382459164,0.009493334218859673
1733861069130063000,4.88206298828125,0.0004194006323814392,0.012692495249211788,0.009318571537733078
1733861069140014000,4.89201416015625,0.003157663159072399,0.013238709419965744,0.012073079124093056
1733861069149965000,4.901965087890625,0.0007605166174471378,0.009771267883479595,0.013721544295549393
1733861069159915300,4.911915283203125,0.003990665078163147,0.007797866128385067,0.014171618968248367
1733861069169866000,4.921865966796875,0.0034936442971229553,0.006407948210835457,0.011921395547688007
1733861069179817200,4.931817138671875,0.005983700510114431,0.0057418919168412685,0.012965088710188866
1733861069189768200,4.941768310546875,0.0068601397797465324,0.005380765534937382,0.010956740006804466
1733861069199718000,4.9517177734375,0.008010358549654484,0.005864129401743412,0.010534629225730896
1733861069209669000,4.961669189453125,0.005560529883950949,0.0014209144283086061,0.00916881114244461
1733861069219620000,4.9716201171875,0.006078514736145735,-0.0006784554570913315,0.011327303014695644
1733861069229571000,4.981571044921875,0.00543851125985384,-0.002122964011505246,0.013518673367798328
1733861069239521000,4.99152099609375,0.005270199850201607,0.00006988272070884705,0.012850219383835793
1733861069249472300,5.00147216796875,0.006421769969165325,0.002075513591989875,0.01489330641925335
1733861069259423000,5.011423095703125,0.007481175474822521,0.004238000139594078,0.013177964836359024
1733861069269374200,5.021374267578125,0.0036864178255200386,0.0027868396136909723,0.014933343976736069
1733861069279325000,5.031324951171875,0.002240321133285761,-0.0021698360797017813,0.01304649468511343
1733861069289275100,5.041275146484375,0.004190906882286072,-0.007184017915278673,0.010702880099415779
1733861069299226000,5.05122607421875,0.007408537901937962,-0.01039978489279747,0.008049573749303818
1733861069309177000,5.061177001953125,0.012785481289029121,-0.009477528743445873,0.006423891521990299
1733861069319128000,5.071128173828125,0.015631334856152534,-0.005943513475358486,0.008022054098546505
1733861069329078300,5.081078369140625,0.018284808844327927,-0.004819412715733051,0.011169823817908764
1733861069339029000,5.091029052734375,0.014446394518017769,-0.008498836308717728,0.01370488665997982
1733861069348980200,5.100980224609375,0.013455286622047424,-0.013544438406825066,0.01749536208808422
1733861069358931000,5.110930908203125,0.009855492040514946,-0.012685302644968033,0.017260737717151642
1733861069368881000,5.120880859375,0.011648816987872124,-0.009540650062263012,0.01767151430249214
1733861069378832100,5.13083203125,0.013997191563248634,-0.0056324610486626625,0.01897939294576645
1733861069388783000,5.140783203125,0.015499712899327278,0.004606321454048157,0.025098510086536407
1733861069398734000,5.150734130859375,0.016378557309508324,0.014892781153321266,0.03041151724755764
1733861069408684000,5.16068408203125,0.01814713515341282,0.023790929466485977,0.031963370740413666
1733861069418635000,5.170635009765625,0.020522408187389374,0.027585932984948158,0.034179653972387314
1733861069428586000,5.1805859375,0.022252073511481285,0.028988072648644447,0.03426327928900719
1733861069438537200,5.190537109375,0.025685954838991165,0.022997291758656502,0.03498739376664162
1733861069448487200,5.200487060546875,0.02653495781123638,0.01755618490278721,0.03433826565742493
1733861069458438100,5.210438232421875,0.02464943937957287,0.0073640001937747,0.03564028441905975
1733861069468389000,5.22038916015625,0.02010222151875496,-0.001659557456150651,0.036783959716558456
1733861069478340000,5.230340087890625,0.01547258347272873,-0.011689554899930954,0.03600897639989853
1733861069488291000,5.240291015625,0.010244698263704777,-0.020786669105291367,0.03358248621225357
1733861069498241300,5.2502412109375,0.006310410797595978,-0.02700461633503437,0.0306391604244709
1733861069508192000,5.26019189453125,0.004894080571830273,-0.026575278490781784,0.025791853666305542
1733861069518143200,5.270143310546875,0.004303923808038235,-0.022829275578260422,0.021773677319288254
1733861069528094000,5.280093994140625,0.00379932951182127,-0.017773298546671867,0.0200289785861969
1733861069538044000,5.2900439453125,0.00191807234659791,-0.011160403490066528,0.01948409527540207
1733861069547995100,5.2999951171875,0.001749449409544468,-0.006777917966246605,0.01786874420940876
1733861069557946000,5.309946044921875,0.002847204450517893,0.0006051640957593918,0.016566725447773933
1733861069567897000,5.31989697265625,0.004172483924776316,0.00669663492590189,0.013989074155688286
1733861069577847000,5.329846923828125,0.0044779484160244465,0.01388610526919365,0.013068418949842453
1733861069587798000,5.339798095703125,0.0017635640688240528,0.014679970219731331,0.012602608650922775
1733861069597749000,5.3497490234375,0.005541791208088398,0.013209639117121696,0.012438025325536728
1733861069607700200,5.3597001953125,0.0034070392139256,0.011915886774659157,0.011192550882697105
1733861069617650000,5.36964990234375,0.003456307575106621,0.008394122123718262,0.010797071270644665
1733861069627601200,5.37960107421875,0.0018797293305397034,0.00440337834879756,0.009759355336427689
1733861069637552000,5.38955224609375,-0.00008168886415660381,0.0008973267395049334,0.008008060045540333
1733861069647503000,5.399503173828125,-0.00014776084572076797,-0.0047104982659220695,0.00831435527652502
1733861069657454000,5.4094541015625,-0.0017938606906682253,-0.005956857465207577,0.006409396417438984
1733861069667404300,5.419404296875,0.0005801529623568058,-0.005792523734271526,0.0057573020458221436
1733861069677355000,5.42935498046875,0.0007359478622674942,-0.006512642838060856,0.006205245852470398
1733861069687306200,5.43930615234375,0.0011286730878055096,-0.0017831570003181696,0.005086694378405809
1733861069697257000,5.449257080078125,-0.00018160208128392696,0.0015785512514412403,0.005360467359423637
1733861069707207200,5.459207275390625,-0.0027645311783999205,0.0049671754240989685,0.005145929753780365
1733861069717158100,5.469158203125,-0.003913152497261763,0.004320293664932251,0.002034292556345463
1733861069727109000,5.479109130859375,-0.008266421034932137,0.00604707095772028,0.0010723040904849768
1733861069737060000,5.48906005859375,-0.011781526729464531,0.009349657222628593,0.00008400494698435068
1733861069747010000,5.499010009765625,-0.013722704723477364,0.012324940413236618,-0.00018124585039913654
1733861069756961000,5.5089609375,-0.011493905447423458,0.011897503398358822,-0.0007532929303124547
1733861069766912000,5.518912109375,-0.011538912542164326,0.010356598533689976,-0.006817310117185116
1733861069776863000,5.528863037109375,-0.009089337661862373,0.009216233156621456,-0.007431435398757458
1733861069786813000,5.53881298828125,-0.006817362271249294,0.010022646747529507,-0.004811656661331654
1733861069796764200,5.54876416015625,-0.006541192531585693,0.008413830772042274,-0.004088342189788818
1733861069806715400,5.55871533203125,-0.006344378460198641,0.0035836573224514723,0.0003970119869336486
1733861069816666400,5.568666259765625,-0.006076730787754059,0.0009487257339060307,0.0009062083554454148
1733861069826616600,5.578616455078125,-0.004356269724667072,0.0011599274585023522,0.0037030577659606934
1733861069836567300,5.5885673828125,-0.0016702052671462297,0.0023626110050827265,0.0028825378976762295
1733861069846518500,5.5985185546875,0.000013100216165184975,0.002307465299963951,0.004125794395804405
1733861069856469500,5.608469482421875,0.0014666533097624779,-0.0005128220655024052,0.0033699888736009598
1733861069866420500,5.61842041015625,-0.0002755208406597376,-0.0032726407516747713,0.0024488570634275675
1733861069876370400,5.628370361328125,0.0023961621336638927,-0.006872169673442841,0.001219009282067418
1733861069886321700,5.63832177734375,-0.0000622989609837532,-0.007428261451423168,-0.0021646188106387854
1733861069896272400,5.6482724609375,0.0037436243146657944,-0.005193869583308697,-0.003858123207464814
1733861069906223600,5.6582236328125,0.006497410126030445,-0.0036300411447882652,-0.0021932092495262623
1733861069916173600,5.668173583984375,0.003981522284448147,0.002445960883051157,-0.004350103437900543
1733861069926124500,5.67812451171875,0.0007167793810367584,-0.0005956296809017658,-0.0016129370778799057
1733861069936075500,5.688075439453125,-0.0021562385372817516,-0.0023764853831380606,-0.0012147945817559958
1733861069946026500,5.698026611328125,-0.003685951931402087,-0.00424309354275465,-0.0008456212235614657
1733861069955976400,5.7079765625,-0.004062522668391466,-0.0015993735287338495,-0.002378270495682955
1733861069965927400,5.717927490234375,-0.004251114092767239,-0.0003652735613286495,-0.0007969730067998171
1733861069975878400,5.72787841796875,-0.0037046335637569427,0.00028799986466765404,-0.0010925838723778725
1733861069985829400,5.737829345703125,-0.00647138524800539,-0.0023370767012238503,-0.0004363220650702715
1733861069995779600,5.747779541015625,-0.007753430865705013,-0.0036106002517044544,-0.003631050232797861
1733861070005730300,5.757730224609375,-0.005850361660122871,-0.0014654297847300768,-0.0029790771659463644
1733861070015681500,5.767681640625,-0.00533024687319994,-0.000459820032119751,-0.002616354962810874
1733861070025632300,5.77763232421875,-0.006412940099835396,-0.002278795000165701,-0.0016113219317048788
1733861070035583500,5.78758349609375,-0.00800178200006485,-0.005461272317916155,-0.0038933847099542618
1733861070045533400,5.797533447265625,-0.00858437642455101,-0.009738544002175331,-0.007938266731798649
1733861070055484400,5.807484375,-0.008149215951561928,-0.010497277602553368,-0.00894254446029663
1733861070065435400,5.817435302734375,-0.003421545960009098,-0.011187829077243805,-0.008428053930401802
1733861070075386600,5.82738671875,-0.004073488060384989,-0.011496756225824356,-0.007461858913302422
1733861070085336300,5.83733642578125,-0.004831349942833185,-0.011924710124731064,-0.005108838900923729
1733861070095287600,5.84728759765625,-0.006628184579312801,-0.009063143283128738,-0.002151931170374155
1733861070105238500,5.857238525390625,-0.007804031018167734,-0.006041001062840223,0.00038313260301947594
1733861070115189500,5.867189453125,-0.00741547578945756,-0.0032087289728224277,0.0020209767390042543
1733861070125139500,5.877139404296875,-0.005864787846803665,0.001089594792574644,0.0008075273944996297
1733861070135090400,5.88709033203125,-0.005224031396210194,0.004820683505386114,0.00003068323712795973
1733861070145041400,5.89704150390625,-0.004165981896221638,0.003282434307038784,-0.003509157570078969
1733861070154992600,5.90699267578125,-0.004755073226988316,0.0005726679228246212,-0.0023733193520456553
1733861070164942600,5.916942626953125,-0.0060375952161848545,-0.001644663978368044,-0.003541654208675027
1733861070174893300,5.926893310546875,-0.004103075247257948,-0.0041118161752820015,-0.0021008842159062624
1733861070184844500,5.936844482421875,-0.002738848328590393,-0.00422104075551033,-0.0030995546840131283
1733861070194795300,5.946795166015625,-0.002319933380931616,-0.004148869309574366,-0.003632985521107912
1733861070204746500,5.95674658203125,-0.0004919036291539669,-0.00511984433978796,-0.0031514037400484085
1733861070214696400,5.966696533203125,-0.00002531777136027813,-0.003516089404001832,-0.00118625711183995
1733861070224647400,5.9766474609375,-0.0014742687344551086,0.0007018472533673048,-0.001649478217586875
1733861070234598400,5.986598388671875,-0.004085764288902283,-0.0021224352531135082,0.00024269765708595514
1733861070244549600,5.996549560546875,-0.006297240499407053,-0.0005447750445455313,0.001796503085643053
1733861070254499300,6.006499267578125,-0.005427451804280281,0.003977006301283836,0.0025565694086253643
1733861070264450600,6.016450439453125,-0.006808480713516474,0.0064950427040457726,-0.0010320722358301282
1733861070274401500,6.026401611328125,-0.005223633721470833,0.011453581973910332,-0.001873098430223763
1733861070284352500,6.0363525390625,-0.003180023515596986,0.010769927874207497,-0.0033967781346291304
1733861070294302500,6.046302490234375,-0.0001546724233776331,0.004461698234081268,-0.0028894462157040834
1733861070304253700,6.056253662109375,-0.00042240717448294163,-0.0015051404479891062,-0.00155788438860327
1733861070314204400,6.066204345703125,-0.0023766348604112864,-0.009873325936496258,-0.004639428108930588
1733861070324155600,6.07615576171875,-0.0004473663866519928,-0.015955429524183273,-0.0013443974312394857
1733861070334105600,6.086105712890625,-0.004575266037136316,-0.017349328845739365,-0.0007196199148893356
1733861070344056300,6.096056396484375,-0.005218977574259043,-0.018829520791769028,-0.0027110998053103685
1733861070354007600,6.106007568359375,-0.003016010858118534,-0.017776239663362503,-0.00463816337287426
1733861070363958300,6.115958251953125,-0.0006146386731415987,-0.018230309709906578,-0.004814464598894119
1733861070373908500,6.125908447265625,0.00015315087512135506,-0.01853018067777157,-0.006029398180544376
1733861070383859500,6.135859375,0.00036146119236946106,-0.020754437893629074,-0.0035058504436165094
1733861070393810400,6.145810546875,0.0028962576761841774,-0.018463054671883583,-0.0015790534671396017
1733861070403761400,6.155761474609375,0.0013702535070478916,-0.013168428093194962,0.0023793517611920834
1733861070413712400,6.16571240234375,0.005464597605168819,-0.007049017120152712,0.0038693903479725122
1733861070423662300,6.175662353515625,0.0018760333769023418,-0.0003876409027725458,0.00403198879212141
1733861070433613600,6.185613525390625,0.00428619422018528,0.004557582549750805,0.0062637170776724815
1733861070443564300,6.195564208984375,0.0050520868971943855,0.010298019275069237,0.0036181053146719933
1733861070453515500,6.205515625,0.003809455782175064,0.009316643700003624,0.001555487047880888
1733861070463465500,6.215465576171875,0.0037812525406479836,0.006536575965583324,-0.0003476387355476618
1733861070473416400,6.22541650390625,0.003857152536511421,-0.0002299835905432701,-0.0015833454672247171
1733861070483367400,6.235367431640625,0.006407325156033039,-0.0017698409501463175,-0.0018428504699841142
1733861070493318700,6.245318603515625,0.005130339413881302,-0.001924038166180253,0.0005364175885915756
1733861070503268600,6.2552685546875,0.004654945805668831,-0.00017487956210970879,-0.0009865531465038657
1733861070513219300,6.26521923828125,0.0031995284371078014,0.000960958655923605,0.0014715443830937147
1733861070523170600,6.275170654296875,0.0014411527663469315,-0.002022020285949111,0.0017228793585672975
1733861070533121500,6.28512158203125,-0.0003114736173301935,-0.0037341665010899305,0.0023383358493447304
1733861070543071500,6.295071533203125,-0.0017903533298522234,-0.00020734802819788456,0.0017759070033207536
1733861070553022500,6.3050224609375,-0.0010188356973230839,0.002296023303642869,0.00013326923362910748
1733861070562973400,6.314973388671875,-0.002083142288029194,0.0021077077835798264,-0.0013114257017150521
1733861070572924400,6.32492431640625,-0.0006863144226372242,0.004369264468550682,-0.003492021933197975
1733861070582875400,6.33487548828125,-0.006522283889353275,0.00238496670499444,-0.003930150531232357
1733861070592825300,6.344825439453125,-0.006753446534276009,0.0036552944220602512,-0.0059616100043058395
1733861070602776600,6.354776611328125,-0.010723978281021118,0.004436126910150051,-0.00492454320192337
1733861070612727300,6.364727294921875,-0.007254412397742271,0.006972521543502808,-0.008956835605204105
1733861070622678500,6.374678466796875,-0.005182733293622732,0.004622283391654491,-0.00959273986518383
1733861070632628500,6.38462841796875,-0.0032340981997549534,0.0008235503919422626,-0.007247027009725571
1733861070642579500,6.394579345703125,-0.0016092518344521523,-0.0051813325844705105,-0.005614838562905788
1733861070652530400,6.404530517578125,-0.00011122389696538448,-0.011529775336384773,-0.0035599437542259693
1733861070662481700,6.414481689453125,0.0011312426067888737,-0.012624049559235573,-0.0026602388825267553
1733861070672431400,6.424431396484375,0.002462557051330805,-0.009402956813573837,0.00047563319094479084
1733861070682382600,6.434382568359375,0.003010867163538933,0.001600686926394701,0.0007411197293549776
1733861070692333600,6.44433349609375,0.0031030122190713882,0.0073200915940105915,0.0021872161887586117
1733861070702284500,6.454284423828125,0.0040273284539580345,0.009349406696856022,0.003096627537161112
1733861070712234500,6.464234375,0.003371391911059618,0.006865742616355419,0.0030500220600515604
1733861070722185500,6.474185546875,0.0026426557451486588,0.0042297206819057465,0.0029953469056636095
1733861070732136400,6.484136474609375,0.004315386991947889,0.002571902936324477,0.002404657658189535
1733861070742087400,6.49408740234375,0.006032123230397701,0.002809740835800767,0.0017445128178223968
1733861070752038400,6.504038330078125,0.005681918002665043,0.0014834866160526872,0.0027714278548955917
1733861070761988400,6.51398828125,0.006292606703937054,0.00024139462038874626,0.0006065128836780787
1733861070771939600,6.523939697265625,0.002182550262659788,0.0030928412452340126,0.0012097188737243414
1733861070781890300,6.533890380859375,0.002265927381813526,0.0038558412343263626,-0.0015374213689938188
1733861070791841500,6.543841552734375,-0.0029280357994139194,0.005718722473829985,-0.00015311036258935928
1733861070801791000,6.553791015625,-0.0011290374677628279,0.002461150521412492,-0.00007398531306535006
1733861070811742000,6.563741943359375,-0.0009423498995602131,-0.001459821593016386,0.0010115192271769047
1733861070821693000,6.57369287109375,-0.0004752448294311762,-0.003668117104098201,-0.0019090216374024749
1733861070831644000,6.583643798828125,0.0013844403438270092,-0.00199432042427361,-0.0029764166101813316
1733861070841593900,6.59359375,0.00009754789061844349,0.001167372683994472,0.00017842533998191357
1733861070851544800,6.603544921875,0.0026459270156919956,0.0007298153359442949,0.0016482239589095116
1733861070861496000,6.61349609375,0.001725571695715189,0.000950332498177886,0.001722021377645433
1733861070871446800,6.62344677734375,0.001964190974831581,0.00271174730733037,0.004815016873180866
1733861070881397000,6.63339697265625,0.0036706854589283466,0.0012493914691731334,0.003326579462736845
1733861070891348000,6.643347900390625,0.004178816452622414,0.0023029381409287453,0.0019688999745994806
1733861070901299000,6.653298828125,0.002502948511391878,-0.0009610180277377367,0.0009046972263604403
1733861070911250000,6.66325,0.0013918778859078884,-0.0033884893637150526,-0.0002441903343424201
1733861070921201000,6.673200927734375,0.003170390147715807,-0.00419807992875576,-0.0006200219504535198
1733861070931150800,6.68315087890625,0.00021747732535004616,-0.004686770029366016,0.00008385162800550461
1733861070941102000,6.69310205078125,0.00017432775348424911,-0.0004952221643179655,-0.000920485588721931
1733861070951052800,6.703052734375,0.002250261604785919,0.0008597942069172859,0.00009817339014261961
1733861070961004000,6.713004150390625,0.004804159514605999,0.00335329701192677,-0.0005967621691524982
1733861070970954000,6.7229541015625,0.0022861408069729805,0.005853738635778427,-0.0010881153866648674
1733861070980904700,6.73290478515625,0.002851719968020916,0.00506994966417551,0.0004944306565448642
1733861070990856000,6.74285595703125,-0.000007716240361332893,0.0030715137254446745,0.0029796925373375416
1733861071000807000,6.752806884765625,0.002147598657757044,0.001717834617011249,0.000588082941249013
1733861071010756900,6.7627568359375,-0.0008953292854130268,0.0012664287351071835,-0.0013099518837407231
1733861071020707800,6.772707763671875,-0.0015253752935677767,-0.00030641909688711166,0.0006016603438183665
1733861071030659000,6.7826591796875,-0.003675078973174095,-0.005863104481250048,-0.002561375964432955
1733861071040609800,6.79260986328125,-0.0029574939981102943,-0.008311389945447445,-0.0046266112476587296
1733861071050560000,6.80256005859375,-0.0009494705591350794,-0.007716173306107521,-0.006088686175644398
1733861071060511000,6.812510986328125,-0.002702791476622224,-0.00639281515032053,-0.008383605629205704
1733861071070462000,6.8224619140625,-0.004326787311583757,-0.002289416966959834,-0.004902588203549385
1733861071080413000,6.832412841796875,-0.00521771889179945,0.004446483217179775,-0.005377356428653002
1733861071090363100,6.842363037109375,-0.00922231376171112,0.011136610060930252,-0.00444791279733181
1733861071100313900,6.85231396484375,-0.009222462773323059,0.016312234103679657,-0.00461245235055685
1733861071110265000,6.86226513671875,-0.009792912751436234,0.01656869612634182,-0.0067312633618712425
1733861071120215800,6.8722158203125,-0.006330776959657669,0.014442434534430504,-0.006661786697804928
1733861071130167000,6.8821669921875,-0.00591532327234745,0.006097685545682907,-0.0067193107679486275
1733861071140117000,6.892116943359375,-0.006216546520590782,0.0008749561384320259,-0.004115448333323002
1733861071150068000,6.90206787109375,-0.006526538636535406,-0.005368025973439217,-0.0037447360809892416
1733861071160019000,6.91201904296875,-0.00903276726603508,-0.006634876132011414,-0.000026314752176404
1733861071169970000,6.921969970703125,-0.009766201488673687,-0.004648690577596426,-0.0019291433272883296
1733861071179920000,6.931919921875,-0.009493332356214523,-0.0039437757804989815,-0.0020874780602753162
1733861071189870800,6.941870849609375,-0.0066951485350728035,-0.0059011997655034065,-0.0056680976413190365
1733861071199821800,6.95182177734375,-0.00639864057302475,-0.005745647940784693,-0.009032651782035828
1733861071209772800,6.961772705078125,-0.004500871989876032,-0.011344945058226585,-0.008856883272528648
1733861071219723000,6.971722900390625,-0.0033979264553636312,-0.013478171080350876,-0.0073877861723303795
1733861071229674000,6.981674072265625,-0.0036008593160659075,-0.013252867385745049,-0.0036923831794410944
1733861071239625000,6.991625,0.0001813312992453575,-0.006413347087800503,-0.004513194318860769
1733861071249576000,7.001575927734375,0.004619222600013018,0.005200432613492012,-0.001412209472618997
1733861071259527000,7.01152685546875,0.005197301506996155,0.016807066276669502,-0.0008431061869487166
1733861071269476900,7.021476806640625,0.004665468819439411,0.022537922486662865,0.0058337049558758736
1733861071279428000,7.031427978515625,0.004440580494701862,0.024568555876612663,0.004794279579073191
1733861071289378800,7.04137890625,0.004394507966935635,0.023141633719205856,0.005461134947836399
1733861071299330000,7.051330078125,0.002679542638361454,0.01655752770602703,0.00698972400277853
1733861071309280000,7.061280029296875,0.0025317370891571045,0.013866668567061424,0.007860311307013035
1733861071319231000,7.07123095703125,0.002748186234384775,0.012900459580123425,0.004086554981768131
1733861071329182000,7.081181884765625,0.0014847824349999428,0.012645861133933067,0.0049070753157138824
1733861071339133000,7.0911328125,0.002287279348820448,0.012083953246474266,0.00669109495356679
1733861071349083000,7.101082763671875,0.005356039851903915,0.007565367501229048,0.00555046321824193
1733861071359033900,7.111033935546875,0.0029449244029819965,0.0025271617341786623,0.0032568692695349455
1733861071368984800,7.12098486328125,0.0003187810070812702,-0.0010795572306960821,-0.0011706359218806028
1733861071378935800,7.130935791015625,-0.0021770894527435303,-0.002986101433634758,-0.0035737294238060713
1733861071388886000,7.140885986328125,-0.003352342639118433,-0.007500692270696163,-0.0075410399585962296
1733861071398836700,7.150836669921875,-0.0035825169179588556,-0.011948401108384132,-0.01094956323504448
1733861071408788000,7.1607880859375,-0.00505870720371604,-0.011740941554307938,-0.011384723708033562
1733861071418739000,7.170739013671875,-0.006945554167032242,-0.009899424389004707,-0.012796689756214619
1733861071428690000,7.18068994140625,-0.00910005159676075,-0.004312644712626934,-0.013689648360013962
1733861071438639900,7.190639892578125,-0.007674757391214371,-0.004190683364868164,-0.01229790411889553
1733861071448591000,7.200591064453125,-0.010413551703095436,-0.0050346385687589645,-0.008664287626743317
1733861071458541800,7.210541748046875,-0.008537903428077698,-0.005399427842348814,-0.0076736994087696075
1733861071468493000,7.2204931640625,-0.004404144361615181,-0.0044452170841395855,-0.005611347034573555
1733861071478443000,7.230443115234375,-0.0006849768105894327,-0.002704089507460594,-0.0019704997539520264
1733861071488394000,7.24039404296875,-0.0010141434613615274,-0.0008896780200302601,0.00026735442224889994
1733861071498345000,7.250344970703125,-0.002101778518408537,-0.0021123350597918034,0.0019059974001720548
1733861071508296000,7.2602958984375,-0.0026822194922715425,-0.003283825935795903,0.003000397700816393
1733861071518246000,7.270245849609375,-0.0011264209169894457,-0.0027615842409431934,0.005484683904796839
1733861071528196900,7.28019677734375,-0.0019235049840062857,-0.0011873897165060043,0.006866332143545151
1733861071538147800,7.29014794921875,0.002811499871313572,0.001003833720460534,0.00999919418245554
1733861071548099000,7.30009912109375,0.007278952281922102,0.005742129869759083,0.013329477049410343
1733861071558049000,7.310049072265625,0.011945076286792755,0.008945646695792675,0.013971298933029175
1733861071567999700,7.319999755859375,0.014648452401161194,0.010944348759949207,0.015547623857855797
1733861071577951000,7.329950927734375,0.013316593132913113,0.01233211811631918,0.014193289913237095
1733861071587902000,7.33990185546875,0.0113722188398242,0.015119914896786213,0.012503514066338539
1733861071597853000,7.34985302734375,0.005334394983947277,0.015393182635307312,0.011127538047730923
1733861071607803000,7.359802978515625,0.0006325840950012207,0.011017074808478355,0.011070013977587223
1733861071617753900,7.36975390625,-0.002964630024507642,0.0019031831761822104,0.011849291622638702
1733861071627704800,7.379704833984375,-0.005980393849313259,-0.0038798709865659475,0.015302347019314766
1733861071637656000,7.389656005859375,-0.004800770431756973,-0.003007124876603484,0.014335551299154758
1733861071647606000,7.39960595703125,-0.0005732688587158918,0.00047788769006729126,0.013789603486657143
1733861071657557000,7.409556884765625,0.0008133547380566597,0.006691288203001022,0.012217841111123562
1733861071667508000,7.419508056640625,0.0008905865252017975,0.0049759456887841225,0.010689985007047653
1733861071677459000,7.429458984375,0.002569196280092001,-0.000837729312479496,0.007554022595286369
1733861071687409000,7.439408935546875,-0.002233814913779497,-0.005378684960305691,0.008392652496695518
1733861071697360100,7.449360107421875,-0.0016023984644562006,-0.007820277474820614,0.007888606749475002
1733861071707310800,7.459310791015625,-0.0033126804046332836,-0.0039882538840174675,0.005956748966127634
1733861071717262000,7.469261962890625,-0.0031027852091938257,0.0006126330699771643,0.0030619786120951176
1733861071727212000,7.4792119140625,-0.003439142368733883,0.0028534166049212217,0.004591964650899172
1733861071737162800,7.489162841796875,-0.005694878287613392,0.005251050461083651,0.003988673444837332
1733861071747114000,7.499114013671875,-0.0030306517146527767,0.004901643842458725,0.005279773846268654
1733861071757064700,7.509064697265625,-0.002066122367978096,0.008259069174528122,0.006960919126868248
1733861071767016000,7.519015869140625,-0.0011859475634992123,0.014186200685799122,0.00979825109243393
1733861071776966000,7.5289658203125,-0.001144607551395893,0.018492817878723145,0.012849483639001846
1733861071786916900,7.538916748046875,-0.0033233396243304014,0.019467268139123917,0.01495231594890356
1733861071796867800,7.548867919921875,-0.002630587201565504,0.017859002575278282,0.014730262570083141
1733861071806819300,7.5588193359375,-0.00471424451097846,0.014646697789430618,0.013888437300920486
1733861071816769500,7.56876953125,-0.00690129678696394,0.012462089769542217,0.013500094413757324
1733861071826720500,7.578720458984375,-0.004438405390828848,0.012259689159691334,0.012042812071740627
1733861071836671500,7.58867138671875,-0.0038769792299717665,0.013532956130802631,0.008485655300319195
1733861071846622500,7.59862255859375,-0.0008905103895813227,0.013360116630792618,0.008014275692403316
1733861071856572700,7.60857275390625,-0.0011447500437498093,0.009003205224871635,0.004630755167454481
1733861071866523400,7.6185234375,-0.005016986280679703,0.004887290298938751,0.003283462021499872
1733861071876474600,7.628474609375,-0.004240506794303656,-0.001368231140077114,0.0030924289021641016
1733861071886425600,7.638425537109375,-0.004477794282138348,-0.0031629353761672974,0.0021728393621742725
1733861071896376600,7.64837646484375,-0.0026654815301299095,-0.0028966108802706003,0.002747044200077653
1733861071906326500,7.658326416015625,-0.0013741147704422474,-0.0004414429422467947,0.005524454638361931
1733861071916277800,7.66827783203125,-0.0016410879325121641,0.0009497548453509808,0.006804000586271286
1733861071926228500,7.678228515625,-0.0032368539832532406,0.0063551729544997215,0.008765419013798237
1733861071936179700,7.6881796875,-0.006075202487409115,0.013269820250570774,0.007508605718612671
1733861071946129700,7.698129638671875,-0.007158043794333935,0.023651355877518654,0.007779715582728386
1733861071956080400,7.708080322265625,-0.005964592099189758,0.03049437142908573,0.010735313408076763
1733861071966031600,7.718031494140625,-0.004194655455648899,0.027286328375339508,0.012422692030668259
1733861071975982600,7.727982666015625,-0.005660021677613258,0.02048884890973568,0.011740843765437603
1733861071985932500,7.7379326171875,-0.003906596451997757,0.01363120973110199,0.01216934621334076
1733861071995883500,7.747883544921875,-0.0002756488975137472,0.007031628396362066,0.00919986329972744
1733861072005834500,7.75783447265625,0.0011877580545842648,0.004083775449544191,0.007951905950903893
1733861072015785500,7.767785400390625,0.0006564701907336712,-0.001446008449420333,0.007110996171832085
1733861072025735700,7.777735595703125,-0.0003110563848167658,-0.006404015235602856,0.006436683237552643
1733861072035686400,7.787686279296875,-0.00440678047016263,-0.011994805186986923,0.004480925388634205
1733861072045637600,7.7976376953125,-0.0026480290107429028,-0.016653474420309067,0.0007607556181028485
1733861072055588600,7.807588623046875,-0.0011140599381178617,-0.014197243377566338,0.000006166053935885429
1733861072065539600,7.81753955078125,0.00007504154928028584,-0.010163353756070137,0.000843730173073709
1733861072075489500,7.827489501953125,0.0008527887985110283,-0.005445530638098717,0.005245328415185213
1733861072085440500,7.8374404296875,0.002565734088420868,-0.001431348267942667,0.005498860962688923
1733861072095391500,7.8473916015625,0.0005678888410329819,0.003668885910883546,0.0026631236542016268
1733861072105342700,7.8573427734375,0.0008267480880022049,0.006625261157751083,0.0026841626968234777
1733861072115292700,7.867292724609375,-0.0003634707536548376,0.008477210998535156,0.0036861062981188297
1733861072125243600,7.87724365234375,-0.001977080013602972,0.007507553324103355,0.005824091844260693
1733861072135194600,7.887194580078125,-0.0018209993140771985,0.009397338144481182,0.00552333053201437
1733861072145145600,7.8971455078125,-0.0024343254044651985,0.010716934688389301,0.004835968837141991
1733861072155095600,7.907095458984375,0.0004897620528936386,0.008679065853357315,0.0025208299048244953
1733861072165046500,7.917046630859375,-0.0011131945066154003,0.007790368981659412,0.0009708701400086284
1733861072174997500,7.92699755859375,-0.003335012821480632,0.0032422381918877363,0.0016044304938986897
1733861072184948500,7.936948486328125,-0.005853298120200634,0.0012384757865220308,0.0017551654018461704
1733861072194898700,7.946898681640625,-0.005546335130929947,0.0007462939247488976,0.0028879386372864246
1733861072204849400,7.956849365234375,-0.0034474979620426893,0.002243523020297289,0.003307119943201542
1733861072214800600,7.966800537109375,-0.0007493754383176565,0.005265168845653534,0.003637519432231784
1733861072224751400,7.97675146484375,-0.0005235392600297928,0.004637461621314287,0.0010265563614666462
1733861072234701600,7.98670166015625,-0.002321939915418625,0.00188109849113971,0.00031578552443534136
1733861072244652500,7.996652587890625,-0.0024002366699278355,0.002329841023311019,-0.0010932928416877985
1733861072254603500,8.006603515625,-0.003111878177151084,0.0014690953539684415,-0.0015435112873092294
1733861072264554500,8.016554443359375,-0.004718563053756952,0.0014754869043827057,-0.00035041512455791235
1733861072274505700,8.026505615234376,-0.002406348939985037,0.0037008393555879593,0.00048341602087020874
1733861072284455400,8.036455322265626,-0.0024476279504597187,0.004621760454028845,0.0015121951000764966
1733861072294406700,8.04640673828125,-0.0016197643708437681,0.0013990364968776703,0.004539156332612038
1733861072304357600,8.056357666015625,-0.002499939175322652,-0.0036817423533648252,0.003177215810865164
1733861072314308600,8.06630859375,0.0006872727535665035,-0.007450862787663937,0.0022994540631771088
1733861072324258600,8.076258544921876,0.001936029177159071,-0.00840161181986332,0.00033297576010227203
1733861072334209500,8.08620947265625,0.003122340887784958,-0.006348873488605022,-0.0004838714376091957
1733861072344160500,8.096160400390625,0.00196200143545866,-0.006102530285716057,0.0000705986749380827
1733861072354111500,8.106111572265625,0.0037830648943781853,-0.004982939921319485,0.0010396643774583936
1733861072364061700,8.116061767578126,0.002237632405012846,-0.004866825416684151,0.002545948140323162
1733861072374012400,8.126012451171874,0.008075852878391743,-0.007198679726570845,0.0005872792098671198
1733861072383963600,8.135963623046875,0.007266518659889698,-0.007003203500062227,-0.0004268523771315813
1733861072393914400,8.145914306640625,0.008013458922505379,-0.005167241208255291,-0.0003822819562628865
1733861072403865600,8.155865478515626,0.0043476177379488945,-0.0017520037945359945,-0.0033226781524717808
1733861072413815600,8.165815673828124,0.0001907655969262123,-0.004417274612933397,-0.004937182180583477
1733861072423766500,8.1757666015625,-0.0009754325728863478,-0.007727849762886763,-0.003931039944291115
1733861072433717500,8.185717529296875,-0.0034439743030816317,-0.008025607094168663,-0.005156888160854578
1733861072443668500,8.19566845703125,0.00031374581158161163,-0.004209829494357109,-0.0053286622278392315
1733861072453618400,8.205618408203126,0.0013462286442518234,-0.0007152368780225515,-0.004313698969781399
1733861072463569700,8.215569580078125,0.0013749906793236732,0.0017359366174787283,-0.004837542772293091
1733861072473520600,8.225520751953125,0.0018107593059539795,-0.001407903851941228,-0.0052453684620559216
1733861072483471600,8.2354716796875,-0.003678281791508198,-0.0034319066908210516,-0.0036472054198384285
1733861072493421600,8.245421630859376,-0.0036401585675776005,-0.002991144312545657,-0.002239371882751584
1733861072503372500,8.25537255859375,-0.002541338326409459,-0.00017138943076133728,-0.0030644189100712538
1733861072513323500,8.265323486328125,-0.0031129182316362858,0.004761301912367344,-0.0020562016870826483
1733861072523274800,8.275274658203125,-0.0003301813267171383,0.006642559077590704,-0.0022980167996138334
1733861072533225500,8.2852255859375,-0.003746812930330634,0.0043351780623197556,-0.004718349315226078
1733861072543175400,8.295175537109374,-0.005683730356395245,-0.0044684335589408875,-0.007599623873829842
1733861072553126700,8.305126708984375,-0.005689328536391258,-0.008780625648796558,-0.009858574718236923
1733861072563077400,8.315077392578125,-0.006699732039123774,-0.008784887380897999,-0.008102485910058022
1733861072573028600,8.325028564453126,-0.0053036147728562355,-0.0076191965490579605,-0.006188984960317612
1733861072582978600,8.334978515625,-0.0024337926879525185,-0.004166673868894577,-0.004144743084907532
1733861072592929500,8.344929443359375,0.00005495082587003708,-0.00005634687840938568,-0.0037975565064698458
1733861072602880500,8.354880615234375,0.0020629744976758957,0.005836163647472858,-0.003928051330149174
1733861072612831500,8.36483154296875,0.0013158870860934258,0.006160251796245575,-0.0003725779242813587
1733861072622781400,8.374781494140626,0.0014509093016386032,0.002151395194232464,0.0013041483471170068
1733861072632732700,8.384732666015625,0.0011284644715487957,-0.0024012615904212,-0.0002923628780990839
1733861072642683400,8.394683349609375,0.0033727106638252735,-0.005141388159245253,-0.0008215329144150019
1733861072652634600,8.404634521484375,0.0032223830930888653,-0.005099879577755928,0.0002556119579821825
1733861072662584600,8.41458447265625,0.004613617900758982,-0.0027259381022304296,-0.0010349559597671032
1733861072672535600,8.42453564453125,0.003611829597502947,-0.004581599496304989,-0.0018274362664669752
1733861072682486500,8.434486572265625,0.0021566785871982574,-0.006406131200492382,-0.003019733587279916
1733861072692437800,8.444437744140625,-0.002292460761964321,-0.010253618471324444,-0.005019819363951683
1733861072702388500,8.454388427734376,-0.004505014978349209,-0.01028797309845686,-0.006585758179426193
1733861072712338400,8.46433837890625,-0.0060928333550691605,-0.007457580417394638,-0.0065091997385025024
1733861072722289700,8.47428955078125,-0.005492024123668671,-0.0038386108353734016,-0.005781624000519514
1733861072732240400,8.484240478515625,-0.003738811006769538,0.0033098647836595774,-0.0028774559032171965
1733861072742191600,8.494191650390626,0.001208809670060873,0.010005317628383636,-0.0034420459996908903
1733861072752141600,8.5041416015625,0.0031958697363734245,0.016833683475852013,-0.001964620314538479
1733861072762092500,8.514092529296875,0.002960978541523218,0.01580330729484558,-0.0017313275020569563
1733861072772043500,8.52404345703125,0.0028434270061552525,0.009737127460539341,-0.0020180786959826946
1733861072781994500,8.533994384765625,0.0012441989965736866,0.002016090787947178,-0.00034907564986497164
1733861072791944400,8.5439443359375,-0.0005259921308606863,-0.004000252112746239,-0.0026544579304754734
1733861072801895700,8.553895751953124,-0.0022170995362102985,-0.01041554007679224,-0.004113071132451296
1733861072811846400,8.563846435546875,-0.0037820579018443823,-0.016546625643968582,-0.003038971219211817
1733861072821797600,8.573797607421875,-0.0035841851495206356,-0.020461738109588623,-0.0018749034497886896
1733861072831747600,8.58374755859375,-0.0024016504175961018,-0.023342788219451904,-0.0032565402798354626
1733861072841698600,8.593698486328124,-0.0003941594623029232,-0.022923607379198074,-0.0028080642223358154
1733861072851649500,8.6036494140625,0.0046187713742256165,-0.02290494740009308,-0.005993685685098171
1733861072861600500,8.6136005859375,0.005563660524785519,-0.01750325784087181,-0.0068842461332678795
1733861072871551500,8.623551513671876,0.007979433052241802,-0.011310603469610214,-0.008122440427541733
1733861072881501400,8.63350146484375,0.006625481881201267,-0.010357990860939026,-0.00672108493745327
1733861072891452700,8.64345263671875,0.003024615813046694,-0.008075663819909096,-0.005922994576394558
1733861072901403600,8.653403564453125,0.0010285764001309872,-0.0049083661288022995,-0.004752535372972488
1733861072911354600,8.663354736328126,0.000999334268271923,0.0001633698120713234,-0.0038492523599416018
1733861072921304600,8.6733046875,0.005473178345710039,0.006211408413946629,-0.0008390815928578377
1733861072931255600,8.683255615234375,0.007909385487437248,0.009829566814005375,-0.0012454180978238583
1733861072941206500,8.69320654296875,0.007639341056346893,0.011207486502826214,-0.001304806675761938
1733861072951157500,8.703157470703125,0.006571686826646328,0.008553382009267807,-0.0010283119045197964
1733861072961107500,8.713107421875,0.005702963098883629,0.003357555018737912,-0.00122272246517241
1733861072971058700,8.72305859375,0.0026915916241705418,-0.003104914678260684,-0.002754791174083948
1733861072981009400,8.733009521484375,0.0019834572449326515,-0.0051845768466591835,-0.0004266557516530156
1733861072990960600,8.742960693359375,0.00405444111675024,-0.006928911432623863,0.0009179579210467637
1733861073000911400,8.752911376953126,0.005078958813101053,-0.004642054904252291,0.0004748079227283597
1733861073010861600,8.762861572265624,0.003691204823553562,-0.0033863696735352278,-0.0006912143435329199
1733861073020812500,8.7728125,0.0029188883490860462,-0.0032047422137111425,-0.0012629949487745762
1733861073030763500,8.782763427734375,0.0016104388050734997,-0.003277722978964448,-0.00033523503225296736
1733861073040714500,8.792714599609376,-0.00013979035429656506,-0.004925953224301338,-0.003081487026065588
1733861073050664700,8.802664794921874,0.0016944324597716331,-0.006628753617405891,-0.00564250722527504
1733861073060615400,8.812615478515625,0.0021104183979332447,-0.006841806694865227,-0.007317901588976383
1733861073070566700,8.822566650390625,0.004287772811949253,-0.006212245207279921,-0.009129529818892479
1733861073080517600,8.832517578125,0.0038922931998968124,-0.0037642675451934338,-0.009178798645734787
1733861073090467300,8.84246728515625,-0.0006619784981012344,-0.006114506628364325,-0.00621949415653944
1733861073100418600,8.85241845703125,-0.003251902759075165,-0.006966985296458006,-0.004354748874902725
1733861073110369500,8.86236962890625,-0.0002886294387280941,-0.007049283478409052,-0.0028292585629969835
1733861073120320500,8.872320556640625,0.004699471406638622,-0.006665255408734083,-0.0007501288782805204
1733861073130270500,8.8822705078125,0.008126946166157722,-0.005391468293964863,0.0017065198626369238
1733861073140221700,8.8922216796875,0.011402102187275887,-0.0055352794006466866,0.001216231961734593
1733861073150172400,8.90217236328125,0.009628722444176674,-0.009016558527946472,-0.0008584607858210802
1733861073160123600,8.91212353515625,0.008288620039820671,-0.014231826178729534,0.0013863176573067904
1733861073170074400,8.922074462890626,0.004961106926202774,-0.017048362642526627,0.001123875263147056
1733861073180024600,8.932024658203124,0.004167485050857067,-0.018305376172065735,0.002435748465359211
1733861073189975600,8.9419755859375,0.006655543576925993,-0.010052534751594067,0.00026009860448539257
1733861073199926500,8.951926513671875,0.008718695491552353,-0.003156278980895877,0.001091004814952612
1733861073209877500,8.96187744140625,0.008996406570076942,0.0010645475704222918,-0.0006147426320239902
1733861073219827700,8.97182763671875,0.007666956167668104,0.0009180738124996424,-0.0011535001685842872
1733861073229778400,8.9817783203125,0.007122155278921127,-0.0024164465721696615,-0.003101907903328538
1733861073239729700,8.991729736328125,0.004456064663827419,-0.0047171516343951225,-0.0015556763391941786
1733861073249680600,9.0016806640625,0.002822228241711855,-0.0058500561863183975,-0.0028064455837011337
1733861073259630300,9.01163037109375,0.0026342091150581837,-0.0066556623205542564,-0.0009944308549165726
1733861073269581600,9.02158154296875,0.005025207996368408,-0.005929416045546532,-0.0011367923580110073
1733861073279532500,9.031532470703125,0.004885924980044365,-0.006049790419638157,-0.00068698450922966
1733861073289483500,9.0414833984375,0.005039227660745382,-0.006422126665711403,0.0008075017249211669
1733861073299434800,9.051434814453126,0.0025576944462955,-0.007577938959002495,-0.0004977135686203837
1733861073309384700,9.061384765625,0.0009452458471059799,-0.005015951581299305,0.0013226369628682733
1733861073319335400,9.07133544921875,-0.0018505408661440015,-0.002094730269163847,-0.0009501047898083925
1733861073329286700,9.08128662109375,0.0010588672012090683,-0.000495527870953083,-0.001072157290764153
1733861073339237400,9.0912373046875,-0.0008532823994755745,0.0015226155519485474,-0.0020748376846313477
1733861073349187600,9.1011875,-0.0006548205856233835,-0.0005556989926844835,-0.002980851335451007
1733861073359138600,9.111138671875,-0.0010894485749304295,0.00004910491406917572,-0.0023179904092103243
1733861073369089500,9.121089599609375,0.0018000495620071888,-0.00222790683619678,-0.004677844233810902
1733861073379040500,9.13104052734375,0.0003164024092257023,-0.0010838129092007875,-0.005836585536599159
1733861073388990700,9.14099072265625,0.0004657050594687462,-0.0012699312064796686,-0.0034787473268806934
1733861073398941400,9.15094140625,0.0003061816096305847,0.00015619141049683094,-0.002509090583771467
1733861073408892700,9.160892578125,0.0005755280144512653,0.0011415246408432722,-0.0002945472951978445
1733861073418843400,9.170843505859375,-0.00091584213078022,0.0056872740387916565,0.00033821980468928814
1733861073428793600,9.180793701171876,-0.0004018328618258238,0.008781074546277523,-0.00003551226109266281
1733861073438744600,9.19074462890625,-0.0028071999549865723,0.009526226669549942,-0.00023365148808807135
1733861073448695600,9.200695556640625,-0.0031025318894535303,0.007319267839193344,0.0002586179180070758
1733861073458646500,9.210646484375,-0.002778425347059965,0.00527848768979311,-0.0017613896634429693
1733861073468597800,9.22059765625,-0.004541392438113689,0.005790891125798225,0.00007686915341764688
1733861073478547500,9.23054736328125,-0.0034854488912969828,0.0062486883252859116,-0.0016840130556374788
1733861073488498400,9.24049853515625,-0.0031774532981216908,0.0017316634766757488,-0.004417911171913147
1733861073498449700,9.25044970703125,-0.0038818595930933952,-0.0026228714268654585,-0.005841903388500214
1733861073508400400,9.260400390625,-0.007899131625890732,-0.008780067786574364,-0.007419631816446781
1733861073518350600,9.2703505859375,-0.0077619790099561214,-0.012624873779714108,-0.007169028744101524
1733861073528301600,9.280301513671875,-0.004220843315124512,-0.010425388813018799,-0.008470892906188965
1733861073538252500,9.29025244140625,-0.0033063136506825686,-0.007985666394233704,-0.007415482774376869
1733861073548203500,9.30020361328125,-0.002650352194905281,0.00022406759671866894,-0.00568046560510993
1733861073558153700,9.31015380859375,-0.002061527455225587,0.012586993165314198,-0.004481777083128691
1733861073568104400,9.3201044921875,-0.003163853194564581,0.021658506244421005,-0.0019452580017969012
1733861073578055700,9.3300556640625,-0.0027065882459282875,0.025462033227086067,0.00041936268098652363
1733861073588006400,9.34000634765625,-0.0015324924606829882,0.025631984695792198,-0.0006429842906072736
1733861073597957600,9.34995751953125,-0.001719180028885603,0.02287295088171959,-0.0008065024157986045
1733861073607907600,9.359907470703124,0.0019337786361575127,0.01566401869058609,-0.005164318718016148
1733861073617858600,9.369858642578125,0.00003201514482498169,0.002457935595884919,-0.007548912428319454
1733861073627809500,9.3798095703125,-0.004844264592975378,-0.011192637495696545,-0.008998498320579529
1733861073637760500,9.389760498046876,-0.009662987664341927,-0.023427732288837433,-0.00849516037851572
1733861073647710500,9.39971044921875,-0.012027404271066189,-0.031789809465408325,-0.008362052962183952
1733861073657661400,9.409661376953125,-0.010231900960206985,-0.035452455282211304,-0.008725574240088463
1733861073667612700,9.41961279296875,-0.005297496449202299,-0.029233943670988083,-0.005679847672581673
1733861073677563600,9.429563720703126,0.002184920944273472,-0.018548810854554176,-0.0054257819429039955
1733861073687513600,9.439513671875,0.0049252319149672985,-0.009350541979074478,-0.0034123933874070644
1733861073697464600,9.449464599609374,0.005892758723348379,-0.0047616492956876755,0.00021403306163847446
1733861073707415600,9.45941552734375,0.005209778435528278,-0.0016174886841326952,-0.0003667545970529318
1733861073717366500,9.469366455078125,0.003693640697747469,0.000718369847163558,0.001420226413756609
1733861073727317500,9.4793173828125,0.0034370766952633858,0.0027862873394042253,0.0037655329797416925
1733861073737267500,9.489267333984374,0.0021291980519890785,0.0074553415179252625,0.0041844481602311134
1733861073747218700,9.49921875,0.003502843901515007,0.009572817012667656,0.0025840383023023605
1733861073757169400,9.50916943359375,0.003925221506506205,0.009827148169279099,-0.00020162819419056177
1733861073767120600,9.51912060546875,0.004175406880676746,0.010553156957030296,-0.0018259005155414343
1733861073777070600,9.529070556640624,0.005453191697597504,0.004286473151296377,-0.0011105756275355816
1733861073787021600,9.539021484375,0.004033031407743692,0.004689095076173544,0.0009132386767305434
1733861073796972500,9.54897265625,0.004662869032472372,0.0013420340837910771,0.0019132556626573205
1733861073806926600,9.558926513671874,0.004871999844908714,-0.00031709042377769947,0.005242638755589724
1733861073816876300,9.568876220703125,0.003361188806593418,-0.0007684964220970869,0.005905766040086746
1733861073826827500,9.57882763671875,0.004225662909448147,0.0002128821797668934,0.005209999158978462
1733861073836778500,9.588778564453126,0.004625136964023113,-0.00004917290061712265,0.005020648241043091
1733861073846729500,9.5987294921875,0.003319061826914549,-0.0015711889136582613,-0.00009160605259239674
1733861073856679400,9.608679443359375,-0.0017177748959511518,-0.0009615912567824125,0.0005965547170490026
1733861073866630400,9.61863037109375,-0.0007234974764287472,0.0005929304752498865,-0.0013293977826833725
1733861073876581400,9.628581298828125,-0.0005919374525547028,-0.0022337487898766994,-0.0010553584434092045
1733861073886532600,9.63853271484375,0.0008747456595301628,-0.0009679319337010384,-0.0017167115584015846
1733861073896483300,9.6484833984375,0.0009698201902210712,0.0007008048705756664,-0.0014048554003238678
1733861073906433300,9.658433349609375,0.000025065382942557335,0.004988730885088444,0.00013140926603227854
1733861073916384500,9.668384521484375,-0.0013102437369525433,0.008655903860926628,0.0033801994286477566
1733861073926335200,9.678335205078126,-0.0022120331414043903,0.010623966343700886,0.005001123063266277
1733861073936286500,9.688286376953124,-0.00008762977086007595,0.009246313013136387,0.003496703691780567
1733861073946236400,9.698236328125,0.0010249908082187176,0.006787133403122425,0.004076008684933186
1733861073956187400,9.7081875,0.0008660000748932362,0.0024674860760569572,0.003208350855857134
1733861073966138400,9.718138427734376,0.0021441299468278885,-0.0020867593120783567,0.002607765607535839
1733861073976089600,9.728089599609374,0.0021454617381095886,-0.009832297451794147,0.006264286115765572
1733861073986039300,9.738039306640625,0.002164581324905157,-0.007398984394967556,0.001964088063687086
1733861073995990500,9.747990478515625,0.004544648341834545,-0.00006756815128028393,0.004732976667582989
1733861074005941500,9.75794140625,0.004428020212799311,0.002181477379053831,0.00619815569370985
1733861074015892500,9.767892578125,0.00565973250195384,0.005340253002941608,0.00577577855437994
1733861074025843500,9.777843505859375,0.004528397228568792,0.002363362815231085,0.005110288038849831
1733861074035793700,9.787793701171875,0.004748906474560499,-0.00034746876917779446,0.0051675462163984776
1733861074045744400,9.797744384765625,0.002976306714117527,0.0017537653911858797,0.0019600349478423595
1733861074055695600,9.807695556640626,0.002759904135018587,-0.000013208016753196716,0.000844689377117902
1733861074065646300,9.817646240234374,0.002826952375471592,-0.0004161619581282139,0.003087816759943962
1733861074075596300,9.82759619140625,0.003375031054019928,-0.0008670350071042776,0.001734398421831429
1733861074085547500,9.837547607421875,0.0008935285732150078,-0.0010017820168286562,-0.0007612236076965928
1733861074095498200,9.847498291015626,0.0007166946306824684,0.0010563090909272432,-0.00011274393182247877
1733861074105449500,9.857449462890624,0.0015322063118219376,-0.000500295776873827,0.003938660025596619
1733861074115399400,9.8673994140625,-0.00029765162616968155,-0.0013972483575344086,0.0050510624423623085
1733861074125350400,9.877350341796875,0.0003257361240684986,0.0004027674440294504,0.007042046170681715
1733861074135301400,9.88730126953125,0.0027406904846429825,0.004526139702647924,0.0057866317220032215
1733861074145252400,9.89725244140625,0.0035097934305667877,0.006708062253892422,0.007567578461021185
1733861074155202300,9.907202392578125,0.0070406123995780945,0.0049011074006557465,0.008685840293765068
1733861074165153500,9.917153564453125,0.007332317531108856,0.002113866154104471,0.006361988373100758
1733861074175104300,9.927104248046875,0.005254519172012806,-0.0028891481924802065,0.006713791750371456
1733861074185055500,9.937055419921874,0.003896396141499281,-0.005910488311201334,0.005201885476708412
1733861074195006500,9.94700634765625,0.00196373974904418,-0.004848686512559652,0.0056831189431250095
1733861074204956400,9.956956298828125,0.0022352226078510284,-0.004591724835336208,0.005802877247333527
1733861074214907400,9.966907470703125,0.0013611731119453907,-0.004561631008982658,0.00303824944421649
1733861074224858600,9.976858642578126,0.0021364069543778896,-0.002996761118993163,0.0022881864570081234
1733861074234809300,9.986809326171874,0.004358015954494476,-0.003872408764436841,0.003536942647770047
1733861074244759300,9.99675927734375,0.0077154505997896194,-0.001594344386830926,0.006104113068431616
1733861074254710500,10.00671044921875,0.008750088512897491,0.0001095461193472147,0.005484928376972675
1733861074264661200,10.0166611328125,0.0066630723886191845,-0.0014017715584486723,0.007839302532374859
1733861074274612500,10.026612548828124,0.0024480875581502914,-0.0026760937180370092,0.006145265884697437
1733861074284562400,10.0365625,0.0000948531087487936,-0.0038175401277840137,0.0064240433275699615
1733861074294513400,10.046513427734375,-0.00019143661484122276,-0.0036162054166197777,0.00680887047201395
1733861074304464400,10.05646435546875,-0.0006915065459907055,-0.0026438680943101645,0.007459328509867191
1733861074314415400,10.066415283203124,0.0007537910714745522,-0.0005942995194345713,0.007216980680823326
1733861074324365300,10.076365234375,0.003928245976567268,-0.00097327446565032,0.007426010444760323
1733861074334316500,10.086316650390625,0.004684849642217159,0.0009242277592420578,0.006274726241827011
1733861074344267300,10.096267333984375,0.004940400365740061,0.0009031558874994516,0.0029207535553723574
1733861074354218500,10.106218505859376,0.0038498356007039547,-0.0047616539523005486,0.0009366985177621245
1733861074364169500,10.11616943359375,0.0007550762966275215,-0.005303843878209591,-0.000025897985324263573
1733861074374119400,10.126119384765625,-0.0019253952195867896,-0.0056372713297605515,-0.0037713677156716585
1733861074384070400,10.1360703125,-0.005721971392631531,-0.004884922411292791,-0.0021151788532733917
1733861074394021600,10.146021728515626,-0.007007479667663574,0.00012980960309505463,-0.00037693348713219166
1733861074403972400,10.155972412109374,-0.008619580417871475,0.009592796675860882,0.001811630092561245
1733861074413922300,10.16592236328125,-0.0031286748126149178,0.021691270172595978,0.003714991267770529
1733861074423873500,10.17587353515625,-0.0035882669035345316,0.029048271477222443,0.0021981666795909405
1733861074433824500,10.185824462890626,-0.0037933303974568844,0.02770417369902134,0.003175813239067793
1733861074443775500,10.195775390625,-0.004972163587808609,0.015219506807625294,0.0068511962890625
1733861074453725400,10.205725341796875,-0.00505312392488122,0.0018509707879275084,0.005865827202796936
1733861074463676400,10.215676513671875,-0.002556850202381611,-0.0084727443754673,0.003553480841219425
1733861074473627400,10.22562744140625,-0.0016923882067203522,-0.015403620898723602,0.0013859339524060488
1733861074483578400,10.235578369140624,-0.0025392407551407814,-0.016653968021273613,0.002036305144429207
1733861074493529300,10.245529296875,-0.002134440466761589,-0.018706731498241425,0.00032309372909367085
1733861074503479600,10.2554794921875,-0.0011498893145471811,-0.0216378103941679,0.0010140077210962772
1733861074513430300,10.26543017578125,-0.0015906423795968294,-0.021377352997660637,0.00049256079364568
1733861074523381500,10.275381591796876,-0.0010674770455807447,-0.02068197727203369,0.001711221062578261
1733861074533332200,10.285332275390624,-0.001117810606956482,-0.017045164480805397,0.0029916688799858093
1733861074543282400,10.295282470703125,-0.0010233630891889334,-0.007855414412915707,0.003401766764000058
1733861074553233400,10.3052333984375,-0.0006036488339304924,0.0005007865838706493,0.006642035208642483
1733861074563184400,10.315184326171876,0.0023209210485219955,0.010150984860956669,0.008700404316186905
1733861074573135400,10.32513525390625,0.001406391616910696,0.015440555289387703,0.01180325262248516
1733861074583085600,10.33508544921875,0.003094176761806011,0.01715034246444702,0.011883371509611607
1733861074593036300,10.345036376953125,0.003112552687525749,0.010547567158937454,0.010509978979825974
1733861074602987500,10.354987548828126,0.0018554376438260078,0.00756906159222126,0.006670892238616943
1733861074612938500,10.3649384765625,0.0030149780213832855,0.005200446583330631,0.004408004228025675
1733861074622889500,10.374889404296875,0.004687139764428139,0.008892906829714775,0.0017167965415865183
1733861074632839400,10.38483935546875,0.0033560916781425476,0.010985620319843292,-0.0017477096989750862
1733861074642790400,10.394790283203125,0.00010469392873346806,0.00995792355388403,-0.0005767253460362554
1733861074652741400,10.404741455078126,-0.0038160118274390697,0.0026459479704499245,0.003434794256463647
1733861074662692400,10.4146923828125,-0.005091906525194645,-0.005121953319758177,0.0029308923985809088
1733861074672642600,10.424642578125,-0.0038777715526521206,-0.008731868118047714,0.0020174281671643257
1733861074682593300,10.43459326171875,-0.002257554791867733,-0.009727638214826584,-0.0007173075573518872
1733861074692544500,10.44454443359375,-0.0018133394187316298,-0.004700123332440853,-0.0014182516606524587
1733861074702495200,10.4544951171875,-0.003818350611254573,0.00094819744117558,-0.0015037758275866508
1733861074712445400,10.464445556640625,-0.005192275159060955,0.0016454131109640002,0.000827821611892432
1733861074722396400,10.474396484375,-0.005325485020875931,0.002150868298485875,-0.0005670791724696755
1733861074732347400,10.484347412109376,-0.002985099097713828,0.002025166992098093,-0.001675220555625856
1733861074742298400,10.49429833984375,-0.006009391508996487,0.006849748082458973,-0.00012798269744962454
1733861074752248600,10.50424853515625,-0.0075841182842850685,0.008704373612999916,0.00352028151974082
1733861074762199300,10.51419921875,-0.005088145844638348,0.009687360376119614,0.006096086464822292
1733861074772150500,10.524150634765626,-0.0019360283622518182,0.007426869589835405,0.005078759044408798
1733861074782101500,10.5341015625,-0.00017380807548761368,0.0031855206470936537,0.004707307554781437
1733861074792052500,10.544052490234375,0.0032028136774897575,0.0022954922169446945,0.006056997459381819
1733861074801998800,10.553998779296874,0.005435537546873093,0.0006664185784757137,0.008615649305284023
1733861074811950000,10.5639501953125,0.006423836573958397,-0.002185826888307929,0.00878236349672079
1733861074821900800,10.57390087890625,0.007924553006887436,-0.0027229797560721636,0.008737590163946152
1733861074831852000,10.58385205078125,0.00914907455444336,-0.006137683987617493,0.009131471626460552
1733861074841802000,10.593802001953126,0.009643085300922394,-0.0012111044488847256,0.004838929977267981
1733861074851753000,10.6037529296875,0.00889953039586544,-0.0006529060192406178,0.003755289828404784
1733861074861704000,10.613703857421875,0.006925043649971485,-0.0038026322145015,0.002614215947687626
1733861074871655000,10.623655029296875,0.006304260343313217,-0.009793679229915142,0.003892266657203436
1733861074881604900,10.63360498046875,0.006067023146897554,-0.01504035945981741,0.0019712653011083603
1733861074891556000,10.64355615234375,0.008594630286097527,-0.013975094072520733,0.0023896479979157448
1733861074901506800,10.6535068359375,0.011053546331822872,-0.007044213358312845,0.0032681350130587816
1733861074911458000,10.6634580078125,0.01290417741984129,0.0009886790066957474,0.0042039696127176285
1733861074921408800,10.67340869140625,0.01029822789132595,0.0070460280403494835,0.0018104418413713574
1733861074931358700,10.683358642578124,0.007891529239714146,0.0020419482607394457,0.00024343794211745262
1733861074941310000,10.69331005859375,0.0033431826159358025,-0.0037967509124428034,-0.0013568000867962837
1733861074951261000,10.703260986328125,-0.001758102560415864,-0.010664244182407856,-0.0034226139541715384
1733861074961212000,10.7132119140625,-0.0019760148134082556,-0.014627575874328613,-0.0030884428415447474
1733861074971161900,10.723161865234376,0.0005257586017251015,-0.01174896489828825,-0.005997946485877037
1733861074981112800,10.73311279296875,-0.0004561096429824829,-0.005413029342889786,-0.005601315759122372
1733861074991063800,10.743063720703125,0.0047759367153048515,-0.005468688905239105,-0.004362679086625576
1733861075001015000,10.75301513671875,0.0037548416294157505,-0.009074085392057896,-0.0030586153734475374
1733861075010965000,10.762965087890626,0.002981991972774267,-0.014797218143939972,-0.003959296271204948
1733861075020916000,10.772916015625,0.0055378214456140995,-0.01623612642288208,-0.004545250907540321
1733861075030867000,10.782866943359375,0.006089362781494856,-0.014462728053331375,-0.003398759989067912
1733861075040818000,10.79281787109375,0.0050462340004742146,-0.009972630068659782,-0.00329407025128603
1733861075050769000,10.802768798828126,0.004833180923014879,-0.0033866327721625566,-0.004897026810795069
1733861075060719000,10.812718994140624,0.0005268240347504616,0.0017905458807945251,-0.00625414215028286
1733861075070669800,10.822669921875,0.0018232506699860096,0.0016288920305669308,-0.006787572987377644
1733861075080621000,10.83262109375,-0.0007853652350604534,-0.002144022611901164,-0.0059912241995334625
1733861075090571800,10.84257177734375,-0.0042123207822442055,-0.006404547952115536,-0.0067238593474030495
1733861075100522000,10.85252197265625,-0.002817727392539382,-0.008013857528567314,-0.009316308423876762
1733861075110473000,10.862472900390625,-0.001809454639442265,-0.0013610143214464188,-0.005543673876672983
1733861075120424000,10.872423828125,0.0034549133852124214,0.007549881935119629,-0.004425077233463526
1733861075130375000,10.882375,0.004877041559666395,0.014994215220212936,-0.0018974709091708064
1733861075140324900,10.892324951171876,0.003709886223077774,0.017241420224308968,-0.0025841023307293653
1733861075150275800,10.90227587890625,0.003502159845083952,0.014772669412195683,-0.0011854104232043028
1733861075160226800,10.912226806640625,0.0013981666415929794,0.005499517545104027,-0.0010201091645285487
1733861075170178000,10.922177978515625,-0.002164876786991954,-0.0025171295274049044,-0.0018470206996425986
1733861075180127700,10.932127685546876,-0.0028359554708003998,-0.009657053276896477,-0.0029649308416992426
1733861075190079000,10.942078857421874,-0.0015576384030282497,-0.012049904093146324,-0.0037473675329238176
1733861075200030000,10.952030029296875,0.0010263645090162754,-0.008935089223086834,-0.0025780252180993557
1733861075209981000,10.96198095703125,0.0033997735008597374,-0.003803977044299245,-0.001448045833967626
1733861075219932000,10.971931884765626,0.0028404039330780506,-0.0016286657191812992,-0.00005401158705353737
1733861075229882000,10.981882080078124,0.0027461284771561623,-0.00313734682276845,0.0007974010077305138
1733861075239832800,10.991832763671875,0.0005443510599434376,-0.007331861183047295,0.000890384369995445
1733861075249784000,11.0017841796875,0.0015877773985266685,-0.002635109471157193,0.0023133112117648125
1733861075259734800,11.01173486328125,0.0037349131889641285,0.005837230011820793,-0.0002557598054409027
1733861075269685000,11.02168505859375,0.006080092862248421,0.01483898051083088,-0.001371357822790742
1733861075279636000,11.031635986328125,0.007797203492373228,0.018980171531438828,-0.001270238310098648
1733861075289587000,11.0415869140625,0.006975352298468351,0.012926006689667702,-0.0041440557688474655
1733861075299538000,11.051537841796875,0.003284248523414135,-0.00013518915511667728,-0.0031255781650543213
1733861075309487900,11.06148779296875,0.0015731672756373882,-0.014428908005356789,-0.0027804323472082615
1733861075319438800,11.07143896484375,-0.0017546606250107288,-0.02395768277347088,-0.002047001849859953
1733861075329389800,11.081389892578125,-0.0029576104134321213,-0.02642536722123623,-0.001383874798193574
1733861075339340800,11.0913408203125,-0.0006574962753802538,-0.022589098662137985,-0.001922095543704927
1733861075349292000,11.1012919921875,-0.0005578941199928522,-0.022157400846481323,-0.0030992128886282444
1733861075359242000,11.111241943359374,-0.0006615470629185438,-0.024124428629875183,0.000581282889470458
1733861075369193000,11.12119287109375,0.0015286365523934364,-0.026053622364997864,0.0002225551288574934
1733861075379144000,11.13114404296875,-0.00002132309600710869,-0.021977920085191727,-0.0005838499637320638
1733861075389095000,11.141094970703126,0.0005227606743574142,-0.018964286893606186,-0.0033418196253478527
1733861075399044900,11.151044921875,0.0017400914803147316,-0.011788932606577873,-0.0029388833791017532
1733861075408995800,11.160995849609375,0.001655935775488615,-0.0073976460844278336,-0.0023101111873984337
1733861075418947000,11.170947021484375,0.0005627768114209175,-0.005061234347522259,-0.004822960123419762
1733861075428897800,11.180897705078126,-0.0016793387476354837,-0.0047190189361572266,-0.002025575377047062
1733861075438848000,11.190847900390626,-0.00012386683374643326,-0.0022859794553369284,-0.0030737556517124176
1733861075448799000,11.200799072265625,-0.0010399941820651293,0.00007384759373962879,-0.0028883996419608593
1733861075458750000,11.21075,-0.00016269367188215256,0.00017852755263447762,-0.0012095508864149451
1733861075468701000,11.220700927734375,0.0035092728212475777,0.0009175546001642942,0.004095199517905712
1733861075478652000,11.23065185546875,0.0022713327780365944,0.001370523008517921,0.00723700737580657
1733861075488601900,11.240601806640624,0.0017474889755249023,-0.0008681302424520254,0.0065413895063102245
1733861075498553000,11.250552978515625,0.0006021596491336823,-0.0014460028614848852,0.0073343440890312195
1733861075508503800,11.26050390625,0.0007739337161183357,-0.004112891852855682,0.006529270671308041
1733861075518455000,11.270455078125,0.0003347848542034626,-0.004687334410846233,0.005843032151460648
1733861075528405000,11.280405029296874,-0.0016716406680643559,-0.007908161729574203,0.0023212681990116835
1733861075538355700,11.290355712890625,-0.006247224286198616,-0.008616297505795956,0.0018753963522613049
1733861075548307000,11.300306884765625,-0.006295427680015564,-0.009313247166574001,-0.0004751095548272133
1733861075558258000,11.3102578125,-0.00738121010363102,-0.0090163080021739,-0.004646002780646086
1733861075568208000,11.320207763671876,-0.00518756452947855,-0.0038329975213855505,-0.006758156232535839
1733861075578158800,11.330158935546875,-0.003447352210059762,-0.0008491652552038431,-0.010065928101539612
1733861075588110000,11.340110107421875,-0.001581275137141347,0.0021982898470014334,-0.009774312376976013
1733861075598060800,11.350060791015625,-0.003321276279166341,0.0008171296212822199,-0.01025647483766079
1733861075608011000,11.360010986328126,-0.006606818176805973,-0.00171766709536314,-0.007427665870636702
1733861075617962000,11.3699619140625,-0.006175559479743242,-0.0018241642974317074,-0.005578290671110153
1733861075627913000,11.379912841796875,-0.002793078776448965,-0.0026595978997647762,-0.0044738780707120895
1733861075637864000,11.389864013671875,0.00152308726683259,-0.00047501223161816597,-0.004697759170085192
1733861075647815000,11.39981494140625,0.0033289766870439053,0.00030209822580218315,-0.0032934746704995632
1733861075657764900,11.409764892578124,0.006137064192444086,0.00046056974679231644,-0.002001371933147311
1733861075667716000,11.419716064453125,0.007177561987191439,-0.0025850210804492235,-0.0010242580901831388
1733861075677666800,11.429666748046875,0.0059247794561088085,-0.004512092564254999,-0.0032530848402529955
1733861075687618000,11.4396181640625,0.005162848625332117,-0.0026723812334239483,-0.0022839608136564493
1733861075697568000,11.449568115234374,0.005968622863292694,0.001223259256221354,-0.0000907151261344552
1733861075707518700,11.459518798828125,0.005174734629690647,0.0023316668812185526,-0.0022308314219117165
1733861075717470000,11.469469970703125,0.007088567595928907,0.002670981688424945,-0.0011578270932659507
1733861075727421000,11.4794208984375,0.004235789645463228,0.003334375098347664,0.0009050575317814946
1733861075737371000,11.489370849609376,0.005696713924407959,0.00018063164316117764,-0.0012039163848385215
1733861075747321900,11.49932177734375,0.003114779479801655,-0.0009112642146646976,-0.00294375978410244
1733861075757272800,11.50927294921875,0.0028190198354423046,-0.0018625089433044195,-0.0069230105727910995
1733861075767223800,11.519223876953125,0.0030318060889840126,-0.0037653374020010233,-0.004687021486461163
1733861075777175000,11.529175048828124,0.0026833955198526382,-0.0010284262243658304,-0.004972090478986502
1733861075787125000,11.539125,0.0003693746402859688,0.0006770619656890631,-0.003831725101917982
1733861075797076000,11.549075927734375,0.0008855080232024193,0.0036733881570398808,-0.002686448860913515
1733861075807027500,11.55902734375,-0.0027470437344163656,0.004087509587407112,-0.0012795008951798081
1733861075816978200,11.568978271484376,-0.0033222618512809277,0.0035399713087826967,-0.0006441032746806741
1733861075826928400,11.578928466796874,-0.001514241797849536,0.003073918167501688,0.00022089143749326468
1733861075836879400,11.58887939453125,-0.0012995719444006681,0.004533335566520691,-0.0005555103998631239
1733861075846830300,11.598830322265625,-0.001426870934665203,0.004035057965666056,-0.0009496582206338644
1733861075856781300,11.60878125,-0.0039006557781249285,0.0036358567886054516,-0.0028543826192617416
1733861075866731500,11.6187314453125,-0.0011448166333138943,0.002997230738401413,-0.003278357908129692
1733861075876682200,11.62868212890625,-0.0004767174832522869,-0.00003320514224469662,-0.005367628298699856
1733861075886633500,11.638633544921875,-0.0010682055726647377,0.000013666460290551186,-0.0009824669687077403
1733861075896584200,11.648584228515626,0.0009414465166628361,-0.001748804235830903,-0.001980594592168927
1733861075906535400,11.658535400390624,0.003996358718723059,-0.0010502568911761045,-0.002520949812605977
1733861075916485400,11.6684853515625,0.004074395634233952,0.003995103761553764,-0.000042553641833364964
1733861075926436000,11.67843603515625,0.0033241831697523594,0.005158105865120888,-0.0010223306016996503
1733861075936387300,11.68838720703125,0.002127272542566061,0.004361592233181,-0.00203699991106987
1733861075946338300,11.69833837890625,-0.0017891721799969673,0.0035546545404940844,-0.0018564376514405012
1733861075956288300,11.708288330078124,-0.003745945170521736,0.002156732138246298,-0.0008723679929971695
1733861075966239200,11.7182392578125,-0.0025001184549182653,0.0003130256664007902,0.000017660553567111492
1733861075976190200,11.728190185546875,0.0006783707067370415,0.000951120862737298,-0.0003628465346992016
1733861075986141200,11.73814111328125,0.001646962482482195,0.0013298222329467535,0.0006933631375432014
1733861075996091400,11.74809130859375,0.0027545266784727573,0.0028885584324598312,-0.0011459598317742348
1733861076006042400,11.75804248046875,0.0042554838582873344,0.006382891908288002,-0.0010250522755086422
1733861076015993300,11.767993408203125,0.001473267562687397,0.0033724510576575994,-0.0013854947173967957
1733861076025944300,11.7779443359375,0.000669791828840971,-0.0005607716739177704,0.0010220028925687075
